﻿key_resp.keys,key_resp.rt,trial_para,tar_shape,dis_color_condi,tar_line,cor_resp,dis_loc,tar_loc,resp.keys,resp.corr,trials.thisRepN,trials.thisTrialN,trials.thisN,trials.thisIndex,trials.ran,participant,date,expName,psychopyVersion,OS,frameRate,resp.rt,key_resp_2.keys,key_resp_2.rt,trials_2.thisRepN,trials_2.thisTrialN,trials_2.thisN,trials_2.thisIndex,trials_2.ran,block_num,key_resp_3.keys,key_resp_3.rt,trials_3.thisRepN,trials_3.thisTrialN,trials_3.thisN,trials_3.thisIndex,trials_3.ran
space,34.4963,"[""diamond"",""no_dis"",""hori"",""left"",[99999,99999],[0,-150]]",diamond,no_dis,hori,left,"[99999,99999]","[0,-150]",,0,0,0,0,0,1,Arya,2025-03-17_12h11.36.680,SL_base,2021.2.3,Win32,59.88023952,,,,,,,,,,,,,,,,
,,"[""diamond"",""red"",""vert"",""up"",[106,-106],[0,150]]",diamond,red,vert,up,"[106,-106]","[0,150]",up,1,1,0,1,0,1,Arya,2025-03-17_12h11.36.680,SL_base,2021.2.3,Win32,59.88023952,1.4789,,,,,,,,,,,,,,,
,,"[""diamond"",""no_dis"",""hori"",""left"",[99999,99999],[106,106]]",diamond,no_dis,hori,left,"[99999,99999]","[106,106]",,0,2,0,2,0,1,Arya,2025-03-17_12h11.36.680,SL_base,2021.2.3,Win32,59.88023952,,,,,,,,,,,,,,,,
,,"[""diamond"",""no_dis"",""hori"",""left"",[99999,99999],[106,-106]]",diamond,no_dis,hori,left,"[99999,99999]","[106,-106]",,0,3,0,3,0,1,Arya,2025-03-17_12h11.36.680,SL_base,2021.2.3,Win32,59.88023952,,,,,,,,,,,,,,,,
,,"[""circle"",""no_dis"",""hori"",""left"",[99999,99999],[150,0]]",circle,no_dis,hori,left,"[99999,99999]","[150,0]",up,0,4,0,4,0,1,Arya,2025-03-17_12h11.36.680,SL_base,2021.2.3,Win32,59.88023952,1.3242,,,,,,,,,,,,,,,
,,"[""circle"",""green"",""vert"",""up"",[-106,106],[-150,0]]",circle,green,vert,up,"[-106,106]","[-150,0]",,0,5,0,5,0,1,Arya,2025-03-17_12h11.36.680,SL_base,2021.2.3,Win32,59.88023952,,,,,,,,,,,,,,,,
,,"[""diamond"",""red"",""vert"",""up"",[-106,-106],[150,0]]",diamond,red,vert,up,"[-106,-106]","[150,0]",,0,6,0,6,0,1,Arya,2025-03-17_12h11.36.680,SL_base,2021.2.3,Win32,59.88023952,,,,,,,,,,,,,,,,
,,"[""diamond"",""green"",""hori"",""left"",[-106,-106],[106,106]]",diamond,green,hori,left,"[-106,-106]","[106,106]",,0,7,0,7,0,1,Arya,2025-03-17_12h11.36.680,SL_base,2021.2.3,Win32,59.88023952,,,,,,,,,,,,,,,,
,,"[""circle"",""red"",""vert"",""up"",[106,-106],[150,0]]",circle,red,vert,up,"[106,-106]","[150,0]",up,1,8,0,8,0,1,Arya,2025-03-17_12h11.36.680,SL_base,2021.2.3,Win32,59.88023952,1.5611,,,,,,,,,,,,,,,
,,"[""circle"",""no_dis"",""hori"",""left"",[99999,99999],[-106,106]]",circle,no_dis,hori,left,"[99999,99999]","[-106,106]",left,1,9,0,9,0,1,Arya,2025-03-17_12h11.36.680,SL_base,2021.2.3,Win32,59.88023952,1.4305,,,,,,,,,,,,,,,
,,"[""diamond"",""no_dis"",""hori"",""left"",[99999,99999],[0,-150]]",diamond,no_dis,hori,left,"[99999,99999]","[0,-150]",left,1,,,,,,Arya,2025-03-17_12h11.36.680,SL_base,2021.2.3,Win32,59.88023952,1.2974,space,5.8438,0,0,0,0,1,,,,,,,,
,,"[""diamond"",""red"",""vert"",""up"",[106,-106],[0,150]]",diamond,red,vert,up,"[106,-106]","[0,150]",up,1,,,,,,Arya,2025-03-17_12h11.36.680,SL_base,2021.2.3,Win32,59.88023952,1.2361,,,1,0,1,0,1,,,,,,,,
,,"[""diamond"",""no_dis"",""hori"",""left"",[99999,99999],[106,106]]",diamond,no_dis,hori,left,"[99999,99999]","[106,106]",left,1,,,,,,Arya,2025-03-17_12h11.36.680,SL_base,2021.2.3,Win32,59.88023952,1.0501,,,2,0,2,0,1,,,,,,,,
,,"[""diamond"",""no_dis"",""hori"",""left"",[99999,99999],[106,-106]]",diamond,no_dis,hori,left,"[99999,99999]","[106,-106]",left,1,,,,,,Arya,2025-03-17_12h11.36.680,SL_base,2021.2.3,Win32,59.88023952,1.3102,,,3,0,3,0,1,,,,,,,,
,,"[""circle"",""no_dis"",""hori"",""left"",[99999,99999],[150,0]]",circle,no_dis,hori,left,"[99999,99999]","[150,0]",left,1,,,,,,Arya,2025-03-17_12h11.36.680,SL_base,2021.2.3,Win32,59.88023952,1.1149,,,4,0,4,0,1,,,,,,,,
,,"[""circle"",""green"",""vert"",""up"",[-106,106],[-150,0]]",circle,green,vert,up,"[-106,106]","[-150,0]",left,0,,,,,,Arya,2025-03-17_12h11.36.680,SL_base,2021.2.3,Win32,59.88023952,1.4315,,,5,0,5,0,1,,,,,,,,
,,"[""diamond"",""red"",""vert"",""up"",[-106,-106],[150,0]]",diamond,red,vert,up,"[-106,-106]","[150,0]",up,1,,,,,,Arya,2025-03-17_12h11.36.680,SL_base,2021.2.3,Win32,59.88023952,1.1891,,,6,0,6,0,1,,,,,,,,
,,"[""diamond"",""green"",""hori"",""left"",[-106,-106],[106,106]]",diamond,green,hori,left,"[-106,-106]","[106,106]",up,0,,,,,,Arya,2025-03-17_12h11.36.680,SL_base,2021.2.3,Win32,59.88023952,1.4344,,,7,0,7,0,1,,,,,,,,
,,"[""circle"",""red"",""vert"",""up"",[106,-106],[150,0]]",circle,red,vert,up,"[106,-106]","[150,0]",up,1,,,,,,Arya,2025-03-17_12h11.36.680,SL_base,2021.2.3,Win32,59.88023952,1.5129,,,8,0,8,0,1,,,,,,,,
,,"[""circle"",""no_dis"",""hori"",""left"",[99999,99999],[-106,106]]",circle,no_dis,hori,left,"[99999,99999]","[-106,106]",left,1,,,,,,Arya,2025-03-17_12h11.36.680,SL_base,2021.2.3,Win32,59.88023952,0.9479,,,9,0,9,0,1,,,,,,,,
,,"[""diamond"",""no_dis"",""hori"",""left"",[99999,99999],[-106,-106]]",diamond,no_dis,hori,left,"[99999,99999]","[-106,-106]",left,1,,,,,,Arya,2025-03-17_12h11.36.680,SL_base,2021.2.3,Win32,59.88023952,1.0695,,,10,0,10,0,1,,,,,,,,
,,"[""diamond"",""no_dis"",""vert"",""up"",[99999,99999],[106,106]]",diamond,no_dis,vert,up,"[99999,99999]","[106,106]",up,1,,,,,,Arya,2025-03-17_12h11.36.680,SL_base,2021.2.3,Win32,59.88023952,0.8951,,,11,0,11,0,1,,,,,,,,
,,"[""diamond"",""red"",""hori"",""left"",[106,-106],[150,0]]",diamond,red,hori,left,"[106,-106]","[150,0]",left,1,,,,,,Arya,2025-03-17_12h11.36.680,SL_base,2021.2.3,Win32,59.88023952,1.2014,,,12,0,12,0,1,,,,,,,,
,,"[""circle"",""no_dis"",""vert"",""up"",[99999,99999],[-150,0]]",circle,no_dis,vert,up,"[99999,99999]","[-150,0]",up,1,,,,,,Arya,2025-03-17_12h11.36.680,SL_base,2021.2.3,Win32,59.88023952,1.1468,,,13,0,13,0,1,,,,,,,,
,,"[""circle"",""red"",""hori"",""left"",[-150,0],[-106,-106]]",circle,red,hori,left,"[-150,0]","[-106,-106]",left,1,,,,,,Arya,2025-03-17_12h11.36.680,SL_base,2021.2.3,Win32,59.88023952,1.3841,,,14,0,14,0,1,,,,,,,,
,,"[""circle"",""no_dis"",""vert"",""up"",[99999,99999],[-106,106]]",circle,no_dis,vert,up,"[99999,99999]","[-106,106]",up,1,,,,,,Arya,2025-03-17_12h11.36.680,SL_base,2021.2.3,Win32,59.88023952,1.1323,,,15,0,15,0,1,,,,,,,,
,,"[""diamond"",""no_dis"",""vert"",""up"",[99999,99999],[-106,-106]]",diamond,no_dis,vert,up,"[99999,99999]","[-106,-106]",left,0,,,,,,Arya,2025-03-17_12h11.36.680,SL_base,2021.2.3,Win32,59.88023952,1.4713,,,16,0,16,0,1,,,,,,,,
,,"[""circle"",""red"",""hori"",""left"",[106,-106],[0,150]]",circle,red,hori,left,"[106,-106]","[0,150]",left,1,,,,,,Arya,2025-03-17_12h11.36.680,SL_base,2021.2.3,Win32,59.88023952,1.307,,,17,0,17,0,1,,,,,,,,
,,"[""diamond"",""green"",""hori"",""left"",[0,-150],[-106,-106]]",diamond,green,hori,left,"[0,-150]","[-106,-106]",left,1,,,,,,Arya,2025-03-17_12h11.36.680,SL_base,2021.2.3,Win32,59.88023952,1.2795,,,18,0,18,0,1,,,,,,,,
,,"[""diamond"",""red"",""vert"",""up"",[0,-150],[106,-106]]",diamond,red,vert,up,"[0,-150]","[106,-106]",up,1,,,,,,Arya,2025-03-17_12h11.36.680,SL_base,2021.2.3,Win32,59.88023952,1.1468,,,19,0,19,0,1,,,,,,,,
,,"[""circle"",""green"",""vert"",""up"",[106,-106],[-106,-106]]",circle,green,vert,up,"[106,-106]","[-106,-106]",up,1,,,,,,Arya,2025-03-17_12h11.36.680,SL_base,2021.2.3,Win32,59.88023952,1.2838,,,20,0,20,0,1,,,,,,,,
,,"[""circle"",""green"",""hori"",""left"",[106,106],[-106,-106]]",circle,green,hori,left,"[106,106]","[-106,-106]",left,1,,,,,,Arya,2025-03-17_12h11.36.680,SL_base,2021.2.3,Win32,59.88023952,0.8677,,,21,0,21,0,1,,,,,,,,
,,"[""diamond"",""red"",""hori"",""left"",[106,106],[-106,-106]]",diamond,red,hori,left,"[106,106]","[-106,-106]",left,1,,,,,,Arya,2025-03-17_12h11.36.680,SL_base,2021.2.3,Win32,59.88023952,1.3985,,,22,0,22,0,1,,,,,,,,
,,"[""circle"",""red"",""vert"",""up"",[-106,-106],[106,-106]]",circle,red,vert,up,"[-106,-106]","[106,-106]",up,1,,,,,,Arya,2025-03-17_12h11.36.680,SL_base,2021.2.3,Win32,59.88023952,0.9484,,,23,0,23,0,1,,,,,,,,
,,"[""circle"",""no_dis"",""vert"",""up"",[99999,99999],[0,150]]",circle,no_dis,vert,up,"[99999,99999]","[0,150]",up,1,,,,,,Arya,2025-03-17_12h11.36.680,SL_base,2021.2.3,Win32,59.88023952,0.8488,,,24,0,24,0,1,,,,,,,,
,,"[""diamond"",""green"",""hori"",""left"",[-106,-106],[-106,106]]",diamond,green,hori,left,"[-106,-106]","[-106,106]",left,1,,,,,,Arya,2025-03-17_12h11.36.680,SL_base,2021.2.3,Win32,59.88023952,1.0543,,,25,0,25,0,1,,,,,,,,
,,"[""diamond"",""red"",""hori"",""left"",[0,150],[106,-106]]",diamond,red,hori,left,"[0,150]","[106,-106]",left,1,,,,,,Arya,2025-03-17_12h11.36.680,SL_base,2021.2.3,Win32,59.88023952,1.3525,,,26,0,26,0,1,,,,,,,,
,,"[""circle"",""green"",""hori"",""left"",[106,-106],[150,0]]",circle,green,hori,left,"[106,-106]","[150,0]",left,1,,,,,,Arya,2025-03-17_12h11.36.680,SL_base,2021.2.3,Win32,59.88023952,1.373,,,27,0,27,0,1,,,,,,,,
,,"[""diamond"",""no_dis"",""vert"",""up"",[99999,99999],[0,-150]]",diamond,no_dis,vert,up,"[99999,99999]","[0,-150]",up,1,,,,,,Arya,2025-03-17_12h11.36.680,SL_base,2021.2.3,Win32,59.88023952,1.0365,,,28,0,28,0,1,,,,,,,,
,,"[""circle"",""green"",""hori"",""left"",[-106,106],[106,-106]]",circle,green,hori,left,"[-106,106]","[106,-106]",left,1,,,,,,Arya,2025-03-17_12h11.36.680,SL_base,2021.2.3,Win32,59.88023952,1.1808,,,29,0,29,0,1,,,,,,,,
,,"[""diamond"",""no_dis"",""hori"",""left"",[99999,99999],[106,-106]]",diamond,no_dis,hori,left,"[99999,99999]","[106,-106]",left,1,,,,,,Arya,2025-03-17_12h11.36.680,SL_base,2021.2.3,Win32,59.88023952,1.2143,,,30,0,30,0,1,,,,,,,,
,,"[""diamond"",""green"",""vert"",""up"",[-106,106],[106,106]]",diamond,green,vert,up,"[-106,106]","[106,106]",up,1,,,,,,Arya,2025-03-17_12h11.36.680,SL_base,2021.2.3,Win32,59.88023952,1.155,,,31,0,31,0,1,,,,,,,,
,,"[""circle"",""red"",""vert"",""up"",[-106,-106],[0,-150]]",circle,red,vert,up,"[-106,-106]","[0,-150]",up,1,,,,,,Arya,2025-03-17_12h11.36.680,SL_base,2021.2.3,Win32,59.88023952,1.3857,,,32,0,32,0,1,,,,,,,,
,,"[""circle"",""no_dis"",""hori"",""left"",[99999,99999],[0,150]]",circle,no_dis,hori,left,"[99999,99999]","[0,150]",left,1,,,,,,Arya,2025-03-17_12h11.36.680,SL_base,2021.2.3,Win32,59.88023952,1.5363,,,33,0,33,0,1,,,,,,,,
,,"[""circle"",""green"",""hori"",""left"",[-106,-106],[-150,0]]",circle,green,hori,left,"[-106,-106]","[-150,0]",left,1,,,,,,Arya,2025-03-17_12h11.36.680,SL_base,2021.2.3,Win32,59.88023952,0.8744,,,34,0,34,0,1,,,,,,,,
,,"[""circle"",""green"",""vert"",""up"",[0,150],[150,0]]",circle,green,vert,up,"[0,150]","[150,0]",up,1,,,,,,Arya,2025-03-17_12h11.36.680,SL_base,2021.2.3,Win32,59.88023952,1.0347,,,35,0,35,0,1,,,,,,,,
,,"[""circle"",""green"",""hori"",""left"",[106,-106],[0,-150]]",circle,green,hori,left,"[106,-106]","[0,-150]",left,1,,,,,,Arya,2025-03-17_12h11.36.680,SL_base,2021.2.3,Win32,59.88023952,1.132,,,36,0,36,0,1,,,,,,,,
,,"[""diamond"",""red"",""hori"",""left"",[-150,0],[-106,-106]]",diamond,red,hori,left,"[-150,0]","[-106,-106]",left,1,,,,,,Arya,2025-03-17_12h11.36.680,SL_base,2021.2.3,Win32,59.88023952,0.8718,,,37,0,37,0,1,,,,,,,,
,,"[""diamond"",""red"",""vert"",""up"",[0,150],[0,-150]]",diamond,red,vert,up,"[0,150]","[0,-150]",up,1,,,,,,Arya,2025-03-17_12h11.36.680,SL_base,2021.2.3,Win32,59.88023952,1.1386,,,38,0,38,0,1,,,,,,,,
,,"[""circle"",""no_dis"",""hori"",""left"",[99999,99999],[0,150]]",circle,no_dis,hori,left,"[99999,99999]","[0,150]",left,1,,,,,,Arya,2025-03-17_12h11.36.680,SL_base,2021.2.3,Win32,59.88023952,0.9198,,,39,0,39,0,1,,,,,,,,
,,"[""circle"",""no_dis"",""hori"",""left"",[99999,99999],[106,106]]",circle,no_dis,hori,left,"[99999,99999]","[106,106]",up,0,,,,,,Arya,2025-03-17_12h11.36.680,SL_base,2021.2.3,Win32,59.88023952,1.2507,,,40,0,40,0,1,,,,,,,,
,,"[""circle"",""red"",""hori"",""left"",[-150,0],[-106,106]]",circle,red,hori,left,"[-150,0]","[-106,106]",left,1,,,,,,Arya,2025-03-17_12h11.36.680,SL_base,2021.2.3,Win32,59.88023952,0.9204,,,41,0,41,0,1,,,,,,,,
,,"[""diamond"",""no_dis"",""vert"",""up"",[99999,99999],[-150,0]]",diamond,no_dis,vert,up,"[99999,99999]","[-150,0]",up,1,,,,,,Arya,2025-03-17_12h11.36.680,SL_base,2021.2.3,Win32,59.88023952,1.3212,,,42,0,42,0,1,,,,,,,,
,,"[""circle"",""green"",""hori"",""left"",[106,106],[0,150]]",circle,green,hori,left,"[106,106]","[0,150]",left,1,,,,,,Arya,2025-03-17_12h11.36.680,SL_base,2021.2.3,Win32,59.88023952,1.3873,,,43,0,43,0,1,,,,,,,,
,,"[""diamond"",""red"",""vert"",""up"",[106,106],[150,0]]",diamond,red,vert,up,"[106,106]","[150,0]",up,1,,,,,,Arya,2025-03-17_12h11.36.680,SL_base,2021.2.3,Win32,59.88023952,1.1636,,,44,0,44,0,1,,,,,,,,
,,"[""diamond"",""no_dis"",""hori"",""left"",[99999,99999],[106,106]]",diamond,no_dis,hori,left,"[99999,99999]","[106,106]",left,1,,,,,,Arya,2025-03-17_12h11.36.680,SL_base,2021.2.3,Win32,59.88023952,0.7885,,,45,0,45,0,1,,,,,,,,
,,"[""diamond"",""green"",""vert"",""up"",[-106,-106],[0,-150]]",diamond,green,vert,up,"[-106,-106]","[0,-150]",up,1,,,,,,Arya,2025-03-17_12h11.36.680,SL_base,2021.2.3,Win32,59.88023952,1.3773,,,46,0,46,0,1,,,,,,,,
,,"[""diamond"",""red"",""hori"",""left"",[150,0],[0,150]]",diamond,red,hori,left,"[150,0]","[0,150]",left,1,,,,,,Arya,2025-03-17_12h11.36.680,SL_base,2021.2.3,Win32,59.88023952,0.787,,,47,0,47,0,1,,,,,,,,
,,"[""circle"",""green"",""vert"",""up"",[-106,106],[-106,-106]]",circle,green,vert,up,"[-106,106]","[-106,-106]",up,1,,,,,,Arya,2025-03-17_12h11.36.680,SL_base,2021.2.3,Win32,59.88023952,1.1356,,,48,0,48,0,1,,,,,,,,
,,"[""circle"",""no_dis"",""hori"",""left"",[99999,99999],[106,-106]]",circle,no_dis,hori,left,"[99999,99999]","[106,-106]",left,1,,,,,,Arya,2025-03-17_12h11.36.680,SL_base,2021.2.3,Win32,59.88023952,0.8241,,,49,0,49,0,1,,,,,,,,
,,"[""circle"",""no_dis"",""hori"",""left"",[99999,99999],[150,0]]",circle,no_dis,hori,left,"[99999,99999]","[150,0]",left,1,,,,,,Arya,2025-03-17_12h11.36.680,SL_base,2021.2.3,Win32,59.88023952,0.9572,,,50,0,50,0,1,,,,,,,,
,,"[""circle"",""no_dis"",""vert"",""up"",[99999,99999],[-150,0]]",circle,no_dis,vert,up,"[99999,99999]","[-150,0]",up,1,,,,,,Arya,2025-03-17_12h11.36.680,SL_base,2021.2.3,Win32,59.88023952,1.0709,,,51,0,51,0,1,,,,,,,,
,,"[""diamond"",""green"",""hori"",""left"",[0,-150],[150,0]]",diamond,green,hori,left,"[0,-150]","[150,0]",left,1,,,,,,Arya,2025-03-17_12h11.36.680,SL_base,2021.2.3,Win32,59.88023952,0.7315,,,52,0,52,0,1,,,,,,,,
,,"[""diamond"",""green"",""vert"",""up"",[106,-106],[-106,-106]]",diamond,green,vert,up,"[106,-106]","[-106,-106]",left,0,,,,,,Arya,2025-03-17_12h11.36.680,SL_base,2021.2.3,Win32,59.88023952,1.3483,,,53,0,53,0,1,,,,,,,,
,,"[""diamond"",""red"",""vert"",""up"",[106,106],[106,-106]]",diamond,red,vert,up,"[106,106]","[106,-106]",up,1,,,,,,Arya,2025-03-17_12h11.36.680,SL_base,2021.2.3,Win32,59.88023952,1.1148,,,54,0,54,0,1,,,,,,,,
,,"[""circle"",""red"",""hori"",""left"",[106,-106],[-106,-106]]",circle,red,hori,left,"[106,-106]","[-106,-106]",left,1,,,,,,Arya,2025-03-17_12h11.36.680,SL_base,2021.2.3,Win32,59.88023952,0.9232,,,55,0,55,0,1,,,,,,,,
,,"[""circle"",""green"",""vert"",""up"",[-106,106],[0,150]]",circle,green,vert,up,"[-106,106]","[0,150]",left,0,,,,,,Arya,2025-03-17_12h11.36.680,SL_base,2021.2.3,Win32,59.88023952,1.3832,,,56,0,56,0,1,,,,,,,,
,,"[""diamond"",""green"",""vert"",""up"",[150,0],[-106,106]]",diamond,green,vert,up,"[150,0]","[-106,106]",up,1,,,,,,Arya,2025-03-17_12h11.36.680,SL_base,2021.2.3,Win32,59.88023952,1.5166,,,57,0,57,0,1,,,,,,,,
,,"[""diamond"",""red"",""vert"",""up"",[106,-106],[-106,-106]]",diamond,red,vert,up,"[106,-106]","[-106,-106]",up,1,,,,,,Arya,2025-03-17_12h11.36.680,SL_base,2021.2.3,Win32,59.88023952,1.0645,,,58,0,58,0,1,,,,,,,,
,,"[""diamond"",""no_dis"",""vert"",""up"",[99999,99999],[0,-150]]",diamond,no_dis,vert,up,"[99999,99999]","[0,-150]",up,1,,,,,,Arya,2025-03-17_12h11.36.680,SL_base,2021.2.3,Win32,59.88023952,0.8624,,,59,0,59,0,1,,,,,,,,
,,"[""circle"",""no_dis"",""vert"",""up"",[99999,99999],[106,-106]]",circle,no_dis,vert,up,"[99999,99999]","[106,-106]",left,0,,,,,,Arya,2025-03-17_12h11.36.680,SL_base,2021.2.3,Win32,59.88023952,1.0841,,,60,0,60,0,1,,,,,,,,
,,"[""circle"",""green"",""vert"",""up"",[-106,-106],[-150,0]]",circle,green,vert,up,"[-106,-106]","[-150,0]",up,1,,,,,,Arya,2025-03-17_12h11.36.680,SL_base,2021.2.3,Win32,59.88023952,1.2349,,,61,0,61,0,1,,,,,,,,
,,"[""circle"",""no_dis"",""hori"",""left"",[99999,99999],[-106,-106]]",circle,no_dis,hori,left,"[99999,99999]","[-106,-106]",left,1,,,,,,Arya,2025-03-17_12h11.36.680,SL_base,2021.2.3,Win32,59.88023952,0.8149,,,62,0,62,0,1,,,,,,,,
,,"[""diamond"",""green"",""hori"",""left"",[0,150],[0,-150]]",diamond,green,hori,left,"[0,150]","[0,-150]",left,1,,,,,,Arya,2025-03-17_12h11.36.680,SL_base,2021.2.3,Win32,59.88023952,1.1695,,,63,0,63,0,1,,,,,,,,
,,"[""circle"",""red"",""hori"",""left"",[106,-106],[-106,-106]]",circle,red,hori,left,"[106,-106]","[-106,-106]",left,1,,,,,,Arya,2025-03-17_12h11.36.680,SL_base,2021.2.3,Win32,59.88023952,0.7629,,,64,0,64,0,1,,,,,,,,
,,"[""circle"",""no_dis"",""vert"",""up"",[99999,99999],[0,150]]",circle,no_dis,vert,up,"[99999,99999]","[0,150]",up,1,,,,,,Arya,2025-03-17_12h11.36.680,SL_base,2021.2.3,Win32,59.88023952,1.1541,,,65,0,65,0,1,,,,,,,,
,,"[""circle"",""red"",""vert"",""up"",[0,150],[150,0]]",circle,red,vert,up,"[0,150]","[150,0]",up,1,,,,,,Arya,2025-03-17_12h11.36.680,SL_base,2021.2.3,Win32,59.88023952,1.0525,,,66,0,66,0,1,,,,,,,,
,,"[""circle"",""no_dis"",""hori"",""left"",[99999,99999],[150,0]]",circle,no_dis,hori,left,"[99999,99999]","[150,0]",left,1,,,,,,Arya,2025-03-17_12h11.36.680,SL_base,2021.2.3,Win32,59.88023952,0.9738,,,67,0,67,0,1,,,,,,,,
,,"[""circle"",""no_dis"",""hori"",""left"",[99999,99999],[0,150]]",circle,no_dis,hori,left,"[99999,99999]","[0,150]",left,1,,,,,,Arya,2025-03-17_12h11.36.680,SL_base,2021.2.3,Win32,59.88023952,0.7338,,,68,0,68,0,1,,,,,,,,
,,"[""diamond"",""green"",""vert"",""up"",[-150,0],[106,106]]",diamond,green,vert,up,"[-150,0]","[106,106]",up,1,,,,,,Arya,2025-03-17_12h11.36.680,SL_base,2021.2.3,Win32,59.88023952,0.818,,,69,0,69,0,1,,,,,,,,
,,"[""diamond"",""red"",""hori"",""left"",[0,-150],[-106,106]]",diamond,red,hori,left,"[0,-150]","[-106,106]",left,1,,,,,,Arya,2025-03-17_12h11.36.680,SL_base,2021.2.3,Win32,59.88023952,1.103,,,70,0,70,0,1,,,,,,,,
,,"[""circle"",""green"",""hori"",""left"",[106,-106],[-150,0]]",circle,green,hori,left,"[106,-106]","[-150,0]",left,1,,,,,,Arya,2025-03-17_12h11.36.680,SL_base,2021.2.3,Win32,59.88023952,0.8699,,,71,0,71,0,1,,,,,,,,
,,"[""diamond"",""green"",""vert"",""up"",[-106,106],[0,-150]]",diamond,green,vert,up,"[-106,106]","[0,-150]",up,1,,,,,,Arya,2025-03-17_12h11.36.680,SL_base,2021.2.3,Win32,59.88023952,1.1451,,,72,0,72,0,1,,,,,,,,
,,"[""diamond"",""no_dis"",""hori"",""left"",[99999,99999],[106,106]]",diamond,no_dis,hori,left,"[99999,99999]","[106,106]",left,1,,,,,,Arya,2025-03-17_12h11.36.680,SL_base,2021.2.3,Win32,59.88023952,1.0795,,,73,0,73,0,1,,,,,,,,
,,"[""circle"",""no_dis"",""vert"",""up"",[99999,99999],[0,-150]]",circle,no_dis,vert,up,"[99999,99999]","[0,-150]",up,1,,,,,,Arya,2025-03-17_12h11.36.680,SL_base,2021.2.3,Win32,59.88023952,0.9478,,,74,0,74,0,1,,,,,,,,
,,"[""diamond"",""red"",""vert"",""up"",[150,0],[0,150]]",diamond,red,vert,up,"[150,0]","[0,150]",up,1,,,,,,Arya,2025-03-17_12h11.36.680,SL_base,2021.2.3,Win32,59.88023952,1.0214,,,75,0,75,0,1,,,,,,,,
,,"[""circle"",""red"",""vert"",""up"",[106,-106],[0,-150]]",circle,red,vert,up,"[106,-106]","[0,-150]",up,1,,,,,,Arya,2025-03-17_12h11.36.680,SL_base,2021.2.3,Win32,59.88023952,1.1815,,,76,0,76,0,1,,,,,,,,
,,"[""diamond"",""red"",""vert"",""up"",[0,-150],[106,-106]]",diamond,red,vert,up,"[0,-150]","[106,-106]",up,1,,,,,,Arya,2025-03-17_12h11.36.680,SL_base,2021.2.3,Win32,59.88023952,1.0053,,,77,0,77,0,1,,,,,,,,
,,"[""diamond"",""green"",""hori"",""left"",[150,0],[106,-106]]",diamond,green,hori,left,"[150,0]","[106,-106]",left,1,,,,,,Arya,2025-03-17_12h11.36.680,SL_base,2021.2.3,Win32,59.88023952,1.145,,,78,0,78,0,1,,,,,,,,
,,"[""diamond"",""red"",""vert"",""up"",[0,150],[150,0]]",diamond,red,vert,up,"[0,150]","[150,0]",up,1,,,,,,Arya,2025-03-17_12h11.36.680,SL_base,2021.2.3,Win32,59.88023952,1.0842,,,79,0,79,0,1,,,,,,,,
,,"[""circle"",""red"",""vert"",""up"",[0,-150],[106,106]]",circle,red,vert,up,"[0,-150]","[106,106]",up,1,,,,,,Arya,2025-03-17_12h11.36.680,SL_base,2021.2.3,Win32,59.88023952,1.233,,,80,0,80,0,1,,,,,,,,
,,"[""diamond"",""green"",""vert"",""up"",[106,-106],[-150,0]]",diamond,green,vert,up,"[106,-106]","[-150,0]",up,1,,,,,,Arya,2025-03-17_12h11.36.680,SL_base,2021.2.3,Win32,59.88023952,0.8145,,,81,0,81,0,1,,,,,,,,
,,"[""diamond"",""red"",""hori"",""left"",[-150,0],[106,-106]]",diamond,red,hori,left,"[-150,0]","[106,-106]",left,1,,,,,,Arya,2025-03-17_12h11.36.680,SL_base,2021.2.3,Win32,59.88023952,0.7478,,,82,0,82,0,1,,,,,,,,
,,"[""circle"",""no_dis"",""vert"",""up"",[99999,99999],[-106,106]]",circle,no_dis,vert,up,"[99999,99999]","[-106,106]",up,1,,,,,,Arya,2025-03-17_12h11.36.680,SL_base,2021.2.3,Win32,59.88023952,0.9829,,,83,0,83,0,1,,,,,,,,
,,"[""circle"",""red"",""vert"",""up"",[150,0],[0,150]]",circle,red,vert,up,"[150,0]","[0,150]",up,1,,,,,,Arya,2025-03-17_12h11.36.680,SL_base,2021.2.3,Win32,59.88023952,0.7714,,,84,0,84,0,1,,,,,,,,
,,"[""circle"",""red"",""vert"",""up"",[150,0],[0,150]]",circle,red,vert,up,"[150,0]","[0,150]",left,0,,,,,,Arya,2025-03-17_12h11.36.680,SL_base,2021.2.3,Win32,59.88023952,0.8,,,85,0,85,0,1,,,,,,,,
,,"[""circle"",""green"",""vert"",""up"",[-150,0],[0,150]]",circle,green,vert,up,"[-150,0]","[0,150]",up,1,,,,,,Arya,2025-03-17_12h11.36.680,SL_base,2021.2.3,Win32,59.88023952,0.6998,,,86,0,86,0,1,,,,,,,,
,,"[""diamond"",""no_dis"",""vert"",""up"",[99999,99999],[-106,106]]",diamond,no_dis,vert,up,"[99999,99999]","[-106,106]",up,1,,,,,,Arya,2025-03-17_12h11.36.680,SL_base,2021.2.3,Win32,59.88023952,0.914,,,87,0,87,0,1,,,,,,,,
,,"[""diamond"",""red"",""hori"",""left"",[106,106],[0,150]]",diamond,red,hori,left,"[106,106]","[0,150]",left,1,,,,,,Arya,2025-03-17_12h11.36.680,SL_base,2021.2.3,Win32,59.88023952,0.8168,,,88,0,88,0,1,,,,,,,,
,,"[""diamond"",""green"",""vert"",""up"",[0,150],[-106,106]]",diamond,green,vert,up,"[0,150]","[-106,106]",up,1,,,,,,Arya,2025-03-17_12h11.36.680,SL_base,2021.2.3,Win32,59.88023952,0.8136,,,89,0,89,0,1,,,,,,,,
,,"[""circle"",""red"",""vert"",""up"",[150,0],[0,-150]]",circle,red,vert,up,"[150,0]","[0,-150]",up,1,,,,,,Arya,2025-03-17_12h11.36.680,SL_base,2021.2.3,Win32,59.88023952,1.083,,,90,0,90,0,1,,,,,,,,
,,"[""diamond"",""no_dis"",""vert"",""up"",[99999,99999],[150,0]]",diamond,no_dis,vert,up,"[99999,99999]","[150,0]",up,1,,,,,,Arya,2025-03-17_12h11.36.680,SL_base,2021.2.3,Win32,59.88023952,0.7317,,,91,0,91,0,1,,,,,,,,
,,"[""diamond"",""green"",""vert"",""up"",[150,0],[-106,-106]]",diamond,green,vert,up,"[150,0]","[-106,-106]",up,1,,,,,,Arya,2025-03-17_12h11.36.680,SL_base,2021.2.3,Win32,59.88023952,0.9455,,,92,0,92,0,1,,,,,,,,
,,"[""circle"",""no_dis"",""vert"",""up"",[99999,99999],[150,0]]",circle,no_dis,vert,up,"[99999,99999]","[150,0]",up,1,,,,,,Arya,2025-03-17_12h11.36.680,SL_base,2021.2.3,Win32,59.88023952,0.9579,,,93,0,93,0,1,,,,,,,,
,,"[""diamond"",""no_dis"",""hori"",""left"",[99999,99999],[0,-150]]",diamond,no_dis,hori,left,"[99999,99999]","[0,-150]",left,1,,,,,,Arya,2025-03-17_12h11.36.680,SL_base,2021.2.3,Win32,59.88023952,1.0903,,,94,0,94,0,1,,,,,,,,
,,"[""circle"",""green"",""vert"",""up"",[-106,106],[0,-150]]",circle,green,vert,up,"[-106,106]","[0,-150]",up,1,,,,,,Arya,2025-03-17_12h11.36.680,SL_base,2021.2.3,Win32,59.88023952,0.8343,,,95,0,95,0,1,,,,,,,,
,,"[""diamond"",""no_dis"",""vert"",""up"",[99999,99999],[-106,-106]]",diamond,no_dis,vert,up,"[99999,99999]","[-106,-106]",up,1,,,,,,Arya,2025-03-17_12h11.36.680,SL_base,2021.2.3,Win32,59.88023952,0.8566,,,96,0,96,0,1,,,,,,,,
,,"[""diamond"",""green"",""hori"",""left"",[106,-106],[0,-150]]",diamond,green,hori,left,"[106,-106]","[0,-150]",left,1,,,,,,Arya,2025-03-17_12h11.36.680,SL_base,2021.2.3,Win32,59.88023952,0.8909,,,97,0,97,0,1,,,,,,,,
,,"[""circle"",""red"",""hori"",""left"",[106,-106],[-106,-106]]",circle,red,hori,left,"[106,-106]","[-106,-106]",left,1,,,,,,Arya,2025-03-17_12h11.36.680,SL_base,2021.2.3,Win32,59.88023952,0.8361,,,98,0,98,0,1,,,,,,,,
,,"[""circle"",""red"",""vert"",""up"",[0,150],[-106,106]]",circle,red,vert,up,"[0,150]","[-106,106]",up,1,,,,,,Arya,2025-03-17_12h11.36.680,SL_base,2021.2.3,Win32,59.88023952,0.9717,,,99,0,99,0,1,,,,,,,,
,,"[""circle"",""red"",""hori"",""left"",[106,-106],[-150,0]]",circle,red,hori,left,"[106,-106]","[-150,0]",left,1,,,,,,Arya,2025-03-17_12h11.36.680,SL_base,2021.2.3,Win32,59.88023952,0.6562,,,100,0,100,0,1,,,,,,,,
,,"[""circle"",""green"",""hori"",""left"",[-106,106],[150,0]]",circle,green,hori,left,"[-106,106]","[150,0]",left,1,,,,,,Arya,2025-03-17_12h11.36.680,SL_base,2021.2.3,Win32,59.88023952,0.8414,,,101,0,101,0,1,,,,,,,,
,,"[""circle"",""red"",""hori"",""left"",[106,106],[150,0]]",circle,red,hori,left,"[106,106]","[150,0]",left,1,,,,,,Arya,2025-03-17_12h11.36.680,SL_base,2021.2.3,Win32,59.88023952,1.1739,,,102,0,102,0,1,,,,,,,,
,,"[""circle"",""green"",""hori"",""left"",[106,-106],[106,106]]",circle,green,hori,left,"[106,-106]","[106,106]",left,1,,,,,,Arya,2025-03-17_12h11.36.680,SL_base,2021.2.3,Win32,59.88023952,0.9553,,,103,0,103,0,1,,,,,,,,
,,"[""diamond"",""red"",""hori"",""left"",[106,106],[-150,0]]",diamond,red,hori,left,"[106,106]","[-150,0]",left,1,,,,,,Arya,2025-03-17_12h11.36.680,SL_base,2021.2.3,Win32,59.88023952,0.8796,,,104,0,104,0,1,,,,,,,,
,,"[""diamond"",""green"",""hori"",""left"",[106,-106],[-150,0]]",diamond,green,hori,left,"[106,-106]","[-150,0]",left,1,,,,,,Arya,2025-03-17_12h11.36.680,SL_base,2021.2.3,Win32,59.88023952,0.6353,,,105,0,105,0,1,,,,,,,,
,,"[""circle"",""green"",""vert"",""up"",[106,-106],[106,106]]",circle,green,vert,up,"[106,-106]","[106,106]",up,1,,,,,,Arya,2025-03-17_12h11.36.680,SL_base,2021.2.3,Win32,59.88023952,1.1227,,,106,0,106,0,1,,,,,,,,
,,"[""diamond"",""no_dis"",""hori"",""left"",[99999,99999],[-150,0]]",diamond,no_dis,hori,left,"[99999,99999]","[-150,0]",left,1,,,,,,Arya,2025-03-17_12h11.36.680,SL_base,2021.2.3,Win32,59.88023952,0.6647,,,107,0,107,0,1,,,,,,,,
,,"[""diamond"",""no_dis"",""vert"",""up"",[99999,99999],[-106,106]]",diamond,no_dis,vert,up,"[99999,99999]","[-106,106]",up,1,,,,,,Arya,2025-03-17_12h11.36.680,SL_base,2021.2.3,Win32,59.88023952,0.7577,,,108,0,108,0,1,,,,,,,,
,,"[""diamond"",""green"",""hori"",""left"",[-150,0],[150,0]]",diamond,green,hori,left,"[-150,0]","[150,0]",left,1,,,,,,Arya,2025-03-17_12h11.36.680,SL_base,2021.2.3,Win32,59.88023952,0.8985,,,109,0,109,0,1,,,,,,,,
,,"[""diamond"",""no_dis"",""hori"",""left"",[99999,99999],[106,-106]]",diamond,no_dis,hori,left,"[99999,99999]","[106,-106]",left,1,,,,,,Arya,2025-03-17_12h11.36.680,SL_base,2021.2.3,Win32,59.88023952,0.8142,,,110,0,110,0,1,,,,,,,,
,,"[""circle"",""green"",""vert"",""up"",[0,-150],[-106,-106]]",circle,green,vert,up,"[0,-150]","[-106,-106]",up,1,,,,,,Arya,2025-03-17_12h11.36.680,SL_base,2021.2.3,Win32,59.88023952,1.0873,,,111,0,111,0,1,,,,,,,,
,,"[""diamond"",""green"",""vert"",""up"",[106,-106],[-106,-106]]",diamond,green,vert,up,"[106,-106]","[-106,-106]",up,1,,,,,,Arya,2025-03-17_12h11.36.680,SL_base,2021.2.3,Win32,59.88023952,0.8452,,,112,0,112,0,1,,,,,,,,
,,"[""circle"",""green"",""hori"",""left"",[0,-150],[-106,106]]",circle,green,hori,left,"[0,-150]","[-106,106]",left,1,,,,,,Arya,2025-03-17_12h11.36.680,SL_base,2021.2.3,Win32,59.88023952,0.8475,,,113,0,113,0,1,,,,,,,,
,,"[""circle"",""red"",""hori"",""left"",[106,-106],[106,106]]",circle,red,hori,left,"[106,-106]","[106,106]",left,1,,,,,,Arya,2025-03-17_12h11.36.680,SL_base,2021.2.3,Win32,59.88023952,0.8477,,,114,0,114,0,1,,,,,,,,
,,"[""diamond"",""no_dis"",""vert"",""up"",[99999,99999],[-106,-106]]",diamond,no_dis,vert,up,"[99999,99999]","[-106,-106]",up,1,,,,,,Arya,2025-03-17_12h11.36.680,SL_base,2021.2.3,Win32,59.88023952,0.9339,,,115,0,115,0,1,,,,,,,,
,,"[""circle"",""no_dis"",""vert"",""up"",[99999,99999],[-150,0]]",circle,no_dis,vert,up,"[99999,99999]","[-150,0]",up,1,,,,,,Arya,2025-03-17_12h11.36.680,SL_base,2021.2.3,Win32,59.88023952,0.9157,,,116,0,116,0,1,,,,,,,,
,,"[""diamond"",""red"",""hori"",""left"",[-150,0],[106,-106]]",diamond,red,hori,left,"[-150,0]","[106,-106]",left,1,,,,,,Arya,2025-03-17_12h11.36.680,SL_base,2021.2.3,Win32,59.88023952,0.7492,,,117,0,117,0,1,,,,,,,,
,,"[""circle"",""red"",""hori"",""left"",[106,-106],[0,150]]",circle,red,hori,left,"[106,-106]","[0,150]",left,1,,,,,,Arya,2025-03-17_12h11.36.680,SL_base,2021.2.3,Win32,59.88023952,1.1855,,,118,0,118,0,1,,,,,,,,
,,"[""diamond"",""green"",""hori"",""left"",[106,-106],[150,0]]",diamond,green,hori,left,"[106,-106]","[150,0]",left,1,,,,,,Arya,2025-03-17_12h11.36.680,SL_base,2021.2.3,Win32,59.88023952,1.022,,,119,0,119,0,1,,,,,,,,
,,,,,,,,,,,,,,,,Arya,2025-03-17_12h11.36.680,SL_base,2021.2.3,Win32,59.88023952,,,,,,,,,1,space,10.5387,0,0,0,0,1
,,"[""diamond"",""green"",""vert"",""up"",[106,-106],[-106,-106]]",diamond,green,vert,up,"[106,-106]","[-106,-106]",up,1,,,,,,Arya,2025-03-17_12h11.36.680,SL_base,2021.2.3,Win32,59.88023952,0.8719,,,0,0,0,0,1,,,,,,,,
,,"[""circle"",""red"",""vert"",""up"",[0,150],[-106,106]]",circle,red,vert,up,"[0,150]","[-106,106]",left,0,,,,,,Arya,2025-03-17_12h11.36.680,SL_base,2021.2.3,Win32,59.88023952,0.8903,,,1,0,1,0,1,,,,,,,,
,,"[""diamond"",""red"",""hori"",""left"",[-150,0],[-106,-106]]",diamond,red,hori,left,"[-150,0]","[-106,-106]",left,1,,,,,,Arya,2025-03-17_12h11.36.680,SL_base,2021.2.3,Win32,59.88023952,1.1137,,,2,0,2,0,1,,,,,,,,
,,"[""circle"",""red"",""vert"",""up"",[150,0],[0,150]]",circle,red,vert,up,"[150,0]","[0,150]",up,1,,,,,,Arya,2025-03-17_12h11.36.680,SL_base,2021.2.3,Win32,59.88023952,0.8073,,,3,0,3,0,1,,,,,,,,
,,"[""circle"",""red"",""hori"",""left"",[106,-106],[-106,-106]]",circle,red,hori,left,"[106,-106]","[-106,-106]",left,1,,,,,,Arya,2025-03-17_12h11.36.680,SL_base,2021.2.3,Win32,59.88023952,0.904,,,4,0,4,0,1,,,,,,,,
,,"[""diamond"",""red"",""hori"",""left"",[0,-150],[-106,106]]",diamond,red,hori,left,"[0,-150]","[-106,106]",left,1,,,,,,Arya,2025-03-17_12h11.36.680,SL_base,2021.2.3,Win32,59.88023952,0.6725,,,5,0,5,0,1,,,,,,,,
,,"[""diamond"",""red"",""vert"",""up"",[0,150],[150,0]]",diamond,red,vert,up,"[0,150]","[150,0]",up,1,,,,,,Arya,2025-03-17_12h11.36.680,SL_base,2021.2.3,Win32,59.88023952,0.733,,,6,0,6,0,1,,,,,,,,
,,"[""diamond"",""no_dis"",""hori"",""left"",[99999,99999],[106,106]]",diamond,no_dis,hori,left,"[99999,99999]","[106,106]",left,1,,,,,,Arya,2025-03-17_12h11.36.680,SL_base,2021.2.3,Win32,59.88023952,0.8128,,,7,0,7,0,1,,,,,,,,
,,"[""diamond"",""red"",""vert"",""up"",[150,0],[0,150]]",diamond,red,vert,up,"[150,0]","[0,150]",up,1,,,,,,Arya,2025-03-17_12h11.36.680,SL_base,2021.2.3,Win32,59.88023952,0.8016,,,8,0,8,0,1,,,,,,,,
,,"[""diamond"",""no_dis"",""hori"",""left"",[99999,99999],[106,-106]]",diamond,no_dis,hori,left,"[99999,99999]","[106,-106]",left,1,,,,,,Arya,2025-03-17_12h11.36.680,SL_base,2021.2.3,Win32,59.88023952,0.6146,,,9,0,9,0,1,,,,,,,,
,,"[""diamond"",""red"",""hori"",""left"",[106,106],[0,150]]",diamond,red,hori,left,"[106,106]","[0,150]",left,1,,,,,,Arya,2025-03-17_12h11.36.680,SL_base,2021.2.3,Win32,59.88023952,0.7466,,,10,0,10,0,1,,,,,,,,
,,"[""diamond"",""no_dis"",""vert"",""up"",[99999,99999],[150,0]]",diamond,no_dis,vert,up,"[99999,99999]","[150,0]",up,1,,,,,,Arya,2025-03-17_12h11.36.680,SL_base,2021.2.3,Win32,59.88023952,0.7342,,,11,0,11,0,1,,,,,,,,
,,"[""diamond"",""green"",""hori"",""left"",[-106,-106],[106,106]]",diamond,green,hori,left,"[-106,-106]","[106,106]",left,1,,,,,,Arya,2025-03-17_12h11.36.680,SL_base,2021.2.3,Win32,59.88023952,0.889,,,12,0,12,0,1,,,,,,,,
,,"[""circle"",""no_dis"",""vert"",""up"",[99999,99999],[0,-150]]",circle,no_dis,vert,up,"[99999,99999]","[0,-150]",up,1,,,,,,Arya,2025-03-17_12h11.36.680,SL_base,2021.2.3,Win32,59.88023952,1.0311,,,13,0,13,0,1,,,,,,,,
,,"[""circle"",""no_dis"",""hori"",""left"",[99999,99999],[106,106]]",circle,no_dis,hori,left,"[99999,99999]","[106,106]",left,1,,,,,,Arya,2025-03-17_12h11.36.680,SL_base,2021.2.3,Win32,59.88023952,0.584,,,14,0,14,0,1,,,,,,,,
,,"[""circle"",""green"",""hori"",""left"",[106,-106],[150,0]]",circle,green,hori,left,"[106,-106]","[150,0]",left,1,,,,,,Arya,2025-03-17_12h11.36.680,SL_base,2021.2.3,Win32,59.88023952,0.7387,,,15,0,15,0,1,,,,,,,,
,,"[""circle"",""no_dis"",""vert"",""up"",[99999,99999],[-150,0]]",circle,no_dis,vert,up,"[99999,99999]","[-150,0]",up,1,,,,,,Arya,2025-03-17_12h11.36.680,SL_base,2021.2.3,Win32,59.88023952,0.6384,,,16,0,16,0,1,,,,,,,,
,,"[""circle"",""no_dis"",""vert"",""up"",[99999,99999],[0,150]]",circle,no_dis,vert,up,"[99999,99999]","[0,150]",up,1,,,,,,Arya,2025-03-17_12h11.36.680,SL_base,2021.2.3,Win32,59.88023952,0.5228,,,17,0,17,0,1,,,,,,,,
,,"[""diamond"",""red"",""hori"",""left"",[-150,0],[106,-106]]",diamond,red,hori,left,"[-150,0]","[106,-106]",left,1,,,,,,Arya,2025-03-17_12h11.36.680,SL_base,2021.2.3,Win32,59.88023952,1.1163,,,18,0,18,0,1,,,,,,,,
,,"[""circle"",""no_dis"",""hori"",""left"",[99999,99999],[-106,-106]]",circle,no_dis,hori,left,"[99999,99999]","[-106,-106]",left,1,,,,,,Arya,2025-03-17_12h11.36.680,SL_base,2021.2.3,Win32,59.88023952,0.8494,,,19,0,19,0,1,,,,,,,,
,,"[""circle"",""red"",""hori"",""left"",[-150,0],[-106,-106]]",circle,red,hori,left,"[-150,0]","[-106,-106]",left,1,,,,,,Arya,2025-03-17_12h11.36.680,SL_base,2021.2.3,Win32,59.88023952,0.6401,,,20,0,20,0,1,,,,,,,,
,,"[""circle"",""no_dis"",""vert"",""up"",[99999,99999],[-106,106]]",circle,no_dis,vert,up,"[99999,99999]","[-106,106]",left,0,,,,,,Arya,2025-03-17_12h11.36.680,SL_base,2021.2.3,Win32,59.88023952,0.6497,,,21,0,21,0,1,,,,,,,,
,,"[""diamond"",""green"",""vert"",""up"",[-106,-106],[0,-150]]",diamond,green,vert,up,"[-106,-106]","[0,-150]",up,1,,,,,,Arya,2025-03-17_12h11.36.680,SL_base,2021.2.3,Win32,59.88023952,0.7805,,,22,0,22,0,1,,,,,,,,
,,"[""diamond"",""red"",""hori"",""left"",[106,-106],[150,0]]",diamond,red,hori,left,"[106,-106]","[150,0]",left,1,,,,,,Arya,2025-03-17_12h11.36.680,SL_base,2021.2.3,Win32,59.88023952,0.6881,,,23,0,23,0,1,,,,,,,,
,,"[""circle"",""green"",""vert"",""up"",[-106,106],[-106,-106]]",circle,green,vert,up,"[-106,106]","[-106,-106]",up,1,,,,,,Arya,2025-03-17_12h11.36.680,SL_base,2021.2.3,Win32,59.88023952,0.941,,,24,0,24,0,1,,,,,,,,
,,"[""circle"",""red"",""vert"",""up"",[150,0],[0,-150]]",circle,red,vert,up,"[150,0]","[0,-150]",left,0,,,,,,Arya,2025-03-17_12h11.36.680,SL_base,2021.2.3,Win32,59.88023952,0.6819,,,25,0,25,0,1,,,,,,,,
,,"[""diamond"",""no_dis"",""hori"",""left"",[99999,99999],[106,-106]]",diamond,no_dis,hori,left,"[99999,99999]","[106,-106]",left,1,,,,,,Arya,2025-03-17_12h11.36.680,SL_base,2021.2.3,Win32,59.88023952,1.049,,,26,0,26,0,1,,,,,,,,
,,"[""circle"",""red"",""hori"",""left"",[106,106],[150,0]]",circle,red,hori,left,"[106,106]","[150,0]",left,1,,,,,,Arya,2025-03-17_12h11.36.680,SL_base,2021.2.3,Win32,59.88023952,0.9003,,,27,0,27,0,1,,,,,,,,
,,"[""circle"",""no_dis"",""hori"",""left"",[99999,99999],[0,150]]",circle,no_dis,hori,left,"[99999,99999]","[0,150]",left,1,,,,,,Arya,2025-03-17_12h11.36.680,SL_base,2021.2.3,Win32,59.88023952,0.6654,,,28,0,28,0,1,,,,,,,,
,,"[""diamond"",""no_dis"",""hori"",""left"",[99999,99999],[106,106]]",diamond,no_dis,hori,left,"[99999,99999]","[106,106]",left,1,,,,,,Arya,2025-03-17_12h11.36.680,SL_base,2021.2.3,Win32,59.88023952,0.6815,,,29,0,29,0,1,,,,,,,,
,,"[""diamond"",""red"",""hori"",""left"",[0,150],[106,-106]]",diamond,red,hori,left,"[0,150]","[106,-106]",left,1,,,,,,Arya,2025-03-17_12h11.36.680,SL_base,2021.2.3,Win32,59.88023952,0.9371,,,30,0,30,0,1,,,,,,,,
,,"[""circle"",""no_dis"",""vert"",""up"",[99999,99999],[-150,0]]",circle,no_dis,vert,up,"[99999,99999]","[-150,0]",up,1,,,,,,Arya,2025-03-17_12h11.36.680,SL_base,2021.2.3,Win32,59.88023952,0.7887,,,31,0,31,0,1,,,,,,,,
,,"[""circle"",""green"",""hori"",""left"",[106,-106],[0,-150]]",circle,green,hori,left,"[106,-106]","[0,-150]",left,1,,,,,,Arya,2025-03-17_12h11.36.680,SL_base,2021.2.3,Win32,59.88023952,1.0985,,,32,0,32,0,1,,,,,,,,
,,"[""circle"",""green"",""vert"",""up"",[-106,-106],[-150,0]]",circle,green,vert,up,"[-106,-106]","[-150,0]",up,1,,,,,,Arya,2025-03-17_12h11.36.680,SL_base,2021.2.3,Win32,59.88023952,1.154,,,33,0,33,0,1,,,,,,,,
,,"[""circle"",""no_dis"",""hori"",""left"",[99999,99999],[-106,106]]",circle,no_dis,hori,left,"[99999,99999]","[-106,106]",left,1,,,,,,Arya,2025-03-17_12h11.36.680,SL_base,2021.2.3,Win32,59.88023952,0.8256,,,34,0,34,0,1,,,,,,,,
,,"[""circle"",""no_dis"",""hori"",""left"",[99999,99999],[150,0]]",circle,no_dis,hori,left,"[99999,99999]","[150,0]",left,1,,,,,,Arya,2025-03-17_12h11.36.680,SL_base,2021.2.3,Win32,59.88023952,0.7201,,,35,0,35,0,1,,,,,,,,
,,"[""circle"",""red"",""hori"",""left"",[-150,0],[-106,106]]",circle,red,hori,left,"[-150,0]","[-106,106]",left,1,,,,,,Arya,2025-03-17_12h11.36.680,SL_base,2021.2.3,Win32,59.88023952,0.7177,,,36,0,36,0,1,,,,,,,,
,,"[""circle"",""red"",""vert"",""up"",[106,-106],[0,-150]]",circle,red,vert,up,"[106,-106]","[0,-150]",up,1,,,,,,Arya,2025-03-17_12h11.36.680,SL_base,2021.2.3,Win32,59.88023952,0.9889,,,37,0,37,0,1,,,,,,,,
,,"[""diamond"",""no_dis"",""hori"",""left"",[99999,99999],[-150,0]]",diamond,no_dis,hori,left,"[99999,99999]","[-150,0]",left,1,,,,,,Arya,2025-03-17_12h11.36.680,SL_base,2021.2.3,Win32,59.88023952,0.5971,,,38,0,38,0,1,,,,,,,,
,,"[""diamond"",""green"",""vert"",""up"",[0,150],[-106,106]]",diamond,green,vert,up,"[0,150]","[-106,106]",left,0,,,,,,Arya,2025-03-17_12h11.36.680,SL_base,2021.2.3,Win32,59.88023952,0.8129,,,39,0,39,0,1,,,,,,,,
,,"[""diamond"",""red"",""vert"",""up"",[106,106],[150,0]]",diamond,red,vert,up,"[106,106]","[150,0]",up,1,,,,,,Arya,2025-03-17_12h11.36.680,SL_base,2021.2.3,Win32,59.88023952,0.6471,,,40,0,40,0,1,,,,,,,,
,,"[""diamond"",""no_dis"",""vert"",""up"",[99999,99999],[-106,-106]]",diamond,no_dis,vert,up,"[99999,99999]","[-106,-106]",up,1,,,,,,Arya,2025-03-17_12h11.36.680,SL_base,2021.2.3,Win32,59.88023952,0.7142,,,41,0,41,0,1,,,,,,,,
,,"[""circle"",""red"",""hori"",""left"",[106,-106],[-150,0]]",circle,red,hori,left,"[106,-106]","[-150,0]",left,1,,,,,,Arya,2025-03-17_12h11.36.680,SL_base,2021.2.3,Win32,59.88023952,0.6003,,,42,0,42,0,1,,,,,,,,
,,"[""circle"",""green"",""hori"",""left"",[106,-106],[106,106]]",circle,green,hori,left,"[106,-106]","[106,106]",left,1,,,,,,Arya,2025-03-17_12h11.36.680,SL_base,2021.2.3,Win32,59.88023952,1.0711,,,43,0,43,0,1,,,,,,,,
,,"[""diamond"",""no_dis"",""hori"",""left"",[99999,99999],[106,106]]",diamond,no_dis,hori,left,"[99999,99999]","[106,106]",left,1,,,,,,Arya,2025-03-17_12h11.36.680,SL_base,2021.2.3,Win32,59.88023952,0.7949,,,44,0,44,0,1,,,,,,,,
,,"[""diamond"",""no_dis"",""hori"",""left"",[99999,99999],[0,-150]]",diamond,no_dis,hori,left,"[99999,99999]","[0,-150]",left,1,,,,,,Arya,2025-03-17_12h11.36.680,SL_base,2021.2.3,Win32,59.88023952,1.039,,,45,0,45,0,1,,,,,,,,
,,"[""diamond"",""green"",""hori"",""left"",[106,-106],[0,-150]]",diamond,green,hori,left,"[106,-106]","[0,-150]",left,1,,,,,,Arya,2025-03-17_12h11.36.680,SL_base,2021.2.3,Win32,59.88023952,0.9636,,,46,0,46,0,1,,,,,,,,
,,"[""diamond"",""green"",""hori"",""left"",[0,150],[0,-150]]",diamond,green,hori,left,"[0,150]","[0,-150]",left,1,,,,,,Arya,2025-03-17_12h11.36.680,SL_base,2021.2.3,Win32,59.88023952,0.5966,,,47,0,47,0,1,,,,,,,,
,,"[""circle"",""red"",""vert"",""up"",[106,-106],[150,0]]",circle,red,vert,up,"[106,-106]","[150,0]",up,1,,,,,,Arya,2025-03-17_12h11.36.680,SL_base,2021.2.3,Win32,59.88023952,0.9862,,,48,0,48,0,1,,,,,,,,
,,"[""diamond"",""green"",""vert"",""up"",[150,0],[-106,-106]]",diamond,green,vert,up,"[150,0]","[-106,-106]",up,1,,,,,,Arya,2025-03-17_12h11.36.680,SL_base,2021.2.3,Win32,59.88023952,0.7872,,,49,0,49,0,1,,,,,,,,
,,"[""diamond"",""green"",""hori"",""left"",[-106,-106],[-106,106]]",diamond,green,hori,left,"[-106,-106]","[-106,106]",left,1,,,,,,Arya,2025-03-17_12h11.36.680,SL_base,2021.2.3,Win32,59.88023952,0.7151,,,50,0,50,0,1,,,,,,,,
,,"[""diamond"",""red"",""hori"",""left"",[106,106],[-150,0]]",diamond,red,hori,left,"[106,106]","[-150,0]",left,1,,,,,,Arya,2025-03-17_12h11.36.680,SL_base,2021.2.3,Win32,59.88023952,0.6365,,,51,0,51,0,1,,,,,,,,
,,"[""diamond"",""no_dis"",""hori"",""left"",[99999,99999],[0,-150]]",diamond,no_dis,hori,left,"[99999,99999]","[0,-150]",left,1,,,,,,Arya,2025-03-17_12h11.36.680,SL_base,2021.2.3,Win32,59.88023952,0.6184,,,52,0,52,0,1,,,,,,,,
,,"[""diamond"",""no_dis"",""hori"",""left"",[99999,99999],[-106,-106]]",diamond,no_dis,hori,left,"[99999,99999]","[-106,-106]",left,1,,,,,,Arya,2025-03-17_12h11.36.680,SL_base,2021.2.3,Win32,59.88023952,0.5718,,,53,0,53,0,1,,,,,,,,
,,"[""circle"",""red"",""hori"",""left"",[106,-106],[-106,-106]]",circle,red,hori,left,"[106,-106]","[-106,-106]",left,1,,,,,,Arya,2025-03-17_12h11.36.680,SL_base,2021.2.3,Win32,59.88023952,0.4977,,,54,0,54,0,1,,,,,,,,
,,"[""circle"",""green"",""vert"",""up"",[0,-150],[-106,-106]]",circle,green,vert,up,"[0,-150]","[-106,-106]",left,0,,,,,,Arya,2025-03-17_12h11.36.680,SL_base,2021.2.3,Win32,59.88023952,0.4432,,,55,0,55,0,1,,,,,,,,
,,"[""circle"",""no_dis"",""vert"",""up"",[99999,99999],[-106,106]]",circle,no_dis,vert,up,"[99999,99999]","[-106,106]",up,1,,,,,,Arya,2025-03-17_12h11.36.680,SL_base,2021.2.3,Win32,59.88023952,0.7585,,,56,0,56,0,1,,,,,,,,
,,"[""circle"",""red"",""hori"",""left"",[106,-106],[0,150]]",circle,red,hori,left,"[106,-106]","[0,150]",left,1,,,,,,Arya,2025-03-17_12h11.36.680,SL_base,2021.2.3,Win32,59.88023952,0.8243,,,57,0,57,0,1,,,,,,,,
,,"[""circle"",""green"",""hori"",""left"",[-106,106],[150,0]]",circle,green,hori,left,"[-106,106]","[150,0]",left,1,,,,,,Arya,2025-03-17_12h11.36.680,SL_base,2021.2.3,Win32,59.88023952,0.723,,,58,0,58,0,1,,,,,,,,
,,"[""diamond"",""red"",""hori"",""left"",[106,106],[-106,-106]]",diamond,red,hori,left,"[106,106]","[-106,-106]",left,1,,,,,,Arya,2025-03-17_12h11.36.680,SL_base,2021.2.3,Win32,59.88023952,1.1531,,,59,0,59,0,1,,,,,,,,
,,"[""diamond"",""no_dis"",""vert"",""up"",[99999,99999],[0,-150]]",diamond,no_dis,vert,up,"[99999,99999]","[0,-150]",up,1,,,,,,Arya,2025-03-17_12h11.36.680,SL_base,2021.2.3,Win32,59.88023952,0.6389,,,60,0,60,0,1,,,,,,,,
,,"[""circle"",""no_dis"",""hori"",""left"",[99999,99999],[0,150]]",circle,no_dis,hori,left,"[99999,99999]","[0,150]",left,1,,,,,,Arya,2025-03-17_12h11.36.680,SL_base,2021.2.3,Win32,59.88023952,0.7866,,,61,0,61,0,1,,,,,,,,
,,"[""circle"",""green"",""hori"",""left"",[106,106],[-106,-106]]",circle,green,hori,left,"[106,106]","[-106,-106]",left,1,,,,,,Arya,2025-03-17_12h11.36.680,SL_base,2021.2.3,Win32,59.88023952,0.8485,,,62,0,62,0,1,,,,,,,,
,,"[""circle"",""green"",""hori"",""left"",[106,106],[0,150]]",circle,green,hori,left,"[106,106]","[0,150]",left,1,,,,,,Arya,2025-03-17_12h11.36.680,SL_base,2021.2.3,Win32,59.88023952,0.6976,,,63,0,63,0,1,,,,,,,,
,,"[""diamond"",""no_dis"",""vert"",""up"",[99999,99999],[-106,106]]",diamond,no_dis,vert,up,"[99999,99999]","[-106,106]",up,1,,,,,,Arya,2025-03-17_12h11.36.680,SL_base,2021.2.3,Win32,59.88023952,0.8149,,,64,0,64,0,1,,,,,,,,
,,"[""circle"",""no_dis"",""hori"",""left"",[99999,99999],[106,-106]]",circle,no_dis,hori,left,"[99999,99999]","[106,-106]",left,1,,,,,,Arya,2025-03-17_12h11.36.680,SL_base,2021.2.3,Win32,59.88023952,0.6892,,,65,0,65,0,1,,,,,,,,
,,"[""diamond"",""red"",""vert"",""up"",[106,-106],[-106,-106]]",diamond,red,vert,up,"[106,-106]","[-106,-106]",up,1,,,,,,Arya,2025-03-17_12h11.36.680,SL_base,2021.2.3,Win32,59.88023952,0.785,,,66,0,66,0,1,,,,,,,,
,,"[""circle"",""red"",""hori"",""left"",[106,-106],[106,106]]",circle,red,hori,left,"[106,-106]","[106,106]",left,1,,,,,,Arya,2025-03-17_12h11.36.680,SL_base,2021.2.3,Win32,59.88023952,0.5549,,,67,0,67,0,1,,,,,,,,
,,"[""circle"",""no_dis"",""hori"",""left"",[99999,99999],[150,0]]",circle,no_dis,hori,left,"[99999,99999]","[150,0]",left,1,,,,,,Arya,2025-03-17_12h11.36.680,SL_base,2021.2.3,Win32,59.88023952,0.5923,,,68,0,68,0,1,,,,,,,,
,,"[""diamond"",""green"",""hori"",""left"",[150,0],[106,-106]]",diamond,green,hori,left,"[150,0]","[106,-106]",up,0,,,,,,Arya,2025-03-17_12h11.36.680,SL_base,2021.2.3,Win32,59.88023952,0.9449,,,69,0,69,0,1,,,,,,,,
,,"[""circle"",""green"",""hori"",""left"",[106,-106],[-150,0]]",circle,green,hori,left,"[106,-106]","[-150,0]",left,1,,,,,,Arya,2025-03-17_12h11.36.680,SL_base,2021.2.3,Win32,59.88023952,0.5319,,,70,0,70,0,1,,,,,,,,
,,"[""circle"",""red"",""vert"",""up"",[0,150],[150,0]]",circle,red,vert,up,"[0,150]","[150,0]",left,0,,,,,,Arya,2025-03-17_12h11.36.680,SL_base,2021.2.3,Win32,59.88023952,0.8049,,,71,0,71,0,1,,,,,,,,
,,"[""circle"",""no_dis"",""vert"",""up"",[99999,99999],[106,-106]]",circle,no_dis,vert,up,"[99999,99999]","[106,-106]",left,0,,,,,,Arya,2025-03-17_12h11.36.680,SL_base,2021.2.3,Win32,59.88023952,0.8361,,,72,0,72,0,1,,,,,,,,
,,"[""diamond"",""red"",""vert"",""up"",[0,-150],[106,-106]]",diamond,red,vert,up,"[0,-150]","[106,-106]",up,1,,,,,,Arya,2025-03-17_12h11.36.680,SL_base,2021.2.3,Win32,59.88023952,0.6124,,,73,0,73,0,1,,,,,,,,
,,"[""circle"",""green"",""hori"",""left"",[-106,106],[106,-106]]",circle,green,hori,left,"[-106,106]","[106,-106]",left,1,,,,,,Arya,2025-03-17_12h11.36.680,SL_base,2021.2.3,Win32,59.88023952,0.7159,,,74,0,74,0,1,,,,,,,,
,,"[""diamond"",""red"",""vert"",""up"",[106,-106],[0,150]]",diamond,red,vert,up,"[106,-106]","[0,150]",left,0,,,,,,Arya,2025-03-17_12h11.36.680,SL_base,2021.2.3,Win32,59.88023952,0.9674,,,75,0,75,0,1,,,,,,,,
,,"[""circle"",""no_dis"",""hori"",""left"",[99999,99999],[150,0]]",circle,no_dis,hori,left,"[99999,99999]","[150,0]",left,1,,,,,,Arya,2025-03-17_12h11.36.680,SL_base,2021.2.3,Win32,59.88023952,0.6166,,,76,0,76,0,1,,,,,,,,
,,"[""diamond"",""green"",""hori"",""left"",[0,-150],[-106,-106]]",diamond,green,hori,left,"[0,-150]","[-106,-106]",left,1,,,,,,Arya,2025-03-17_12h11.36.680,SL_base,2021.2.3,Win32,59.88023952,0.9551,,,77,0,77,0,1,,,,,,,,
,,"[""diamond"",""red"",""vert"",""up"",[106,106],[106,-106]]",diamond,red,vert,up,"[106,106]","[106,-106]",left,0,,,,,,Arya,2025-03-17_12h11.36.680,SL_base,2021.2.3,Win32,59.88023952,0.9968,,,78,0,78,0,1,,,,,,,,
,,"[""diamond"",""green"",""hori"",""left"",[106,-106],[150,0]]",diamond,green,hori,left,"[106,-106]","[150,0]",left,1,,,,,,Arya,2025-03-17_12h11.36.680,SL_base,2021.2.3,Win32,59.88023952,0.9384,,,79,0,79,0,1,,,,,,,,
,,"[""circle"",""green"",""vert"",""up"",[-106,106],[0,150]]",circle,green,vert,up,"[-106,106]","[0,150]",up,1,,,,,,Arya,2025-03-17_12h11.36.680,SL_base,2021.2.3,Win32,59.88023952,0.8351,,,80,0,80,0,1,,,,,,,,
,,"[""diamond"",""green"",""vert"",""up"",[-150,0],[106,106]]",diamond,green,vert,up,"[-150,0]","[106,106]",up,1,,,,,,Arya,2025-03-17_12h11.36.680,SL_base,2021.2.3,Win32,59.88023952,0.8292,,,81,0,81,0,1,,,,,,,,
,,"[""circle"",""green"",""vert"",""up"",[-106,106],[-150,0]]",circle,green,vert,up,"[-106,106]","[-150,0]",left,0,,,,,,Arya,2025-03-17_12h11.36.680,SL_base,2021.2.3,Win32,59.88023952,1.0007,,,82,0,82,0,1,,,,,,,,
,,"[""circle"",""green"",""hori"",""left"",[0,-150],[-106,106]]",circle,green,hori,left,"[0,-150]","[-106,106]",up,0,,,,,,Arya,2025-03-17_12h11.36.680,SL_base,2021.2.3,Win32,59.88023952,0.9476,,,83,0,83,0,1,,,,,,,,
,,"[""circle"",""no_dis"",""vert"",""up"",[99999,99999],[-150,0]]",circle,no_dis,vert,up,"[99999,99999]","[-150,0]",up,1,,,,,,Arya,2025-03-17_12h11.36.680,SL_base,2021.2.3,Win32,59.88023952,0.7885,,,84,0,84,0,1,,,,,,,,
,,"[""diamond"",""green"",""hori"",""left"",[-150,0],[150,0]]",diamond,green,hori,left,"[-150,0]","[150,0]",left,1,,,,,,Arya,2025-03-17_12h11.36.680,SL_base,2021.2.3,Win32,59.88023952,0.7173,,,85,0,85,0,1,,,,,,,,
,,"[""diamond"",""red"",""hori"",""left"",[-150,0],[106,-106]]",diamond,red,hori,left,"[-150,0]","[106,-106]",left,1,,,,,,Arya,2025-03-17_12h11.36.680,SL_base,2021.2.3,Win32,59.88023952,0.8501,,,86,0,86,0,1,,,,,,,,
,,"[""diamond"",""no_dis"",""vert"",""up"",[99999,99999],[-106,-106]]",diamond,no_dis,vert,up,"[99999,99999]","[-106,-106]",up,1,,,,,,Arya,2025-03-17_12h11.36.680,SL_base,2021.2.3,Win32,59.88023952,0.9283,,,87,0,87,0,1,,,,,,,,
,,"[""diamond"",""red"",""hori"",""left"",[150,0],[0,150]]",diamond,red,hori,left,"[150,0]","[0,150]",left,1,,,,,,Arya,2025-03-17_12h11.36.680,SL_base,2021.2.3,Win32,59.88023952,0.8618,,,88,0,88,0,1,,,,,,,,
,,"[""circle"",""green"",""hori"",""left"",[-106,-106],[-150,0]]",circle,green,hori,left,"[-106,-106]","[-150,0]",left,1,,,,,,Arya,2025-03-17_12h11.36.680,SL_base,2021.2.3,Win32,59.88023952,0.9156,,,89,0,89,0,1,,,,,,,,
,,"[""circle"",""green"",""vert"",""up"",[106,-106],[-106,-106]]",circle,green,vert,up,"[106,-106]","[-106,-106]",up,1,,,,,,Arya,2025-03-17_12h11.36.680,SL_base,2021.2.3,Win32,59.88023952,1.1828,,,90,0,90,0,1,,,,,,,,
,,"[""circle"",""red"",""vert"",""up"",[150,0],[0,150]]",circle,red,vert,up,"[150,0]","[0,150]",up,1,,,,,,Arya,2025-03-17_12h11.36.680,SL_base,2021.2.3,Win32,59.88023952,0.5662,,,91,0,91,0,1,,,,,,,,
,,"[""diamond"",""green"",""vert"",""up"",[106,-106],[-106,-106]]",diamond,green,vert,up,"[106,-106]","[-106,-106]",up,1,,,,,,Arya,2025-03-17_12h11.36.680,SL_base,2021.2.3,Win32,59.88023952,0.9123,,,92,0,92,0,1,,,,,,,,
,,"[""diamond"",""no_dis"",""vert"",""up"",[99999,99999],[-106,-106]]",diamond,no_dis,vert,up,"[99999,99999]","[-106,-106]",up,1,,,,,,Arya,2025-03-17_12h11.36.680,SL_base,2021.2.3,Win32,59.88023952,0.5859,,,93,0,93,0,1,,,,,,,,
,,"[""diamond"",""green"",""vert"",""up"",[-106,106],[106,106]]",diamond,green,vert,up,"[-106,106]","[106,106]",up,1,,,,,,Arya,2025-03-17_12h11.36.680,SL_base,2021.2.3,Win32,59.88023952,0.6131,,,94,0,94,0,1,,,,,,,,
,,"[""diamond"",""green"",""vert"",""up"",[-106,106],[0,-150]]",diamond,green,vert,up,"[-106,106]","[0,-150]",up,1,,,,,,Arya,2025-03-17_12h11.36.680,SL_base,2021.2.3,Win32,59.88023952,0.6809,,,95,0,95,0,1,,,,,,,,
,,"[""circle"",""green"",""vert"",""up"",[-150,0],[0,150]]",circle,green,vert,up,"[-150,0]","[0,150]",up,1,,,,,,Arya,2025-03-17_12h11.36.680,SL_base,2021.2.3,Win32,59.88023952,1.133,,,96,0,96,0,1,,,,,,,,
,,"[""circle"",""red"",""vert"",""up"",[-106,-106],[106,-106]]",circle,red,vert,up,"[-106,-106]","[106,-106]",up,1,,,,,,Arya,2025-03-17_12h11.36.680,SL_base,2021.2.3,Win32,59.88023952,0.8038,,,97,0,97,0,1,,,,,,,,
,,"[""circle"",""green"",""vert"",""up"",[-106,106],[0,-150]]",circle,green,vert,up,"[-106,106]","[0,-150]",up,1,,,,,,Arya,2025-03-17_12h11.36.680,SL_base,2021.2.3,Win32,59.88023952,0.8315,,,98,0,98,0,1,,,,,,,,
,,"[""circle"",""red"",""hori"",""left"",[106,-106],[-106,-106]]",circle,red,hori,left,"[106,-106]","[-106,-106]",left,1,,,,,,Arya,2025-03-17_12h11.36.680,SL_base,2021.2.3,Win32,59.88023952,0.7489,,,99,0,99,0,1,,,,,,,,
,,"[""diamond"",""no_dis"",""vert"",""up"",[99999,99999],[0,-150]]",diamond,no_dis,vert,up,"[99999,99999]","[0,-150]",up,1,,,,,,Arya,2025-03-17_12h11.36.680,SL_base,2021.2.3,Win32,59.88023952,0.9318,,,100,0,100,0,1,,,,,,,,
,,"[""diamond"",""green"",""hori"",""left"",[0,-150],[150,0]]",diamond,green,hori,left,"[0,-150]","[150,0]",left,1,,,,,,Arya,2025-03-17_12h11.36.680,SL_base,2021.2.3,Win32,59.88023952,0.7035,,,101,0,101,0,1,,,,,,,,
,,"[""diamond"",""red"",""vert"",""up"",[-106,-106],[150,0]]",diamond,red,vert,up,"[-106,-106]","[150,0]",up,1,,,,,,Arya,2025-03-17_12h11.36.680,SL_base,2021.2.3,Win32,59.88023952,0.5627,,,102,0,102,0,1,,,,,,,,
,,"[""diamond"",""green"",""vert"",""up"",[150,0],[-106,106]]",diamond,green,vert,up,"[150,0]","[-106,106]",up,1,,,,,,Arya,2025-03-17_12h11.36.680,SL_base,2021.2.3,Win32,59.88023952,0.6155,,,103,0,103,0,1,,,,,,,,
,,"[""diamond"",""red"",""vert"",""up"",[0,150],[0,-150]]",diamond,red,vert,up,"[0,150]","[0,-150]",up,1,,,,,,Arya,2025-03-17_12h11.36.680,SL_base,2021.2.3,Win32,59.88023952,0.7401,,,104,0,104,0,1,,,,,,,,
,,"[""diamond"",""green"",""hori"",""left"",[106,-106],[-150,0]]",diamond,green,hori,left,"[106,-106]","[-150,0]",left,1,,,,,,Arya,2025-03-17_12h11.36.680,SL_base,2021.2.3,Win32,59.88023952,0.6306,,,105,0,105,0,1,,,,,,,,
,,"[""diamond"",""no_dis"",""hori"",""left"",[99999,99999],[106,-106]]",diamond,no_dis,hori,left,"[99999,99999]","[106,-106]",left,1,,,,,,Arya,2025-03-17_12h11.36.680,SL_base,2021.2.3,Win32,59.88023952,0.7711,,,106,0,106,0,1,,,,,,,,
,,"[""diamond"",""no_dis"",""vert"",""up"",[99999,99999],[-150,0]]",diamond,no_dis,vert,up,"[99999,99999]","[-150,0]",up,1,,,,,,Arya,2025-03-17_12h11.36.680,SL_base,2021.2.3,Win32,59.88023952,0.6827,,,107,0,107,0,1,,,,,,,,
,,"[""circle"",""no_dis"",""vert"",""up"",[99999,99999],[150,0]]",circle,no_dis,vert,up,"[99999,99999]","[150,0]",up,1,,,,,,Arya,2025-03-17_12h11.36.680,SL_base,2021.2.3,Win32,59.88023952,1.1749,,,108,0,108,0,1,,,,,,,,
,,"[""diamond"",""green"",""vert"",""up"",[106,-106],[-150,0]]",diamond,green,vert,up,"[106,-106]","[-150,0]",up,1,,,,,,Arya,2025-03-17_12h11.36.680,SL_base,2021.2.3,Win32,59.88023952,0.7314,,,109,0,109,0,1,,,,,,,,
,,"[""diamond"",""red"",""vert"",""up"",[0,-150],[106,-106]]",diamond,red,vert,up,"[0,-150]","[106,-106]",up,1,,,,,,Arya,2025-03-17_12h11.36.680,SL_base,2021.2.3,Win32,59.88023952,0.8974,,,110,0,110,0,1,,,,,,,,
,,"[""circle"",""no_dis"",""vert"",""up"",[99999,99999],[0,150]]",circle,no_dis,vert,up,"[99999,99999]","[0,150]",up,1,,,,,,Arya,2025-03-17_12h11.36.680,SL_base,2021.2.3,Win32,59.88023952,0.5998,,,111,0,111,0,1,,,,,,,,
,,"[""circle"",""red"",""vert"",""up"",[-106,-106],[0,-150]]",circle,red,vert,up,"[-106,-106]","[0,-150]",up,1,,,,,,Arya,2025-03-17_12h11.36.680,SL_base,2021.2.3,Win32,59.88023952,0.9975,,,112,0,112,0,1,,,,,,,,
,,"[""circle"",""green"",""vert"",""up"",[0,150],[150,0]]",circle,green,vert,up,"[0,150]","[150,0]",up,1,,,,,,Arya,2025-03-17_12h11.36.680,SL_base,2021.2.3,Win32,59.88023952,0.7507,,,113,0,113,0,1,,,,,,,,
,,"[""circle"",""green"",""vert"",""up"",[106,-106],[106,106]]",circle,green,vert,up,"[106,-106]","[106,106]",up,1,,,,,,Arya,2025-03-17_12h11.36.680,SL_base,2021.2.3,Win32,59.88023952,0.8145,,,114,0,114,0,1,,,,,,,,
,,"[""circle"",""no_dis"",""hori"",""left"",[99999,99999],[0,150]]",circle,no_dis,hori,left,"[99999,99999]","[0,150]",left,1,,,,,,Arya,2025-03-17_12h11.36.680,SL_base,2021.2.3,Win32,59.88023952,0.6722,,,115,0,115,0,1,,,,,,,,
,,"[""circle"",""red"",""hori"",""left"",[106,-106],[0,150]]",circle,red,hori,left,"[106,-106]","[0,150]",left,1,,,,,,Arya,2025-03-17_12h11.36.680,SL_base,2021.2.3,Win32,59.88023952,0.4991,,,116,0,116,0,1,,,,,,,,
,,"[""diamond"",""no_dis"",""vert"",""up"",[99999,99999],[106,106]]",diamond,no_dis,vert,up,"[99999,99999]","[106,106]",up,1,,,,,,Arya,2025-03-17_12h11.36.680,SL_base,2021.2.3,Win32,59.88023952,0.749,,,117,0,117,0,1,,,,,,,,
,,"[""circle"",""red"",""vert"",""up"",[0,-150],[106,106]]",circle,red,vert,up,"[0,-150]","[106,106]",up,1,,,,,,Arya,2025-03-17_12h11.36.680,SL_base,2021.2.3,Win32,59.88023952,0.5729,,,118,0,118,0,1,,,,,,,,
,,"[""diamond"",""no_dis"",""vert"",""up"",[99999,99999],[-106,106]]",diamond,no_dis,vert,up,"[99999,99999]","[-106,106]",up,1,,,,,,Arya,2025-03-17_12h11.36.680,SL_base,2021.2.3,Win32,59.88023952,1.1666,,,119,0,119,0,1,,,,,,,,
,,,,,,,,,,,,,,,,Arya,2025-03-17_12h11.36.680,SL_base,2021.2.3,Win32,59.88023952,,,,,,,,,2,space,48.3445,1,0,1,0,1
,,"[""diamond"",""red"",""vert"",""up"",[0,-150],[106,-106]]",diamond,red,vert,up,"[0,-150]","[106,-106]",up,1,,,,,,Arya,2025-03-17_12h11.36.680,SL_base,2021.2.3,Win32,59.88023952,0.9463,,,0,0,0,0,1,,,,,,,,
,,"[""circle"",""no_dis"",""vert"",""up"",[99999,99999],[150,0]]",circle,no_dis,vert,up,"[99999,99999]","[150,0]",up,1,,,,,,Arya,2025-03-17_12h11.36.680,SL_base,2021.2.3,Win32,59.88023952,0.7996,,,1,0,1,0,1,,,,,,,,
,,"[""circle"",""green"",""vert"",""up"",[106,-106],[-106,-106]]",circle,green,vert,up,"[106,-106]","[-106,-106]",up,1,,,,,,Arya,2025-03-17_12h11.36.680,SL_base,2021.2.3,Win32,59.88023952,0.6992,,,2,0,2,0,1,,,,,,,,
,,"[""circle"",""no_dis"",""hori"",""left"",[99999,99999],[150,0]]",circle,no_dis,hori,left,"[99999,99999]","[150,0]",left,1,,,,,,Arya,2025-03-17_12h11.36.680,SL_base,2021.2.3,Win32,59.88023952,0.6644,,,3,0,3,0,1,,,,,,,,
,,"[""diamond"",""green"",""hori"",""left"",[-106,-106],[106,106]]",diamond,green,hori,left,"[-106,-106]","[106,106]",left,1,,,,,,Arya,2025-03-17_12h11.36.680,SL_base,2021.2.3,Win32,59.88023952,0.7827,,,4,0,4,0,1,,,,,,,,
,,"[""circle"",""no_dis"",""hori"",""left"",[99999,99999],[106,106]]",circle,no_dis,hori,left,"[99999,99999]","[106,106]",left,1,,,,,,Arya,2025-03-17_12h11.36.680,SL_base,2021.2.3,Win32,59.88023952,0.9571,,,5,0,5,0,1,,,,,,,,
,,"[""diamond"",""red"",""hori"",""left"",[106,106],[-106,-106]]",diamond,red,hori,left,"[106,106]","[-106,-106]",left,1,,,,,,Arya,2025-03-17_12h11.36.680,SL_base,2021.2.3,Win32,59.88023952,0.8649,,,6,0,6,0,1,,,,,,,,
,,"[""circle"",""red"",""vert"",""up"",[150,0],[0,150]]",circle,red,vert,up,"[150,0]","[0,150]",up,1,,,,,,Arya,2025-03-17_12h11.36.680,SL_base,2021.2.3,Win32,59.88023952,0.6306,,,7,0,7,0,1,,,,,,,,
,,"[""diamond"",""green"",""vert"",""up"",[150,0],[-106,106]]",diamond,green,vert,up,"[150,0]","[-106,106]",up,1,,,,,,Arya,2025-03-17_12h11.36.680,SL_base,2021.2.3,Win32,59.88023952,0.747,,,8,0,8,0,1,,,,,,,,
,,"[""circle"",""green"",""hori"",""left"",[106,-106],[0,-150]]",circle,green,hori,left,"[106,-106]","[0,-150]",left,1,,,,,,Arya,2025-03-17_12h11.36.680,SL_base,2021.2.3,Win32,59.88023952,0.7059,,,9,0,9,0,1,,,,,,,,
,,"[""diamond"",""red"",""vert"",""up"",[0,150],[150,0]]",diamond,red,vert,up,"[0,150]","[150,0]",up,1,,,,,,Arya,2025-03-17_12h11.36.680,SL_base,2021.2.3,Win32,59.88023952,0.7149,,,10,0,10,0,1,,,,,,,,
,,"[""circle"",""no_dis"",""vert"",""up"",[99999,99999],[-106,106]]",circle,no_dis,vert,up,"[99999,99999]","[-106,106]",up,1,,,,,,Arya,2025-03-17_12h11.36.680,SL_base,2021.2.3,Win32,59.88023952,0.6678,,,11,0,11,0,1,,,,,,,,
,,"[""diamond"",""green"",""vert"",""up"",[-106,-106],[0,-150]]",diamond,green,vert,up,"[-106,-106]","[0,-150]",up,1,,,,,,Arya,2025-03-17_12h11.36.680,SL_base,2021.2.3,Win32,59.88023952,0.9845,,,12,0,12,0,1,,,,,,,,
,,"[""circle"",""no_dis"",""vert"",""up"",[99999,99999],[0,150]]",circle,no_dis,vert,up,"[99999,99999]","[0,150]",up,1,,,,,,Arya,2025-03-17_12h11.36.680,SL_base,2021.2.3,Win32,59.88023952,0.6172,,,13,0,13,0,1,,,,,,,,
,,"[""diamond"",""no_dis"",""vert"",""up"",[99999,99999],[106,106]]",diamond,no_dis,vert,up,"[99999,99999]","[106,106]",up,1,,,,,,Arya,2025-03-17_12h11.36.680,SL_base,2021.2.3,Win32,59.88023952,0.5959,,,14,0,14,0,1,,,,,,,,
,,"[""circle"",""green"",""hori"",""left"",[106,106],[-106,-106]]",circle,green,hori,left,"[106,106]","[-106,-106]",left,1,,,,,,Arya,2025-03-17_12h11.36.680,SL_base,2021.2.3,Win32,59.88023952,0.7521,,,15,0,15,0,1,,,,,,,,
,,"[""circle"",""green"",""hori"",""left"",[-106,-106],[-150,0]]",circle,green,hori,left,"[-106,-106]","[-150,0]",left,1,,,,,,Arya,2025-03-17_12h11.36.680,SL_base,2021.2.3,Win32,59.88023952,0.7888,,,16,0,16,0,1,,,,,,,,
,,"[""circle"",""green"",""hori"",""left"",[-106,106],[106,-106]]",circle,green,hori,left,"[-106,106]","[106,-106]",left,1,,,,,,Arya,2025-03-17_12h11.36.680,SL_base,2021.2.3,Win32,59.88023952,0.8193,,,17,0,17,0,1,,,,,,,,
,,"[""circle"",""green"",""hori"",""left"",[106,-106],[150,0]]",circle,green,hori,left,"[106,-106]","[150,0]",left,1,,,,,,Arya,2025-03-17_12h11.36.680,SL_base,2021.2.3,Win32,59.88023952,0.6181,,,18,0,18,0,1,,,,,,,,
,,"[""diamond"",""no_dis"",""hori"",""left"",[99999,99999],[106,106]]",diamond,no_dis,hori,left,"[99999,99999]","[106,106]",left,1,,,,,,Arya,2025-03-17_12h11.36.680,SL_base,2021.2.3,Win32,59.88023952,0.7146,,,19,0,19,0,1,,,,,,,,
,,"[""diamond"",""no_dis"",""hori"",""left"",[99999,99999],[106,106]]",diamond,no_dis,hori,left,"[99999,99999]","[106,106]",left,1,,,,,,Arya,2025-03-17_12h11.36.680,SL_base,2021.2.3,Win32,59.88023952,0.5858,,,20,0,20,0,1,,,,,,,,
,,"[""circle"",""red"",""vert"",""up"",[150,0],[0,150]]",circle,red,vert,up,"[150,0]","[0,150]",up,1,,,,,,Arya,2025-03-17_12h11.36.680,SL_base,2021.2.3,Win32,59.88023952,0.8715,,,21,0,21,0,1,,,,,,,,
,,"[""diamond"",""green"",""vert"",""up"",[-106,106],[106,106]]",diamond,green,vert,up,"[-106,106]","[106,106]",up,1,,,,,,Arya,2025-03-17_12h11.36.680,SL_base,2021.2.3,Win32,59.88023952,1.0444,,,22,0,22,0,1,,,,,,,,
,,"[""diamond"",""red"",""hori"",""left"",[0,150],[106,-106]]",diamond,red,hori,left,"[0,150]","[106,-106]",left,1,,,,,,Arya,2025-03-17_12h11.36.680,SL_base,2021.2.3,Win32,59.88023952,0.8294,,,23,0,23,0,1,,,,,,,,
,,"[""diamond"",""no_dis"",""vert"",""up"",[99999,99999],[-106,-106]]",diamond,no_dis,vert,up,"[99999,99999]","[-106,-106]",up,1,,,,,,Arya,2025-03-17_12h11.36.680,SL_base,2021.2.3,Win32,59.88023952,0.5394,,,24,0,24,0,1,,,,,,,,
,,"[""diamond"",""red"",""hori"",""left"",[150,0],[0,150]]",diamond,red,hori,left,"[150,0]","[0,150]",left,1,,,,,,Arya,2025-03-17_12h11.36.680,SL_base,2021.2.3,Win32,59.88023952,0.7177,,,25,0,25,0,1,,,,,,,,
,,"[""circle"",""no_dis"",""hori"",""left"",[99999,99999],[150,0]]",circle,no_dis,hori,left,"[99999,99999]","[150,0]",left,1,,,,,,Arya,2025-03-17_12h11.36.680,SL_base,2021.2.3,Win32,59.88023952,0.7834,,,26,0,26,0,1,,,,,,,,
,,"[""diamond"",""red"",""hori"",""left"",[-150,0],[106,-106]]",diamond,red,hori,left,"[-150,0]","[106,-106]",left,1,,,,,,Arya,2025-03-17_12h11.36.680,SL_base,2021.2.3,Win32,59.88023952,0.874,,,27,0,27,0,1,,,,,,,,
,,"[""diamond"",""green"",""vert"",""up"",[150,0],[-106,-106]]",diamond,green,vert,up,"[150,0]","[-106,-106]",up,1,,,,,,Arya,2025-03-17_12h11.36.680,SL_base,2021.2.3,Win32,59.88023952,0.9143,,,28,0,28,0,1,,,,,,,,
,,"[""circle"",""red"",""vert"",""up"",[0,150],[-106,106]]",circle,red,vert,up,"[0,150]","[-106,106]",left,0,,,,,,Arya,2025-03-17_12h11.36.680,SL_base,2021.2.3,Win32,59.88023952,0.8373,,,29,0,29,0,1,,,,,,,,
,,"[""diamond"",""red"",""vert"",""up"",[150,0],[0,150]]",diamond,red,vert,up,"[150,0]","[0,150]",up,1,,,,,,Arya,2025-03-17_12h11.36.680,SL_base,2021.2.3,Win32,59.88023952,0.5888,,,30,0,30,0,1,,,,,,,,
,,"[""diamond"",""red"",""vert"",""up"",[106,106],[106,-106]]",diamond,red,vert,up,"[106,106]","[106,-106]",up,1,,,,,,Arya,2025-03-17_12h11.36.680,SL_base,2021.2.3,Win32,59.88023952,0.7327,,,31,0,31,0,1,,,,,,,,
,,"[""circle"",""green"",""vert"",""up"",[-106,106],[0,150]]",circle,green,vert,up,"[-106,106]","[0,150]",up,1,,,,,,Arya,2025-03-17_12h11.36.680,SL_base,2021.2.3,Win32,59.88023952,0.8977,,,32,0,32,0,1,,,,,,,,
,,"[""circle"",""green"",""hori"",""left"",[0,-150],[-106,106]]",circle,green,hori,left,"[0,-150]","[-106,106]",left,1,,,,,,Arya,2025-03-17_12h11.36.680,SL_base,2021.2.3,Win32,59.88023952,0.7374,,,33,0,33,0,1,,,,,,,,
,,"[""circle"",""no_dis"",""hori"",""left"",[99999,99999],[-106,106]]",circle,no_dis,hori,left,"[99999,99999]","[-106,106]",left,1,,,,,,Arya,2025-03-17_12h11.36.680,SL_base,2021.2.3,Win32,59.88023952,0.5979,,,34,0,34,0,1,,,,,,,,
,,"[""diamond"",""red"",""vert"",""up"",[106,-106],[-106,-106]]",diamond,red,vert,up,"[106,-106]","[-106,-106]",up,1,,,,,,Arya,2025-03-17_12h11.36.680,SL_base,2021.2.3,Win32,59.88023952,1.2291,,,35,0,35,0,1,,,,,,,,
,,"[""circle"",""no_dis"",""vert"",""up"",[99999,99999],[106,-106]]",circle,no_dis,vert,up,"[99999,99999]","[106,-106]",up,1,,,,,,Arya,2025-03-17_12h11.36.680,SL_base,2021.2.3,Win32,59.88023952,0.7989,,,36,0,36,0,1,,,,,,,,
,,"[""circle"",""green"",""hori"",""left"",[106,106],[0,150]]",circle,green,hori,left,"[106,106]","[0,150]",left,1,,,,,,Arya,2025-03-17_12h11.36.680,SL_base,2021.2.3,Win32,59.88023952,1.0869,,,37,0,37,0,1,,,,,,,,
,,"[""diamond"",""green"",""vert"",""up"",[106,-106],[-106,-106]]",diamond,green,vert,up,"[106,-106]","[-106,-106]",up,1,,,,,,Arya,2025-03-17_12h11.36.680,SL_base,2021.2.3,Win32,59.88023952,0.7401,,,38,0,38,0,1,,,,,,,,
,,"[""diamond"",""green"",""hori"",""left"",[106,-106],[0,-150]]",diamond,green,hori,left,"[106,-106]","[0,-150]",left,1,,,,,,Arya,2025-03-17_12h11.36.680,SL_base,2021.2.3,Win32,59.88023952,0.7805,,,39,0,39,0,1,,,,,,,,
,,"[""diamond"",""red"",""vert"",""up"",[106,-106],[0,150]]",diamond,red,vert,up,"[106,-106]","[0,150]",up,1,,,,,,Arya,2025-03-17_12h11.36.680,SL_base,2021.2.3,Win32,59.88023952,0.6483,,,40,0,40,0,1,,,,,,,,
,,"[""circle"",""green"",""hori"",""left"",[-106,106],[150,0]]",circle,green,hori,left,"[-106,106]","[150,0]",left,1,,,,,,Arya,2025-03-17_12h11.36.680,SL_base,2021.2.3,Win32,59.88023952,0.8014,,,41,0,41,0,1,,,,,,,,
,,"[""circle"",""no_dis"",""vert"",""up"",[99999,99999],[0,-150]]",circle,no_dis,vert,up,"[99999,99999]","[0,-150]",up,1,,,,,,Arya,2025-03-17_12h11.36.680,SL_base,2021.2.3,Win32,59.88023952,0.8183,,,42,0,42,0,1,,,,,,,,
,,"[""circle"",""green"",""vert"",""up"",[-106,106],[-150,0]]",circle,green,vert,up,"[-106,106]","[-150,0]",left,0,,,,,,Arya,2025-03-17_12h11.36.680,SL_base,2021.2.3,Win32,59.88023952,0.7543,,,43,0,43,0,1,,,,,,,,
,,"[""circle"",""no_dis"",""hori"",""left"",[99999,99999],[0,150]]",circle,no_dis,hori,left,"[99999,99999]","[0,150]",left,1,,,,,,Arya,2025-03-17_12h11.36.680,SL_base,2021.2.3,Win32,59.88023952,0.7231,,,44,0,44,0,1,,,,,,,,
,,"[""circle"",""green"",""vert"",""up"",[0,-150],[-106,-106]]",circle,green,vert,up,"[0,-150]","[-106,-106]",up,1,,,,,,Arya,2025-03-17_12h11.36.680,SL_base,2021.2.3,Win32,59.88023952,1.0389,,,45,0,45,0,1,,,,,,,,
,,"[""diamond"",""green"",""hori"",""left"",[106,-106],[150,0]]",diamond,green,hori,left,"[106,-106]","[150,0]",left,1,,,,,,Arya,2025-03-17_12h11.36.680,SL_base,2021.2.3,Win32,59.88023952,0.9184,,,46,0,46,0,1,,,,,,,,
,,"[""circle"",""no_dis"",""vert"",""up"",[99999,99999],[-150,0]]",circle,no_dis,vert,up,"[99999,99999]","[-150,0]",up,1,,,,,,Arya,2025-03-17_12h11.36.680,SL_base,2021.2.3,Win32,59.88023952,0.7174,,,47,0,47,0,1,,,,,,,,
,,"[""diamond"",""green"",""vert"",""up"",[-150,0],[106,106]]",diamond,green,vert,up,"[-150,0]","[106,106]",up,1,,,,,,Arya,2025-03-17_12h11.36.680,SL_base,2021.2.3,Win32,59.88023952,1.1907,,,48,0,48,0,1,,,,,,,,
,,"[""circle"",""red"",""vert"",""up"",[-106,-106],[0,-150]]",circle,red,vert,up,"[-106,-106]","[0,-150]",up,1,,,,,,Arya,2025-03-17_12h11.36.680,SL_base,2021.2.3,Win32,59.88023952,0.885,,,49,0,49,0,1,,,,,,,,
,,"[""circle"",""red"",""hori"",""left"",[106,106],[150,0]]",circle,red,hori,left,"[106,106]","[150,0]",left,1,,,,,,Arya,2025-03-17_12h11.36.680,SL_base,2021.2.3,Win32,59.88023952,0.6325,,,50,0,50,0,1,,,,,,,,
,,"[""diamond"",""red"",""hori"",""left"",[-150,0],[106,-106]]",diamond,red,hori,left,"[-150,0]","[106,-106]",left,1,,,,,,Arya,2025-03-17_12h11.36.680,SL_base,2021.2.3,Win32,59.88023952,0.8968,,,51,0,51,0,1,,,,,,,,
,,"[""circle"",""no_dis"",""hori"",""left"",[99999,99999],[0,150]]",circle,no_dis,hori,left,"[99999,99999]","[0,150]",left,1,,,,,,Arya,2025-03-17_12h11.36.680,SL_base,2021.2.3,Win32,59.88023952,0.87,,,52,0,52,0,1,,,,,,,,
,,"[""diamond"",""red"",""vert"",""up"",[-106,-106],[150,0]]",diamond,red,vert,up,"[-106,-106]","[150,0]",up,1,,,,,,Arya,2025-03-17_12h11.36.680,SL_base,2021.2.3,Win32,59.88023952,0.5878,,,53,0,53,0,1,,,,,,,,
,,"[""diamond"",""red"",""vert"",""up"",[0,150],[0,-150]]",diamond,red,vert,up,"[0,150]","[0,-150]",up,1,,,,,,Arya,2025-03-17_12h11.36.680,SL_base,2021.2.3,Win32,59.88023952,0.7801,,,54,0,54,0,1,,,,,,,,
,,"[""diamond"",""no_dis"",""hori"",""left"",[99999,99999],[106,-106]]",diamond,no_dis,hori,left,"[99999,99999]","[106,-106]",left,1,,,,,,Arya,2025-03-17_12h11.36.680,SL_base,2021.2.3,Win32,59.88023952,0.749,,,55,0,55,0,1,,,,,,,,
,,"[""diamond"",""no_dis"",""vert"",""up"",[99999,99999],[-106,-106]]",diamond,no_dis,vert,up,"[99999,99999]","[-106,-106]",up,1,,,,,,Arya,2025-03-17_12h11.36.680,SL_base,2021.2.3,Win32,59.88023952,0.7673,,,56,0,56,0,1,,,,,,,,
,,"[""circle"",""red"",""hori"",""left"",[106,-106],[-106,-106]]",circle,red,hori,left,"[106,-106]","[-106,-106]",left,1,,,,,,Arya,2025-03-17_12h11.36.680,SL_base,2021.2.3,Win32,59.88023952,0.7167,,,57,0,57,0,1,,,,,,,,
,,"[""diamond"",""no_dis"",""vert"",""up"",[99999,99999],[0,-150]]",diamond,no_dis,vert,up,"[99999,99999]","[0,-150]",up,1,,,,,,Arya,2025-03-17_12h11.36.680,SL_base,2021.2.3,Win32,59.88023952,0.7362,,,58,0,58,0,1,,,,,,,,
,,"[""diamond"",""red"",""hori"",""left"",[106,106],[-150,0]]",diamond,red,hori,left,"[106,106]","[-150,0]",left,1,,,,,,Arya,2025-03-17_12h11.36.680,SL_base,2021.2.3,Win32,59.88023952,0.5984,,,59,0,59,0,1,,,,,,,,
,,"[""circle"",""red"",""vert"",""up"",[150,0],[0,-150]]",circle,red,vert,up,"[150,0]","[0,-150]",up,1,,,,,,Arya,2025-03-17_12h11.36.680,SL_base,2021.2.3,Win32,59.88023952,0.7475,,,60,0,60,0,1,,,,,,,,
,,"[""circle"",""no_dis"",""hori"",""left"",[99999,99999],[106,-106]]",circle,no_dis,hori,left,"[99999,99999]","[106,-106]",up,0,,,,,,Arya,2025-03-17_12h11.36.680,SL_base,2021.2.3,Win32,59.88023952,0.7736,,,61,0,61,0,1,,,,,,,,
,,"[""circle"",""green"",""vert"",""up"",[-106,106],[0,-150]]",circle,green,vert,up,"[-106,106]","[0,-150]",up,1,,,,,,Arya,2025-03-17_12h11.36.680,SL_base,2021.2.3,Win32,59.88023952,0.5988,,,62,0,62,0,1,,,,,,,,
,,"[""diamond"",""red"",""hori"",""left"",[106,106],[0,150]]",diamond,red,hori,left,"[106,106]","[0,150]",left,1,,,,,,Arya,2025-03-17_12h11.36.680,SL_base,2021.2.3,Win32,59.88023952,0.7822,,,63,0,63,0,1,,,,,,,,
,,"[""diamond"",""red"",""hori"",""left"",[0,-150],[-106,106]]",diamond,red,hori,left,"[0,-150]","[-106,106]",left,1,,,,,,Arya,2025-03-17_12h11.36.680,SL_base,2021.2.3,Win32,59.88023952,0.6637,,,64,0,64,0,1,,,,,,,,
,,"[""circle"",""red"",""hori"",""left"",[-150,0],[-106,-106]]",circle,red,hori,left,"[-150,0]","[-106,-106]",left,1,,,,,,Arya,2025-03-17_12h11.36.680,SL_base,2021.2.3,Win32,59.88023952,1.0498,,,65,0,65,0,1,,,,,,,,
,,"[""circle"",""no_dis"",""hori"",""left"",[99999,99999],[-106,-106]]",circle,no_dis,hori,left,"[99999,99999]","[-106,-106]",left,1,,,,,,Arya,2025-03-17_12h11.36.680,SL_base,2021.2.3,Win32,59.88023952,0.6417,,,66,0,66,0,1,,,,,,,,
,,"[""diamond"",""no_dis"",""hori"",""left"",[99999,99999],[106,-106]]",diamond,no_dis,hori,left,"[99999,99999]","[106,-106]",left,1,,,,,,Arya,2025-03-17_12h11.36.680,SL_base,2021.2.3,Win32,59.88023952,1.0377,,,67,0,67,0,1,,,,,,,,
,,"[""diamond"",""red"",""vert"",""up"",[106,106],[150,0]]",diamond,red,vert,up,"[106,106]","[150,0]",up,1,,,,,,Arya,2025-03-17_12h11.36.680,SL_base,2021.2.3,Win32,59.88023952,0.9825,,,68,0,68,0,1,,,,,,,,
,,"[""circle"",""red"",""hori"",""left"",[-150,0],[-106,106]]",circle,red,hori,left,"[-150,0]","[-106,106]",left,1,,,,,,Arya,2025-03-17_12h11.36.680,SL_base,2021.2.3,Win32,59.88023952,1.1331,,,69,0,69,0,1,,,,,,,,
,,"[""diamond"",""no_dis"",""vert"",""up"",[99999,99999],[150,0]]",diamond,no_dis,vert,up,"[99999,99999]","[150,0]",up,1,,,,,,Arya,2025-03-17_12h11.36.680,SL_base,2021.2.3,Win32,59.88023952,0.7811,,,70,0,70,0,1,,,,,,,,
,,"[""diamond"",""red"",""vert"",""up"",[0,-150],[106,-106]]",diamond,red,vert,up,"[0,-150]","[106,-106]",left,0,,,,,,Arya,2025-03-17_12h11.36.680,SL_base,2021.2.3,Win32,59.88023952,0.8477,,,71,0,71,0,1,,,,,,,,
,,"[""circle"",""no_dis"",""vert"",""up"",[99999,99999],[-150,0]]",circle,no_dis,vert,up,"[99999,99999]","[-150,0]",up,1,,,,,,Arya,2025-03-17_12h11.36.680,SL_base,2021.2.3,Win32,59.88023952,0.7498,,,72,0,72,0,1,,,,,,,,
,,"[""circle"",""red"",""hori"",""left"",[106,-106],[-106,-106]]",circle,red,hori,left,"[106,-106]","[-106,-106]",left,1,,,,,,Arya,2025-03-17_12h11.36.680,SL_base,2021.2.3,Win32,59.88023952,0.87,,,73,0,73,0,1,,,,,,,,
,,"[""circle"",""green"",""hori"",""left"",[106,-106],[-150,0]]",circle,green,hori,left,"[106,-106]","[-150,0]",left,1,,,,,,Arya,2025-03-17_12h11.36.680,SL_base,2021.2.3,Win32,59.88023952,0.6652,,,74,0,74,0,1,,,,,,,,
,,"[""circle"",""green"",""vert"",""up"",[106,-106],[106,106]]",circle,green,vert,up,"[106,-106]","[106,106]",up,1,,,,,,Arya,2025-03-17_12h11.36.680,SL_base,2021.2.3,Win32,59.88023952,0.6407,,,75,0,75,0,1,,,,,,,,
,,"[""diamond"",""green"",""vert"",""up"",[106,-106],[-106,-106]]",diamond,green,vert,up,"[106,-106]","[-106,-106]",up,1,,,,,,Arya,2025-03-17_12h11.36.680,SL_base,2021.2.3,Win32,59.88023952,0.9903,,,76,0,76,0,1,,,,,,,,
,,"[""circle"",""green"",""vert"",""up"",[-106,-106],[-150,0]]",circle,green,vert,up,"[-106,-106]","[-150,0]",up,1,,,,,,Arya,2025-03-17_12h11.36.680,SL_base,2021.2.3,Win32,59.88023952,0.7659,,,77,0,77,0,1,,,,,,,,
,,"[""circle"",""green"",""hori"",""left"",[106,-106],[106,106]]",circle,green,hori,left,"[106,-106]","[106,106]",up,0,,,,,,Arya,2025-03-17_12h11.36.680,SL_base,2021.2.3,Win32,59.88023952,1.0008,,,78,0,78,0,1,,,,,,,,
,,"[""circle"",""green"",""vert"",""up"",[-106,106],[-106,-106]]",circle,green,vert,up,"[-106,106]","[-106,-106]",up,1,,,,,,Arya,2025-03-17_12h11.36.680,SL_base,2021.2.3,Win32,59.88023952,0.9395,,,79,0,79,0,1,,,,,,,,
,,"[""diamond"",""no_dis"",""hori"",""left"",[99999,99999],[-150,0]]",diamond,no_dis,hori,left,"[99999,99999]","[-150,0]",left,1,,,,,,Arya,2025-03-17_12h11.36.680,SL_base,2021.2.3,Win32,59.88023952,0.682,,,80,0,80,0,1,,,,,,,,
,,"[""circle"",""no_dis"",""hori"",""left"",[99999,99999],[150,0]]",circle,no_dis,hori,left,"[99999,99999]","[150,0]",left,1,,,,,,Arya,2025-03-17_12h11.36.680,SL_base,2021.2.3,Win32,59.88023952,0.7567,,,81,0,81,0,1,,,,,,,,
,,"[""diamond"",""no_dis"",""vert"",""up"",[99999,99999],[-106,-106]]",diamond,no_dis,vert,up,"[99999,99999]","[-106,-106]",up,1,,,,,,Arya,2025-03-17_12h11.36.680,SL_base,2021.2.3,Win32,59.88023952,0.7551,,,82,0,82,0,1,,,,,,,,
,,"[""circle"",""red"",""vert"",""up"",[106,-106],[150,0]]",circle,red,vert,up,"[106,-106]","[150,0]",up,1,,,,,,Arya,2025-03-17_12h11.36.680,SL_base,2021.2.3,Win32,59.88023952,0.7314,,,83,0,83,0,1,,,,,,,,
,,"[""diamond"",""green"",""vert"",""up"",[106,-106],[-150,0]]",diamond,green,vert,up,"[106,-106]","[-150,0]",left,0,,,,,,Arya,2025-03-17_12h11.36.680,SL_base,2021.2.3,Win32,59.88023952,0.619,,,84,0,84,0,1,,,,,,,,
,,"[""diamond"",""green"",""hori"",""left"",[0,-150],[150,0]]",diamond,green,hori,left,"[0,-150]","[150,0]",left,1,,,,,,Arya,2025-03-17_12h11.36.680,SL_base,2021.2.3,Win32,59.88023952,0.7153,,,85,0,85,0,1,,,,,,,,
,,"[""circle"",""red"",""vert"",""up"",[-106,-106],[106,-106]]",circle,red,vert,up,"[-106,-106]","[106,-106]",up,1,,,,,,Arya,2025-03-17_12h11.36.680,SL_base,2021.2.3,Win32,59.88023952,0.8248,,,86,0,86,0,1,,,,,,,,
,,"[""circle"",""red"",""vert"",""up"",[0,-150],[106,106]]",circle,red,vert,up,"[0,-150]","[106,106]",up,1,,,,,,Arya,2025-03-17_12h11.36.680,SL_base,2021.2.3,Win32,59.88023952,0.6161,,,87,0,87,0,1,,,,,,,,
,,"[""diamond"",""green"",""hori"",""left"",[150,0],[106,-106]]",diamond,green,hori,left,"[150,0]","[106,-106]",up,0,,,,,,Arya,2025-03-17_12h11.36.680,SL_base,2021.2.3,Win32,59.88023952,1.3657,,,88,0,88,0,1,,,,,,,,
,,"[""diamond"",""no_dis"",""vert"",""up"",[99999,99999],[0,-150]]",diamond,no_dis,vert,up,"[99999,99999]","[0,-150]",up,1,,,,,,Arya,2025-03-17_12h11.36.680,SL_base,2021.2.3,Win32,59.88023952,0.718,,,89,0,89,0,1,,,,,,,,
,,"[""circle"",""red"",""vert"",""up"",[106,-106],[0,-150]]",circle,red,vert,up,"[106,-106]","[0,-150]",up,1,,,,,,Arya,2025-03-17_12h11.36.680,SL_base,2021.2.3,Win32,59.88023952,0.9165,,,90,0,90,0,1,,,,,,,,
,,"[""diamond"",""no_dis"",""hori"",""left"",[99999,99999],[-106,-106]]",diamond,no_dis,hori,left,"[99999,99999]","[-106,-106]",left,1,,,,,,Arya,2025-03-17_12h11.36.680,SL_base,2021.2.3,Win32,59.88023952,0.8358,,,91,0,91,0,1,,,,,,,,
,,"[""diamond"",""green"",""hori"",""left"",[0,150],[0,-150]]",diamond,green,hori,left,"[0,150]","[0,-150]",left,1,,,,,,Arya,2025-03-17_12h11.36.680,SL_base,2021.2.3,Win32,59.88023952,1.0532,,,92,0,92,0,1,,,,,,,,
,,"[""diamond"",""no_dis"",""hori"",""left"",[99999,99999],[106,106]]",diamond,no_dis,hori,left,"[99999,99999]","[106,106]",left,1,,,,,,Arya,2025-03-17_12h11.36.680,SL_base,2021.2.3,Win32,59.88023952,0.7057,,,93,0,93,0,1,,,,,,,,
,,"[""circle"",""no_dis"",""vert"",""up"",[99999,99999],[0,150]]",circle,no_dis,vert,up,"[99999,99999]","[0,150]",up,1,,,,,,Arya,2025-03-17_12h11.36.680,SL_base,2021.2.3,Win32,59.88023952,1.0554,,,94,0,94,0,1,,,,,,,,
,,"[""circle"",""red"",""hori"",""left"",[106,-106],[-150,0]]",circle,red,hori,left,"[106,-106]","[-150,0]",left,1,,,,,,Arya,2025-03-17_12h11.36.680,SL_base,2021.2.3,Win32,59.88023952,0.633,,,95,0,95,0,1,,,,,,,,
,,"[""diamond"",""red"",""hori"",""left"",[-150,0],[-106,-106]]",diamond,red,hori,left,"[-150,0]","[-106,-106]",left,1,,,,,,Arya,2025-03-17_12h11.36.680,SL_base,2021.2.3,Win32,59.88023952,1.0811,,,96,0,96,0,1,,,,,,,,
,,"[""diamond"",""no_dis"",""vert"",""up"",[99999,99999],[-150,0]]",diamond,no_dis,vert,up,"[99999,99999]","[-150,0]",up,1,,,,,,Arya,2025-03-17_12h11.36.680,SL_base,2021.2.3,Win32,59.88023952,0.8071,,,97,0,97,0,1,,,,,,,,
,,"[""circle"",""no_dis"",""hori"",""left"",[99999,99999],[0,150]]",circle,no_dis,hori,left,"[99999,99999]","[0,150]",left,1,,,,,,Arya,2025-03-17_12h11.36.680,SL_base,2021.2.3,Win32,59.88023952,0.5824,,,98,0,98,0,1,,,,,,,,
,,"[""diamond"",""red"",""hori"",""left"",[106,-106],[150,0]]",diamond,red,hori,left,"[106,-106]","[150,0]",left,1,,,,,,Arya,2025-03-17_12h11.36.680,SL_base,2021.2.3,Win32,59.88023952,0.9493,,,99,0,99,0,1,,,,,,,,
,,"[""circle"",""red"",""hori"",""left"",[106,-106],[106,106]]",circle,red,hori,left,"[106,-106]","[106,106]",left,1,,,,,,Arya,2025-03-17_12h11.36.680,SL_base,2021.2.3,Win32,59.88023952,0.6397,,,100,0,100,0,1,,,,,,,,
,,"[""diamond"",""green"",""hori"",""left"",[-106,-106],[-106,106]]",diamond,green,hori,left,"[-106,-106]","[-106,106]",left,1,,,,,,Arya,2025-03-17_12h11.36.680,SL_base,2021.2.3,Win32,59.88023952,0.7313,,,101,0,101,0,1,,,,,,,,
,,"[""circle"",""red"",""hori"",""left"",[106,-106],[-106,-106]]",circle,red,hori,left,"[106,-106]","[-106,-106]",left,1,,,,,,Arya,2025-03-17_12h11.36.680,SL_base,2021.2.3,Win32,59.88023952,0.5716,,,102,0,102,0,1,,,,,,,,
,,"[""diamond"",""no_dis"",""vert"",""up"",[99999,99999],[-106,106]]",diamond,no_dis,vert,up,"[99999,99999]","[-106,106]",up,1,,,,,,Arya,2025-03-17_12h11.36.680,SL_base,2021.2.3,Win32,59.88023952,0.5658,,,103,0,103,0,1,,,,,,,,
,,"[""diamond"",""green"",""vert"",""up"",[-106,106],[0,-150]]",diamond,green,vert,up,"[-106,106]","[0,-150]",up,1,,,,,,Arya,2025-03-17_12h11.36.680,SL_base,2021.2.3,Win32,59.88023952,0.8163,,,104,0,104,0,1,,,,,,,,
,,"[""circle"",""green"",""vert"",""up"",[-150,0],[0,150]]",circle,green,vert,up,"[-150,0]","[0,150]",up,1,,,,,,Arya,2025-03-17_12h11.36.680,SL_base,2021.2.3,Win32,59.88023952,0.9246,,,105,0,105,0,1,,,,,,,,
,,"[""diamond"",""no_dis"",""hori"",""left"",[99999,99999],[106,-106]]",diamond,no_dis,hori,left,"[99999,99999]","[106,-106]",left,1,,,,,,Arya,2025-03-17_12h11.36.680,SL_base,2021.2.3,Win32,59.88023952,0.6485,,,106,0,106,0,1,,,,,,,,
,,"[""diamond"",""green"",""vert"",""up"",[0,150],[-106,106]]",diamond,green,vert,up,"[0,150]","[-106,106]",up,1,,,,,,Arya,2025-03-17_12h11.36.680,SL_base,2021.2.3,Win32,59.88023952,0.767,,,107,0,107,0,1,,,,,,,,
,,"[""circle"",""red"",""hori"",""left"",[106,-106],[0,150]]",circle,red,hori,left,"[106,-106]","[0,150]",left,1,,,,,,Arya,2025-03-17_12h11.36.680,SL_base,2021.2.3,Win32,59.88023952,0.7322,,,108,0,108,0,1,,,,,,,,
,,"[""diamond"",""green"",""hori"",""left"",[-150,0],[150,0]]",diamond,green,hori,left,"[-150,0]","[150,0]",left,1,,,,,,Arya,2025-03-17_12h11.36.680,SL_base,2021.2.3,Win32,59.88023952,0.7194,,,109,0,109,0,1,,,,,,,,
,,"[""circle"",""no_dis"",""vert"",""up"",[99999,99999],[-150,0]]",circle,no_dis,vert,up,"[99999,99999]","[-150,0]",up,1,,,,,,Arya,2025-03-17_12h11.36.680,SL_base,2021.2.3,Win32,59.88023952,0.8764,,,110,0,110,0,1,,,,,,,,
,,"[""diamond"",""no_dis"",""vert"",""up"",[99999,99999],[-106,106]]",diamond,no_dis,vert,up,"[99999,99999]","[-106,106]",up,1,,,,,,Arya,2025-03-17_12h11.36.680,SL_base,2021.2.3,Win32,59.88023952,0.8146,,,111,0,111,0,1,,,,,,,,
,,"[""circle"",""no_dis"",""vert"",""up"",[99999,99999],[-106,106]]",circle,no_dis,vert,up,"[99999,99999]","[-106,106]",up,1,,,,,,Arya,2025-03-17_12h11.36.680,SL_base,2021.2.3,Win32,59.88023952,0.7145,,,112,0,112,0,1,,,,,,,,
,,"[""circle"",""red"",""vert"",""up"",[0,150],[150,0]]",circle,red,vert,up,"[0,150]","[150,0]",up,1,,,,,,Arya,2025-03-17_12h11.36.680,SL_base,2021.2.3,Win32,59.88023952,0.7664,,,113,0,113,0,1,,,,,,,,
,,"[""diamond"",""green"",""hori"",""left"",[0,-150],[-106,-106]]",diamond,green,hori,left,"[0,-150]","[-106,-106]",left,1,,,,,,Arya,2025-03-17_12h11.36.680,SL_base,2021.2.3,Win32,59.88023952,0.8339,,,114,0,114,0,1,,,,,,,,
,,"[""diamond"",""green"",""hori"",""left"",[106,-106],[-150,0]]",diamond,green,hori,left,"[106,-106]","[-150,0]",left,1,,,,,,Arya,2025-03-17_12h11.36.680,SL_base,2021.2.3,Win32,59.88023952,0.6458,,,115,0,115,0,1,,,,,,,,
,,"[""circle"",""red"",""hori"",""left"",[106,-106],[0,150]]",circle,red,hori,left,"[106,-106]","[0,150]",left,1,,,,,,Arya,2025-03-17_12h11.36.680,SL_base,2021.2.3,Win32,59.88023952,1.2403,,,116,0,116,0,1,,,,,,,,
,,"[""diamond"",""no_dis"",""hori"",""left"",[99999,99999],[0,-150]]",diamond,no_dis,hori,left,"[99999,99999]","[0,-150]",left,1,,,,,,Arya,2025-03-17_12h11.36.680,SL_base,2021.2.3,Win32,59.88023952,0.9645,,,117,0,117,0,1,,,,,,,,
,,"[""diamond"",""no_dis"",""hori"",""left"",[99999,99999],[0,-150]]",diamond,no_dis,hori,left,"[99999,99999]","[0,-150]",left,1,,,,,,Arya,2025-03-17_12h11.36.680,SL_base,2021.2.3,Win32,59.88023952,0.7462,,,118,0,118,0,1,,,,,,,,
,,"[""circle"",""green"",""vert"",""up"",[0,150],[150,0]]",circle,green,vert,up,"[0,150]","[150,0]",up,1,,,,,,Arya,2025-03-17_12h11.36.680,SL_base,2021.2.3,Win32,59.88023952,1.0861,,,119,0,119,0,1,,,,,,,,
,,,,,,,,,,,,,,,,Arya,2025-03-17_12h11.36.680,SL_base,2021.2.3,Win32,59.88023952,,,,,,,,,3,space,10.3742,2,0,2,0,1
,,"[""diamond"",""green"",""vert"",""up"",[106,-106],[-106,-106]]",diamond,green,vert,up,"[106,-106]","[-106,-106]",up,1,,,,,,Arya,2025-03-17_12h11.36.680,SL_base,2021.2.3,Win32,59.88023952,0.8977,,,0,0,0,0,1,,,,,,,,
,,"[""circle"",""no_dis"",""vert"",""up"",[99999,99999],[106,-106]]",circle,no_dis,vert,up,"[99999,99999]","[106,-106]",up,1,,,,,,Arya,2025-03-17_12h11.36.680,SL_base,2021.2.3,Win32,59.88023952,0.7719,,,1,0,1,0,1,,,,,,,,
,,"[""diamond"",""green"",""vert"",""up"",[150,0],[-106,-106]]",diamond,green,vert,up,"[150,0]","[-106,-106]",up,1,,,,,,Arya,2025-03-17_12h11.36.680,SL_base,2021.2.3,Win32,59.88023952,0.7318,,,2,0,2,0,1,,,,,,,,
,,"[""circle"",""red"",""vert"",""up"",[150,0],[0,-150]]",circle,red,vert,up,"[150,0]","[0,-150]",up,1,,,,,,Arya,2025-03-17_12h11.36.680,SL_base,2021.2.3,Win32,59.88023952,0.7742,,,3,0,3,0,1,,,,,,,,
,,"[""circle"",""green"",""vert"",""up"",[-106,106],[-150,0]]",circle,green,vert,up,"[-106,106]","[-150,0]",left,0,,,,,,Arya,2025-03-17_12h11.36.680,SL_base,2021.2.3,Win32,59.88023952,1.2196,,,4,0,4,0,1,,,,,,,,
,,"[""diamond"",""no_dis"",""hori"",""left"",[99999,99999],[106,-106]]",diamond,no_dis,hori,left,"[99999,99999]","[106,-106]",left,1,,,,,,Arya,2025-03-17_12h11.36.680,SL_base,2021.2.3,Win32,59.88023952,0.7791,,,5,0,5,0,1,,,,,,,,
,,"[""circle"",""green"",""vert"",""up"",[106,-106],[106,106]]",circle,green,vert,up,"[106,-106]","[106,106]",up,1,,,,,,Arya,2025-03-17_12h11.36.680,SL_base,2021.2.3,Win32,59.88023952,0.6857,,,6,0,6,0,1,,,,,,,,
,,"[""diamond"",""green"",""vert"",""up"",[-150,0],[106,106]]",diamond,green,vert,up,"[-150,0]","[106,106]",up,1,,,,,,Arya,2025-03-17_12h11.36.680,SL_base,2021.2.3,Win32,59.88023952,0.8972,,,7,0,7,0,1,,,,,,,,
,,"[""circle"",""no_dis"",""hori"",""left"",[99999,99999],[150,0]]",circle,no_dis,hori,left,"[99999,99999]","[150,0]",left,1,,,,,,Arya,2025-03-17_12h11.36.680,SL_base,2021.2.3,Win32,59.88023952,0.6701,,,8,0,8,0,1,,,,,,,,
,,"[""diamond"",""red"",""hori"",""left"",[0,-150],[-106,106]]",diamond,red,hori,left,"[0,-150]","[-106,106]",left,1,,,,,,Arya,2025-03-17_12h11.36.680,SL_base,2021.2.3,Win32,59.88023952,0.719,,,9,0,9,0,1,,,,,,,,
,,"[""circle"",""no_dis"",""hori"",""left"",[99999,99999],[0,150]]",circle,no_dis,hori,left,"[99999,99999]","[0,150]",up,0,,,,,,Arya,2025-03-17_12h11.36.680,SL_base,2021.2.3,Win32,59.88023952,1.0069,,,10,0,10,0,1,,,,,,,,
,,"[""circle"",""no_dis"",""hori"",""left"",[99999,99999],[106,-106]]",circle,no_dis,hori,left,"[99999,99999]","[106,-106]",left,1,,,,,,Arya,2025-03-17_12h11.36.680,SL_base,2021.2.3,Win32,59.88023952,0.6152,,,11,0,11,0,1,,,,,,,,
,,"[""diamond"",""red"",""vert"",""up"",[0,-150],[106,-106]]",diamond,red,vert,up,"[0,-150]","[106,-106]",up,1,,,,,,Arya,2025-03-17_12h11.36.680,SL_base,2021.2.3,Win32,59.88023952,0.7468,,,12,0,12,0,1,,,,,,,,
,,"[""circle"",""red"",""hori"",""left"",[106,106],[150,0]]",circle,red,hori,left,"[106,106]","[150,0]",left,1,,,,,,Arya,2025-03-17_12h11.36.680,SL_base,2021.2.3,Win32,59.88023952,0.6404,,,13,0,13,0,1,,,,,,,,
,,"[""circle"",""no_dis"",""hori"",""left"",[99999,99999],[-106,-106]]",circle,no_dis,hori,left,"[99999,99999]","[-106,-106]",left,1,,,,,,Arya,2025-03-17_12h11.36.680,SL_base,2021.2.3,Win32,59.88023952,0.6658,,,14,0,14,0,1,,,,,,,,
,,"[""circle"",""red"",""hori"",""left"",[-150,0],[-106,-106]]",circle,red,hori,left,"[-150,0]","[-106,-106]",left,1,,,,,,Arya,2025-03-17_12h11.36.680,SL_base,2021.2.3,Win32,59.88023952,0.6972,,,15,0,15,0,1,,,,,,,,
,,"[""circle"",""green"",""vert"",""up"",[-106,106],[-106,-106]]",circle,green,vert,up,"[-106,106]","[-106,-106]",up,1,,,,,,Arya,2025-03-17_12h11.36.680,SL_base,2021.2.3,Win32,59.88023952,0.802,,,16,0,16,0,1,,,,,,,,
,,"[""circle"",""no_dis"",""hori"",""left"",[99999,99999],[150,0]]",circle,no_dis,hori,left,"[99999,99999]","[150,0]",left,1,,,,,,Arya,2025-03-17_12h11.36.680,SL_base,2021.2.3,Win32,59.88023952,0.607,,,17,0,17,0,1,,,,,,,,
,,"[""circle"",""red"",""vert"",""up"",[150,0],[0,150]]",circle,red,vert,up,"[150,0]","[0,150]",up,1,,,,,,Arya,2025-03-17_12h11.36.680,SL_base,2021.2.3,Win32,59.88023952,0.7996,,,18,0,18,0,1,,,,,,,,
,,"[""circle"",""no_dis"",""vert"",""up"",[99999,99999],[0,-150]]",circle,no_dis,vert,up,"[99999,99999]","[0,-150]",up,1,,,,,,Arya,2025-03-17_12h11.36.680,SL_base,2021.2.3,Win32,59.88023952,0.7437,,,19,0,19,0,1,,,,,,,,
,,"[""diamond"",""no_dis"",""vert"",""up"",[99999,99999],[-106,106]]",diamond,no_dis,vert,up,"[99999,99999]","[-106,106]",up,1,,,,,,Arya,2025-03-17_12h11.36.680,SL_base,2021.2.3,Win32,59.88023952,0.8655,,,20,0,20,0,1,,,,,,,,
,,"[""diamond"",""no_dis"",""vert"",""up"",[99999,99999],[-106,-106]]",diamond,no_dis,vert,up,"[99999,99999]","[-106,-106]",up,1,,,,,,Arya,2025-03-17_12h11.36.680,SL_base,2021.2.3,Win32,59.88023952,0.9005,,,21,0,21,0,1,,,,,,,,
,,"[""diamond"",""red"",""vert"",""up"",[106,-106],[-106,-106]]",diamond,red,vert,up,"[106,-106]","[-106,-106]",up,1,,,,,,Arya,2025-03-17_12h11.36.680,SL_base,2021.2.3,Win32,59.88023952,0.7888,,,22,0,22,0,1,,,,,,,,
,,"[""circle"",""red"",""vert"",""up"",[-106,-106],[106,-106]]",circle,red,vert,up,"[-106,-106]","[106,-106]",up,1,,,,,,Arya,2025-03-17_12h11.36.680,SL_base,2021.2.3,Win32,59.88023952,1.2225,,,23,0,23,0,1,,,,,,,,
,,"[""circle"",""no_dis"",""vert"",""up"",[99999,99999],[-106,106]]",circle,no_dis,vert,up,"[99999,99999]","[-106,106]",up,1,,,,,,Arya,2025-03-17_12h11.36.680,SL_base,2021.2.3,Win32,59.88023952,0.7669,,,24,0,24,0,1,,,,,,,,
,,"[""circle"",""green"",""vert"",""up"",[106,-106],[-106,-106]]",circle,green,vert,up,"[106,-106]","[-106,-106]",up,1,,,,,,Arya,2025-03-17_12h11.36.680,SL_base,2021.2.3,Win32,59.88023952,0.7369,,,25,0,25,0,1,,,,,,,,
,,"[""circle"",""red"",""vert"",""up"",[106,-106],[0,-150]]",circle,red,vert,up,"[106,-106]","[0,-150]",up,1,,,,,,Arya,2025-03-17_12h11.36.680,SL_base,2021.2.3,Win32,59.88023952,1.0702,,,26,0,26,0,1,,,,,,,,
,,"[""circle"",""green"",""hori"",""left"",[-106,106],[150,0]]",circle,green,hori,left,"[-106,106]","[150,0]",left,1,,,,,,Arya,2025-03-17_12h11.36.680,SL_base,2021.2.3,Win32,59.88023952,0.7596,,,27,0,27,0,1,,,,,,,,
,,"[""diamond"",""green"",""hori"",""left"",[0,150],[0,-150]]",diamond,green,hori,left,"[0,150]","[0,-150]",left,1,,,,,,Arya,2025-03-17_12h11.36.680,SL_base,2021.2.3,Win32,59.88023952,0.7602,,,28,0,28,0,1,,,,,,,,
,,"[""circle"",""no_dis"",""hori"",""left"",[99999,99999],[106,106]]",circle,no_dis,hori,left,"[99999,99999]","[106,106]",left,1,,,,,,Arya,2025-03-17_12h11.36.680,SL_base,2021.2.3,Win32,59.88023952,0.7503,,,29,0,29,0,1,,,,,,,,
,,"[""circle"",""red"",""vert"",""up"",[106,-106],[150,0]]",circle,red,vert,up,"[106,-106]","[150,0]",up,1,,,,,,Arya,2025-03-17_12h11.36.680,SL_base,2021.2.3,Win32,59.88023952,0.6717,,,30,0,30,0,1,,,,,,,,
,,"[""circle"",""green"",""hori"",""left"",[106,106],[-106,-106]]",circle,green,hori,left,"[106,106]","[-106,-106]",left,1,,,,,,Arya,2025-03-17_12h11.36.680,SL_base,2021.2.3,Win32,59.88023952,0.7339,,,31,0,31,0,1,,,,,,,,
,,"[""circle"",""no_dis"",""vert"",""up"",[99999,99999],[150,0]]",circle,no_dis,vert,up,"[99999,99999]","[150,0]",up,1,,,,,,Arya,2025-03-17_12h11.36.680,SL_base,2021.2.3,Win32,59.88023952,0.5345,,,32,0,32,0,1,,,,,,,,
,,"[""diamond"",""no_dis"",""vert"",""up"",[99999,99999],[-106,-106]]",diamond,no_dis,vert,up,"[99999,99999]","[-106,-106]",up,1,,,,,,Arya,2025-03-17_12h11.36.680,SL_base,2021.2.3,Win32,59.88023952,0.9108,,,33,0,33,0,1,,,,,,,,
,,"[""diamond"",""no_dis"",""hori"",""left"",[99999,99999],[106,106]]",diamond,no_dis,hori,left,"[99999,99999]","[106,106]",left,1,,,,,,Arya,2025-03-17_12h11.36.680,SL_base,2021.2.3,Win32,59.88023952,0.6333,,,34,0,34,0,1,,,,,,,,
,,"[""diamond"",""no_dis"",""vert"",""up"",[99999,99999],[106,106]]",diamond,no_dis,vert,up,"[99999,99999]","[106,106]",left,0,,,,,,Arya,2025-03-17_12h11.36.680,SL_base,2021.2.3,Win32,59.88023952,0.6893,,,35,0,35,0,1,,,,,,,,
,,"[""circle"",""red"",""vert"",""up"",[150,0],[0,150]]",circle,red,vert,up,"[150,0]","[0,150]",up,1,,,,,,Arya,2025-03-17_12h11.36.680,SL_base,2021.2.3,Win32,59.88023952,0.7342,,,36,0,36,0,1,,,,,,,,
,,"[""circle"",""no_dis"",""vert"",""up"",[99999,99999],[-150,0]]",circle,no_dis,vert,up,"[99999,99999]","[-150,0]",up,1,,,,,,Arya,2025-03-17_12h11.36.680,SL_base,2021.2.3,Win32,59.88023952,0.7088,,,37,0,37,0,1,,,,,,,,
,,"[""diamond"",""green"",""vert"",""up"",[-106,106],[106,106]]",diamond,green,vert,up,"[-106,106]","[106,106]",up,1,,,,,,Arya,2025-03-17_12h11.36.680,SL_base,2021.2.3,Win32,59.88023952,0.9345,,,38,0,38,0,1,,,,,,,,
,,"[""diamond"",""no_dis"",""hori"",""left"",[99999,99999],[106,106]]",diamond,no_dis,hori,left,"[99999,99999]","[106,106]",left,1,,,,,,Arya,2025-03-17_12h11.36.680,SL_base,2021.2.3,Win32,59.88023952,0.7162,,,39,0,39,0,1,,,,,,,,
,,"[""circle"",""no_dis"",""hori"",""left"",[99999,99999],[0,150]]",circle,no_dis,hori,left,"[99999,99999]","[0,150]",up,0,,,,,,Arya,2025-03-17_12h11.36.680,SL_base,2021.2.3,Win32,59.88023952,0.9859,,,40,0,40,0,1,,,,,,,,
,,"[""circle"",""green"",""vert"",""up"",[-106,106],[0,-150]]",circle,green,vert,up,"[-106,106]","[0,-150]",up,1,,,,,,Arya,2025-03-17_12h11.36.680,SL_base,2021.2.3,Win32,59.88023952,1.2333,,,41,0,41,0,1,,,,,,,,
,,"[""circle"",""red"",""hori"",""left"",[106,-106],[0,150]]",circle,red,hori,left,"[106,-106]","[0,150]",left,1,,,,,,Arya,2025-03-17_12h11.36.680,SL_base,2021.2.3,Win32,59.88023952,0.7519,,,42,0,42,0,1,,,,,,,,
,,"[""circle"",""green"",""hori"",""left"",[106,-106],[106,106]]",circle,green,hori,left,"[106,-106]","[106,106]",left,1,,,,,,Arya,2025-03-17_12h11.36.680,SL_base,2021.2.3,Win32,59.88023952,0.6514,,,43,0,43,0,1,,,,,,,,
,,"[""circle"",""no_dis"",""vert"",""up"",[99999,99999],[0,150]]",circle,no_dis,vert,up,"[99999,99999]","[0,150]",up,1,,,,,,Arya,2025-03-17_12h11.36.680,SL_base,2021.2.3,Win32,59.88023952,0.7164,,,44,0,44,0,1,,,,,,,,
,,"[""circle"",""green"",""hori"",""left"",[106,106],[0,150]]",circle,green,hori,left,"[106,106]","[0,150]",left,1,,,,,,Arya,2025-03-17_12h11.36.680,SL_base,2021.2.3,Win32,59.88023952,0.8501,,,45,0,45,0,1,,,,,,,,
,,"[""circle"",""green"",""hori"",""left"",[106,-106],[-150,0]]",circle,green,hori,left,"[106,-106]","[-150,0]",left,1,,,,,,Arya,2025-03-17_12h11.36.680,SL_base,2021.2.3,Win32,59.88023952,0.8337,,,46,0,46,0,1,,,,,,,,
,,"[""diamond"",""no_dis"",""hori"",""left"",[99999,99999],[0,-150]]",diamond,no_dis,hori,left,"[99999,99999]","[0,-150]",left,1,,,,,,Arya,2025-03-17_12h11.36.680,SL_base,2021.2.3,Win32,59.88023952,1.3446,,,47,0,47,0,1,,,,,,,,
,,"[""diamond"",""no_dis"",""hori"",""left"",[99999,99999],[106,-106]]",diamond,no_dis,hori,left,"[99999,99999]","[106,-106]",left,1,,,,,,Arya,2025-03-17_12h11.36.680,SL_base,2021.2.3,Win32,59.88023952,0.9182,,,48,0,48,0,1,,,,,,,,
,,"[""circle"",""no_dis"",""vert"",""up"",[99999,99999],[-106,106]]",circle,no_dis,vert,up,"[99999,99999]","[-106,106]",up,1,,,,,,Arya,2025-03-17_12h11.36.680,SL_base,2021.2.3,Win32,59.88023952,0.6992,,,49,0,49,0,1,,,,,,,,
,,"[""circle"",""green"",""vert"",""up"",[0,-150],[-106,-106]]",circle,green,vert,up,"[0,-150]","[-106,-106]",up,1,,,,,,Arya,2025-03-17_12h11.36.680,SL_base,2021.2.3,Win32,59.88023952,1.0439,,,50,0,50,0,1,,,,,,,,
,,"[""diamond"",""red"",""vert"",""up"",[150,0],[0,150]]",diamond,red,vert,up,"[150,0]","[0,150]",up,1,,,,,,Arya,2025-03-17_12h11.36.680,SL_base,2021.2.3,Win32,59.88023952,0.8841,,,51,0,51,0,1,,,,,,,,
,,"[""diamond"",""red"",""vert"",""up"",[0,150],[150,0]]",diamond,red,vert,up,"[0,150]","[150,0]",up,1,,,,,,Arya,2025-03-17_12h11.36.680,SL_base,2021.2.3,Win32,59.88023952,0.8499,,,52,0,52,0,1,,,,,,,,
,,"[""circle"",""red"",""hori"",""left"",[106,-106],[-150,0]]",circle,red,hori,left,"[106,-106]","[-150,0]",left,1,,,,,,Arya,2025-03-17_12h11.36.680,SL_base,2021.2.3,Win32,59.88023952,0.6445,,,53,0,53,0,1,,,,,,,,
,,"[""circle"",""green"",""hori"",""left"",[106,-106],[0,-150]]",circle,green,hori,left,"[106,-106]","[0,-150]",left,1,,,,,,Arya,2025-03-17_12h11.36.680,SL_base,2021.2.3,Win32,59.88023952,1.0545,,,54,0,54,0,1,,,,,,,,
,,"[""diamond"",""green"",""hori"",""left"",[106,-106],[-150,0]]",diamond,green,hori,left,"[106,-106]","[-150,0]",left,1,,,,,,Arya,2025-03-17_12h11.36.680,SL_base,2021.2.3,Win32,59.88023952,0.7665,,,55,0,55,0,1,,,,,,,,
,,"[""circle"",""green"",""hori"",""left"",[-106,106],[106,-106]]",circle,green,hori,left,"[-106,106]","[106,-106]",left,1,,,,,,Arya,2025-03-17_12h11.36.680,SL_base,2021.2.3,Win32,59.88023952,0.7943,,,56,0,56,0,1,,,,,,,,
,,"[""diamond"",""green"",""hori"",""left"",[0,-150],[150,0]]",diamond,green,hori,left,"[0,-150]","[150,0]",left,1,,,,,,Arya,2025-03-17_12h11.36.680,SL_base,2021.2.3,Win32,59.88023952,0.7844,,,57,0,57,0,1,,,,,,,,
,,"[""diamond"",""green"",""hori"",""left"",[0,-150],[-106,-106]]",diamond,green,hori,left,"[0,-150]","[-106,-106]",left,1,,,,,,Arya,2025-03-17_12h11.36.680,SL_base,2021.2.3,Win32,59.88023952,0.8177,,,58,0,58,0,1,,,,,,,,
,,"[""circle"",""red"",""hori"",""left"",[106,-106],[-106,-106]]",circle,red,hori,left,"[106,-106]","[-106,-106]",left,1,,,,,,Arya,2025-03-17_12h11.36.680,SL_base,2021.2.3,Win32,59.88023952,0.6681,,,59,0,59,0,1,,,,,,,,
,,"[""diamond"",""red"",""hori"",""left"",[-150,0],[-106,-106]]",diamond,red,hori,left,"[-150,0]","[-106,-106]",left,1,,,,,,Arya,2025-03-17_12h11.36.680,SL_base,2021.2.3,Win32,59.88023952,0.9837,,,60,0,60,0,1,,,,,,,,
,,"[""circle"",""no_dis"",""hori"",""left"",[99999,99999],[-106,106]]",circle,no_dis,hori,left,"[99999,99999]","[-106,106]",left,1,,,,,,Arya,2025-03-17_12h11.36.680,SL_base,2021.2.3,Win32,59.88023952,0.9903,,,61,0,61,0,1,,,,,,,,
,,"[""circle"",""red"",""vert"",""up"",[0,150],[-106,106]]",circle,red,vert,up,"[0,150]","[-106,106]",up,1,,,,,,Arya,2025-03-17_12h11.36.680,SL_base,2021.2.3,Win32,59.88023952,1.0337,,,62,0,62,0,1,,,,,,,,
,,"[""diamond"",""green"",""vert"",""up"",[-106,-106],[0,-150]]",diamond,green,vert,up,"[-106,-106]","[0,-150]",up,1,,,,,,Arya,2025-03-17_12h11.36.680,SL_base,2021.2.3,Win32,59.88023952,0.7167,,,63,0,63,0,1,,,,,,,,
,,"[""diamond"",""red"",""vert"",""up"",[106,106],[106,-106]]",diamond,red,vert,up,"[106,106]","[106,-106]",up,1,,,,,,Arya,2025-03-17_12h11.36.680,SL_base,2021.2.3,Win32,59.88023952,0.6845,,,64,0,64,0,1,,,,,,,,
,,"[""diamond"",""green"",""vert"",""up"",[106,-106],[-150,0]]",diamond,green,vert,up,"[106,-106]","[-150,0]",up,1,,,,,,Arya,2025-03-17_12h11.36.680,SL_base,2021.2.3,Win32,59.88023952,0.7002,,,65,0,65,0,1,,,,,,,,
,,"[""diamond"",""red"",""hori"",""left"",[150,0],[0,150]]",diamond,red,hori,left,"[150,0]","[0,150]",left,1,,,,,,Arya,2025-03-17_12h11.36.680,SL_base,2021.2.3,Win32,59.88023952,0.7004,,,66,0,66,0,1,,,,,,,,
,,"[""circle"",""green"",""vert"",""up"",[0,150],[150,0]]",circle,green,vert,up,"[0,150]","[150,0]",up,1,,,,,,Arya,2025-03-17_12h11.36.680,SL_base,2021.2.3,Win32,59.88023952,0.9506,,,67,0,67,0,1,,,,,,,,
,,"[""diamond"",""no_dis"",""hori"",""left"",[99999,99999],[-150,0]]",diamond,no_dis,hori,left,"[99999,99999]","[-150,0]",left,1,,,,,,Arya,2025-03-17_12h11.36.680,SL_base,2021.2.3,Win32,59.88023952,0.7527,,,68,0,68,0,1,,,,,,,,
,,"[""diamond"",""no_dis"",""vert"",""up"",[99999,99999],[-150,0]]",diamond,no_dis,vert,up,"[99999,99999]","[-150,0]",up,1,,,,,,Arya,2025-03-17_12h11.36.680,SL_base,2021.2.3,Win32,59.88023952,0.6176,,,69,0,69,0,1,,,,,,,,
,,"[""diamond"",""green"",""vert"",""up"",[-106,106],[0,-150]]",diamond,green,vert,up,"[-106,106]","[0,-150]",up,1,,,,,,Arya,2025-03-17_12h11.36.680,SL_base,2021.2.3,Win32,59.88023952,0.9545,,,70,0,70,0,1,,,,,,,,
,,"[""diamond"",""green"",""vert"",""up"",[0,150],[-106,106]]",diamond,green,vert,up,"[0,150]","[-106,106]",up,1,,,,,,Arya,2025-03-17_12h11.36.680,SL_base,2021.2.3,Win32,59.88023952,0.7687,,,71,0,71,0,1,,,,,,,,
,,"[""diamond"",""green"",""hori"",""left"",[-150,0],[150,0]]",diamond,green,hori,left,"[-150,0]","[150,0]",left,1,,,,,,Arya,2025-03-17_12h11.36.680,SL_base,2021.2.3,Win32,59.88023952,0.638,,,72,0,72,0,1,,,,,,,,
,,"[""circle"",""red"",""vert"",""up"",[0,150],[150,0]]",circle,red,vert,up,"[0,150]","[150,0]",up,1,,,,,,Arya,2025-03-17_12h11.36.680,SL_base,2021.2.3,Win32,59.88023952,1.1087,,,73,0,73,0,1,,,,,,,,
,,"[""circle"",""green"",""vert"",""up"",[-106,106],[0,150]]",circle,green,vert,up,"[-106,106]","[0,150]",up,1,,,,,,Arya,2025-03-17_12h11.36.680,SL_base,2021.2.3,Win32,59.88023952,0.6893,,,74,0,74,0,1,,,,,,,,
,,"[""diamond"",""red"",""hori"",""left"",[106,106],[0,150]]",diamond,red,hori,left,"[106,106]","[0,150]",left,1,,,,,,Arya,2025-03-17_12h11.36.680,SL_base,2021.2.3,Win32,59.88023952,0.7289,,,75,0,75,0,1,,,,,,,,
,,"[""circle"",""red"",""hori"",""left"",[106,-106],[-106,-106]]",circle,red,hori,left,"[106,-106]","[-106,-106]",left,1,,,,,,Arya,2025-03-17_12h11.36.680,SL_base,2021.2.3,Win32,59.88023952,1.1016,,,76,0,76,0,1,,,,,,,,
,,"[""circle"",""green"",""vert"",""up"",[-150,0],[0,150]]",circle,green,vert,up,"[-150,0]","[0,150]",up,1,,,,,,Arya,2025-03-17_12h11.36.680,SL_base,2021.2.3,Win32,59.88023952,0.8173,,,77,0,77,0,1,,,,,,,,
,,"[""diamond"",""green"",""hori"",""left"",[106,-106],[150,0]]",diamond,green,hori,left,"[106,-106]","[150,0]",left,1,,,,,,Arya,2025-03-17_12h11.36.680,SL_base,2021.2.3,Win32,59.88023952,0.6677,,,78,0,78,0,1,,,,,,,,
,,"[""diamond"",""no_dis"",""hori"",""left"",[99999,99999],[106,-106]]",diamond,no_dis,hori,left,"[99999,99999]","[106,-106]",left,1,,,,,,Arya,2025-03-17_12h11.36.680,SL_base,2021.2.3,Win32,59.88023952,0.883,,,79,0,79,0,1,,,,,,,,
,,"[""diamond"",""red"",""vert"",""up"",[106,-106],[0,150]]",diamond,red,vert,up,"[106,-106]","[0,150]",up,1,,,,,,Arya,2025-03-17_12h11.36.680,SL_base,2021.2.3,Win32,59.88023952,0.5678,,,80,0,80,0,1,,,,,,,,
,,"[""diamond"",""green"",""vert"",""up"",[150,0],[-106,106]]",diamond,green,vert,up,"[150,0]","[-106,106]",up,1,,,,,,Arya,2025-03-17_12h11.36.680,SL_base,2021.2.3,Win32,59.88023952,0.7853,,,81,0,81,0,1,,,,,,,,
,,"[""circle"",""no_dis"",""hori"",""left"",[99999,99999],[0,150]]",circle,no_dis,hori,left,"[99999,99999]","[0,150]",left,1,,,,,,Arya,2025-03-17_12h11.36.680,SL_base,2021.2.3,Win32,59.88023952,0.6013,,,82,0,82,0,1,,,,,,,,
,,"[""diamond"",""red"",""hori"",""left"",[106,106],[-150,0]]",diamond,red,hori,left,"[106,106]","[-150,0]",left,1,,,,,,Arya,2025-03-17_12h11.36.680,SL_base,2021.2.3,Win32,59.88023952,0.6678,,,83,0,83,0,1,,,,,,,,
,,"[""diamond"",""no_dis"",""vert"",""up"",[99999,99999],[0,-150]]",diamond,no_dis,vert,up,"[99999,99999]","[0,-150]",up,1,,,,,,Arya,2025-03-17_12h11.36.680,SL_base,2021.2.3,Win32,59.88023952,0.6095,,,84,0,84,0,1,,,,,,,,
,,"[""diamond"",""red"",""hori"",""left"",[0,150],[106,-106]]",diamond,red,hori,left,"[0,150]","[106,-106]",left,1,,,,,,Arya,2025-03-17_12h11.36.680,SL_base,2021.2.3,Win32,59.88023952,0.5841,,,85,0,85,0,1,,,,,,,,
,,"[""diamond"",""red"",""hori"",""left"",[-150,0],[106,-106]]",diamond,red,hori,left,"[-150,0]","[106,-106]",left,1,,,,,,Arya,2025-03-17_12h11.36.680,SL_base,2021.2.3,Win32,59.88023952,0.5845,,,86,0,86,0,1,,,,,,,,
,,"[""diamond"",""no_dis"",""vert"",""up"",[99999,99999],[0,-150]]",diamond,no_dis,vert,up,"[99999,99999]","[0,-150]",up,1,,,,,,Arya,2025-03-17_12h11.36.680,SL_base,2021.2.3,Win32,59.88023952,0.6682,,,87,0,87,0,1,,,,,,,,
