﻿key_resp.keys,key_resp.rt,trial_para,tar_shape,dis_color_condi,tar_line,cor_resp,dis_loc,tar_loc,resp.keys,resp.corr,resp.rt,trials.thisRepN,trials.thisTrialN,trials.thisN,trials.thisIndex,trials.ran,participant,date,expName,psychopyVersion,OS,frameRate,key_resp_2.keys,key_resp_2.rt,trials_2.thisRepN,trials_2.thisTrialN,trials_2.thisN,trials_2.thisIndex,trials_2.ran,block_num,key_resp_3.keys,key_resp_3.rt,trials_3.thisRepN,trials_3.thisTrialN,trials_3.thisN,trials_3.thisIndex,trials_3.ran
space,68.3268,"[""diamond"",""red"",""hori"",""left"",[150,0],[106,106]]",diamond,red,hori,left,"[150,0]","[106,106]",left,1,2.3271,0,0,0,0,1,001,2025-03-17_15h41.35.244,SL_base,2021.2.3,Win32,59.84082341,,,,,,,,,,,,,,,
,,"[""diamond"",""no_dis"",""hori"",""left"",[99999,99999],[-106,-106]]",diamond,no_dis,hori,left,"[99999,99999]","[-106,-106]",left,1,1.1431,1,0,1,0,1,001,2025-03-17_15h41.35.244,SL_base,2021.2.3,Win32,59.84082341,,,,,,,,,,,,,,,
,,"[""diamond"",""green"",""hori"",""left"",[150,0],[-150,0]]",diamond,green,hori,left,"[150,0]","[-150,0]",left,1,0.9657,2,0,2,0,1,001,2025-03-17_15h41.35.244,SL_base,2021.2.3,Win32,59.84082341,,,,,,,,,,,,,,,
,,"[""circle"",""no_dis"",""vert"",""up"",[99999,99999],[-106,106]]",circle,no_dis,vert,up,"[99999,99999]","[-106,106]",up,1,0.6306,3,0,3,0,1,001,2025-03-17_15h41.35.244,SL_base,2021.2.3,Win32,59.84082341,,,,,,,,,,,,,,,
,,"[""circle"",""red"",""hori"",""left"",[150,0],[-106,-106]]",circle,red,hori,left,"[150,0]","[-106,-106]",left,1,1.2916,4,0,4,0,1,001,2025-03-17_15h41.35.244,SL_base,2021.2.3,Win32,59.84082341,,,,,,,,,,,,,,,
,,"[""diamond"",""no_dis"",""hori"",""left"",[99999,99999],[106,106]]",diamond,no_dis,hori,left,"[99999,99999]","[106,106]",left,1,1.2983,5,0,5,0,1,001,2025-03-17_15h41.35.244,SL_base,2021.2.3,Win32,59.84082341,,,,,,,,,,,,,,,
,,"[""circle"",""green"",""vert"",""up"",[106,106],[-150,0]]",circle,green,vert,up,"[106,106]","[-150,0]",up,1,1.76,6,0,6,0,1,001,2025-03-17_15h41.35.244,SL_base,2021.2.3,Win32,59.84082341,,,,,,,,,,,,,,,
,,"[""diamond"",""red"",""hori"",""left"",[150,0],[106,106]]",diamond,red,hori,left,"[150,0]","[106,106]",left,1,1.6721,7,0,7,0,1,001,2025-03-17_15h41.35.244,SL_base,2021.2.3,Win32,59.84082341,,,,,,,,,,,,,,,
,,"[""diamond"",""no_dis"",""vert"",""up"",[99999,99999],[106,-106]]",diamond,no_dis,vert,up,"[99999,99999]","[106,-106]",up,1,0.9822,8,0,8,0,1,001,2025-03-17_15h41.35.244,SL_base,2021.2.3,Win32,59.84082341,,,,,,,,,,,,,,,
,,"[""diamond"",""red"",""hori"",""left"",[-106,-106],[0,150]]",diamond,red,hori,left,"[-106,-106]","[0,150]",left,1,2.0722,9,0,9,0,1,001,2025-03-17_15h41.35.244,SL_base,2021.2.3,Win32,59.84082341,,,,,,,,,,,,,,,
,,"[""diamond"",""red"",""hori"",""left"",[150,0],[106,106]]",diamond,red,hori,left,"[150,0]","[106,106]",left,1,1.3192,,,,,,001,2025-03-17_15h41.35.244,SL_base,2021.2.3,Win32,59.84082341,space,20.6944,0,0,0,0,1,,,,,,,,
,,"[""diamond"",""no_dis"",""hori"",""left"",[99999,99999],[-106,-106]]",diamond,no_dis,hori,left,"[99999,99999]","[-106,-106]",left,1,1.3464,,,,,,001,2025-03-17_15h41.35.244,SL_base,2021.2.3,Win32,59.84082341,,,1,0,1,0,1,,,,,,,,
,,"[""diamond"",""green"",""hori"",""left"",[150,0],[-150,0]]",diamond,green,hori,left,"[150,0]","[-150,0]",left,1,1.6695,,,,,,001,2025-03-17_15h41.35.244,SL_base,2021.2.3,Win32,59.84082341,,,2,0,2,0,1,,,,,,,,
,,"[""circle"",""no_dis"",""vert"",""up"",[99999,99999],[-106,106]]",circle,no_dis,vert,up,"[99999,99999]","[-106,106]",up,1,2.1708,,,,,,001,2025-03-17_15h41.35.244,SL_base,2021.2.3,Win32,59.84082341,,,3,0,3,0,1,,,,,,,,
,,"[""circle"",""red"",""hori"",""left"",[150,0],[-106,-106]]",circle,red,hori,left,"[150,0]","[-106,-106]",left,1,2.2871,,,,,,001,2025-03-17_15h41.35.244,SL_base,2021.2.3,Win32,59.84082341,,,4,0,4,0,1,,,,,,,,
,,"[""diamond"",""no_dis"",""hori"",""left"",[99999,99999],[106,106]]",diamond,no_dis,hori,left,"[99999,99999]","[106,106]",left,1,1.5079,,,,,,001,2025-03-17_15h41.35.244,SL_base,2021.2.3,Win32,59.84082341,,,5,0,5,0,1,,,,,,,,
,,"[""circle"",""green"",""vert"",""up"",[106,106],[-150,0]]",circle,green,vert,up,"[106,106]","[-150,0]",up,1,1.7764,,,,,,001,2025-03-17_15h41.35.244,SL_base,2021.2.3,Win32,59.84082341,,,6,0,6,0,1,,,,,,,,
,,"[""diamond"",""red"",""hori"",""left"",[150,0],[106,106]]",diamond,red,hori,left,"[150,0]","[106,106]",left,1,2.1245,,,,,,001,2025-03-17_15h41.35.244,SL_base,2021.2.3,Win32,59.84082341,,,7,0,7,0,1,,,,,,,,
,,"[""diamond"",""no_dis"",""vert"",""up"",[99999,99999],[106,-106]]",diamond,no_dis,vert,up,"[99999,99999]","[106,-106]",up,1,1.0496,,,,,,001,2025-03-17_15h41.35.244,SL_base,2021.2.3,Win32,59.84082341,,,8,0,8,0,1,,,,,,,,
,,"[""diamond"",""red"",""hori"",""left"",[-106,-106],[0,150]]",diamond,red,hori,left,"[-106,-106]","[0,150]",left,1,2.3353,,,,,,001,2025-03-17_15h41.35.244,SL_base,2021.2.3,Win32,59.84082341,,,9,0,9,0,1,,,,,,,,
,,"[""diamond"",""green"",""hori"",""left"",[150,0],[-106,-106]]",diamond,green,hori,left,"[150,0]","[-106,-106]",left,1,0.8629,,,,,,001,2025-03-17_15h41.35.244,SL_base,2021.2.3,Win32,59.84082341,,,10,0,10,0,1,,,,,,,,
,,"[""diamond"",""no_dis"",""hori"",""left"",[99999,99999],[106,106]]",diamond,no_dis,hori,left,"[99999,99999]","[106,106]",left,1,1.1136,,,,,,001,2025-03-17_15h41.35.244,SL_base,2021.2.3,Win32,59.84082341,,,11,0,11,0,1,,,,,,,,
,,"[""circle"",""red"",""hori"",""left"",[-106,-106],[150,0]]",circle,red,hori,left,"[-106,-106]","[150,0]",left,1,1.4698,,,,,,001,2025-03-17_15h41.35.244,SL_base,2021.2.3,Win32,59.84082341,,,12,0,12,0,1,,,,,,,,
,,"[""diamond"",""red"",""vert"",""up"",[106,-106],[0,150]]",diamond,red,vert,up,"[106,-106]","[0,150]",up,1,1.0741,,,,,,001,2025-03-17_15h41.35.244,SL_base,2021.2.3,Win32,59.84082341,,,13,0,13,0,1,,,,,,,,
,,"[""circle"",""no_dis"",""hori"",""left"",[99999,99999],[0,150]]",circle,no_dis,hori,left,"[99999,99999]","[0,150]",left,1,1.1908,,,,,,001,2025-03-17_15h41.35.244,SL_base,2021.2.3,Win32,59.84082341,,,14,0,14,0,1,,,,,,,,
,,"[""diamond"",""red"",""vert"",""up"",[150,0],[-106,106]]",diamond,red,vert,up,"[150,0]","[-106,106]",up,1,0.7856,,,,,,001,2025-03-17_15h41.35.244,SL_base,2021.2.3,Win32,59.84082341,,,15,0,15,0,1,,,,,,,,
,,"[""circle"",""green"",""vert"",""up"",[0,150],[-150,0]]",circle,green,vert,up,"[0,150]","[-150,0]",left,0,1.314,,,,,,001,2025-03-17_15h41.35.244,SL_base,2021.2.3,Win32,59.84082341,,,16,0,16,0,1,,,,,,,,
,,"[""circle"",""green"",""vert"",""up"",[150,0],[106,106]]",circle,green,vert,up,"[150,0]","[106,106]",up,1,1.7857,,,,,,001,2025-03-17_15h41.35.244,SL_base,2021.2.3,Win32,59.84082341,,,17,0,17,0,1,,,,,,,,
,,"[""diamond"",""green"",""hori"",""left"",[150,0],[106,106]]",diamond,green,hori,left,"[150,0]","[106,106]",left,1,1.3618,,,,,,001,2025-03-17_15h41.35.244,SL_base,2021.2.3,Win32,59.84082341,,,18,0,18,0,1,,,,,,,,
,,"[""diamond"",""red"",""vert"",""up"",[106,106],[-106,106]]",diamond,red,vert,up,"[106,106]","[-106,106]",up,1,1.7604,,,,,,001,2025-03-17_15h41.35.244,SL_base,2021.2.3,Win32,59.84082341,,,19,0,19,0,1,,,,,,,,
,,"[""circle"",""red"",""vert"",""up"",[-106,-106],[106,106]]",circle,red,vert,up,"[-106,-106]","[106,106]",up,1,1.1526,,,,,,001,2025-03-17_15h41.35.244,SL_base,2021.2.3,Win32,59.84082341,,,20,0,20,0,1,,,,,,,,
,,"[""diamond"",""green"",""vert"",""up"",[106,-106],[150,0]]",diamond,green,vert,up,"[106,-106]","[150,0]",up,1,2.275,,,,,,001,2025-03-17_15h41.35.244,SL_base,2021.2.3,Win32,59.84082341,,,21,0,21,0,1,,,,,,,,
,,"[""circle"",""green"",""hori"",""left"",[-150,0],[-106,106]]",circle,green,hori,left,"[-150,0]","[-106,106]",left,1,1.6518,,,,,,001,2025-03-17_15h41.35.244,SL_base,2021.2.3,Win32,59.84082341,,,22,0,22,0,1,,,,,,,,
,,"[""circle"",""green"",""vert"",""up"",[-106,106],[150,0]]",circle,green,vert,up,"[-106,106]","[150,0]",up,1,1.1304,,,,,,001,2025-03-17_15h41.35.244,SL_base,2021.2.3,Win32,59.84082341,,,23,0,23,0,1,,,,,,,,
,,"[""circle"",""red"",""hori"",""left"",[0,150],[150,0]]",circle,red,hori,left,"[0,150]","[150,0]",left,1,1.0371,,,,,,001,2025-03-17_15h41.35.244,SL_base,2021.2.3,Win32,59.84082341,,,24,0,24,0,1,,,,,,,,
,,"[""diamond"",""green"",""hori"",""left"",[0,-150],[-150,0]]",diamond,green,hori,left,"[0,-150]","[-150,0]",up,0,2.2112,,,,,,001,2025-03-17_15h41.35.244,SL_base,2021.2.3,Win32,59.84082341,,,25,0,25,0,1,,,,,,,,
,,"[""circle"",""green"",""hori"",""left"",[106,-106],[0,150]]",circle,green,hori,left,"[106,-106]","[0,150]",left,1,1.136,,,,,,001,2025-03-17_15h41.35.244,SL_base,2021.2.3,Win32,59.84082341,,,26,0,26,0,1,,,,,,,,
,,"[""diamond"",""no_dis"",""vert"",""up"",[99999,99999],[-106,-106]]",diamond,no_dis,vert,up,"[99999,99999]","[-106,-106]",up,1,2.1008,,,,,,001,2025-03-17_15h41.35.244,SL_base,2021.2.3,Win32,59.84082341,,,27,0,27,0,1,,,,,,,,
,,"[""circle"",""red"",""vert"",""up"",[106,-106],[-150,0]]",circle,red,vert,up,"[106,-106]","[-150,0]",up,1,2.7477,,,,,,001,2025-03-17_15h41.35.244,SL_base,2021.2.3,Win32,59.84082341,,,28,0,28,0,1,,,,,,,,
,,"[""diamond"",""red"",""vert"",""up"",[-106,106],[0,-150]]",diamond,red,vert,up,"[-106,106]","[0,-150]",up,1,2.3996,,,,,,001,2025-03-17_15h41.35.244,SL_base,2021.2.3,Win32,59.84082341,,,29,0,29,0,1,,,,,,,,
,,"[""diamond"",""green"",""hori"",""left"",[106,-106],[-106,-106]]",diamond,green,hori,left,"[106,-106]","[-106,-106]",left,1,2.6129,,,,,,001,2025-03-17_15h41.35.244,SL_base,2021.2.3,Win32,59.84082341,,,30,0,30,0,1,,,,,,,,
,,"[""circle"",""green"",""hori"",""left"",[-150,0],[106,106]]",circle,green,hori,left,"[-150,0]","[106,106]",left,1,1.76,,,,,,001,2025-03-17_15h41.35.244,SL_base,2021.2.3,Win32,59.84082341,,,31,0,31,0,1,,,,,,,,
,,"[""diamond"",""green"",""vert"",""up"",[0,150],[0,-150]]",diamond,green,vert,up,"[0,150]","[0,-150]",up,1,2.0423,,,,,,001,2025-03-17_15h41.35.244,SL_base,2021.2.3,Win32,59.84082341,,,32,0,32,0,1,,,,,,,,
,,"[""circle"",""green"",""vert"",""up"",[0,-150],[106,106]]",circle,green,vert,up,"[0,-150]","[106,106]",up,1,1.7554,,,,,,001,2025-03-17_15h41.35.244,SL_base,2021.2.3,Win32,59.84082341,,,33,0,33,0,1,,,,,,,,
,,"[""circle"",""no_dis"",""vert"",""up"",[99999,99999],[-106,-106]]",circle,no_dis,vert,up,"[99999,99999]","[-106,-106]",up,1,1.4041,,,,,,001,2025-03-17_15h41.35.244,SL_base,2021.2.3,Win32,59.84082341,,,34,0,34,0,1,,,,,,,,
,,"[""circle"",""no_dis"",""hori"",""left"",[99999,99999],[106,106]]",circle,no_dis,hori,left,"[99999,99999]","[106,106]",left,1,1.09,,,,,,001,2025-03-17_15h41.35.244,SL_base,2021.2.3,Win32,59.84082341,,,35,0,35,0,1,,,,,,,,
,,"[""diamond"",""no_dis"",""hori"",""left"",[99999,99999],[150,0]]",diamond,no_dis,hori,left,"[99999,99999]","[150,0]",left,1,1.1433,,,,,,001,2025-03-17_15h41.35.244,SL_base,2021.2.3,Win32,59.84082341,,,36,0,36,0,1,,,,,,,,
,,"[""diamond"",""green"",""vert"",""up"",[106,106],[106,-106]]",diamond,green,vert,up,"[106,106]","[106,-106]",up,1,0.9463,,,,,,001,2025-03-17_15h41.35.244,SL_base,2021.2.3,Win32,59.84082341,,,37,0,37,0,1,,,,,,,,
,,"[""circle"",""no_dis"",""vert"",""up"",[99999,99999],[150,0]]",circle,no_dis,vert,up,"[99999,99999]","[150,0]",up,1,1.6803,,,,,,001,2025-03-17_15h41.35.244,SL_base,2021.2.3,Win32,59.84082341,,,38,0,38,0,1,,,,,,,,
,,"[""circle"",""green"",""hori"",""left"",[0,150],[-106,106]]",circle,green,hori,left,"[0,150]","[-106,106]",left,1,0.8036,,,,,,001,2025-03-17_15h41.35.244,SL_base,2021.2.3,Win32,59.84082341,,,39,0,39,0,1,,,,,,,,
,,"[""diamond"",""green"",""vert"",""up"",[150,0],[-106,-106]]",diamond,green,vert,up,"[150,0]","[-106,-106]",up,1,0.8793,,,,,,001,2025-03-17_15h41.35.244,SL_base,2021.2.3,Win32,59.84082341,,,40,0,40,0,1,,,,,,,,
,,"[""circle"",""no_dis"",""vert"",""up"",[99999,99999],[-106,106]]",circle,no_dis,vert,up,"[99999,99999]","[-106,106]",up,1,1.3743,,,,,,001,2025-03-17_15h41.35.244,SL_base,2021.2.3,Win32,59.84082341,,,41,0,41,0,1,,,,,,,,
,,"[""diamond"",""green"",""vert"",""up"",[0,-150],[106,106]]",diamond,green,vert,up,"[0,-150]","[106,106]",up,1,2.7219,,,,,,001,2025-03-17_15h41.35.244,SL_base,2021.2.3,Win32,59.84082341,,,42,0,42,0,1,,,,,,,,
,,"[""circle"",""no_dis"",""vert"",""up"",[99999,99999],[106,-106]]",circle,no_dis,vert,up,"[99999,99999]","[106,-106]",up,1,1.4009,,,,,,001,2025-03-17_15h41.35.244,SL_base,2021.2.3,Win32,59.84082341,,,43,0,43,0,1,,,,,,,,
,,"[""diamond"",""no_dis"",""vert"",""up"",[99999,99999],[-150,0]]",diamond,no_dis,vert,up,"[99999,99999]","[-150,0]",up,1,2.0045,,,,,,001,2025-03-17_15h41.35.244,SL_base,2021.2.3,Win32,59.84082341,,,44,0,44,0,1,,,,,,,,
,,"[""diamond"",""red"",""vert"",""up"",[0,150],[0,-150]]",diamond,red,vert,up,"[0,150]","[0,-150]",up,1,1.4411,,,,,,001,2025-03-17_15h41.35.244,SL_base,2021.2.3,Win32,59.84082341,,,45,0,45,0,1,,,,,,,,
,,"[""diamond"",""no_dis"",""hori"",""left"",[99999,99999],[-106,106]]",diamond,no_dis,hori,left,"[99999,99999]","[-106,106]",left,1,1.659,,,,,,001,2025-03-17_15h41.35.244,SL_base,2021.2.3,Win32,59.84082341,,,46,0,46,0,1,,,,,,,,
,,"[""diamond"",""green"",""hori"",""left"",[150,0],[-150,0]]",diamond,green,hori,left,"[150,0]","[-150,0]",left,1,2.2027,,,,,,001,2025-03-17_15h41.35.244,SL_base,2021.2.3,Win32,59.84082341,,,47,0,47,0,1,,,,,,,,
,,"[""circle"",""green"",""vert"",""up"",[150,0],[0,150]]",circle,green,vert,up,"[150,0]","[0,150]",up,1,1.1344,,,,,,001,2025-03-17_15h41.35.244,SL_base,2021.2.3,Win32,59.84082341,,,48,0,48,0,1,,,,,,,,
,,"[""diamond"",""green"",""vert"",""up"",[150,0],[-150,0]]",diamond,green,vert,up,"[150,0]","[-150,0]",up,1,1.4645,,,,,,001,2025-03-17_15h41.35.244,SL_base,2021.2.3,Win32,59.84082341,,,49,0,49,0,1,,,,,,,,
,,"[""circle"",""no_dis"",""hori"",""left"",[99999,99999],[-150,0]]",circle,no_dis,hori,left,"[99999,99999]","[-150,0]",left,1,1.5816,,,,,,001,2025-03-17_15h41.35.244,SL_base,2021.2.3,Win32,59.84082341,,,50,0,50,0,1,,,,,,,,
,,"[""circle"",""green"",""hori"",""left"",[-150,0],[-106,106]]",circle,green,hori,left,"[-150,0]","[-106,106]",up,0,1.4839,,,,,,001,2025-03-17_15h41.35.244,SL_base,2021.2.3,Win32,59.84082341,,,51,0,51,0,1,,,,,,,,
,,"[""circle"",""red"",""hori"",""left"",[150,0],[106,-106]]",circle,red,hori,left,"[150,0]","[106,-106]",left,1,2.1329,,,,,,001,2025-03-17_15h41.35.244,SL_base,2021.2.3,Win32,59.84082341,,,52,0,52,0,1,,,,,,,,
,,"[""circle"",""red"",""vert"",""up"",[-106,106],[0,-150]]",circle,red,vert,up,"[-106,106]","[0,-150]",up,1,2.2773,,,,,,001,2025-03-17_15h41.35.244,SL_base,2021.2.3,Win32,59.84082341,,,53,0,53,0,1,,,,,,,,
,,"[""diamond"",""red"",""hori"",""left"",[0,150],[106,106]]",diamond,red,hori,left,"[0,150]","[106,106]",left,1,2.1711,,,,,,001,2025-03-17_15h41.35.244,SL_base,2021.2.3,Win32,59.84082341,,,54,0,54,0,1,,,,,,,,
,,"[""circle"",""green"",""hori"",""left"",[150,0],[106,-106]]",circle,green,hori,left,"[150,0]","[106,-106]",left,1,0.9606,,,,,,001,2025-03-17_15h41.35.244,SL_base,2021.2.3,Win32,59.84082341,,,55,0,55,0,1,,,,,,,,
,,"[""diamond"",""green"",""hori"",""left"",[0,-150],[-106,-106]]",diamond,green,hori,left,"[0,-150]","[-106,-106]",left,1,1.6016,,,,,,001,2025-03-17_15h41.35.244,SL_base,2021.2.3,Win32,59.84082341,,,56,0,56,0,1,,,,,,,,
,,"[""circle"",""red"",""hori"",""left"",[150,0],[-150,0]]",circle,red,hori,left,"[150,0]","[-150,0]",left,1,1.2945,,,,,,001,2025-03-17_15h41.35.244,SL_base,2021.2.3,Win32,59.84082341,,,57,0,57,0,1,,,,,,,,
,,"[""diamond"",""red"",""hori"",""left"",[-106,-106],[106,-106]]",diamond,red,hori,left,"[-106,-106]","[106,-106]",left,1,2.2049,,,,,,001,2025-03-17_15h41.35.244,SL_base,2021.2.3,Win32,59.84082341,,,58,0,58,0,1,,,,,,,,
,,"[""diamond"",""green"",""hori"",""left"",[0,150],[0,-150]]",diamond,green,hori,left,"[0,150]","[0,-150]",left,1,1.2578,,,,,,001,2025-03-17_15h41.35.244,SL_base,2021.2.3,Win32,59.84082341,,,59,0,59,0,1,,,,,,,,
,,"[""circle"",""red"",""hori"",""left"",[0,-150],[106,106]]",circle,red,hori,left,"[0,-150]","[106,106]",left,1,2.8331,,,,,,001,2025-03-17_15h41.35.244,SL_base,2021.2.3,Win32,59.84082341,,,60,0,60,0,1,,,,,,,,
,,"[""diamond"",""no_dis"",""vert"",""up"",[99999,99999],[106,106]]",diamond,no_dis,vert,up,"[99999,99999]","[106,106]",up,1,1.6949,,,,,,001,2025-03-17_15h41.35.244,SL_base,2021.2.3,Win32,59.84082341,,,61,0,61,0,1,,,,,,,,
,,"[""circle"",""green"",""hori"",""left"",[-106,106],[150,0]]",circle,green,hori,left,"[-106,106]","[150,0]",left,1,1.2206,,,,,,001,2025-03-17_15h41.35.244,SL_base,2021.2.3,Win32,59.84082341,,,62,0,62,0,1,,,,,,,,
,,"[""diamond"",""no_dis"",""hori"",""left"",[99999,99999],[106,106]]",diamond,no_dis,hori,left,"[99999,99999]","[106,106]",up,0,1.8607,,,,,,001,2025-03-17_15h41.35.244,SL_base,2021.2.3,Win32,59.84082341,,,63,0,63,0,1,,,,,,,,
,,"[""diamond"",""red"",""hori"",""left"",[106,-106],[-106,106]]",diamond,red,hori,left,"[106,-106]","[-106,106]",left,1,1.2388,,,,,,001,2025-03-17_15h41.35.244,SL_base,2021.2.3,Win32,59.84082341,,,64,0,64,0,1,,,,,,,,
,,"[""circle"",""red"",""vert"",""up"",[106,106],[150,0]]",circle,red,vert,up,"[106,106]","[150,0]",up,1,1.6897,,,,,,001,2025-03-17_15h41.35.244,SL_base,2021.2.3,Win32,59.84082341,,,65,0,65,0,1,,,,,,,,
,,"[""diamond"",""no_dis"",""vert"",""up"",[99999,99999],[-106,106]]",diamond,no_dis,vert,up,"[99999,99999]","[-106,106]",up,1,1.1884,,,,,,001,2025-03-17_15h41.35.244,SL_base,2021.2.3,Win32,59.84082341,,,66,0,66,0,1,,,,,,,,
,,"[""diamond"",""no_dis"",""vert"",""up"",[99999,99999],[0,150]]",diamond,no_dis,vert,up,"[99999,99999]","[0,150]",up,1,1.1781,,,,,,001,2025-03-17_15h41.35.244,SL_base,2021.2.3,Win32,59.84082341,,,67,0,67,0,1,,,,,,,,
,,"[""circle"",""green"",""hori"",""left"",[-150,0],[150,0]]",circle,green,hori,left,"[-150,0]","[150,0]",left,1,1.4519,,,,,,001,2025-03-17_15h41.35.244,SL_base,2021.2.3,Win32,59.84082341,,,68,0,68,0,1,,,,,,,,
,,"[""circle"",""red"",""hori"",""left"",[-150,0],[106,106]]",circle,red,hori,left,"[-150,0]","[106,106]",left,1,1.0366,,,,,,001,2025-03-17_15h41.35.244,SL_base,2021.2.3,Win32,59.84082341,,,69,0,69,0,1,,,,,,,,
,,"[""diamond"",""green"",""vert"",""up"",[150,0],[0,150]]",diamond,green,vert,up,"[150,0]","[0,150]",up,1,1.2247,,,,,,001,2025-03-17_15h41.35.244,SL_base,2021.2.3,Win32,59.84082341,,,70,0,70,0,1,,,,,,,,
,,"[""diamond"",""no_dis"",""hori"",""left"",[99999,99999],[0,-150]]",diamond,no_dis,hori,left,"[99999,99999]","[0,-150]",left,1,0.9346,,,,,,001,2025-03-17_15h41.35.244,SL_base,2021.2.3,Win32,59.84082341,,,71,0,71,0,1,,,,,,,,
,,"[""diamond"",""red"",""hori"",""left"",[-106,-106],[0,-150]]",diamond,red,hori,left,"[-106,-106]","[0,-150]",left,1,0.8415,,,,,,001,2025-03-17_15h41.35.244,SL_base,2021.2.3,Win32,59.84082341,,,72,0,72,0,1,,,,,,,,
,,"[""diamond"",""no_dis"",""vert"",""up"",[99999,99999],[150,0]]",diamond,no_dis,vert,up,"[99999,99999]","[150,0]",up,1,0.8105,,,,,,001,2025-03-17_15h41.35.244,SL_base,2021.2.3,Win32,59.84082341,,,73,0,73,0,1,,,,,,,,
,,"[""diamond"",""no_dis"",""vert"",""up"",[99999,99999],[0,-150]]",diamond,no_dis,vert,up,"[99999,99999]","[0,-150]",up,1,0.8554,,,,,,001,2025-03-17_15h41.35.244,SL_base,2021.2.3,Win32,59.84082341,,,74,0,74,0,1,,,,,,,,
,,"[""circle"",""no_dis"",""hori"",""left"",[99999,99999],[106,-106]]",circle,no_dis,hori,left,"[99999,99999]","[106,-106]",left,1,0.9189,,,,,,001,2025-03-17_15h41.35.244,SL_base,2021.2.3,Win32,59.84082341,,,75,0,75,0,1,,,,,,,,
,,"[""circle"",""red"",""vert"",""up"",[150,0],[-106,-106]]",circle,red,vert,up,"[150,0]","[-106,-106]",up,1,1.6551,,,,,,001,2025-03-17_15h41.35.244,SL_base,2021.2.3,Win32,59.84082341,,,76,0,76,0,1,,,,,,,,
,,"[""diamond"",""red"",""hori"",""left"",[106,106],[106,-106]]",diamond,red,hori,left,"[106,106]","[106,-106]",left,1,1.4473,,,,,,001,2025-03-17_15h41.35.244,SL_base,2021.2.3,Win32,59.84082341,,,77,0,77,0,1,,,,,,,,
,,"[""circle"",""no_dis"",""hori"",""left"",[99999,99999],[-106,-106]]",circle,no_dis,hori,left,"[99999,99999]","[-106,-106]",left,1,1.1931,,,,,,001,2025-03-17_15h41.35.244,SL_base,2021.2.3,Win32,59.84082341,,,78,0,78,0,1,,,,,,,,
,,"[""circle"",""red"",""vert"",""up"",[106,106],[-106,-106]]",circle,red,vert,up,"[106,106]","[-106,-106]",up,1,1.6983,,,,,,001,2025-03-17_15h41.35.244,SL_base,2021.2.3,Win32,59.84082341,,,79,0,79,0,1,,,,,,,,
,,"[""circle"",""red"",""hori"",""left"",[106,-106],[106,106]]",circle,red,hori,left,"[106,-106]","[106,106]",left,1,1.0461,,,,,,001,2025-03-17_15h41.35.244,SL_base,2021.2.3,Win32,59.84082341,,,80,0,80,0,1,,,,,,,,
,,"[""diamond"",""red"",""vert"",""up"",[150,0],[0,-150]]",diamond,red,vert,up,"[150,0]","[0,-150]",up,1,1.3014,,,,,,001,2025-03-17_15h41.35.244,SL_base,2021.2.3,Win32,59.84082341,,,81,0,81,0,1,,,,,,,,
,,"[""diamond"",""red"",""vert"",""up"",[-106,-106],[-106,106]]",diamond,red,vert,up,"[-106,-106]","[-106,106]",up,1,1.4051,,,,,,001,2025-03-17_15h41.35.244,SL_base,2021.2.3,Win32,59.84082341,,,82,0,82,0,1,,,,,,,,
,,"[""circle"",""no_dis"",""vert"",""up"",[99999,99999],[150,0]]",circle,no_dis,vert,up,"[99999,99999]","[150,0]",up,1,1.0484,,,,,,001,2025-03-17_15h41.35.244,SL_base,2021.2.3,Win32,59.84082341,,,83,0,83,0,1,,,,,,,,
,,"[""diamond"",""green"",""vert"",""up"",[-106,106],[-150,0]]",diamond,green,vert,up,"[-106,106]","[-150,0]",up,1,1.002,,,,,,001,2025-03-17_15h41.35.244,SL_base,2021.2.3,Win32,59.84082341,,,84,0,84,0,1,,,,,,,,
,,"[""circle"",""no_dis"",""hori"",""left"",[99999,99999],[0,150]]",circle,no_dis,hori,left,"[99999,99999]","[0,150]",left,1,1.5502,,,,,,001,2025-03-17_15h41.35.244,SL_base,2021.2.3,Win32,59.84082341,,,85,0,85,0,1,,,,,,,,
,,"[""circle"",""no_dis"",""hori"",""left"",[99999,99999],[-150,0]]",circle,no_dis,hori,left,"[99999,99999]","[-150,0]",left,1,1.3268,,,,,,001,2025-03-17_15h41.35.244,SL_base,2021.2.3,Win32,59.84082341,,,86,0,86,0,1,,,,,,,,
,,"[""diamond"",""no_dis"",""vert"",""up"",[99999,99999],[-106,106]]",diamond,no_dis,vert,up,"[99999,99999]","[-106,106]",up,1,1.1022,,,,,,001,2025-03-17_15h41.35.244,SL_base,2021.2.3,Win32,59.84082341,,,87,0,87,0,1,,,,,,,,
,,"[""diamond"",""green"",""hori"",""left"",[-150,0],[106,106]]",diamond,green,hori,left,"[-150,0]","[106,106]",left,1,1.0392,,,,,,001,2025-03-17_15h41.35.244,SL_base,2021.2.3,Win32,59.84082341,,,88,0,88,0,1,,,,,,,,
,,"[""circle"",""red"",""vert"",""up"",[150,0],[-150,0]]",circle,red,vert,up,"[150,0]","[-150,0]",up,1,1.2967,,,,,,001,2025-03-17_15h41.35.244,SL_base,2021.2.3,Win32,59.84082341,,,89,0,89,0,1,,,,,,,,
,,"[""circle"",""green"",""vert"",""up"",[0,150],[150,0]]",circle,green,vert,up,"[0,150]","[150,0]",up,1,1.2941,,,,,,001,2025-03-17_15h41.35.244,SL_base,2021.2.3,Win32,59.84082341,,,90,0,90,0,1,,,,,,,,
,,"[""diamond"",""red"",""vert"",""up"",[106,106],[0,-150]]",diamond,red,vert,up,"[106,106]","[0,-150]",up,1,0.8978,,,,,,001,2025-03-17_15h41.35.244,SL_base,2021.2.3,Win32,59.84082341,,,91,0,91,0,1,,,,,,,,
,,"[""circle"",""no_dis"",""hori"",""left"",[99999,99999],[0,-150]]",circle,no_dis,hori,left,"[99999,99999]","[0,-150]",left,1,1.0134,,,,,,001,2025-03-17_15h41.35.244,SL_base,2021.2.3,Win32,59.84082341,,,92,0,92,0,1,,,,,,,,
,,"[""circle"",""red"",""vert"",""up"",[-106,-106],[150,0]]",circle,red,vert,up,"[-106,-106]","[150,0]",up,1,0.7497,,,,,,001,2025-03-17_15h41.35.244,SL_base,2021.2.3,Win32,59.84082341,,,93,0,93,0,1,,,,,,,,
,,"[""circle"",""red"",""hori"",""left"",[0,-150],[0,150]]",circle,red,hori,left,"[0,-150]","[0,150]",left,1,1.456,,,,,,001,2025-03-17_15h41.35.244,SL_base,2021.2.3,Win32,59.84082341,,,94,0,94,0,1,,,,,,,,
,,"[""circle"",""red"",""vert"",""up"",[150,0],[0,150]]",circle,red,vert,up,"[150,0]","[0,150]",up,1,1.338,,,,,,001,2025-03-17_15h41.35.244,SL_base,2021.2.3,Win32,59.84082341,,,95,0,95,0,1,,,,,,,,
,,"[""circle"",""green"",""hori"",""left"",[-106,106],[106,-106]]",circle,green,hori,left,"[-106,106]","[106,-106]",left,1,0.7621,,,,,,001,2025-03-17_15h41.35.244,SL_base,2021.2.3,Win32,59.84082341,,,96,0,96,0,1,,,,,,,,
,,"[""diamond"",""no_dis"",""hori"",""left"",[99999,99999],[-150,0]]",diamond,no_dis,hori,left,"[99999,99999]","[-150,0]",left,1,0.8086,,,,,,001,2025-03-17_15h41.35.244,SL_base,2021.2.3,Win32,59.84082341,,,97,0,97,0,1,,,,,,,,
,,"[""circle"",""red"",""hori"",""left"",[106,106],[150,0]]",circle,red,hori,left,"[106,106]","[150,0]",left,1,0.7861,,,,,,001,2025-03-17_15h41.35.244,SL_base,2021.2.3,Win32,59.84082341,,,98,0,98,0,1,,,,,,,,
,,"[""diamond"",""no_dis"",""hori"",""left"",[99999,99999],[0,-150]]",diamond,no_dis,hori,left,"[99999,99999]","[0,-150]",left,1,0.9441,,,,,,001,2025-03-17_15h41.35.244,SL_base,2021.2.3,Win32,59.84082341,,,99,0,99,0,1,,,,,,,,
,,"[""circle"",""green"",""vert"",""up"",[-150,0],[106,106]]",circle,green,vert,up,"[-150,0]","[106,106]",up,1,1.2029,,,,,,001,2025-03-17_15h41.35.244,SL_base,2021.2.3,Win32,59.84082341,,,100,0,100,0,1,,,,,,,,
,,"[""circle"",""no_dis"",""hori"",""left"",[99999,99999],[-106,-106]]",circle,no_dis,hori,left,"[99999,99999]","[-106,-106]",left,1,0.5966,,,,,,001,2025-03-17_15h41.35.244,SL_base,2021.2.3,Win32,59.84082341,,,101,0,101,0,1,,,,,,,,
,,"[""circle"",""red"",""vert"",""up"",[-106,106],[150,0]]",circle,red,vert,up,"[-106,106]","[150,0]",up,1,0.8843,,,,,,001,2025-03-17_15h41.35.244,SL_base,2021.2.3,Win32,59.84082341,,,102,0,102,0,1,,,,,,,,
,,"[""diamond"",""red"",""vert"",""up"",[-150,0],[0,-150]]",diamond,red,vert,up,"[-150,0]","[0,-150]",up,1,0.9606,,,,,,001,2025-03-17_15h41.35.244,SL_base,2021.2.3,Win32,59.84082341,,,103,0,103,0,1,,,,,,,,
,,"[""circle"",""no_dis"",""hori"",""left"",[99999,99999],[0,150]]",circle,no_dis,hori,left,"[99999,99999]","[0,150]",left,1,0.9484,,,,,,001,2025-03-17_15h41.35.244,SL_base,2021.2.3,Win32,59.84082341,,,104,0,104,0,1,,,,,,,,
,,"[""diamond"",""green"",""vert"",""up"",[106,-106],[106,106]]",diamond,green,vert,up,"[106,-106]","[106,106]",left,0,1.9695,,,,,,001,2025-03-17_15h41.35.244,SL_base,2021.2.3,Win32,59.84082341,,,105,0,105,0,1,,,,,,,,
,,"[""circle"",""no_dis"",""vert"",""up"",[99999,99999],[150,0]]",circle,no_dis,vert,up,"[99999,99999]","[150,0]",up,1,1.1506,,,,,,001,2025-03-17_15h41.35.244,SL_base,2021.2.3,Win32,59.84082341,,,106,0,106,0,1,,,,,,,,
,,"[""diamond"",""red"",""vert"",""up"",[-106,106],[150,0]]",diamond,red,vert,up,"[-106,106]","[150,0]",left,0,1.1581,,,,,,001,2025-03-17_15h41.35.244,SL_base,2021.2.3,Win32,59.84082341,,,107,0,107,0,1,,,,,,,,
,,"[""circle"",""no_dis"",""vert"",""up"",[99999,99999],[0,150]]",circle,no_dis,vert,up,"[99999,99999]","[0,150]",up,1,1.5198,,,,,,001,2025-03-17_15h41.35.244,SL_base,2021.2.3,Win32,59.84082341,,,108,0,108,0,1,,,,,,,,
,,"[""diamond"",""green"",""vert"",""up"",[-106,-106],[0,-150]]",diamond,green,vert,up,"[-106,-106]","[0,-150]",up,1,2.0541,,,,,,001,2025-03-17_15h41.35.244,SL_base,2021.2.3,Win32,59.84082341,,,109,0,109,0,1,,,,,,,,
,,"[""circle"",""no_dis"",""vert"",""up"",[99999,99999],[106,-106]]",circle,no_dis,vert,up,"[99999,99999]","[106,-106]",up,1,1.3118,,,,,,001,2025-03-17_15h41.35.244,SL_base,2021.2.3,Win32,59.84082341,,,110,0,110,0,1,,,,,,,,
,,"[""diamond"",""red"",""hori"",""left"",[150,0],[106,-106]]",diamond,red,hori,left,"[150,0]","[106,-106]",left,1,2.1518,,,,,,001,2025-03-17_15h41.35.244,SL_base,2021.2.3,Win32,59.84082341,,,111,0,111,0,1,,,,,,,,
,,"[""circle"",""green"",""hori"",""left"",[150,0],[0,-150]]",circle,green,hori,left,"[150,0]","[0,-150]",left,1,1.0864,,,,,,001,2025-03-17_15h41.35.244,SL_base,2021.2.3,Win32,59.84082341,,,112,0,112,0,1,,,,,,,,
,,"[""diamond"",""green"",""hori"",""left"",[150,0],[0,-150]]",diamond,green,hori,left,"[150,0]","[0,-150]",left,1,0.7088,,,,,,001,2025-03-17_15h41.35.244,SL_base,2021.2.3,Win32,59.84082341,,,113,0,113,0,1,,,,,,,,
,,"[""circle"",""green"",""vert"",""up"",[0,-150],[106,106]]",circle,green,vert,up,"[0,-150]","[106,106]",up,1,1.5316,,,,,,001,2025-03-17_15h41.35.244,SL_base,2021.2.3,Win32,59.84082341,,,114,0,114,0,1,,,,,,,,
,,"[""circle"",""no_dis"",""vert"",""up"",[99999,99999],[0,-150]]",circle,no_dis,vert,up,"[99999,99999]","[0,-150]",up,1,1.332,,,,,,001,2025-03-17_15h41.35.244,SL_base,2021.2.3,Win32,59.84082341,,,115,0,115,0,1,,,,,,,,
,,"[""diamond"",""no_dis"",""hori"",""left"",[99999,99999],[-150,0]]",diamond,no_dis,hori,left,"[99999,99999]","[-150,0]",left,1,0.7434,,,,,,001,2025-03-17_15h41.35.244,SL_base,2021.2.3,Win32,59.84082341,,,116,0,116,0,1,,,,,,,,
,,"[""diamond"",""no_dis"",""vert"",""up"",[99999,99999],[106,-106]]",diamond,no_dis,vert,up,"[99999,99999]","[106,-106]",up,1,0.8275,,,,,,001,2025-03-17_15h41.35.244,SL_base,2021.2.3,Win32,59.84082341,,,117,0,117,0,1,,,,,,,,
,,"[""circle"",""green"",""vert"",""up"",[150,0],[-106,106]]",circle,green,vert,up,"[150,0]","[-106,106]",up,1,1.1788,,,,,,001,2025-03-17_15h41.35.244,SL_base,2021.2.3,Win32,59.84082341,,,118,0,118,0,1,,,,,,,,
,,"[""diamond"",""red"",""hori"",""left"",[0,-150],[150,0]]",diamond,red,hori,left,"[0,-150]","[150,0]",left,1,0.7941,,,,,,001,2025-03-17_15h41.35.244,SL_base,2021.2.3,Win32,59.84082341,,,119,0,119,0,1,,,,,,,,
,,,,,,,,,,,,,,,,,001,2025-03-17_15h41.35.244,SL_base,2021.2.3,Win32,59.84082341,,,,,,,,1,space,368.8881,0,0,0,0,1
,,"[""circle"",""no_dis"",""vert"",""up"",[99999,99999],[150,0]]",circle,no_dis,vert,up,"[99999,99999]","[150,0]",up,1,1.6714,,,,,,001,2025-03-17_15h41.35.244,SL_base,2021.2.3,Win32,59.84082341,,,0,0,0,0,1,,,,,,,,
,,"[""diamond"",""green"",""hori"",""left"",[106,-106],[-106,-106]]",diamond,green,hori,left,"[106,-106]","[-106,-106]",left,1,1.3735,,,,,,001,2025-03-17_15h41.35.244,SL_base,2021.2.3,Win32,59.84082341,,,1,0,1,0,1,,,,,,,,
,,"[""diamond"",""red"",""hori"",""left"",[106,106],[106,-106]]",diamond,red,hori,left,"[106,106]","[106,-106]",left,1,1.5161,,,,,,001,2025-03-17_15h41.35.244,SL_base,2021.2.3,Win32,59.84082341,,,2,0,2,0,1,,,,,,,,
,,"[""circle"",""no_dis"",""hori"",""left"",[99999,99999],[-106,-106]]",circle,no_dis,hori,left,"[99999,99999]","[-106,-106]",left,1,0.8787,,,,,,001,2025-03-17_15h41.35.244,SL_base,2021.2.3,Win32,59.84082341,,,3,0,3,0,1,,,,,,,,
,,"[""diamond"",""red"",""hori"",""left"",[-106,-106],[0,-150]]",diamond,red,hori,left,"[-106,-106]","[0,-150]",left,1,2.2921,,,,,,001,2025-03-17_15h41.35.244,SL_base,2021.2.3,Win32,59.84082341,,,4,0,4,0,1,,,,,,,,
,,"[""diamond"",""no_dis"",""vert"",""up"",[99999,99999],[106,106]]",diamond,no_dis,vert,up,"[99999,99999]","[106,106]",up,1,0.7916,,,,,,001,2025-03-17_15h41.35.244,SL_base,2021.2.3,Win32,59.84082341,,,5,0,5,0,1,,,,,,,,
,,"[""circle"",""red"",""vert"",""up"",[150,0],[-150,0]]",circle,red,vert,up,"[150,0]","[-150,0]",up,1,2.081,,,,,,001,2025-03-17_15h41.35.244,SL_base,2021.2.3,Win32,59.84082341,,,6,0,6,0,1,,,,,,,,
,,"[""diamond"",""no_dis"",""vert"",""up"",[99999,99999],[150,0]]",diamond,no_dis,vert,up,"[99999,99999]","[150,0]",up,1,0.961,,,,,,001,2025-03-17_15h41.35.244,SL_base,2021.2.3,Win32,59.84082341,,,7,0,7,0,1,,,,,,,,
,,"[""circle"",""red"",""vert"",""up"",[106,-106],[-150,0]]",circle,red,vert,up,"[106,-106]","[-150,0]",up,1,1.4163,,,,,,001,2025-03-17_15h41.35.244,SL_base,2021.2.3,Win32,59.84082341,,,8,0,8,0,1,,,,,,,,
,,"[""circle"",""green"",""hori"",""left"",[-150,0],[-106,106]]",circle,green,hori,left,"[-150,0]","[-106,106]",left,1,2.198,,,,,,001,2025-03-17_15h41.35.244,SL_base,2021.2.3,Win32,59.84082341,,,9,0,9,0,1,,,,,,,,
,,"[""diamond"",""red"",""vert"",""up"",[0,150],[0,-150]]",diamond,red,vert,up,"[0,150]","[0,-150]",up,1,1.3379,,,,,,001,2025-03-17_15h41.35.244,SL_base,2021.2.3,Win32,59.84082341,,,10,0,10,0,1,,,,,,,,
,,"[""diamond"",""red"",""vert"",""up"",[150,0],[-106,106]]",diamond,red,vert,up,"[150,0]","[-106,106]",up,1,1.2819,,,,,,001,2025-03-17_15h41.35.244,SL_base,2021.2.3,Win32,59.84082341,,,11,0,11,0,1,,,,,,,,
,,"[""circle"",""red"",""hori"",""left"",[0,150],[150,0]]",circle,red,hori,left,"[0,150]","[150,0]",left,1,1.2698,,,,,,001,2025-03-17_15h41.35.244,SL_base,2021.2.3,Win32,59.84082341,,,12,0,12,0,1,,,,,,,,
,,"[""diamond"",""red"",""vert"",""up"",[-106,106],[150,0]]",diamond,red,vert,up,"[-106,106]","[150,0]",up,1,1.2419,,,,,,001,2025-03-17_15h41.35.244,SL_base,2021.2.3,Win32,59.84082341,,,13,0,13,0,1,,,,,,,,
,,"[""diamond"",""red"",""vert"",""up"",[-106,-106],[-106,106]]",diamond,red,vert,up,"[-106,-106]","[-106,106]",up,1,1.1687,,,,,,001,2025-03-17_15h41.35.244,SL_base,2021.2.3,Win32,59.84082341,,,14,0,14,0,1,,,,,,,,
,,"[""circle"",""green"",""vert"",""up"",[150,0],[-106,106]]",circle,green,vert,up,"[150,0]","[-106,106]",up,1,1.8452,,,,,,001,2025-03-17_15h41.35.244,SL_base,2021.2.3,Win32,59.84082341,,,15,0,15,0,1,,,,,,,,
,,"[""diamond"",""no_dis"",""hori"",""left"",[99999,99999],[106,106]]",diamond,no_dis,hori,left,"[99999,99999]","[106,106]",left,1,1.3699,,,,,,001,2025-03-17_15h41.35.244,SL_base,2021.2.3,Win32,59.84082341,,,16,0,16,0,1,,,,,,,,
,,"[""diamond"",""green"",""hori"",""left"",[150,0],[-150,0]]",diamond,green,hori,left,"[150,0]","[-150,0]",left,1,1.309,,,,,,001,2025-03-17_15h41.35.244,SL_base,2021.2.3,Win32,59.84082341,,,17,0,17,0,1,,,,,,,,
,,"[""circle"",""no_dis"",""hori"",""left"",[99999,99999],[0,-150]]",circle,no_dis,hori,left,"[99999,99999]","[0,-150]",left,1,1.4196,,,,,,001,2025-03-17_15h41.35.244,SL_base,2021.2.3,Win32,59.84082341,,,18,0,18,0,1,,,,,,,,
,,"[""diamond"",""green"",""vert"",""up"",[150,0],[-106,-106]]",diamond,green,vert,up,"[150,0]","[-106,-106]",up,1,1.2657,,,,,,001,2025-03-17_15h41.35.244,SL_base,2021.2.3,Win32,59.84082341,,,19,0,19,0,1,,,,,,,,
,,"[""circle"",""green"",""hori"",""left"",[-106,106],[106,-106]]",circle,green,hori,left,"[-106,106]","[106,-106]",left,1,1.3198,,,,,,001,2025-03-17_15h41.35.244,SL_base,2021.2.3,Win32,59.84082341,,,20,0,20,0,1,,,,,,,,
,,"[""circle"",""no_dis"",""vert"",""up"",[99999,99999],[-106,-106]]",circle,no_dis,vert,up,"[99999,99999]","[-106,-106]",up,1,1.8462,,,,,,001,2025-03-17_15h41.35.244,SL_base,2021.2.3,Win32,59.84082341,,,21,0,21,0,1,,,,,,,,
,,"[""circle"",""no_dis"",""hori"",""left"",[99999,99999],[0,150]]",circle,no_dis,hori,left,"[99999,99999]","[0,150]",left,1,1.2978,,,,,,001,2025-03-17_15h41.35.244,SL_base,2021.2.3,Win32,59.84082341,,,22,0,22,0,1,,,,,,,,
,,"[""circle"",""red"",""vert"",""up"",[-106,106],[0,-150]]",circle,red,vert,up,"[-106,106]","[0,-150]",up,1,0.7707,,,,,,001,2025-03-17_15h41.35.244,SL_base,2021.2.3,Win32,59.84082341,,,23,0,23,0,1,,,,,,,,
,,"[""diamond"",""red"",""hori"",""left"",[0,150],[106,106]]",diamond,red,hori,left,"[0,150]","[106,106]",left,1,1.1302,,,,,,001,2025-03-17_15h41.35.244,SL_base,2021.2.3,Win32,59.84082341,,,24,0,24,0,1,,,,,,,,
,,"[""circle"",""red"",""hori"",""left"",[-150,0],[106,106]]",circle,red,hori,left,"[-150,0]","[106,106]",left,1,0.8378,,,,,,001,2025-03-17_15h41.35.244,SL_base,2021.2.3,Win32,59.84082341,,,25,0,25,0,1,,,,,,,,
,,"[""diamond"",""green"",""vert"",""up"",[106,106],[106,-106]]",diamond,green,vert,up,"[106,106]","[106,-106]",up,1,0.6995,,,,,,001,2025-03-17_15h41.35.244,SL_base,2021.2.3,Win32,59.84082341,,,26,0,26,0,1,,,,,,,,
,,"[""diamond"",""green"",""hori"",""left"",[-150,0],[106,106]]",diamond,green,hori,left,"[-150,0]","[106,106]",left,1,0.7439,,,,,,001,2025-03-17_15h41.35.244,SL_base,2021.2.3,Win32,59.84082341,,,27,0,27,0,1,,,,,,,,
,,"[""diamond"",""green"",""hori"",""left"",[150,0],[-150,0]]",diamond,green,hori,left,"[150,0]","[-150,0]",left,1,0.7283,,,,,,001,2025-03-17_15h41.35.244,SL_base,2021.2.3,Win32,59.84082341,,,28,0,28,0,1,,,,,,,,
,,"[""circle"",""green"",""vert"",""up"",[0,150],[150,0]]",circle,green,vert,up,"[0,150]","[150,0]",up,1,1.3701,,,,,,001,2025-03-17_15h41.35.244,SL_base,2021.2.3,Win32,59.84082341,,,29,0,29,0,1,,,,,,,,
,,"[""diamond"",""no_dis"",""hori"",""left"",[99999,99999],[106,106]]",diamond,no_dis,hori,left,"[99999,99999]","[106,106]",left,1,0.9646,,,,,,001,2025-03-17_15h41.35.244,SL_base,2021.2.3,Win32,59.84082341,,,30,0,30,0,1,,,,,,,,
,,"[""circle"",""green"",""vert"",""up"",[150,0],[106,106]]",circle,green,vert,up,"[150,0]","[106,106]",up,1,1.2435,,,,,,001,2025-03-17_15h41.35.244,SL_base,2021.2.3,Win32,59.84082341,,,31,0,31,0,1,,,,,,,,
,,"[""circle"",""green"",""hori"",""left"",[106,-106],[0,150]]",circle,green,hori,left,"[106,-106]","[0,150]",up,0,0.9791,,,,,,001,2025-03-17_15h41.35.244,SL_base,2021.2.3,Win32,59.84082341,,,32,0,32,0,1,,,,,,,,
,,"[""circle"",""red"",""hori"",""left"",[150,0],[-106,-106]]",circle,red,hori,left,"[150,0]","[-106,-106]",left,1,0.8395,,,,,,001,2025-03-17_15h41.35.244,SL_base,2021.2.3,Win32,59.84082341,,,33,0,33,0,1,,,,,,,,
,,"[""diamond"",""no_dis"",""hori"",""left"",[99999,99999],[106,106]]",diamond,no_dis,hori,left,"[99999,99999]","[106,106]",left,1,1.2843,,,,,,001,2025-03-17_15h41.35.244,SL_base,2021.2.3,Win32,59.84082341,,,34,0,34,0,1,,,,,,,,
,,"[""circle"",""red"",""vert"",""up"",[106,106],[-106,-106]]",circle,red,vert,up,"[106,106]","[-106,-106]",up,1,2.0116,,,,,,001,2025-03-17_15h41.35.244,SL_base,2021.2.3,Win32,59.84082341,,,35,0,35,0,1,,,,,,,,
,,"[""circle"",""no_dis"",""vert"",""up"",[99999,99999],[-106,106]]",circle,no_dis,vert,up,"[99999,99999]","[-106,106]",up,1,1.3693,,,,,,001,2025-03-17_15h41.35.244,SL_base,2021.2.3,Win32,59.84082341,,,36,0,36,0,1,,,,,,,,
,,"[""circle"",""no_dis"",""vert"",""up"",[99999,99999],[0,150]]",circle,no_dis,vert,up,"[99999,99999]","[0,150]",up,1,1.2719,,,,,,001,2025-03-17_15h41.35.244,SL_base,2021.2.3,Win32,59.84082341,,,37,0,37,0,1,,,,,,,,
,,"[""circle"",""red"",""vert"",""up"",[150,0],[-106,-106]]",circle,red,vert,up,"[150,0]","[-106,-106]",up,1,2.4871,,,,,,001,2025-03-17_15h41.35.244,SL_base,2021.2.3,Win32,59.84082341,,,38,0,38,0,1,,,,,,,,
,,"[""diamond"",""no_dis"",""hori"",""left"",[99999,99999],[-106,106]]",diamond,no_dis,hori,left,"[99999,99999]","[-106,106]",left,1,1.9321,,,,,,001,2025-03-17_15h41.35.244,SL_base,2021.2.3,Win32,59.84082341,,,39,0,39,0,1,,,,,,,,
,,"[""circle"",""no_dis"",""vert"",""up"",[99999,99999],[-106,106]]",circle,no_dis,vert,up,"[99999,99999]","[-106,106]",up,1,1.4144,,,,,,001,2025-03-17_15h41.35.244,SL_base,2021.2.3,Win32,59.84082341,,,40,0,40,0,1,,,,,,,,
,,"[""diamond"",""no_dis"",""hori"",""left"",[99999,99999],[150,0]]",diamond,no_dis,hori,left,"[99999,99999]","[150,0]",left,1,1.2755,,,,,,001,2025-03-17_15h41.35.244,SL_base,2021.2.3,Win32,59.84082341,,,41,0,41,0,1,,,,,,,,
,,"[""circle"",""green"",""vert"",""up"",[-150,0],[106,106]]",circle,green,vert,up,"[-150,0]","[106,106]",up,1,1.4819,,,,,,001,2025-03-17_15h41.35.244,SL_base,2021.2.3,Win32,59.84082341,,,42,0,42,0,1,,,,,,,,
,,"[""diamond"",""red"",""vert"",""up"",[106,106],[0,-150]]",diamond,red,vert,up,"[106,106]","[0,-150]",up,1,1.169,,,,,,001,2025-03-17_15h41.35.244,SL_base,2021.2.3,Win32,59.84082341,,,43,0,43,0,1,,,,,,,,
,,"[""diamond"",""green"",""vert"",""up"",[-106,106],[-150,0]]",diamond,green,vert,up,"[-106,106]","[-150,0]",up,1,1.6108,,,,,,001,2025-03-17_15h41.35.244,SL_base,2021.2.3,Win32,59.84082341,,,44,0,44,0,1,,,,,,,,
,,"[""circle"",""red"",""hori"",""left"",[106,106],[150,0]]",circle,red,hori,left,"[106,106]","[150,0]",up,0,1.9143,,,,,,001,2025-03-17_15h41.35.244,SL_base,2021.2.3,Win32,59.84082341,,,45,0,45,0,1,,,,,,,,
,,"[""diamond"",""no_dis"",""hori"",""left"",[99999,99999],[-150,0]]",diamond,no_dis,hori,left,"[99999,99999]","[-150,0]",left,1,1.5285,,,,,,001,2025-03-17_15h41.35.244,SL_base,2021.2.3,Win32,59.84082341,,,46,0,46,0,1,,,,,,,,
,,"[""circle"",""red"",""hori"",""left"",[106,-106],[106,106]]",circle,red,hori,left,"[106,-106]","[106,106]",left,1,2.1358,,,,,,001,2025-03-17_15h41.35.244,SL_base,2021.2.3,Win32,59.84082341,,,47,0,47,0,1,,,,,,,,
,,"[""diamond"",""no_dis"",""vert"",""up"",[99999,99999],[-150,0]]",diamond,no_dis,vert,up,"[99999,99999]","[-150,0]",up,1,0.9093,,,,,,001,2025-03-17_15h41.35.244,SL_base,2021.2.3,Win32,59.84082341,,,48,0,48,0,1,,,,,,,,
,,"[""diamond"",""no_dis"",""vert"",""up"",[99999,99999],[106,-106]]",diamond,no_dis,vert,up,"[99999,99999]","[106,-106]",up,1,1.7797,,,,,,001,2025-03-17_15h41.35.244,SL_base,2021.2.3,Win32,59.84082341,,,49,0,49,0,1,,,,,,,,
,,"[""diamond"",""red"",""hori"",""left"",[150,0],[106,-106]]",diamond,red,hori,left,"[150,0]","[106,-106]",left,1,1.5467,,,,,,001,2025-03-17_15h41.35.244,SL_base,2021.2.3,Win32,59.84082341,,,50,0,50,0,1,,,,,,,,
,,"[""circle"",""green"",""vert"",""up"",[0,-150],[106,106]]",circle,green,vert,up,"[0,-150]","[106,106]",up,1,1.9786,,,,,,001,2025-03-17_15h41.35.244,SL_base,2021.2.3,Win32,59.84082341,,,51,0,51,0,1,,,,,,,,
,,"[""circle"",""red"",""hori"",""left"",[150,0],[106,-106]]",circle,red,hori,left,"[150,0]","[106,-106]",left,1,1.4809,,,,,,001,2025-03-17_15h41.35.244,SL_base,2021.2.3,Win32,59.84082341,,,52,0,52,0,1,,,,,,,,
,,"[""diamond"",""green"",""hori"",""left"",[150,0],[106,106]]",diamond,green,hori,left,"[150,0]","[106,106]",left,1,1.0018,,,,,,001,2025-03-17_15h41.35.244,SL_base,2021.2.3,Win32,59.84082341,,,53,0,53,0,1,,,,,,,,
,,"[""circle"",""green"",""hori"",""left"",[0,150],[-106,106]]",circle,green,hori,left,"[0,150]","[-106,106]",left,1,1.3232,,,,,,001,2025-03-17_15h41.35.244,SL_base,2021.2.3,Win32,59.84082341,,,54,0,54,0,1,,,,,,,,
,,"[""diamond"",""no_dis"",""vert"",""up"",[99999,99999],[-106,-106]]",diamond,no_dis,vert,up,"[99999,99999]","[-106,-106]",up,1,1.8241,,,,,,001,2025-03-17_15h41.35.244,SL_base,2021.2.3,Win32,59.84082341,,,55,0,55,0,1,,,,,,,,
,,"[""diamond"",""no_dis"",""vert"",""up"",[99999,99999],[106,-106]]",diamond,no_dis,vert,up,"[99999,99999]","[106,-106]",up,1,1.436,,,,,,001,2025-03-17_15h41.35.244,SL_base,2021.2.3,Win32,59.84082341,,,56,0,56,0,1,,,,,,,,
,,"[""diamond"",""no_dis"",""vert"",""up"",[99999,99999],[0,-150]]",diamond,no_dis,vert,up,"[99999,99999]","[0,-150]",up,1,0.7595,,,,,,001,2025-03-17_15h41.35.244,SL_base,2021.2.3,Win32,59.84082341,,,57,0,57,0,1,,,,,,,,
,,"[""diamond"",""green"",""vert"",""up"",[106,-106],[150,0]]",diamond,green,vert,up,"[106,-106]","[150,0]",up,1,1.9498,,,,,,001,2025-03-17_15h41.35.244,SL_base,2021.2.3,Win32,59.84082341,,,58,0,58,0,1,,,,,,,,
,,"[""diamond"",""red"",""hori"",""left"",[106,-106],[-106,106]]",diamond,red,hori,left,"[106,-106]","[-106,106]",left,1,1.183,,,,,,001,2025-03-17_15h41.35.244,SL_base,2021.2.3,Win32,59.84082341,,,59,0,59,0,1,,,,,,,,
,,"[""diamond"",""green"",""hori"",""left"",[0,-150],[-150,0]]",diamond,green,hori,left,"[0,-150]","[-150,0]",left,1,1.2415,,,,,,001,2025-03-17_15h41.35.244,SL_base,2021.2.3,Win32,59.84082341,,,60,0,60,0,1,,,,,,,,
,,"[""diamond"",""red"",""vert"",""up"",[-150,0],[0,-150]]",diamond,red,vert,up,"[-150,0]","[0,-150]",up,1,1.7779,,,,,,001,2025-03-17_15h41.35.244,SL_base,2021.2.3,Win32,59.84082341,,,61,0,61,0,1,,,,,,,,
,,"[""diamond"",""green"",""hori"",""left"",[0,150],[0,-150]]",diamond,green,hori,left,"[0,150]","[0,-150]",left,1,1.4118,,,,,,001,2025-03-17_15h41.35.244,SL_base,2021.2.3,Win32,59.84082341,,,62,0,62,0,1,,,,,,,,
,,"[""circle"",""no_dis"",""hori"",""left"",[99999,99999],[106,-106]]",circle,no_dis,hori,left,"[99999,99999]","[106,-106]",left,1,1.3654,,,,,,001,2025-03-17_15h41.35.244,SL_base,2021.2.3,Win32,59.84082341,,,63,0,63,0,1,,,,,,,,
,,"[""diamond"",""no_dis"",""vert"",""up"",[99999,99999],[-106,106]]",diamond,no_dis,vert,up,"[99999,99999]","[-106,106]",up,1,0.981,,,,,,001,2025-03-17_15h41.35.244,SL_base,2021.2.3,Win32,59.84082341,,,64,0,64,0,1,,,,,,,,
,,"[""circle"",""green"",""hori"",""left"",[150,0],[106,-106]]",circle,green,hori,left,"[150,0]","[106,-106]",left,1,2.8965,,,,,,001,2025-03-17_15h41.35.244,SL_base,2021.2.3,Win32,59.84082341,,,65,0,65,0,1,,,,,,,,
,,"[""circle"",""green"",""hori"",""left"",[-150,0],[-106,106]]",circle,green,hori,left,"[-150,0]","[-106,106]",up,0,1.8546,,,,,,001,2025-03-17_15h41.35.244,SL_base,2021.2.3,Win32,59.84082341,,,66,0,66,0,1,,,,,,,,
,,"[""diamond"",""red"",""vert"",""up"",[106,106],[-106,106]]",diamond,red,vert,up,"[106,106]","[-106,106]",up,1,0.918,,,,,,001,2025-03-17_15h41.35.244,SL_base,2021.2.3,Win32,59.84082341,,,67,0,67,0,1,,,,,,,,
,,"[""diamond"",""red"",""hori"",""left"",[0,-150],[150,0]]",diamond,red,hori,left,"[0,-150]","[150,0]",up,0,2.3355,,,,,,001,2025-03-17_15h41.35.244,SL_base,2021.2.3,Win32,59.84082341,,,68,0,68,0,1,,,,,,,,
,,"[""diamond"",""no_dis"",""hori"",""left"",[99999,99999],[0,-150]]",diamond,no_dis,hori,left,"[99999,99999]","[0,-150]",left,1,0.6101,,,,,,001,2025-03-17_15h41.35.244,SL_base,2021.2.3,Win32,59.84082341,,,69,0,69,0,1,,,,,,,,
,,"[""diamond"",""green"",""hori"",""left"",[150,0],[-106,-106]]",diamond,green,hori,left,"[150,0]","[-106,-106]",left,1,0.6704,,,,,,001,2025-03-17_15h41.35.244,SL_base,2021.2.3,Win32,59.84082341,,,70,0,70,0,1,,,,,,,,
,,"[""circle"",""no_dis"",""hori"",""left"",[99999,99999],[0,150]]",circle,no_dis,hori,left,"[99999,99999]","[0,150]",left,1,1.5421,,,,,,001,2025-03-17_15h41.35.244,SL_base,2021.2.3,Win32,59.84082341,,,71,0,71,0,1,,,,,,,,
,,"[""circle"",""no_dis"",""vert"",""up"",[99999,99999],[106,-106]]",circle,no_dis,vert,up,"[99999,99999]","[106,-106]",up,1,0.9274,,,,,,001,2025-03-17_15h41.35.244,SL_base,2021.2.3,Win32,59.84082341,,,72,0,72,0,1,,,,,,,,
,,"[""circle"",""red"",""vert"",""up"",[-106,-106],[150,0]]",circle,red,vert,up,"[-106,-106]","[150,0]",up,1,1.2768,,,,,,001,2025-03-17_15h41.35.244,SL_base,2021.2.3,Win32,59.84082341,,,73,0,73,0,1,,,,,,,,
,,"[""diamond"",""red"",""vert"",""up"",[106,-106],[0,150]]",diamond,red,vert,up,"[106,-106]","[0,150]",,0,,,,,,,001,2025-03-17_15h41.35.244,SL_base,2021.2.3,Win32,59.84082341,,,74,0,74,0,1,,,,,,,,
,,"[""diamond"",""red"",""hori"",""left"",[150,0],[106,106]]",diamond,red,hori,left,"[150,0]","[106,106]",left,1,1.9033,,,,,,001,2025-03-17_15h41.35.244,SL_base,2021.2.3,Win32,59.84082341,,,75,0,75,0,1,,,,,,,,
,,"[""diamond"",""no_dis"",""hori"",""left"",[99999,99999],[-150,0]]",diamond,no_dis,hori,left,"[99999,99999]","[-150,0]",left,1,1.0135,,,,,,001,2025-03-17_15h41.35.244,SL_base,2021.2.3,Win32,59.84082341,,,76,0,76,0,1,,,,,,,,
,,"[""circle"",""red"",""hori"",""left"",[0,-150],[0,150]]",circle,red,hori,left,"[0,-150]","[0,150]",left,1,1.0334,,,,,,001,2025-03-17_15h41.35.244,SL_base,2021.2.3,Win32,59.84082341,,,77,0,77,0,1,,,,,,,,
,,"[""diamond"",""green"",""vert"",""up"",[0,-150],[106,106]]",diamond,green,vert,up,"[0,-150]","[106,106]",up,1,0.8812,,,,,,001,2025-03-17_15h41.35.244,SL_base,2021.2.3,Win32,59.84082341,,,78,0,78,0,1,,,,,,,,
,,"[""circle"",""green"",""vert"",""up"",[106,106],[-150,0]]",circle,green,vert,up,"[106,106]","[-150,0]",up,1,0.8581,,,,,,001,2025-03-17_15h41.35.244,SL_base,2021.2.3,Win32,59.84082341,,,79,0,79,0,1,,,,,,,,
,,"[""circle"",""green"",""hori"",""left"",[-150,0],[150,0]]",circle,green,hori,left,"[-150,0]","[150,0]",left,1,0.9762,,,,,,001,2025-03-17_15h41.35.244,SL_base,2021.2.3,Win32,59.84082341,,,80,0,80,0,1,,,,,,,,
,,"[""circle"",""green"",""vert"",""up"",[150,0],[0,150]]",circle,green,vert,up,"[150,0]","[0,150]",left,0,0.8416,,,,,,001,2025-03-17_15h41.35.244,SL_base,2021.2.3,Win32,59.84082341,,,81,0,81,0,1,,,,,,,,
,,"[""diamond"",""no_dis"",""vert"",""up"",[99999,99999],[-106,106]]",diamond,no_dis,vert,up,"[99999,99999]","[-106,106]",up,1,0.6598,,,,,,001,2025-03-17_15h41.35.244,SL_base,2021.2.3,Win32,59.84082341,,,82,0,82,0,1,,,,,,,,
,,"[""diamond"",""red"",""hori"",""left"",[150,0],[106,106]]",diamond,red,hori,left,"[150,0]","[106,106]",left,1,1.0027,,,,,,001,2025-03-17_15h41.35.244,SL_base,2021.2.3,Win32,59.84082341,,,83,0,83,0,1,,,,,,,,
,,"[""diamond"",""green"",""vert"",""up"",[0,150],[0,-150]]",diamond,green,vert,up,"[0,150]","[0,-150]",up,1,0.8797,,,,,,001,2025-03-17_15h41.35.244,SL_base,2021.2.3,Win32,59.84082341,,,84,0,84,0,1,,,,,,,,
,,"[""circle"",""red"",""hori"",""left"",[0,-150],[106,106]]",circle,red,hori,left,"[0,-150]","[106,106]",left,1,1.3548,,,,,,001,2025-03-17_15h41.35.244,SL_base,2021.2.3,Win32,59.84082341,,,85,0,85,0,1,,,,,,,,
,,"[""diamond"",""red"",""hori"",""left"",[-106,-106],[106,-106]]",diamond,red,hori,left,"[-106,-106]","[106,-106]",left,1,0.9977,,,,,,001,2025-03-17_15h41.35.244,SL_base,2021.2.3,Win32,59.84082341,,,86,0,86,0,1,,,,,,,,
,,"[""circle"",""green"",""vert"",""up"",[0,150],[-150,0]]",circle,green,vert,up,"[0,150]","[-150,0]",up,1,1.3373,,,,,,001,2025-03-17_15h41.35.244,SL_base,2021.2.3,Win32,59.84082341,,,87,0,87,0,1,,,,,,,,
,,"[""circle"",""red"",""hori"",""left"",[-106,-106],[150,0]]",circle,red,hori,left,"[-106,-106]","[150,0]",left,1,0.7126,,,,,,001,2025-03-17_15h41.35.244,SL_base,2021.2.3,Win32,59.84082341,,,88,0,88,0,1,,,,,,,,
,,"[""circle"",""no_dis"",""hori"",""left"",[99999,99999],[106,106]]",circle,no_dis,hori,left,"[99999,99999]","[106,106]",left,1,0.6688,,,,,,001,2025-03-17_15h41.35.244,SL_base,2021.2.3,Win32,59.84082341,,,89,0,89,0,1,,,,,,,,
,,"[""circle"",""green"",""hori"",""left"",[150,0],[0,-150]]",circle,green,hori,left,"[150,0]","[0,-150]",left,1,0.9126,,,,,,001,2025-03-17_15h41.35.244,SL_base,2021.2.3,Win32,59.84082341,,,90,0,90,0,1,,,,,,,,
,,"[""circle"",""green"",""vert"",""up"",[0,-150],[106,106]]",circle,green,vert,up,"[0,-150]","[106,106]",up,1,0.6657,,,,,,001,2025-03-17_15h41.35.244,SL_base,2021.2.3,Win32,59.84082341,,,91,0,91,0,1,,,,,,,,
,,"[""diamond"",""green"",""vert"",""up"",[-106,-106],[0,-150]]",diamond,green,vert,up,"[-106,-106]","[0,-150]",left,0,0.9386,,,,,,001,2025-03-17_15h41.35.244,SL_base,2021.2.3,Win32,59.84082341,,,92,0,92,0,1,,,,,,,,
,,"[""circle"",""green"",""hori"",""left"",[-106,106],[150,0]]",circle,green,hori,left,"[-106,106]","[150,0]",left,1,1.0997,,,,,,001,2025-03-17_15h41.35.244,SL_base,2021.2.3,Win32,59.84082341,,,93,0,93,0,1,,,,,,,,
,,"[""diamond"",""no_dis"",""hori"",""left"",[99999,99999],[-106,-106]]",diamond,no_dis,hori,left,"[99999,99999]","[-106,-106]",left,1,1.0401,,,,,,001,2025-03-17_15h41.35.244,SL_base,2021.2.3,Win32,59.84082341,,,94,0,94,0,1,,,,,,,,
,,"[""diamond"",""no_dis"",""hori"",""left"",[99999,99999],[0,-150]]",diamond,no_dis,hori,left,"[99999,99999]","[0,-150]",left,1,0.651,,,,,,001,2025-03-17_15h41.35.244,SL_base,2021.2.3,Win32,59.84082341,,,95,0,95,0,1,,,,,,,,
,,"[""diamond"",""no_dis"",""vert"",""up"",[99999,99999],[0,150]]",diamond,no_dis,vert,up,"[99999,99999]","[0,150]",up,1,0.7859,,,,,,001,2025-03-17_15h41.35.244,SL_base,2021.2.3,Win32,59.84082341,,,96,0,96,0,1,,,,,,,,
,,"[""circle"",""no_dis"",""hori"",""left"",[99999,99999],[-106,-106]]",circle,no_dis,hori,left,"[99999,99999]","[-106,-106]",left,1,1.6266,,,,,,001,2025-03-17_15h41.35.244,SL_base,2021.2.3,Win32,59.84082341,,,97,0,97,0,1,,,,,,,,
,,"[""diamond"",""red"",""vert"",""up"",[-106,106],[0,-150]]",diamond,red,vert,up,"[-106,106]","[0,-150]",up,1,0.7108,,,,,,001,2025-03-17_15h41.35.244,SL_base,2021.2.3,Win32,59.84082341,,,98,0,98,0,1,,,,,,,,
,,"[""circle"",""red"",""vert"",""up"",[150,0],[0,150]]",circle,red,vert,up,"[150,0]","[0,150]",up,1,1.0294,,,,,,001,2025-03-17_15h41.35.244,SL_base,2021.2.3,Win32,59.84082341,,,99,0,99,0,1,,,,,,,,
,,"[""diamond"",""green"",""vert"",""up"",[106,-106],[106,106]]",diamond,green,vert,up,"[106,-106]","[106,106]",up,1,0.9404,,,,,,001,2025-03-17_15h41.35.244,SL_base,2021.2.3,Win32,59.84082341,,,100,0,100,0,1,,,,,,,,
,,"[""diamond"",""green"",""vert"",""up"",[150,0],[0,150]]",diamond,green,vert,up,"[150,0]","[0,150]",up,1,0.6662,,,,,,001,2025-03-17_15h41.35.244,SL_base,2021.2.3,Win32,59.84082341,,,101,0,101,0,1,,,,,,,,
,,"[""diamond"",""red"",""vert"",""up"",[150,0],[0,-150]]",diamond,red,vert,up,"[150,0]","[0,-150]",up,1,0.6362,,,,,,001,2025-03-17_15h41.35.244,SL_base,2021.2.3,Win32,59.84082341,,,102,0,102,0,1,,,,,,,,
,,"[""circle"",""no_dis"",""vert"",""up"",[99999,99999],[150,0]]",circle,no_dis,vert,up,"[99999,99999]","[150,0]",left,0,1.1782,,,,,,001,2025-03-17_15h41.35.244,SL_base,2021.2.3,Win32,59.84082341,,,103,0,103,0,1,,,,,,,,
,,"[""diamond"",""red"",""hori"",""left"",[-106,-106],[0,150]]",diamond,red,hori,left,"[-106,-106]","[0,150]",left,1,1.3025,,,,,,001,2025-03-17_15h41.35.244,SL_base,2021.2.3,Win32,59.84082341,,,104,0,104,0,1,,,,,,,,
,,"[""circle"",""no_dis"",""hori"",""left"",[99999,99999],[0,150]]",circle,no_dis,hori,left,"[99999,99999]","[0,150]",left,1,1.0758,,,,,,001,2025-03-17_15h41.35.244,SL_base,2021.2.3,Win32,59.84082341,,,105,0,105,0,1,,,,,,,,
,,"[""circle"",""red"",""vert"",""up"",[-106,106],[150,0]]",circle,red,vert,up,"[-106,106]","[150,0]",up,1,1.7778,,,,,,001,2025-03-17_15h41.35.244,SL_base,2021.2.3,Win32,59.84082341,,,106,0,106,0,1,,,,,,,,
,,"[""circle"",""no_dis"",""vert"",""up"",[99999,99999],[106,-106]]",circle,no_dis,vert,up,"[99999,99999]","[106,-106]",up,1,1.0827,,,,,,001,2025-03-17_15h41.35.244,SL_base,2021.2.3,Win32,59.84082341,,,107,0,107,0,1,,,,,,,,
,,"[""circle"",""no_dis"",""hori"",""left"",[99999,99999],[-150,0]]",circle,no_dis,hori,left,"[99999,99999]","[-150,0]",left,1,0.852,,,,,,001,2025-03-17_15h41.35.244,SL_base,2021.2.3,Win32,59.84082341,,,108,0,108,0,1,,,,,,,,
,,"[""circle"",""no_dis"",""vert"",""up"",[99999,99999],[150,0]]",circle,no_dis,vert,up,"[99999,99999]","[150,0]",up,1,0.5998,,,,,,001,2025-03-17_15h41.35.244,SL_base,2021.2.3,Win32,59.84082341,,,109,0,109,0,1,,,,,,,,
,,"[""circle"",""no_dis"",""hori"",""left"",[99999,99999],[-150,0]]",circle,no_dis,hori,left,"[99999,99999]","[-150,0]",left,1,0.5634,,,,,,001,2025-03-17_15h41.35.244,SL_base,2021.2.3,Win32,59.84082341,,,110,0,110,0,1,,,,,,,,
,,"[""circle"",""green"",""hori"",""left"",[-150,0],[106,106]]",circle,green,hori,left,"[-150,0]","[106,106]",left,1,0.5758,,,,,,001,2025-03-17_15h41.35.244,SL_base,2021.2.3,Win32,59.84082341,,,111,0,111,0,1,,,,,,,,
,,"[""diamond"",""green"",""hori"",""left"",[150,0],[0,-150]]",diamond,green,hori,left,"[150,0]","[0,-150]",left,1,1.2085,,,,,,001,2025-03-17_15h41.35.244,SL_base,2021.2.3,Win32,59.84082341,,,112,0,112,0,1,,,,,,,,
,,"[""circle"",""red"",""vert"",""up"",[106,106],[150,0]]",circle,red,vert,up,"[106,106]","[150,0]",up,1,0.7788,,,,,,001,2025-03-17_15h41.35.244,SL_base,2021.2.3,Win32,59.84082341,,,113,0,113,0,1,,,,,,,,
,,"[""circle"",""green"",""vert"",""up"",[-106,106],[150,0]]",circle,green,vert,up,"[-106,106]","[150,0]",up,1,0.6338,,,,,,001,2025-03-17_15h41.35.244,SL_base,2021.2.3,Win32,59.84082341,,,114,0,114,0,1,,,,,,,,
,,"[""diamond"",""green"",""vert"",""up"",[150,0],[-150,0]]",diamond,green,vert,up,"[150,0]","[-150,0]",up,1,1.6265,,,,,,001,2025-03-17_15h41.35.244,SL_base,2021.2.3,Win32,59.84082341,,,115,0,115,0,1,,,,,,,,
,,"[""circle"",""no_dis"",""vert"",""up"",[99999,99999],[0,-150]]",circle,no_dis,vert,up,"[99999,99999]","[0,-150]",up,1,0.7994,,,,,,001,2025-03-17_15h41.35.244,SL_base,2021.2.3,Win32,59.84082341,,,116,0,116,0,1,,,,,,,,
,,"[""diamond"",""green"",""hori"",""left"",[0,-150],[-106,-106]]",diamond,green,hori,left,"[0,-150]","[-106,-106]",left,1,1.3232,,,,,,001,2025-03-17_15h41.35.244,SL_base,2021.2.3,Win32,59.84082341,,,117,0,117,0,1,,,,,,,,
,,"[""circle"",""red"",""vert"",""up"",[-106,-106],[106,106]]",circle,red,vert,up,"[-106,-106]","[106,106]",up,1,1.2111,,,,,,001,2025-03-17_15h41.35.244,SL_base,2021.2.3,Win32,59.84082341,,,118,0,118,0,1,,,,,,,,
,,"[""circle"",""red"",""hori"",""left"",[150,0],[-150,0]]",circle,red,hori,left,"[150,0]","[-150,0]",left,1,0.7275,,,,,,001,2025-03-17_15h41.35.244,SL_base,2021.2.3,Win32,59.84082341,,,119,0,119,0,1,,,,,,,,
,,,,,,,,,,,,,,,,,001,2025-03-17_15h41.35.244,SL_base,2021.2.3,Win32,59.84082341,,,,,,,,2,space,161.1738,1,0,1,0,1
,,"[""circle"",""green"",""hori"",""left"",[-106,106],[150,0]]",circle,green,hori,left,"[-106,106]","[150,0]",left,1,0.7012,,,,,,001,2025-03-17_15h41.35.244,SL_base,2021.2.3,Win32,59.84082341,,,0,0,0,0,1,,,,,,,,
,,"[""circle"",""no_dis"",""hori"",""left"",[99999,99999],[-150,0]]",circle,no_dis,hori,left,"[99999,99999]","[-150,0]",left,1,0.6719,,,,,,001,2025-03-17_15h41.35.244,SL_base,2021.2.3,Win32,59.84082341,,,1,0,1,0,1,,,,,,,,
,,"[""diamond"",""no_dis"",""hori"",""left"",[99999,99999],[106,106]]",diamond,no_dis,hori,left,"[99999,99999]","[106,106]",left,1,0.8714,,,,,,001,2025-03-17_15h41.35.244,SL_base,2021.2.3,Win32,59.84082341,,,2,0,2,0,1,,,,,,,,
,,"[""circle"",""red"",""hori"",""left"",[150,0],[-106,-106]]",circle,red,hori,left,"[150,0]","[-106,-106]",left,1,1.0458,,,,,,001,2025-03-17_15h41.35.244,SL_base,2021.2.3,Win32,59.84082341,,,3,0,3,0,1,,,,,,,,
,,"[""diamond"",""green"",""vert"",""up"",[150,0],[-106,-106]]",diamond,green,vert,up,"[150,0]","[-106,-106]",up,1,1.4423,,,,,,001,2025-03-17_15h41.35.244,SL_base,2021.2.3,Win32,59.84082341,,,4,0,4,0,1,,,,,,,,
,,"[""circle"",""green"",""vert"",""up"",[-106,106],[150,0]]",circle,green,vert,up,"[-106,106]","[150,0]",up,1,1.1038,,,,,,001,2025-03-17_15h41.35.244,SL_base,2021.2.3,Win32,59.84082341,,,5,0,5,0,1,,,,,,,,
,,"[""circle"",""no_dis"",""hori"",""left"",[99999,99999],[-106,-106]]",circle,no_dis,hori,left,"[99999,99999]","[-106,-106]",left,1,0.6823,,,,,,001,2025-03-17_15h41.35.244,SL_base,2021.2.3,Win32,59.84082341,,,6,0,6,0,1,,,,,,,,
,,"[""diamond"",""red"",""hori"",""left"",[0,-150],[150,0]]",diamond,red,hori,left,"[0,-150]","[150,0]",left,1,1.2476,,,,,,001,2025-03-17_15h41.35.244,SL_base,2021.2.3,Win32,59.84082341,,,7,0,7,0,1,,,,,,,,
,,"[""diamond"",""red"",""vert"",""up"",[0,150],[0,-150]]",diamond,red,vert,up,"[0,150]","[0,-150]",up,1,1.6978,,,,,,001,2025-03-17_15h41.35.244,SL_base,2021.2.3,Win32,59.84082341,,,8,0,8,0,1,,,,,,,,
,,"[""diamond"",""green"",""vert"",""up"",[0,-150],[106,106]]",diamond,green,vert,up,"[0,-150]","[106,106]",up,1,1.6873,,,,,,001,2025-03-17_15h41.35.244,SL_base,2021.2.3,Win32,59.84082341,,,9,0,9,0,1,,,,,,,,
,,"[""diamond"",""no_dis"",""vert"",""up"",[99999,99999],[0,-150]]",diamond,no_dis,vert,up,"[99999,99999]","[0,-150]",up,1,0.7847,,,,,,001,2025-03-17_15h41.35.244,SL_base,2021.2.3,Win32,59.84082341,,,10,0,10,0,1,,,,,,,,
,,"[""circle"",""red"",""vert"",""up"",[-106,-106],[106,106]]",circle,red,vert,up,"[-106,-106]","[106,106]",up,1,1.7995,,,,,,001,2025-03-17_15h41.35.244,SL_base,2021.2.3,Win32,59.84082341,,,11,0,11,0,1,,,,,,,,
,,"[""circle"",""green"",""hori"",""left"",[150,0],[0,-150]]",circle,green,hori,left,"[150,0]","[0,-150]",left,1,0.851,,,,,,001,2025-03-17_15h41.35.244,SL_base,2021.2.3,Win32,59.84082341,,,12,0,12,0,1,,,,,,,,
,,"[""diamond"",""no_dis"",""vert"",""up"",[99999,99999],[-106,106]]",diamond,no_dis,vert,up,"[99999,99999]","[-106,106]",up,1,0.8242,,,,,,001,2025-03-17_15h41.35.244,SL_base,2021.2.3,Win32,59.84082341,,,13,0,13,0,1,,,,,,,,
,,"[""circle"",""no_dis"",""vert"",""up"",[99999,99999],[106,-106]]",circle,no_dis,vert,up,"[99999,99999]","[106,-106]",up,1,1.9022,,,,,,001,2025-03-17_15h41.35.244,SL_base,2021.2.3,Win32,59.84082341,,,14,0,14,0,1,,,,,,,,
,,"[""diamond"",""red"",""vert"",""up"",[106,-106],[0,150]]",diamond,red,vert,up,"[106,-106]","[0,150]",up,1,1.4209,,,,,,001,2025-03-17_15h41.35.244,SL_base,2021.2.3,Win32,59.84082341,,,15,0,15,0,1,,,,,,,,
,,"[""diamond"",""no_dis"",""hori"",""left"",[99999,99999],[-106,-106]]",diamond,no_dis,hori,left,"[99999,99999]","[-106,-106]",left,1,0.6934,,,,,,001,2025-03-17_15h41.35.244,SL_base,2021.2.3,Win32,59.84082341,,,16,0,16,0,1,,,,,,,,
,,"[""circle"",""red"",""hori"",""left"",[-150,0],[106,106]]",circle,red,hori,left,"[-150,0]","[106,106]",left,1,0.8445,,,,,,001,2025-03-17_15h41.35.244,SL_base,2021.2.3,Win32,59.84082341,,,17,0,17,0,1,,,,,,,,
,,"[""diamond"",""red"",""vert"",""up"",[106,106],[0,-150]]",diamond,red,vert,up,"[106,106]","[0,-150]",up,1,2.422,,,,,,001,2025-03-17_15h41.35.244,SL_base,2021.2.3,Win32,59.84082341,,,18,0,18,0,1,,,,,,,,
,,"[""circle"",""green"",""hori"",""left"",[-150,0],[150,0]]",circle,green,hori,left,"[-150,0]","[150,0]",left,1,0.7788,,,,,,001,2025-03-17_15h41.35.244,SL_base,2021.2.3,Win32,59.84082341,,,19,0,19,0,1,,,,,,,,
,,"[""circle"",""no_dis"",""hori"",""left"",[99999,99999],[0,150]]",circle,no_dis,hori,left,"[99999,99999]","[0,150]",left,1,1.51,,,,,,001,2025-03-17_15h41.35.244,SL_base,2021.2.3,Win32,59.84082341,,,20,0,20,0,1,,,,,,,,
,,"[""diamond"",""green"",""hori"",""left"",[0,150],[0,-150]]",diamond,green,hori,left,"[0,150]","[0,-150]",left,1,1.1143,,,,,,001,2025-03-17_15h41.35.244,SL_base,2021.2.3,Win32,59.84082341,,,21,0,21,0,1,,,,,,,,
,,"[""diamond"",""red"",""hori"",""left"",[150,0],[106,106]]",diamond,red,hori,left,"[150,0]","[106,106]",up,0,1.0063,,,,,,001,2025-03-17_15h41.35.244,SL_base,2021.2.3,Win32,59.84082341,,,22,0,22,0,1,,,,,,,,
,,"[""circle"",""red"",""vert"",""up"",[150,0],[-106,-106]]",circle,red,vert,up,"[150,0]","[-106,-106]",up,1,1.3346,,,,,,001,2025-03-17_15h41.35.244,SL_base,2021.2.3,Win32,59.84082341,,,23,0,23,0,1,,,,,,,,
,,"[""diamond"",""no_dis"",""vert"",""up"",[99999,99999],[0,150]]",diamond,no_dis,vert,up,"[99999,99999]","[0,150]",up,1,1.4756,,,,,,001,2025-03-17_15h41.35.244,SL_base,2021.2.3,Win32,59.84082341,,,24,0,24,0,1,,,,,,,,
,,"[""circle"",""no_dis"",""vert"",""up"",[99999,99999],[150,0]]",circle,no_dis,vert,up,"[99999,99999]","[150,0]",up,1,1.1985,,,,,,001,2025-03-17_15h41.35.244,SL_base,2021.2.3,Win32,59.84082341,,,25,0,25,0,1,,,,,,,,
,,"[""circle"",""green"",""hori"",""left"",[-150,0],[106,106]]",circle,green,hori,left,"[-150,0]","[106,106]",left,1,1.0093,,,,,,001,2025-03-17_15h41.35.244,SL_base,2021.2.3,Win32,59.84082341,,,26,0,26,0,1,,,,,,,,
,,"[""diamond"",""red"",""vert"",""up"",[-106,106],[150,0]]",diamond,red,vert,up,"[-106,106]","[150,0]",up,1,0.6565,,,,,,001,2025-03-17_15h41.35.244,SL_base,2021.2.3,Win32,59.84082341,,,27,0,27,0,1,,,,,,,,
,,"[""diamond"",""red"",""hori"",""left"",[-106,-106],[106,-106]]",diamond,red,hori,left,"[-106,-106]","[106,-106]",left,1,0.677,,,,,,001,2025-03-17_15h41.35.244,SL_base,2021.2.3,Win32,59.84082341,,,28,0,28,0,1,,,,,,,,
,,"[""circle"",""green"",""hori"",""left"",[150,0],[106,-106]]",circle,green,hori,left,"[150,0]","[106,-106]",left,1,1.183,,,,,,001,2025-03-17_15h41.35.244,SL_base,2021.2.3,Win32,59.84082341,,,29,0,29,0,1,,,,,,,,
,,"[""diamond"",""green"",""hori"",""left"",[106,-106],[-106,-106]]",diamond,green,hori,left,"[106,-106]","[-106,-106]",left,1,0.7136,,,,,,001,2025-03-17_15h41.35.244,SL_base,2021.2.3,Win32,59.84082341,,,30,0,30,0,1,,,,,,,,
,,"[""circle"",""no_dis"",""vert"",""up"",[99999,99999],[-106,106]]",circle,no_dis,vert,up,"[99999,99999]","[-106,106]",up,1,0.8822,,,,,,001,2025-03-17_15h41.35.244,SL_base,2021.2.3,Win32,59.84082341,,,31,0,31,0,1,,,,,,,,
,,"[""diamond"",""red"",""hori"",""left"",[-106,-106],[0,150]]",diamond,red,hori,left,"[-106,-106]","[0,150]",left,1,0.9036,,,,,,001,2025-03-17_15h41.35.244,SL_base,2021.2.3,Win32,59.84082341,,,32,0,32,0,1,,,,,,,,
,,"[""diamond"",""no_dis"",""vert"",""up"",[99999,99999],[106,106]]",diamond,no_dis,vert,up,"[99999,99999]","[106,106]",up,1,0.7913,,,,,,001,2025-03-17_15h41.35.244,SL_base,2021.2.3,Win32,59.84082341,,,33,0,33,0,1,,,,,,,,
,,"[""diamond"",""green"",""hori"",""left"",[150,0],[106,106]]",diamond,green,hori,left,"[150,0]","[106,106]",left,1,0.9639,,,,,,001,2025-03-17_15h41.35.244,SL_base,2021.2.3,Win32,59.84082341,,,34,0,34,0,1,,,,,,,,
,,"[""diamond"",""red"",""vert"",""up"",[-106,-106],[-106,106]]",diamond,red,vert,up,"[-106,-106]","[-106,106]",up,1,0.8922,,,,,,001,2025-03-17_15h41.35.244,SL_base,2021.2.3,Win32,59.84082341,,,35,0,35,0,1,,,,,,,,
,,"[""diamond"",""green"",""vert"",""up"",[106,-106],[150,0]]",diamond,green,vert,up,"[106,-106]","[150,0]",up,1,0.6087,,,,,,001,2025-03-17_15h41.35.244,SL_base,2021.2.3,Win32,59.84082341,,,36,0,36,0,1,,,,,,,,
,,"[""diamond"",""red"",""hori"",""left"",[106,-106],[-106,106]]",diamond,red,hori,left,"[106,-106]","[-106,106]",left,1,0.597,,,,,,001,2025-03-17_15h41.35.244,SL_base,2021.2.3,Win32,59.84082341,,,37,0,37,0,1,,,,,,,,
,,"[""diamond"",""red"",""vert"",""up"",[150,0],[0,-150]]",diamond,red,vert,up,"[150,0]","[0,-150]",up,1,0.8836,,,,,,001,2025-03-17_15h41.35.244,SL_base,2021.2.3,Win32,59.84082341,,,38,0,38,0,1,,,,,,,,
,,"[""circle"",""no_dis"",""vert"",""up"",[99999,99999],[150,0]]",circle,no_dis,vert,up,"[99999,99999]","[150,0]",up,1,1.7736,,,,,,001,2025-03-17_15h41.35.244,SL_base,2021.2.3,Win32,59.84082341,,,39,0,39,0,1,,,,,,,,
,,"[""diamond"",""green"",""vert"",""up"",[150,0],[0,150]]",diamond,green,vert,up,"[150,0]","[0,150]",up,1,1.1582,,,,,,001,2025-03-17_15h41.35.244,SL_base,2021.2.3,Win32,59.84082341,,,40,0,40,0,1,,,,,,,,
,,"[""circle"",""green"",""vert"",""up"",[150,0],[106,106]]",circle,green,vert,up,"[150,0]","[106,106]",up,1,0.7918,,,,,,001,2025-03-17_15h41.35.244,SL_base,2021.2.3,Win32,59.84082341,,,41,0,41,0,1,,,,,,,,
,,"[""diamond"",""green"",""hori"",""left"",[0,-150],[-106,-106]]",diamond,green,hori,left,"[0,-150]","[-106,-106]",left,1,0.778,,,,,,001,2025-03-17_15h41.35.244,SL_base,2021.2.3,Win32,59.84082341,,,42,0,42,0,1,,,,,,,,
,,"[""circle"",""red"",""vert"",""up"",[-106,106],[0,-150]]",circle,red,vert,up,"[-106,106]","[0,-150]",up,1,1.1965,,,,,,001,2025-03-17_15h41.35.244,SL_base,2021.2.3,Win32,59.84082341,,,43,0,43,0,1,,,,,,,,
,,"[""diamond"",""green"",""vert"",""up"",[-106,106],[-150,0]]",diamond,green,vert,up,"[-106,106]","[-150,0]",up,1,1.0014,,,,,,001,2025-03-17_15h41.35.244,SL_base,2021.2.3,Win32,59.84082341,,,44,0,44,0,1,,,,,,,,
,,"[""circle"",""green"",""hori"",""left"",[106,-106],[0,150]]",circle,green,hori,left,"[106,-106]","[0,150]",left,1,0.9091,,,,,,001,2025-03-17_15h41.35.244,SL_base,2021.2.3,Win32,59.84082341,,,45,0,45,0,1,,,,,,,,
,,"[""diamond"",""green"",""vert"",""up"",[150,0],[-150,0]]",diamond,green,vert,up,"[150,0]","[-150,0]",up,1,0.6348,,,,,,001,2025-03-17_15h41.35.244,SL_base,2021.2.3,Win32,59.84082341,,,46,0,46,0,1,,,,,,,,
,,"[""diamond"",""green"",""hori"",""left"",[-150,0],[106,106]]",diamond,green,hori,left,"[-150,0]","[106,106]",left,1,0.8229,,,,,,001,2025-03-17_15h41.35.244,SL_base,2021.2.3,Win32,59.84082341,,,47,0,47,0,1,,,,,,,,
,,"[""circle"",""red"",""hori"",""left"",[0,-150],[0,150]]",circle,red,hori,left,"[0,-150]","[0,150]",left,1,1.9212,,,,,,001,2025-03-17_15h41.35.244,SL_base,2021.2.3,Win32,59.84082341,,,48,0,48,0,1,,,,,,,,
,,"[""diamond"",""no_dis"",""hori"",""left"",[99999,99999],[150,0]]",diamond,no_dis,hori,left,"[99999,99999]","[150,0]",left,1,0.775,,,,,,001,2025-03-17_15h41.35.244,SL_base,2021.2.3,Win32,59.84082341,,,49,0,49,0,1,,,,,,,,
,,"[""circle"",""red"",""hori"",""left"",[106,106],[150,0]]",circle,red,hori,left,"[106,106]","[150,0]",left,1,1.1795,,,,,,001,2025-03-17_15h41.35.244,SL_base,2021.2.3,Win32,59.84082341,,,50,0,50,0,1,,,,,,,,
,,"[""circle"",""red"",""vert"",""up"",[106,-106],[-150,0]]",circle,red,vert,up,"[106,-106]","[-150,0]",up,1,1.3019,,,,,,001,2025-03-17_15h41.35.244,SL_base,2021.2.3,Win32,59.84082341,,,51,0,51,0,1,,,,,,,,
,,"[""circle"",""red"",""hori"",""left"",[0,-150],[106,106]]",circle,red,hori,left,"[0,-150]","[106,106]",left,1,1.8139,,,,,,001,2025-03-17_15h41.35.244,SL_base,2021.2.3,Win32,59.84082341,,,52,0,52,0,1,,,,,,,,
,,"[""circle"",""no_dis"",""hori"",""left"",[99999,99999],[-150,0]]",circle,no_dis,hori,left,"[99999,99999]","[-150,0]",left,1,0.8417,,,,,,001,2025-03-17_15h41.35.244,SL_base,2021.2.3,Win32,59.84082341,,,53,0,53,0,1,,,,,,,,
,,"[""circle"",""no_dis"",""vert"",""up"",[99999,99999],[106,-106]]",circle,no_dis,vert,up,"[99999,99999]","[106,-106]",up,1,0.6688,,,,,,001,2025-03-17_15h41.35.244,SL_base,2021.2.3,Win32,59.84082341,,,54,0,54,0,1,,,,,,,,
,,"[""diamond"",""green"",""vert"",""up"",[-106,-106],[0,-150]]",diamond,green,vert,up,"[-106,-106]","[0,-150]",up,1,1.0099,,,,,,001,2025-03-17_15h41.35.244,SL_base,2021.2.3,Win32,59.84082341,,,55,0,55,0,1,,,,,,,,
,,"[""circle"",""green"",""hori"",""left"",[-106,106],[106,-106]]",circle,green,hori,left,"[-106,106]","[106,-106]",left,1,0.6667,,,,,,001,2025-03-17_15h41.35.244,SL_base,2021.2.3,Win32,59.84082341,,,56,0,56,0,1,,,,,,,,
,,"[""diamond"",""no_dis"",""vert"",""up"",[99999,99999],[106,-106]]",diamond,no_dis,vert,up,"[99999,99999]","[106,-106]",up,1,1.3622,,,,,,001,2025-03-17_15h41.35.244,SL_base,2021.2.3,Win32,59.84082341,,,57,0,57,0,1,,,,,,,,
,,"[""circle"",""red"",""hori"",""left"",[0,150],[150,0]]",circle,red,hori,left,"[0,150]","[150,0]",left,1,0.8233,,,,,,001,2025-03-17_15h41.35.244,SL_base,2021.2.3,Win32,59.84082341,,,58,0,58,0,1,,,,,,,,
,,"[""circle"",""no_dis"",""hori"",""left"",[99999,99999],[-106,-106]]",circle,no_dis,hori,left,"[99999,99999]","[-106,-106]",left,1,0.7275,,,,,,001,2025-03-17_15h41.35.244,SL_base,2021.2.3,Win32,59.84082341,,,59,0,59,0,1,,,,,,,,
,,"[""diamond"",""no_dis"",""vert"",""up"",[99999,99999],[-106,106]]",diamond,no_dis,vert,up,"[99999,99999]","[-106,106]",up,1,0.854,,,,,,001,2025-03-17_15h41.35.244,SL_base,2021.2.3,Win32,59.84082341,,,60,0,60,0,1,,,,,,,,
,,"[""circle"",""no_dis"",""hori"",""left"",[99999,99999],[0,-150]]",circle,no_dis,hori,left,"[99999,99999]","[0,-150]",left,1,0.9996,,,,,,001,2025-03-17_15h41.35.244,SL_base,2021.2.3,Win32,59.84082341,,,61,0,61,0,1,,,,,,,,
,,"[""diamond"",""red"",""hori"",""left"",[0,150],[106,106]]",diamond,red,hori,left,"[0,150]","[106,106]",left,1,0.9738,,,,,,001,2025-03-17_15h41.35.244,SL_base,2021.2.3,Win32,59.84082341,,,62,0,62,0,1,,,,,,,,
,,"[""diamond"",""red"",""hori"",""left"",[150,0],[106,106]]",diamond,red,hori,left,"[150,0]","[106,106]",left,1,1.8453,,,,,,001,2025-03-17_15h41.35.244,SL_base,2021.2.3,Win32,59.84082341,,,63,0,63,0,1,,,,,,,,
,,"[""diamond"",""green"",""vert"",""up"",[106,106],[106,-106]]",diamond,green,vert,up,"[106,106]","[106,-106]",up,1,0.8709,,,,,,001,2025-03-17_15h41.35.244,SL_base,2021.2.3,Win32,59.84082341,,,64,0,64,0,1,,,,,,,,
,,"[""diamond"",""red"",""vert"",""up"",[150,0],[-106,106]]",diamond,red,vert,up,"[150,0]","[-106,106]",up,1,1.9449,,,,,,001,2025-03-17_15h41.35.244,SL_base,2021.2.3,Win32,59.84082341,,,65,0,65,0,1,,,,,,,,
,,"[""circle"",""no_dis"",""vert"",""up"",[99999,99999],[-106,106]]",circle,no_dis,vert,up,"[99999,99999]","[-106,106]",up,1,1.7785,,,,,,001,2025-03-17_15h41.35.244,SL_base,2021.2.3,Win32,59.84082341,,,66,0,66,0,1,,,,,,,,
,,"[""diamond"",""no_dis"",""vert"",""up"",[99999,99999],[-106,-106]]",diamond,no_dis,vert,up,"[99999,99999]","[-106,-106]",up,1,0.8819,,,,,,001,2025-03-17_15h41.35.244,SL_base,2021.2.3,Win32,59.84082341,,,67,0,67,0,1,,,,,,,,
,,"[""diamond"",""no_dis"",""hori"",""left"",[99999,99999],[-106,106]]",diamond,no_dis,hori,left,"[99999,99999]","[-106,106]",left,1,1.6231,,,,,,001,2025-03-17_15h41.35.244,SL_base,2021.2.3,Win32,59.84082341,,,68,0,68,0,1,,,,,,,,
,,"[""diamond"",""green"",""hori"",""left"",[0,-150],[-150,0]]",diamond,green,hori,left,"[0,-150]","[-150,0]",left,1,0.7835,,,,,,001,2025-03-17_15h41.35.244,SL_base,2021.2.3,Win32,59.84082341,,,69,0,69,0,1,,,,,,,,
,,"[""diamond"",""no_dis"",""vert"",""up"",[99999,99999],[150,0]]",diamond,no_dis,vert,up,"[99999,99999]","[150,0]",up,1,1.0804,,,,,,001,2025-03-17_15h41.35.244,SL_base,2021.2.3,Win32,59.84082341,,,70,0,70,0,1,,,,,,,,
,,"[""circle"",""no_dis"",""vert"",""up"",[99999,99999],[0,150]]",circle,no_dis,vert,up,"[99999,99999]","[0,150]",up,1,1.2294,,,,,,001,2025-03-17_15h41.35.244,SL_base,2021.2.3,Win32,59.84082341,,,71,0,71,0,1,,,,,,,,
,,"[""diamond"",""red"",""vert"",""up"",[-150,0],[0,-150]]",diamond,red,vert,up,"[-150,0]","[0,-150]",up,1,1.0124,,,,,,001,2025-03-17_15h41.35.244,SL_base,2021.2.3,Win32,59.84082341,,,72,0,72,0,1,,,,,,,,
,,"[""circle"",""green"",""vert"",""up"",[150,0],[-106,106]]",circle,green,vert,up,"[150,0]","[-106,106]",up,1,2.1241,,,,,,001,2025-03-17_15h41.35.244,SL_base,2021.2.3,Win32,59.84082341,,,73,0,73,0,1,,,,,,,,
,,"[""circle"",""green"",""hori"",""left"",[0,150],[-106,106]]",circle,green,hori,left,"[0,150]","[-106,106]",left,1,2.0153,,,,,,001,2025-03-17_15h41.35.244,SL_base,2021.2.3,Win32,59.84082341,,,74,0,74,0,1,,,,,,,,
,,"[""diamond"",""green"",""hori"",""left"",[150,0],[-150,0]]",diamond,green,hori,left,"[150,0]","[-150,0]",left,1,0.651,,,,,,001,2025-03-17_15h41.35.244,SL_base,2021.2.3,Win32,59.84082341,,,75,0,75,0,1,,,,,,,,
,,"[""circle"",""green"",""vert"",""up"",[0,150],[150,0]]",circle,green,vert,up,"[0,150]","[150,0]",up,1,1.0511,,,,,,001,2025-03-17_15h41.35.244,SL_base,2021.2.3,Win32,59.84082341,,,76,0,76,0,1,,,,,,,,
,,"[""diamond"",""no_dis"",""vert"",""up"",[99999,99999],[106,-106]]",diamond,no_dis,vert,up,"[99999,99999]","[106,-106]",up,1,0.9887,,,,,,001,2025-03-17_15h41.35.244,SL_base,2021.2.3,Win32,59.84082341,,,77,0,77,0,1,,,,,,,,
,,"[""circle"",""no_dis"",""hori"",""left"",[99999,99999],[106,-106]]",circle,no_dis,hori,left,"[99999,99999]","[106,-106]",left,1,1.3187,,,,,,001,2025-03-17_15h41.35.244,SL_base,2021.2.3,Win32,59.84082341,,,78,0,78,0,1,,,,,,,,
,,"[""circle"",""no_dis"",""hori"",""left"",[99999,99999],[106,106]]",circle,no_dis,hori,left,"[99999,99999]","[106,106]",left,1,1.5654,,,,,,001,2025-03-17_15h41.35.244,SL_base,2021.2.3,Win32,59.84082341,,,79,0,79,0,1,,,,,,,,
,,"[""circle"",""green"",""vert"",""up"",[106,106],[-150,0]]",circle,green,vert,up,"[106,106]","[-150,0]",up,1,1.1545,,,,,,001,2025-03-17_15h41.35.244,SL_base,2021.2.3,Win32,59.84082341,,,80,0,80,0,1,,,,,,,,
,,"[""circle"",""red"",""vert"",""up"",[150,0],[-150,0]]",circle,red,vert,up,"[150,0]","[-150,0]",up,1,0.8729,,,,,,001,2025-03-17_15h41.35.244,SL_base,2021.2.3,Win32,59.84082341,,,81,0,81,0,1,,,,,,,,
,,"[""diamond"",""red"",""hori"",""left"",[106,106],[106,-106]]",diamond,red,hori,left,"[106,106]","[106,-106]",left,1,0.9208,,,,,,001,2025-03-17_15h41.35.244,SL_base,2021.2.3,Win32,59.84082341,,,82,0,82,0,1,,,,,,,,
,,"[""circle"",""green"",""vert"",""up"",[0,-150],[106,106]]",circle,green,vert,up,"[0,-150]","[106,106]",up,1,0.9026,,,,,,001,2025-03-17_15h41.35.244,SL_base,2021.2.3,Win32,59.84082341,,,83,0,83,0,1,,,,,,,,
,,"[""diamond"",""red"",""hori"",""left"",[150,0],[106,-106]]",diamond,red,hori,left,"[150,0]","[106,-106]",left,1,1.6293,,,,,,001,2025-03-17_15h41.35.244,SL_base,2021.2.3,Win32,59.84082341,,,84,0,84,0,1,,,,,,,,
,,"[""diamond"",""no_dis"",""hori"",""left"",[99999,99999],[-150,0]]",diamond,no_dis,hori,left,"[99999,99999]","[-150,0]",left,1,0.9191,,,,,,001,2025-03-17_15h41.35.244,SL_base,2021.2.3,Win32,59.84082341,,,85,0,85,0,1,,,,,,,,
,,"[""diamond"",""green"",""vert"",""up"",[106,-106],[106,106]]",diamond,green,vert,up,"[106,-106]","[106,106]",up,1,0.8696,,,,,,001,2025-03-17_15h41.35.244,SL_base,2021.2.3,Win32,59.84082341,,,86,0,86,0,1,,,,,,,,
,,"[""circle"",""green"",""hori"",""left"",[-150,0],[-106,106]]",circle,green,hori,left,"[-150,0]","[-106,106]",left,1,2.0328,,,,,,001,2025-03-17_15h41.35.244,SL_base,2021.2.3,Win32,59.84082341,,,87,0,87,0,1,,,,,,,,
,,"[""circle"",""no_dis"",""vert"",""up"",[99999,99999],[150,0]]",circle,no_dis,vert,up,"[99999,99999]","[150,0]",up,1,1.0965,,,,,,001,2025-03-17_15h41.35.244,SL_base,2021.2.3,Win32,59.84082341,,,88,0,88,0,1,,,,,,,,
,,"[""diamond"",""red"",""vert"",""up"",[-106,106],[0,-150]]",diamond,red,vert,up,"[-106,106]","[0,-150]",up,1,0.8597,,,,,,001,2025-03-17_15h41.35.244,SL_base,2021.2.3,Win32,59.84082341,,,89,0,89,0,1,,,,,,,,
,,"[""circle"",""red"",""hori"",""left"",[150,0],[106,-106]]",circle,red,hori,left,"[150,0]","[106,-106]",up,0,1.4168,,,,,,001,2025-03-17_15h41.35.244,SL_base,2021.2.3,Win32,59.84082341,,,90,0,90,0,1,,,,,,,,
,,"[""circle"",""red"",""vert"",""up"",[150,0],[0,150]]",circle,red,vert,up,"[150,0]","[0,150]",up,1,1.0807,,,,,,001,2025-03-17_15h41.35.244,SL_base,2021.2.3,Win32,59.84082341,,,91,0,91,0,1,,,,,,,,
,,"[""circle"",""no_dis"",""vert"",""up"",[99999,99999],[0,-150]]",circle,no_dis,vert,up,"[99999,99999]","[0,-150]",up,1,1.6968,,,,,,001,2025-03-17_15h41.35.244,SL_base,2021.2.3,Win32,59.84082341,,,92,0,92,0,1,,,,,,,,
,,"[""circle"",""red"",""vert"",""up"",[-106,-106],[150,0]]",circle,red,vert,up,"[-106,-106]","[150,0]",up,1,1.548,,,,,,001,2025-03-17_15h41.35.244,SL_base,2021.2.3,Win32,59.84082341,,,93,0,93,0,1,,,,,,,,
,,"[""circle"",""no_dis"",""hori"",""left"",[99999,99999],[0,150]]",circle,no_dis,hori,left,"[99999,99999]","[0,150]",left,1,1.3009,,,,,,001,2025-03-17_15h41.35.244,SL_base,2021.2.3,Win32,59.84082341,,,94,0,94,0,1,,,,,,,,
,,"[""diamond"",""green"",""hori"",""left"",[150,0],[-150,0]]",diamond,green,hori,left,"[150,0]","[-150,0]",left,1,0.8622,,,,,,001,2025-03-17_15h41.35.244,SL_base,2021.2.3,Win32,59.84082341,,,95,0,95,0,1,,,,,,,,
,,"[""circle"",""no_dis"",""vert"",""up"",[99999,99999],[-106,-106]]",circle,no_dis,vert,up,"[99999,99999]","[-106,-106]",up,1,1.6792,,,,,,001,2025-03-17_15h41.35.244,SL_base,2021.2.3,Win32,59.84082341,,,96,0,96,0,1,,,,,,,,
,,"[""diamond"",""red"",""hori"",""left"",[-106,-106],[0,-150]]",diamond,red,hori,left,"[-106,-106]","[0,-150]",left,1,2.0673,,,,,,001,2025-03-17_15h41.35.244,SL_base,2021.2.3,Win32,59.84082341,,,97,0,97,0,1,,,,,,,,
,,"[""diamond"",""green"",""vert"",""up"",[0,150],[0,-150]]",diamond,green,vert,up,"[0,150]","[0,-150]",up,1,1.4566,,,,,,001,2025-03-17_15h41.35.244,SL_base,2021.2.3,Win32,59.84082341,,,98,0,98,0,1,,,,,,,,
,,"[""diamond"",""no_dis"",""hori"",""left"",[99999,99999],[0,-150]]",diamond,no_dis,hori,left,"[99999,99999]","[0,-150]",left,1,1.4393,,,,,,001,2025-03-17_15h41.35.244,SL_base,2021.2.3,Win32,59.84082341,,,99,0,99,0,1,,,,,,,,
,,"[""diamond"",""green"",""hori"",""left"",[150,0],[0,-150]]",diamond,green,hori,left,"[150,0]","[0,-150]",left,1,1.9565,,,,,,001,2025-03-17_15h41.35.244,SL_base,2021.2.3,Win32,59.84082341,,,100,0,100,0,1,,,,,,,,
,,"[""circle"",""green"",""vert"",""up"",[0,150],[-150,0]]",circle,green,vert,up,"[0,150]","[-150,0]",left,0,2.2558,,,,,,001,2025-03-17_15h41.35.244,SL_base,2021.2.3,Win32,59.84082341,,,101,0,101,0,1,,,,,,,,
,,"[""circle"",""red"",""vert"",""up"",[106,106],[150,0]]",circle,red,vert,up,"[106,106]","[150,0]",up,1,1.0356,,,,,,001,2025-03-17_15h41.35.244,SL_base,2021.2.3,Win32,59.84082341,,,102,0,102,0,1,,,,,,,,
,,"[""circle"",""no_dis"",""hori"",""left"",[99999,99999],[0,150]]",circle,no_dis,hori,left,"[99999,99999]","[0,150]",left,1,1.4969,,,,,,001,2025-03-17_15h41.35.244,SL_base,2021.2.3,Win32,59.84082341,,,103,0,103,0,1,,,,,,,,
,,"[""diamond"",""no_dis"",""vert"",""up"",[99999,99999],[-150,0]]",diamond,no_dis,vert,up,"[99999,99999]","[-150,0]",up,1,1.5128,,,,,,001,2025-03-17_15h41.35.244,SL_base,2021.2.3,Win32,59.84082341,,,104,0,104,0,1,,,,,,,,
,,"[""circle"",""green"",""vert"",""up"",[-150,0],[106,106]]",circle,green,vert,up,"[-150,0]","[106,106]",up,1,1.1424,,,,,,001,2025-03-17_15h41.35.244,SL_base,2021.2.3,Win32,59.84082341,,,105,0,105,0,1,,,,,,,,
,,"[""diamond"",""no_dis"",""hori"",""left"",[99999,99999],[106,106]]",diamond,no_dis,hori,left,"[99999,99999]","[106,106]",left,1,0.9095,,,,,,001,2025-03-17_15h41.35.244,SL_base,2021.2.3,Win32,59.84082341,,,106,0,106,0,1,,,,,,,,
,,"[""circle"",""red"",""hori"",""left"",[150,0],[-150,0]]",circle,red,hori,left,"[150,0]","[-150,0]",left,1,2.1968,,,,,,001,2025-03-17_15h41.35.244,SL_base,2021.2.3,Win32,59.84082341,,,107,0,107,0,1,,,,,,,,
,,"[""circle"",""green"",""vert"",""up"",[0,-150],[106,106]]",circle,green,vert,up,"[0,-150]","[106,106]",up,1,0.7785,,,,,,001,2025-03-17_15h41.35.244,SL_base,2021.2.3,Win32,59.84082341,,,108,0,108,0,1,,,,,,,,
,,"[""circle"",""green"",""vert"",""up"",[150,0],[0,150]]",circle,green,vert,up,"[150,0]","[0,150]",up,1,0.7778,,,,,,001,2025-03-17_15h41.35.244,SL_base,2021.2.3,Win32,59.84082341,,,109,0,109,0,1,,,,,,,,
,,"[""diamond"",""red"",""vert"",""up"",[106,106],[-106,106]]",diamond,red,vert,up,"[106,106]","[-106,106]",up,1,1.0212,,,,,,001,2025-03-17_15h41.35.244,SL_base,2021.2.3,Win32,59.84082341,,,110,0,110,0,1,,,,,,,,
,,"[""circle"",""green"",""hori"",""left"",[-150,0],[-106,106]]",circle,green,hori,left,"[-150,0]","[-106,106]",left,1,0.834,,,,,,001,2025-03-17_15h41.35.244,SL_base,2021.2.3,Win32,59.84082341,,,111,0,111,0,1,,,,,,,,
,,"[""diamond"",""no_dis"",""hori"",""left"",[99999,99999],[-150,0]]",diamond,no_dis,hori,left,"[99999,99999]","[-150,0]",left,1,0.7407,,,,,,001,2025-03-17_15h41.35.244,SL_base,2021.2.3,Win32,59.84082341,,,112,0,112,0,1,,,,,,,,
,,"[""diamond"",""no_dis"",""hori"",""left"",[99999,99999],[106,106]]",diamond,no_dis,hori,left,"[99999,99999]","[106,106]",left,1,1.0787,,,,,,001,2025-03-17_15h41.35.244,SL_base,2021.2.3,Win32,59.84082341,,,113,0,113,0,1,,,,,,,,
,,"[""circle"",""red"",""vert"",""up"",[106,106],[-106,-106]]",circle,red,vert,up,"[106,106]","[-106,-106]",up,1,1.0674,,,,,,001,2025-03-17_15h41.35.244,SL_base,2021.2.3,Win32,59.84082341,,,114,0,114,0,1,,,,,,,,
,,"[""circle"",""red"",""hori"",""left"",[106,-106],[106,106]]",circle,red,hori,left,"[106,-106]","[106,106]",left,1,0.7328,,,,,,001,2025-03-17_15h41.35.244,SL_base,2021.2.3,Win32,59.84082341,,,115,0,115,0,1,,,,,,,,
,,"[""circle"",""red"",""vert"",""up"",[-106,106],[150,0]]",circle,red,vert,up,"[-106,106]","[150,0]",up,1,0.6827,,,,,,001,2025-03-17_15h41.35.244,SL_base,2021.2.3,Win32,59.84082341,,,116,0,116,0,1,,,,,,,,
,,"[""diamond"",""green"",""hori"",""left"",[150,0],[-106,-106]]",diamond,green,hori,left,"[150,0]","[-106,-106]",left,1,0.751,,,,,,001,2025-03-17_15h41.35.244,SL_base,2021.2.3,Win32,59.84082341,,,117,0,117,0,1,,,,,,,,
,,"[""diamond"",""no_dis"",""hori"",""left"",[99999,99999],[0,-150]]",diamond,no_dis,hori,left,"[99999,99999]","[0,-150]",left,1,0.9257,,,,,,001,2025-03-17_15h41.35.244,SL_base,2021.2.3,Win32,59.84082341,,,118,0,118,0,1,,,,,,,,
,,"[""circle"",""red"",""hori"",""left"",[-106,-106],[150,0]]",circle,red,hori,left,"[-106,-106]","[150,0]",left,1,0.9807,,,,,,001,2025-03-17_15h41.35.244,SL_base,2021.2.3,Win32,59.84082341,,,119,0,119,0,1,,,,,,,,
,,,,,,,,,,,,,,,,,001,2025-03-17_15h41.35.244,SL_base,2021.2.3,Win32,59.84082341,,,,,,,,3,space,13.7192,2,0,2,0,1
,,"[""diamond"",""red"",""hori"",""left"",[-106,-106],[0,-150]]",diamond,red,hori,left,"[-106,-106]","[0,-150]",left,1,1.0721,,,,,,001,2025-03-17_15h41.35.244,SL_base,2021.2.3,Win32,59.84082341,,,0,0,0,0,1,,,,,,,,
,,"[""circle"",""green"",""hori"",""left"",[-150,0],[150,0]]",circle,green,hori,left,"[-150,0]","[150,0]",left,1,0.6738,,,,,,001,2025-03-17_15h41.35.244,SL_base,2021.2.3,Win32,59.84082341,,,1,0,1,0,1,,,,,,,,
,,"[""diamond"",""red"",""vert"",""up"",[-150,0],[0,-150]]",diamond,red,vert,up,"[-150,0]","[0,-150]",up,1,0.6709,,,,,,001,2025-03-17_15h41.35.244,SL_base,2021.2.3,Win32,59.84082341,,,2,0,2,0,1,,,,,,,,
,,"[""circle"",""green"",""vert"",""up"",[0,-150],[106,106]]",circle,green,vert,up,"[0,-150]","[106,106]",up,1,0.9297,,,,,,001,2025-03-17_15h41.35.244,SL_base,2021.2.3,Win32,59.84082341,,,3,0,3,0,1,,,,,,,,
,,"[""diamond"",""green"",""vert"",""up"",[150,0],[0,150]]",diamond,green,vert,up,"[150,0]","[0,150]",up,1,0.759,,,,,,001,2025-03-17_15h41.35.244,SL_base,2021.2.3,Win32,59.84082341,,,4,0,4,0,1,,,,,,,,
,,"[""diamond"",""green"",""hori"",""left"",[150,0],[0,-150]]",diamond,green,hori,left,"[150,0]","[0,-150]",left,1,0.7454,,,,,,001,2025-03-17_15h41.35.244,SL_base,2021.2.3,Win32,59.84082341,,,5,0,5,0,1,,,,,,,,
,,"[""diamond"",""no_dis"",""vert"",""up"",[99999,99999],[150,0]]",diamond,no_dis,vert,up,"[99999,99999]","[150,0]",up,1,0.7996,,,,,,001,2025-03-17_15h41.35.244,SL_base,2021.2.3,Win32,59.84082341,,,6,0,6,0,1,,,,,,,,
,,"[""circle"",""green"",""vert"",""up"",[0,150],[-150,0]]",circle,green,vert,up,"[0,150]","[-150,0]",up,1,1.2587,,,,,,001,2025-03-17_15h41.35.244,SL_base,2021.2.3,Win32,59.84082341,,,7,0,7,0,1,,,,,,,,
,,"[""circle"",""red"",""hori"",""left"",[0,150],[150,0]]",circle,red,hori,left,"[0,150]","[150,0]",left,1,0.9042,,,,,,001,2025-03-17_15h41.35.244,SL_base,2021.2.3,Win32,59.84082341,,,8,0,8,0,1,,,,,,,,
,,"[""diamond"",""green"",""vert"",""up"",[0,-150],[106,106]]",diamond,green,vert,up,"[0,-150]","[106,106]",up,1,0.7631,,,,,,001,2025-03-17_15h41.35.244,SL_base,2021.2.3,Win32,59.84082341,,,9,0,9,0,1,,,,,,,,
,,"[""diamond"",""green"",""hori"",""left"",[106,-106],[-106,-106]]",diamond,green,hori,left,"[106,-106]","[-106,-106]",left,1,2.5306,,,,,,001,2025-03-17_15h41.35.244,SL_base,2021.2.3,Win32,59.84082341,,,10,0,10,0,1,,,,,,,,
,,"[""diamond"",""no_dis"",""vert"",""up"",[99999,99999],[0,-150]]",diamond,no_dis,vert,up,"[99999,99999]","[0,-150]",up,1,0.7581,,,,,,001,2025-03-17_15h41.35.244,SL_base,2021.2.3,Win32,59.84082341,,,11,0,11,0,1,,,,,,,,
,,"[""circle"",""green"",""vert"",""up"",[150,0],[-106,106]]",circle,green,vert,up,"[150,0]","[-106,106]",up,1,0.7528,,,,,,001,2025-03-17_15h41.35.244,SL_base,2021.2.3,Win32,59.84082341,,,12,0,12,0,1,,,,,,,,
,,"[""circle"",""green"",""hori"",""left"",[-150,0],[-106,106]]",circle,green,hori,left,"[-150,0]","[-106,106]",left,1,1.1871,,,,,,001,2025-03-17_15h41.35.244,SL_base,2021.2.3,Win32,59.84082341,,,13,0,13,0,1,,,,,,,,
,,"[""diamond"",""no_dis"",""hori"",""left"",[99999,99999],[0,-150]]",diamond,no_dis,hori,left,"[99999,99999]","[0,-150]",left,1,0.8136,,,,,,001,2025-03-17_15h41.35.244,SL_base,2021.2.3,Win32,59.84082341,,,14,0,14,0,1,,,,,,,,
,,"[""circle"",""no_dis"",""hori"",""left"",[99999,99999],[0,150]]",circle,no_dis,hori,left,"[99999,99999]","[0,150]",left,1,0.8283,,,,,,001,2025-03-17_15h41.35.244,SL_base,2021.2.3,Win32,59.84082341,,,15,0,15,0,1,,,,,,,,
,,"[""diamond"",""green"",""hori"",""left"",[150,0],[-106,-106]]",diamond,green,hori,left,"[150,0]","[-106,-106]",left,1,0.7834,,,,,,001,2025-03-17_15h41.35.244,SL_base,2021.2.3,Win32,59.84082341,,,16,0,16,0,1,,,,,,,,
,,"[""circle"",""red"",""hori"",""left"",[150,0],[-150,0]]",circle,red,hori,left,"[150,0]","[-150,0]",left,1,1.8173,,,,,,001,2025-03-17_15h41.35.244,SL_base,2021.2.3,Win32,59.84082341,,,17,0,17,0,1,,,,,,,,
,,"[""circle"",""no_dis"",""hori"",""left"",[99999,99999],[-150,0]]",circle,no_dis,hori,left,"[99999,99999]","[-150,0]",left,1,1.6556,,,,,,001,2025-03-17_15h41.35.244,SL_base,2021.2.3,Win32,59.84082341,,,18,0,18,0,1,,,,,,,,
,,"[""diamond"",""no_dis"",""hori"",""left"",[99999,99999],[-150,0]]",diamond,no_dis,hori,left,"[99999,99999]","[-150,0]",left,1,1.4173,,,,,,001,2025-03-17_15h41.35.244,SL_base,2021.2.3,Win32,59.84082341,,,19,0,19,0,1,,,,,,,,
,,"[""circle"",""green"",""hori"",""left"",[0,150],[-106,106]]",circle,green,hori,left,"[0,150]","[-106,106]",left,1,1.1277,,,,,,001,2025-03-17_15h41.35.244,SL_base,2021.2.3,Win32,59.84082341,,,20,0,20,0,1,,,,,,,,
,,"[""circle"",""no_dis"",""vert"",""up"",[99999,99999],[-106,106]]",circle,no_dis,vert,up,"[99999,99999]","[-106,106]",up,1,1.605,,,,,,001,2025-03-17_15h41.35.244,SL_base,2021.2.3,Win32,59.84082341,,,21,0,21,0,1,,,,,,,,
,,"[""circle"",""no_dis"",""hori"",""left"",[99999,99999],[0,150]]",circle,no_dis,hori,left,"[99999,99999]","[0,150]",left,1,0.8235,,,,,,001,2025-03-17_15h41.35.244,SL_base,2021.2.3,Win32,59.84082341,,,22,0,22,0,1,,,,,,,,
,,"[""circle"",""red"",""vert"",""up"",[106,106],[150,0]]",circle,red,vert,up,"[106,106]","[150,0]",up,1,2.0658,,,,,,001,2025-03-17_15h41.35.244,SL_base,2021.2.3,Win32,59.84082341,,,23,0,23,0,1,,,,,,,,
,,"[""circle"",""red"",""hori"",""left"",[106,-106],[106,106]]",circle,red,hori,left,"[106,-106]","[106,106]",left,1,1.3249,,,,,,001,2025-03-17_15h41.35.244,SL_base,2021.2.3,Win32,59.84082341,,,24,0,24,0,1,,,,,,,,
,,"[""diamond"",""red"",""hori"",""left"",[-106,-106],[106,-106]]",diamond,red,hori,left,"[-106,-106]","[106,-106]",left,1,1.3084,,,,,,001,2025-03-17_15h41.35.244,SL_base,2021.2.3,Win32,59.84082341,,,25,0,25,0,1,,,,,,,,
,,"[""diamond"",""red"",""vert"",""up"",[150,0],[-106,106]]",diamond,red,vert,up,"[150,0]","[-106,106]",up,1,0.9536,,,,,,001,2025-03-17_15h41.35.244,SL_base,2021.2.3,Win32,59.84082341,,,26,0,26,0,1,,,,,,,,
,,"[""diamond"",""red"",""hori"",""left"",[106,-106],[-106,106]]",diamond,red,hori,left,"[106,-106]","[-106,106]",left,1,0.8481,,,,,,001,2025-03-17_15h41.35.244,SL_base,2021.2.3,Win32,59.84082341,,,27,0,27,0,1,,,,,,,,
,,"[""circle"",""red"",""vert"",""up"",[106,106],[-106,-106]]",circle,red,vert,up,"[106,106]","[-106,-106]",up,1,0.7194,,,,,,001,2025-03-17_15h41.35.244,SL_base,2021.2.3,Win32,59.84082341,,,28,0,28,0,1,,,,,,,,
,,"[""circle"",""green"",""vert"",""up"",[-106,106],[150,0]]",circle,green,vert,up,"[-106,106]","[150,0]",up,1,0.7895,,,,,,001,2025-03-17_15h41.35.244,SL_base,2021.2.3,Win32,59.84082341,,,29,0,29,0,1,,,,,,,,
,,"[""diamond"",""red"",""hori"",""left"",[0,150],[106,106]]",diamond,red,hori,left,"[0,150]","[106,106]",left,1,1.029,,,,,,001,2025-03-17_15h41.35.244,SL_base,2021.2.3,Win32,59.84082341,,,30,0,30,0,1,,,,,,,,
,,"[""circle"",""green"",""hori"",""left"",[-150,0],[-106,106]]",circle,green,hori,left,"[-150,0]","[-106,106]",left,1,1.2033,,,,,,001,2025-03-17_15h41.35.244,SL_base,2021.2.3,Win32,59.84082341,,,31,0,31,0,1,,,,,,,,
,,"[""diamond"",""red"",""vert"",""up"",[150,0],[0,-150]]",diamond,red,vert,up,"[150,0]","[0,-150]",up,1,0.8793,,,,,,001,2025-03-17_15h41.35.244,SL_base,2021.2.3,Win32,59.84082341,,,32,0,32,0,1,,,,,,,,
,,"[""diamond"",""no_dis"",""hori"",""left"",[99999,99999],[106,106]]",diamond,no_dis,hori,left,"[99999,99999]","[106,106]",up,0,0.7042,,,,,,001,2025-03-17_15h41.35.244,SL_base,2021.2.3,Win32,59.84082341,,,33,0,33,0,1,,,,,,,,
,,"[""diamond"",""no_dis"",""vert"",""up"",[99999,99999],[106,-106]]",diamond,no_dis,vert,up,"[99999,99999]","[106,-106]",up,1,0.7405,,,,,,001,2025-03-17_15h41.35.244,SL_base,2021.2.3,Win32,59.84082341,,,34,0,34,0,1,,,,,,,,
,,"[""circle"",""green"",""hori"",""left"",[-150,0],[106,106]]",circle,green,hori,left,"[-150,0]","[106,106]",left,1,1.0128,,,,,,001,2025-03-17_15h41.35.244,SL_base,2021.2.3,Win32,59.84082341,,,35,0,35,0,1,,,,,,,,
,,"[""circle"",""green"",""vert"",""up"",[150,0],[106,106]]",circle,green,vert,up,"[150,0]","[106,106]",up,1,2.4467,,,,,,001,2025-03-17_15h41.35.244,SL_base,2021.2.3,Win32,59.84082341,,,36,0,36,0,1,,,,,,,,
,,"[""circle"",""green"",""hori"",""left"",[-106,106],[106,-106]]",circle,green,hori,left,"[-106,106]","[106,-106]",left,1,0.7711,,,,,,001,2025-03-17_15h41.35.244,SL_base,2021.2.3,Win32,59.84082341,,,37,0,37,0,1,,,,,,,,
,,"[""diamond"",""green"",""vert"",""up"",[150,0],[-150,0]]",diamond,green,vert,up,"[150,0]","[-150,0]",up,1,0.7161,,,,,,001,2025-03-17_15h41.35.244,SL_base,2021.2.3,Win32,59.84082341,,,38,0,38,0,1,,,,,,,,
,,"[""circle"",""red"",""hori"",""left"",[0,-150],[106,106]]",circle,red,hori,left,"[0,-150]","[106,106]",left,1,0.7233,,,,,,001,2025-03-17_15h41.35.244,SL_base,2021.2.3,Win32,59.84082341,,,39,0,39,0,1,,,,,,,,
,,"[""circle"",""no_dis"",""hori"",""left"",[99999,99999],[0,150]]",circle,no_dis,hori,left,"[99999,99999]","[0,150]",left,1,0.9706,,,,,,001,2025-03-17_15h41.35.244,SL_base,2021.2.3,Win32,59.84082341,,,40,0,40,0,1,,,,,,,,
,,"[""diamond"",""green"",""vert"",""up"",[106,-106],[106,106]]",diamond,green,vert,up,"[106,-106]","[106,106]",left,0,1.313,,,,,,001,2025-03-17_15h41.35.244,SL_base,2021.2.3,Win32,59.84082341,,,41,0,41,0,1,,,,,,,,
,,"[""circle"",""red"",""hori"",""left"",[0,-150],[0,150]]",circle,red,hori,left,"[0,-150]","[0,150]",left,1,1.594,,,,,,001,2025-03-17_15h41.35.244,SL_base,2021.2.3,Win32,59.84082341,,,42,0,42,0,1,,,,,,,,
,,"[""diamond"",""red"",""vert"",""up"",[106,106],[-106,106]]",diamond,red,vert,up,"[106,106]","[-106,106]",up,1,1.3237,,,,,,001,2025-03-17_15h41.35.244,SL_base,2021.2.3,Win32,59.84082341,,,43,0,43,0,1,,,,,,,,
,,"[""diamond"",""no_dis"",""hori"",""left"",[99999,99999],[106,106]]",diamond,no_dis,hori,left,"[99999,99999]","[106,106]",left,1,0.684,,,,,,001,2025-03-17_15h41.35.244,SL_base,2021.2.3,Win32,59.84082341,,,44,0,44,0,1,,,,,,,,
,,"[""diamond"",""red"",""vert"",""up"",[106,-106],[0,150]]",diamond,red,vert,up,"[106,-106]","[0,150]",up,1,2.0739,,,,,,001,2025-03-17_15h41.35.244,SL_base,2021.2.3,Win32,59.84082341,,,45,0,45,0,1,,,,,,,,
,,"[""diamond"",""green"",""vert"",""up"",[0,150],[0,-150]]",diamond,green,vert,up,"[0,150]","[0,-150]",up,1,1.1368,,,,,,001,2025-03-17_15h41.35.244,SL_base,2021.2.3,Win32,59.84082341,,,46,0,46,0,1,,,,,,,,
,,"[""circle"",""no_dis"",""vert"",""up"",[99999,99999],[-106,106]]",circle,no_dis,vert,up,"[99999,99999]","[-106,106]",left,0,1.2038,,,,,,001,2025-03-17_15h41.35.244,SL_base,2021.2.3,Win32,59.84082341,,,47,0,47,0,1,,,,,,,,
,,"[""diamond"",""red"",""vert"",""up"",[0,150],[0,-150]]",diamond,red,vert,up,"[0,150]","[0,-150]",up,1,0.709,,,,,,001,2025-03-17_15h41.35.244,SL_base,2021.2.3,Win32,59.84082341,,,48,0,48,0,1,,,,,,,,
,,"[""diamond"",""green"",""vert"",""up"",[106,106],[106,-106]]",diamond,green,vert,up,"[106,106]","[106,-106]",up,1,0.7473,,,,,,001,2025-03-17_15h41.35.244,SL_base,2021.2.3,Win32,59.84082341,,,49,0,49,0,1,,,,,,,,
,,"[""diamond"",""green"",""vert"",""up"",[150,0],[-106,-106]]",diamond,green,vert,up,"[150,0]","[-106,-106]",up,1,0.6077,,,,,,001,2025-03-17_15h41.35.244,SL_base,2021.2.3,Win32,59.84082341,,,50,0,50,0,1,,,,,,,,
,,"[""diamond"",""green"",""vert"",""up"",[106,-106],[150,0]]",diamond,green,vert,up,"[106,-106]","[150,0]",up,1,0.9245,,,,,,001,2025-03-17_15h41.35.244,SL_base,2021.2.3,Win32,59.84082341,,,51,0,51,0,1,,,,,,,,
,,"[""circle"",""green"",""vert"",""up"",[-150,0],[106,106]]",circle,green,vert,up,"[-150,0]","[106,106]",left,0,0.7981,,,,,,001,2025-03-17_15h41.35.244,SL_base,2021.2.3,Win32,59.84082341,,,52,0,52,0,1,,,,,,,,
,,"[""diamond"",""red"",""vert"",""up"",[-106,106],[150,0]]",diamond,red,vert,up,"[-106,106]","[150,0]",up,1,0.9019,,,,,,001,2025-03-17_15h41.35.244,SL_base,2021.2.3,Win32,59.84082341,,,53,0,53,0,1,,,,,,,,
,,"[""diamond"",""green"",""hori"",""left"",[150,0],[-150,0]]",diamond,green,hori,left,"[150,0]","[-150,0]",left,1,0.7033,,,,,,001,2025-03-17_15h41.35.244,SL_base,2021.2.3,Win32,59.84082341,,,54,0,54,0,1,,,,,,,,
,,"[""diamond"",""red"",""hori"",""left"",[150,0],[106,106]]",diamond,red,hori,left,"[150,0]","[106,106]",left,1,0.949,,,,,,001,2025-03-17_15h41.35.244,SL_base,2021.2.3,Win32,59.84082341,,,55,0,55,0,1,,,,,,,,
,,"[""diamond"",""no_dis"",""vert"",""up"",[99999,99999],[106,-106]]",diamond,no_dis,vert,up,"[99999,99999]","[106,-106]",up,1,0.7249,,,,,,001,2025-03-17_15h41.35.244,SL_base,2021.2.3,Win32,59.84082341,,,56,0,56,0,1,,,,,,,,
,,"[""diamond"",""red"",""hori"",""left"",[0,-150],[150,0]]",diamond,red,hori,left,"[0,-150]","[150,0]",left,1,0.6554,,,,,,001,2025-03-17_15h41.35.244,SL_base,2021.2.3,Win32,59.84082341,,,57,0,57,0,1,,,,,,,,
,,"[""diamond"",""red"",""vert"",""up"",[-106,-106],[-106,106]]",diamond,red,vert,up,"[-106,-106]","[-106,106]",up,1,2.2103,,,,,,001,2025-03-17_15h41.35.244,SL_base,2021.2.3,Win32,59.84082341,,,58,0,58,0,1,,,,,,,,
,,"[""circle"",""green"",""vert"",""up"",[106,106],[-150,0]]",circle,green,vert,up,"[106,106]","[-150,0]",up,1,1.5151,,,,,,001,2025-03-17_15h41.35.244,SL_base,2021.2.3,Win32,59.84082341,,,59,0,59,0,1,,,,,,,,
,,"[""circle"",""red"",""hori"",""left"",[106,106],[150,0]]",circle,red,hori,left,"[106,106]","[150,0]",left,1,1.1439,,,,,,001,2025-03-17_15h41.35.244,SL_base,2021.2.3,Win32,59.84082341,,,60,0,60,0,1,,,,,,,,
,,"[""diamond"",""green"",""vert"",""up"",[-106,106],[-150,0]]",diamond,green,vert,up,"[-106,106]","[-150,0]",up,1,0.7941,,,,,,001,2025-03-17_15h41.35.244,SL_base,2021.2.3,Win32,59.84082341,,,61,0,61,0,1,,,,,,,,
,,"[""circle"",""green"",""hori"",""left"",[-106,106],[150,0]]",circle,green,hori,left,"[-106,106]","[150,0]",left,1,0.6566,,,,,,001,2025-03-17_15h41.35.244,SL_base,2021.2.3,Win32,59.84082341,,,62,0,62,0,1,,,,,,,,
,,"[""diamond"",""no_dis"",""hori"",""left"",[99999,99999],[150,0]]",diamond,no_dis,hori,left,"[99999,99999]","[150,0]",left,1,1.1473,,,,,,001,2025-03-17_15h41.35.244,SL_base,2021.2.3,Win32,59.84082341,,,63,0,63,0,1,,,,,,,,
,,"[""circle"",""no_dis"",""hori"",""left"",[99999,99999],[106,-106]]",circle,no_dis,hori,left,"[99999,99999]","[106,-106]",left,1,2.0206,,,,,,001,2025-03-17_15h41.35.244,SL_base,2021.2.3,Win32,59.84082341,,,64,0,64,0,1,,,,,,,,
,,"[""circle"",""red"",""vert"",""up"",[106,-106],[-150,0]]",circle,red,vert,up,"[106,-106]","[-150,0]",up,1,1.0846,,,,,,001,2025-03-17_15h41.35.244,SL_base,2021.2.3,Win32,59.84082341,,,65,0,65,0,1,,,,,,,,
,,"[""circle"",""red"",""hori"",""left"",[-150,0],[106,106]]",circle,red,hori,left,"[-150,0]","[106,106]",left,1,0.6836,,,,,,001,2025-03-17_15h41.35.244,SL_base,2021.2.3,Win32,59.84082341,,,66,0,66,0,1,,,,,,,,
,,"[""circle"",""red"",""hori"",""left"",[150,0],[106,-106]]",circle,red,hori,left,"[150,0]","[106,-106]",left,1,0.7136,,,,,,001,2025-03-17_15h41.35.244,SL_base,2021.2.3,Win32,59.84082341,,,67,0,67,0,1,,,,,,,,
,,"[""diamond"",""no_dis"",""vert"",""up"",[99999,99999],[-150,0]]",diamond,no_dis,vert,up,"[99999,99999]","[-150,0]",up,1,0.6784,,,,,,001,2025-03-17_15h41.35.244,SL_base,2021.2.3,Win32,59.84082341,,,68,0,68,0,1,,,,,,,,
,,"[""diamond"",""no_dis"",""vert"",""up"",[99999,99999],[106,106]]",diamond,no_dis,vert,up,"[99999,99999]","[106,106]",up,1,0.9616,,,,,,001,2025-03-17_15h41.35.244,SL_base,2021.2.3,Win32,59.84082341,,,69,0,69,0,1,,,,,,,,
,,"[""diamond"",""no_dis"",""hori"",""left"",[99999,99999],[-106,-106]]",diamond,no_dis,hori,left,"[99999,99999]","[-106,-106]",left,1,0.8862,,,,,,001,2025-03-17_15h41.35.244,SL_base,2021.2.3,Win32,59.84082341,,,70,0,70,0,1,,,,,,,,
,,"[""circle"",""no_dis"",""vert"",""up"",[99999,99999],[0,-150]]",circle,no_dis,vert,up,"[99999,99999]","[0,-150]",up,1,0.6581,,,,,,001,2025-03-17_15h41.35.244,SL_base,2021.2.3,Win32,59.84082341,,,71,0,71,0,1,,,,,,,,
,,"[""circle"",""no_dis"",""vert"",""up"",[99999,99999],[150,0]]",circle,no_dis,vert,up,"[99999,99999]","[150,0]",up,1,0.8799,,,,,,001,2025-03-17_15h41.35.244,SL_base,2021.2.3,Win32,59.84082341,,,72,0,72,0,1,,,,,,,,
,,"[""circle"",""no_dis"",""hori"",""left"",[99999,99999],[-106,-106]]",circle,no_dis,hori,left,"[99999,99999]","[-106,-106]",left,1,0.7491,,,,,,001,2025-03-17_15h41.35.244,SL_base,2021.2.3,Win32,59.84082341,,,73,0,73,0,1,,,,,,,,
,,"[""circle"",""red"",""vert"",""up"",[-106,106],[150,0]]",circle,red,vert,up,"[-106,106]","[150,0]",up,1,0.834,,,,,,001,2025-03-17_15h41.35.244,SL_base,2021.2.3,Win32,59.84082341,,,74,0,74,0,1,,,,,,,,
,,"[""diamond"",""red"",""vert"",""up"",[106,106],[0,-150]]",diamond,red,vert,up,"[106,106]","[0,-150]",up,1,1.5358,,,,,,001,2025-03-17_15h41.35.244,SL_base,2021.2.3,Win32,59.84082341,,,75,0,75,0,1,,,,,,,,
,,"[""diamond"",""no_dis"",""hori"",""left"",[99999,99999],[106,106]]",diamond,no_dis,hori,left,"[99999,99999]","[106,106]",left,1,0.7075,,,,,,001,2025-03-17_15h41.35.244,SL_base,2021.2.3,Win32,59.84082341,,,76,0,76,0,1,,,,,,,,
,,"[""circle"",""red"",""vert"",""up"",[-106,-106],[106,106]]",circle,red,vert,up,"[-106,-106]","[106,106]",up,1,0.9515,,,,,,001,2025-03-17_15h41.35.244,SL_base,2021.2.3,Win32,59.84082341,,,77,0,77,0,1,,,,,,,,
,,"[""circle"",""green"",""hori"",""left"",[150,0],[0,-150]]",circle,green,hori,left,"[150,0]","[0,-150]",left,1,0.7983,,,,,,001,2025-03-17_15h41.35.244,SL_base,2021.2.3,Win32,59.84082341,,,78,0,78,0,1,,,,,,,,
,,"[""circle"",""no_dis"",""vert"",""up"",[99999,99999],[106,-106]]",circle,no_dis,vert,up,"[99999,99999]","[106,-106]",up,1,0.928,,,,,,001,2025-03-17_15h41.35.244,SL_base,2021.2.3,Win32,59.84082341,,,79,0,79,0,1,,,,,,,,
,,"[""circle"",""red"",""hori"",""left"",[150,0],[-106,-106]]",circle,red,hori,left,"[150,0]","[-106,-106]",left,1,0.7107,,,,,,001,2025-03-17_15h41.35.244,SL_base,2021.2.3,Win32,59.84082341,,,80,0,80,0,1,,,,,,,,
,,"[""diamond"",""green"",""hori"",""left"",[0,-150],[-106,-106]]",diamond,green,hori,left,"[0,-150]","[-106,-106]",left,1,0.9739,,,,,,001,2025-03-17_15h41.35.244,SL_base,2021.2.3,Win32,59.84082341,,,81,0,81,0,1,,,,,,,,
,,"[""diamond"",""green"",""vert"",""up"",[-106,-106],[0,-150]]",diamond,green,vert,up,"[-106,-106]","[0,-150]",up,1,0.9505,,,,,,001,2025-03-17_15h41.35.244,SL_base,2021.2.3,Win32,59.84082341,,,82,0,82,0,1,,,,,,,,
,,"[""circle"",""green"",""vert"",""up"",[150,0],[0,150]]",circle,green,vert,up,"[150,0]","[0,150]",up,1,1.1514,,,,,,001,2025-03-17_15h41.35.244,SL_base,2021.2.3,Win32,59.84082341,,,83,0,83,0,1,,,,,,,,
,,"[""diamond"",""no_dis"",""vert"",""up"",[99999,99999],[-106,106]]",diamond,no_dis,vert,up,"[99999,99999]","[-106,106]",up,1,0.8957,,,,,,001,2025-03-17_15h41.35.244,SL_base,2021.2.3,Win32,59.84082341,,,84,0,84,0,1,,,,,,,,
,,"[""circle"",""green"",""hori"",""left"",[106,-106],[0,150]]",circle,green,hori,left,"[106,-106]","[0,150]",left,1,0.8743,,,,,,001,2025-03-17_15h41.35.244,SL_base,2021.2.3,Win32,59.84082341,,,85,0,85,0,1,,,,,,,,
,,"[""diamond"",""no_dis"",""hori"",""left"",[99999,99999],[-106,106]]",diamond,no_dis,hori,left,"[99999,99999]","[-106,106]",left,1,0.665,,,,,,001,2025-03-17_15h41.35.244,SL_base,2021.2.3,Win32,59.84082341,,,86,0,86,0,1,,,,,,,,
,,"[""circle"",""green"",""vert"",""up"",[0,-150],[106,106]]",circle,green,vert,up,"[0,-150]","[106,106]",up,1,1.8125,,,,,,001,2025-03-17_15h41.35.244,SL_base,2021.2.3,Win32,59.84082341,,,87,0,87,0,1,,,,,,,,
,,"[""circle"",""green"",""hori"",""left"",[150,0],[106,-106]]",circle,green,hori,left,"[150,0]","[106,-106]",left,1,0.651,,,,,,001,2025-03-17_15h41.35.244,SL_base,2021.2.3,Win32,59.84082341,,,88,0,88,0,1,,,,,,,,
,,"[""circle"",""no_dis"",""vert"",""up"",[99999,99999],[0,150]]",circle,no_dis,vert,up,"[99999,99999]","[0,150]",up,1,0.8721,,,,,,001,2025-03-17_15h41.35.244,SL_base,2021.2.3,Win32,59.84082341,,,89,0,89,0,1,,,,,,,,
,,"[""circle"",""no_dis"",""hori"",""left"",[99999,99999],[-150,0]]",circle,no_dis,hori,left,"[99999,99999]","[-150,0]",left,1,0.5819,,,,,,001,2025-03-17_15h41.35.244,SL_base,2021.2.3,Win32,59.84082341,,,90,0,90,0,1,,,,,,,,
,,"[""circle"",""red"",""vert"",""up"",[150,0],[0,150]]",circle,red,vert,up,"[150,0]","[0,150]",up,1,0.6612,,,,,,001,2025-03-17_15h41.35.244,SL_base,2021.2.3,Win32,59.84082341,,,91,0,91,0,1,,,,,,,,
