﻿key_resp.keys,key_resp.rt,trial_para,tar_shape,dis_color_condi,tar_line,cor_resp,dis_loc,tar_loc,resp.keys,resp.corr,trials.thisRepN,trials.thisTrialN,trials.thisN,trials.thisIndex,trials.ran,participant,date,expName,psychopyVersion,OS,frameRate,resp.rt,key_resp_2.keys,key_resp_2.rt,trials_2.thisRepN,trials_2.thisTrialN,trials_2.thisN,trials_2.thisIndex,trials_2.ran,block_num,key_resp_3.keys,key_resp_3.rt,trials_3.thisRepN,trials_3.thisTrialN,trials_3.thisN,trials_3.thisIndex,trials_3.ran
space,17.8266,"[""diamond"",""no_dis"",""vert"",""up"",[99999,99999],[106,-106]]",diamond,no_dis,vert,up,"[99999,99999]","[106,-106]",,0,0,0,0,0,1,001,2025-03-17_14h18.00.808,SL_base,2021.2.3,Win32,59.88023952,,,,,,,,,,,,,,,,
,,"[""circle"",""green"",""hori"",""left"",[-106,106],[0,150]]",circle,green,hori,left,"[-106,106]","[0,150]",left,1,1,0,1,0,1,001,2025-03-17_14h18.00.808,SL_base,2021.2.3,Win32,59.88023952,1.7002,,,,,,,,,,,,,,,
,,"[""circle"",""green"",""vert"",""up"",[-106,106],[-150,0]]",circle,green,vert,up,"[-106,106]","[-150,0]",up,1,2,0,2,0,1,001,2025-03-17_14h18.00.808,SL_base,2021.2.3,Win32,59.88023952,1.3724,,,,,,,,,,,,,,,
,,"[""circle"",""red"",""vert"",""up"",[-106,-106],[106,106]]",circle,red,vert,up,"[-106,-106]","[106,106]",up,1,3,0,3,0,1,001,2025-03-17_14h18.00.808,SL_base,2021.2.3,Win32,59.88023952,1.2235,,,,,,,,,,,,,,,
,,"[""circle"",""red"",""hori"",""left"",[106,-106],[0,150]]",circle,red,hori,left,"[106,-106]","[0,150]",left,1,4,0,4,0,1,001,2025-03-17_14h18.00.808,SL_base,2021.2.3,Win32,59.88023952,0.9143,,,,,,,,,,,,,,,
,,"[""circle"",""no_dis"",""hori"",""left"",[99999,99999],[106,106]]",circle,no_dis,hori,left,"[99999,99999]","[106,106]",left,1,5,0,5,0,1,001,2025-03-17_14h18.00.808,SL_base,2021.2.3,Win32,59.88023952,1.3191,,,,,,,,,,,,,,,
,,"[""diamond"",""green"",""hori"",""left"",[106,106],[-106,-106]]",diamond,green,hori,left,"[106,106]","[-106,-106]",left,1,6,0,6,0,1,001,2025-03-17_14h18.00.808,SL_base,2021.2.3,Win32,59.88023952,1.842,,,,,,,,,,,,,,,
,,"[""circle"",""green"",""vert"",""up"",[-150,0],[-106,-106]]",circle,green,vert,up,"[-150,0]","[-106,-106]",up,1,7,0,7,0,1,001,2025-03-17_14h18.00.808,SL_base,2021.2.3,Win32,59.88023952,1.0681,,,,,,,,,,,,,,,
,,"[""diamond"",""no_dis"",""vert"",""up"",[99999,99999],[-150,0]]",diamond,no_dis,vert,up,"[99999,99999]","[-150,0]",up,1,8,0,8,0,1,001,2025-03-17_14h18.00.808,SL_base,2021.2.3,Win32,59.88023952,0.9949,,,,,,,,,,,,,,,
,,"[""diamond"",""no_dis"",""vert"",""up"",[99999,99999],[-106,-106]]",diamond,no_dis,vert,up,"[99999,99999]","[-106,-106]",up,1,9,0,9,0,1,001,2025-03-17_14h18.00.808,SL_base,2021.2.3,Win32,59.88023952,1.3305,,,,,,,,,,,,,,,
,,"[""diamond"",""no_dis"",""vert"",""up"",[99999,99999],[106,-106]]",diamond,no_dis,vert,up,"[99999,99999]","[106,-106]",up,1,,,,,,001,2025-03-17_14h18.00.808,SL_base,2021.2.3,Win32,59.88023952,1.3811,space,3.6495,0,0,0,0,1,,,,,,,,
,,"[""circle"",""green"",""hori"",""left"",[-106,106],[0,150]]",circle,green,hori,left,"[-106,106]","[0,150]",left,1,,,,,,001,2025-03-17_14h18.00.808,SL_base,2021.2.3,Win32,59.88023952,1.6501,,,1,0,1,0,1,,,,,,,,
,,"[""circle"",""green"",""vert"",""up"",[-106,106],[-150,0]]",circle,green,vert,up,"[-106,106]","[-150,0]",up,1,,,,,,001,2025-03-17_14h18.00.808,SL_base,2021.2.3,Win32,59.88023952,1.0585,,,2,0,2,0,1,,,,,,,,
,,"[""circle"",""red"",""vert"",""up"",[-106,-106],[106,106]]",circle,red,vert,up,"[-106,-106]","[106,106]",up,1,,,,,,001,2025-03-17_14h18.00.808,SL_base,2021.2.3,Win32,59.88023952,1.2626,,,3,0,3,0,1,,,,,,,,
,,"[""circle"",""red"",""hori"",""left"",[106,-106],[0,150]]",circle,red,hori,left,"[106,-106]","[0,150]",left,1,,,,,,001,2025-03-17_14h18.00.808,SL_base,2021.2.3,Win32,59.88023952,1.0814,,,4,0,4,0,1,,,,,,,,
,,"[""circle"",""no_dis"",""hori"",""left"",[99999,99999],[106,106]]",circle,no_dis,hori,left,"[99999,99999]","[106,106]",left,1,,,,,,001,2025-03-17_14h18.00.808,SL_base,2021.2.3,Win32,59.88023952,0.8824,,,5,0,5,0,1,,,,,,,,
,,"[""diamond"",""green"",""hori"",""left"",[106,106],[-106,-106]]",diamond,green,hori,left,"[106,106]","[-106,-106]",left,1,,,,,,001,2025-03-17_14h18.00.808,SL_base,2021.2.3,Win32,59.88023952,1.1092,,,6,0,6,0,1,,,,,,,,
,,"[""circle"",""green"",""vert"",""up"",[-150,0],[-106,-106]]",circle,green,vert,up,"[-150,0]","[-106,-106]",up,1,,,,,,001,2025-03-17_14h18.00.808,SL_base,2021.2.3,Win32,59.88023952,1.7164,,,7,0,7,0,1,,,,,,,,
,,"[""diamond"",""no_dis"",""vert"",""up"",[99999,99999],[-150,0]]",diamond,no_dis,vert,up,"[99999,99999]","[-150,0]",up,1,,,,,,001,2025-03-17_14h18.00.808,SL_base,2021.2.3,Win32,59.88023952,1.0332,,,8,0,8,0,1,,,,,,,,
,,"[""diamond"",""no_dis"",""vert"",""up"",[99999,99999],[-106,-106]]",diamond,no_dis,vert,up,"[99999,99999]","[-106,-106]",up,1,,,,,,001,2025-03-17_14h18.00.808,SL_base,2021.2.3,Win32,59.88023952,0.9877,,,9,0,9,0,1,,,,,,,,
,,"[""circle"",""no_dis"",""hori"",""left"",[99999,99999],[106,106]]",circle,no_dis,hori,left,"[99999,99999]","[106,106]",left,1,,,,,,001,2025-03-17_14h18.00.808,SL_base,2021.2.3,Win32,59.88023952,1.1495,,,10,0,10,0,1,,,,,,,,
,,"[""diamond"",""green"",""hori"",""left"",[-150,0],[-106,-106]]",diamond,green,hori,left,"[-150,0]","[-106,-106]",left,1,,,,,,001,2025-03-17_14h18.00.808,SL_base,2021.2.3,Win32,59.88023952,1.2848,,,11,0,11,0,1,,,,,,,,
,,"[""diamond"",""red"",""hori"",""left"",[-106,106],[0,150]]",diamond,red,hori,left,"[-106,106]","[0,150]",left,1,,,,,,001,2025-03-17_14h18.00.808,SL_base,2021.2.3,Win32,59.88023952,1.3001,,,12,0,12,0,1,,,,,,,,
,,"[""diamond"",""no_dis"",""vert"",""up"",[99999,99999],[106,106]]",diamond,no_dis,vert,up,"[99999,99999]","[106,106]",left,0,,,,,,001,2025-03-17_14h18.00.808,SL_base,2021.2.3,Win32,59.88023952,1.2157,,,13,0,13,0,1,,,,,,,,
,,"[""diamond"",""red"",""hori"",""left"",[150,0],[106,106]]",diamond,red,hori,left,"[150,0]","[106,106]",left,1,,,,,,001,2025-03-17_14h18.00.808,SL_base,2021.2.3,Win32,59.88023952,1.0084,,,14,0,14,0,1,,,,,,,,
,,"[""circle"",""no_dis"",""vert"",""up"",[99999,99999],[150,0]]",circle,no_dis,vert,up,"[99999,99999]","[150,0]",up,1,,,,,,001,2025-03-17_14h18.00.808,SL_base,2021.2.3,Win32,59.88023952,0.9164,,,15,0,15,0,1,,,,,,,,
,,"[""diamond"",""no_dis"",""hori"",""left"",[99999,99999],[106,-106]]",diamond,no_dis,hori,left,"[99999,99999]","[106,-106]",left,1,,,,,,001,2025-03-17_14h18.00.808,SL_base,2021.2.3,Win32,59.88023952,1.1635,,,16,0,16,0,1,,,,,,,,
,,"[""diamond"",""green"",""hori"",""left"",[-106,-106],[-150,0]]",diamond,green,hori,left,"[-106,-106]","[-150,0]",left,1,,,,,,001,2025-03-17_14h18.00.808,SL_base,2021.2.3,Win32,59.88023952,1.3505,,,17,0,17,0,1,,,,,,,,
,,"[""diamond"",""green"",""vert"",""up"",[-106,106],[-150,0]]",diamond,green,vert,up,"[-106,106]","[-150,0]",up,1,,,,,,001,2025-03-17_14h18.00.808,SL_base,2021.2.3,Win32,59.88023952,1.6967,,,18,0,18,0,1,,,,,,,,
,,"[""circle"",""red"",""vert"",""up"",[0,-150],[106,106]]",circle,red,vert,up,"[0,-150]","[106,106]",up,1,,,,,,001,2025-03-17_14h18.00.808,SL_base,2021.2.3,Win32,59.88023952,1.6307,,,19,0,19,0,1,,,,,,,,
,,"[""circle"",""no_dis"",""hori"",""left"",[99999,99999],[-150,0]]",circle,no_dis,hori,left,"[99999,99999]","[-150,0]",left,1,,,,,,001,2025-03-17_14h18.00.808,SL_base,2021.2.3,Win32,59.88023952,0.9173,,,20,0,20,0,1,,,,,,,,
,,"[""diamond"",""red"",""hori"",""left"",[-106,106],[-106,-106]]",diamond,red,hori,left,"[-106,106]","[-106,-106]",left,1,,,,,,001,2025-03-17_14h18.00.808,SL_base,2021.2.3,Win32,59.88023952,0.9665,,,21,0,21,0,1,,,,,,,,
,,"[""circle"",""green"",""hori"",""left"",[106,106],[150,0]]",circle,green,hori,left,"[106,106]","[150,0]",left,1,,,,,,001,2025-03-17_14h18.00.808,SL_base,2021.2.3,Win32,59.88023952,0.9283,,,22,0,22,0,1,,,,,,,,
,,"[""circle"",""no_dis"",""hori"",""left"",[99999,99999],[-106,106]]",circle,no_dis,hori,left,"[99999,99999]","[-106,106]",left,1,,,,,,001,2025-03-17_14h18.00.808,SL_base,2021.2.3,Win32,59.88023952,1.1085,,,23,0,23,0,1,,,,,,,,
,,"[""circle"",""red"",""hori"",""left"",[-106,106],[106,106]]",circle,red,hori,left,"[-106,106]","[106,106]",left,1,,,,,,001,2025-03-17_14h18.00.808,SL_base,2021.2.3,Win32,59.88023952,0.8455,,,24,0,24,0,1,,,,,,,,
,,"[""circle"",""green"",""vert"",""up"",[0,150],[106,106]]",circle,green,vert,up,"[0,150]","[106,106]",up,1,,,,,,001,2025-03-17_14h18.00.808,SL_base,2021.2.3,Win32,59.88023952,1.0002,,,25,0,25,0,1,,,,,,,,
,,"[""circle"",""green"",""hori"",""left"",[-106,106],[-106,-106]]",circle,green,hori,left,"[-106,106]","[-106,-106]",left,1,,,,,,001,2025-03-17_14h18.00.808,SL_base,2021.2.3,Win32,59.88023952,0.9469,,,26,0,26,0,1,,,,,,,,
,,"[""circle"",""green"",""hori"",""left"",[-106,106],[-150,0]]",circle,green,hori,left,"[-106,106]","[-150,0]",left,1,,,,,,001,2025-03-17_14h18.00.808,SL_base,2021.2.3,Win32,59.88023952,0.917,,,27,0,27,0,1,,,,,,,,
,,"[""circle"",""no_dis"",""vert"",""up"",[99999,99999],[0,150]]",circle,no_dis,vert,up,"[99999,99999]","[0,150]",up,1,,,,,,001,2025-03-17_14h18.00.808,SL_base,2021.2.3,Win32,59.88023952,1.5503,,,28,0,28,0,1,,,,,,,,
,,"[""diamond"",""green"",""hori"",""left"",[150,0],[-106,106]]",diamond,green,hori,left,"[150,0]","[-106,106]",left,1,,,,,,001,2025-03-17_14h18.00.808,SL_base,2021.2.3,Win32,59.88023952,1.2323,,,29,0,29,0,1,,,,,,,,
,,"[""diamond"",""red"",""vert"",""up"",[-106,106],[0,150]]",diamond,red,vert,up,"[-106,106]","[0,150]",left,0,,,,,,001,2025-03-17_14h18.00.808,SL_base,2021.2.3,Win32,59.88023952,1.4758,,,30,0,30,0,1,,,,,,,,
,,"[""circle"",""red"",""vert"",""up"",[-106,106],[0,-150]]",circle,red,vert,up,"[-106,106]","[0,-150]",up,1,,,,,,001,2025-03-17_14h18.00.808,SL_base,2021.2.3,Win32,59.88023952,1.2455,,,31,0,31,0,1,,,,,,,,
,,"[""diamond"",""red"",""hori"",""left"",[-106,106],[150,0]]",diamond,red,hori,left,"[-106,106]","[150,0]",left,1,,,,,,001,2025-03-17_14h18.00.808,SL_base,2021.2.3,Win32,59.88023952,1.422,,,32,0,32,0,1,,,,,,,,
,,"[""diamond"",""red"",""vert"",""up"",[-106,106],[150,0]]",diamond,red,vert,up,"[-106,106]","[150,0]",up,1,,,,,,001,2025-03-17_14h18.00.808,SL_base,2021.2.3,Win32,59.88023952,1.3456,,,33,0,33,0,1,,,,,,,,
,,"[""circle"",""red"",""hori"",""left"",[-106,-106],[0,-150]]",circle,red,hori,left,"[-106,-106]","[0,-150]",up,0,,,,,,001,2025-03-17_14h18.00.808,SL_base,2021.2.3,Win32,59.88023952,1.9008,,,34,0,34,0,1,,,,,,,,
,,"[""diamond"",""green"",""vert"",""up"",[150,0],[-150,0]]",diamond,green,vert,up,"[150,0]","[-150,0]",up,1,,,,,,001,2025-03-17_14h18.00.808,SL_base,2021.2.3,Win32,59.88023952,1.4171,,,35,0,35,0,1,,,,,,,,
,,"[""circle"",""red"",""vert"",""up"",[0,150],[106,106]]",circle,red,vert,up,"[0,150]","[106,106]",up,1,,,,,,001,2025-03-17_14h18.00.808,SL_base,2021.2.3,Win32,59.88023952,1.0256,,,36,0,36,0,1,,,,,,,,
,,"[""diamond"",""no_dis"",""hori"",""left"",[99999,99999],[150,0]]",diamond,no_dis,hori,left,"[99999,99999]","[150,0]",left,1,,,,,,001,2025-03-17_14h18.00.808,SL_base,2021.2.3,Win32,59.88023952,0.7998,,,37,0,37,0,1,,,,,,,,
,,"[""diamond"",""green"",""vert"",""up"",[106,106],[150,0]]",diamond,green,vert,up,"[106,106]","[150,0]",up,1,,,,,,001,2025-03-17_14h18.00.808,SL_base,2021.2.3,Win32,59.88023952,0.9206,,,38,0,38,0,1,,,,,,,,
,,"[""diamond"",""red"",""vert"",""up"",[150,0],[106,106]]",diamond,red,vert,up,"[150,0]","[106,106]",up,1,,,,,,001,2025-03-17_14h18.00.808,SL_base,2021.2.3,Win32,59.88023952,1.6517,,,39,0,39,0,1,,,,,,,,
,,"[""diamond"",""red"",""vert"",""up"",[106,-106],[-106,106]]",diamond,red,vert,up,"[106,-106]","[-106,106]",up,1,,,,,,001,2025-03-17_14h18.00.808,SL_base,2021.2.3,Win32,59.88023952,1.1899,,,40,0,40,0,1,,,,,,,,
,,"[""diamond"",""red"",""vert"",""up"",[-106,106],[-106,-106]]",diamond,red,vert,up,"[-106,106]","[-106,-106]",up,1,,,,,,001,2025-03-17_14h18.00.808,SL_base,2021.2.3,Win32,59.88023952,1.0086,,,41,0,41,0,1,,,,,,,,
,,"[""circle"",""green"",""vert"",""up"",[150,0],[-150,0]]",circle,green,vert,up,"[150,0]","[-150,0]",up,1,,,,,,001,2025-03-17_14h18.00.808,SL_base,2021.2.3,Win32,59.88023952,1.5902,,,42,0,42,0,1,,,,,,,,
,,"[""circle"",""green"",""hori"",""left"",[-106,-106],[-150,0]]",circle,green,hori,left,"[-106,-106]","[-150,0]",left,1,,,,,,001,2025-03-17_14h18.00.808,SL_base,2021.2.3,Win32,59.88023952,1.2836,,,43,0,43,0,1,,,,,,,,
,,"[""circle"",""green"",""hori"",""left"",[106,106],[0,150]]",circle,green,hori,left,"[106,106]","[0,150]",left,1,,,,,,001,2025-03-17_14h18.00.808,SL_base,2021.2.3,Win32,59.88023952,1.5279,,,44,0,44,0,1,,,,,,,,
,,"[""circle"",""red"",""hori"",""left"",[-106,-106],[0,150]]",circle,red,hori,left,"[-106,-106]","[0,150]",left,1,,,,,,001,2025-03-17_14h18.00.808,SL_base,2021.2.3,Win32,59.88023952,1.1675,,,45,0,45,0,1,,,,,,,,
,,"[""circle"",""green"",""vert"",""up"",[-106,-106],[0,-150]]",circle,green,vert,up,"[-106,-106]","[0,-150]",up,1,,,,,,001,2025-03-17_14h18.00.808,SL_base,2021.2.3,Win32,59.88023952,0.9501,,,46,0,46,0,1,,,,,,,,
,,"[""diamond"",""no_dis"",""hori"",""left"",[99999,99999],[0,-150]]",diamond,no_dis,hori,left,"[99999,99999]","[0,-150]",left,1,,,,,,001,2025-03-17_14h18.00.808,SL_base,2021.2.3,Win32,59.88023952,1.4351,,,47,0,47,0,1,,,,,,,,
,,"[""diamond"",""red"",""vert"",""up"",[150,0],[-106,106]]",diamond,red,vert,up,"[150,0]","[-106,106]",up,1,,,,,,001,2025-03-17_14h18.00.808,SL_base,2021.2.3,Win32,59.88023952,2.1881,,,48,0,48,0,1,,,,,,,,
,,"[""diamond"",""green"",""hori"",""left"",[0,-150],[150,0]]",diamond,green,hori,left,"[0,-150]","[150,0]",left,1,,,,,,001,2025-03-17_14h18.00.808,SL_base,2021.2.3,Win32,59.88023952,1.3425,,,49,0,49,0,1,,,,,,,,
,,"[""circle"",""green"",""vert"",""up"",[-106,-106],[0,-150]]",circle,green,vert,up,"[-106,-106]","[0,-150]",up,1,,,,,,001,2025-03-17_14h18.00.808,SL_base,2021.2.3,Win32,59.88023952,1.1364,,,50,0,50,0,1,,,,,,,,
,,"[""circle"",""green"",""hori"",""left"",[0,-150],[106,106]]",circle,green,hori,left,"[0,-150]","[106,106]",left,1,,,,,,001,2025-03-17_14h18.00.808,SL_base,2021.2.3,Win32,59.88023952,0.8586,,,51,0,51,0,1,,,,,,,,
,,"[""diamond"",""red"",""hori"",""left"",[-106,106],[-106,-106]]",diamond,red,hori,left,"[-106,106]","[-106,-106]",left,1,,,,,,001,2025-03-17_14h18.00.808,SL_base,2021.2.3,Win32,59.88023952,1.1825,,,52,0,52,0,1,,,,,,,,
,,"[""circle"",""red"",""hori"",""left"",[106,106],[106,-106]]",circle,red,hori,left,"[106,106]","[106,-106]",left,1,,,,,,001,2025-03-17_14h18.00.808,SL_base,2021.2.3,Win32,59.88023952,1.1832,,,53,0,53,0,1,,,,,,,,
,,"[""diamond"",""no_dis"",""vert"",""up"",[99999,99999],[0,150]]",diamond,no_dis,vert,up,"[99999,99999]","[0,150]",up,1,,,,,,001,2025-03-17_14h18.00.808,SL_base,2021.2.3,Win32,59.88023952,1.1345,,,54,0,54,0,1,,,,,,,,
,,"[""circle"",""no_dis"",""vert"",""up"",[99999,99999],[106,-106]]",circle,no_dis,vert,up,"[99999,99999]","[106,-106]",up,1,,,,,,001,2025-03-17_14h18.00.808,SL_base,2021.2.3,Win32,59.88023952,1.0645,,,55,0,55,0,1,,,,,,,,
,,"[""circle"",""red"",""vert"",""up"",[-150,0],[0,150]]",circle,red,vert,up,"[-150,0]","[0,150]",up,1,,,,,,001,2025-03-17_14h18.00.808,SL_base,2021.2.3,Win32,59.88023952,0.8101,,,56,0,56,0,1,,,,,,,,
,,"[""circle"",""green"",""vert"",""up"",[-106,106],[0,-150]]",circle,green,vert,up,"[-106,106]","[0,-150]",up,1,,,,,,001,2025-03-17_14h18.00.808,SL_base,2021.2.3,Win32,59.88023952,0.867,,,57,0,57,0,1,,,,,,,,
,,"[""diamond"",""green"",""vert"",""up"",[106,106],[-106,-106]]",diamond,green,vert,up,"[106,106]","[-106,-106]",up,1,,,,,,001,2025-03-17_14h18.00.808,SL_base,2021.2.3,Win32,59.88023952,1.2269,,,58,0,58,0,1,,,,,,,,
,,"[""circle"",""no_dis"",""hori"",""left"",[99999,99999],[-150,0]]",circle,no_dis,hori,left,"[99999,99999]","[-150,0]",left,1,,,,,,001,2025-03-17_14h18.00.808,SL_base,2021.2.3,Win32,59.88023952,1.2472,,,59,0,59,0,1,,,,,,,,
,,"[""circle"",""no_dis"",""vert"",""up"",[99999,99999],[-106,106]]",circle,no_dis,vert,up,"[99999,99999]","[-106,106]",up,1,,,,,,001,2025-03-17_14h18.00.808,SL_base,2021.2.3,Win32,59.88023952,0.7836,,,60,0,60,0,1,,,,,,,,
,,"[""diamond"",""green"",""vert"",""up"",[106,106],[0,150]]",diamond,green,vert,up,"[106,106]","[0,150]",up,1,,,,,,001,2025-03-17_14h18.00.808,SL_base,2021.2.3,Win32,59.88023952,1.1666,,,61,0,61,0,1,,,,,,,,
,,"[""circle"",""red"",""vert"",""up"",[0,-150],[150,0]]",circle,red,vert,up,"[0,-150]","[150,0]",up,1,,,,,,001,2025-03-17_14h18.00.808,SL_base,2021.2.3,Win32,59.88023952,1.1835,,,62,0,62,0,1,,,,,,,,
,,"[""circle"",""red"",""vert"",""up"",[-150,0],[-106,-106]]",circle,red,vert,up,"[-150,0]","[-106,-106]",up,1,,,,,,001,2025-03-17_14h18.00.808,SL_base,2021.2.3,Win32,59.88023952,1.0059,,,63,0,63,0,1,,,,,,,,
,,"[""diamond"",""red"",""hori"",""left"",[-106,106],[150,0]]",diamond,red,hori,left,"[-106,106]","[150,0]",left,1,,,,,,001,2025-03-17_14h18.00.808,SL_base,2021.2.3,Win32,59.88023952,1.2175,,,64,0,64,0,1,,,,,,,,
,,"[""diamond"",""green"",""hori"",""left"",[0,-150],[-150,0]]",diamond,green,hori,left,"[0,-150]","[-150,0]",left,1,,,,,,001,2025-03-17_14h18.00.808,SL_base,2021.2.3,Win32,59.88023952,0.982,,,65,0,65,0,1,,,,,,,,
,,"[""circle"",""red"",""hori"",""left"",[-106,106],[150,0]]",circle,red,hori,left,"[-106,106]","[150,0]",left,1,,,,,,001,2025-03-17_14h18.00.808,SL_base,2021.2.3,Win32,59.88023952,0.7454,,,66,0,66,0,1,,,,,,,,
,,"[""circle"",""red"",""hori"",""left"",[-106,106],[150,0]]",circle,red,hori,left,"[-106,106]","[150,0]",left,1,,,,,,001,2025-03-17_14h18.00.808,SL_base,2021.2.3,Win32,59.88023952,0.6929,,,67,0,67,0,1,,,,,,,,
,,"[""circle"",""red"",""vert"",""up"",[-106,106],[0,150]]",circle,red,vert,up,"[-106,106]","[0,150]",up,1,,,,,,001,2025-03-17_14h18.00.808,SL_base,2021.2.3,Win32,59.88023952,0.8808,,,68,0,68,0,1,,,,,,,,
,,"[""circle"",""no_dis"",""hori"",""left"",[99999,99999],[-106,-106]]",circle,no_dis,hori,left,"[99999,99999]","[-106,-106]",left,1,,,,,,001,2025-03-17_14h18.00.808,SL_base,2021.2.3,Win32,59.88023952,0.7955,,,69,0,69,0,1,,,,,,,,
,,"[""diamond"",""green"",""vert"",""up"",[150,0],[0,-150]]",diamond,green,vert,up,"[150,0]","[0,-150]",up,1,,,,,,001,2025-03-17_14h18.00.808,SL_base,2021.2.3,Win32,59.88023952,1.1811,,,70,0,70,0,1,,,,,,,,
,,"[""diamond"",""no_dis"",""hori"",""left"",[99999,99999],[-106,106]]",diamond,no_dis,hori,left,"[99999,99999]","[-106,106]",left,1,,,,,,001,2025-03-17_14h18.00.808,SL_base,2021.2.3,Win32,59.88023952,0.8499,,,71,0,71,0,1,,,,,,,,
,,"[""circle"",""green"",""hori"",""left"",[0,150],[-106,-106]]",circle,green,hori,left,"[0,150]","[-106,-106]",left,1,,,,,,001,2025-03-17_14h18.00.808,SL_base,2021.2.3,Win32,59.88023952,0.8362,,,72,0,72,0,1,,,,,,,,
,,"[""diamond"",""no_dis"",""hori"",""left"",[99999,99999],[150,0]]",diamond,no_dis,hori,left,"[99999,99999]","[150,0]",left,1,,,,,,001,2025-03-17_14h18.00.808,SL_base,2021.2.3,Win32,59.88023952,0.9504,,,73,0,73,0,1,,,,,,,,
,,"[""diamond"",""green"",""hori"",""left"",[-106,106],[0,150]]",diamond,green,hori,left,"[-106,106]","[0,150]",left,1,,,,,,001,2025-03-17_14h18.00.808,SL_base,2021.2.3,Win32,59.88023952,1.0417,,,74,0,74,0,1,,,,,,,,
,,"[""circle"",""red"",""vert"",""up"",[0,-150],[106,-106]]",circle,red,vert,up,"[0,-150]","[106,-106]",up,1,,,,,,001,2025-03-17_14h18.00.808,SL_base,2021.2.3,Win32,59.88023952,1.7682,,,75,0,75,0,1,,,,,,,,
,,"[""diamond"",""no_dis"",""hori"",""left"",[99999,99999],[-150,0]]",diamond,no_dis,hori,left,"[99999,99999]","[-150,0]",left,1,,,,,,001,2025-03-17_14h18.00.808,SL_base,2021.2.3,Win32,59.88023952,1.0167,,,76,0,76,0,1,,,,,,,,
,,"[""diamond"",""no_dis"",""vert"",""up"",[99999,99999],[-106,-106]]",diamond,no_dis,vert,up,"[99999,99999]","[-106,-106]",up,1,,,,,,001,2025-03-17_14h18.00.808,SL_base,2021.2.3,Win32,59.88023952,0.902,,,77,0,77,0,1,,,,,,,,
,,"[""diamond"",""green"",""vert"",""up"",[-106,-106],[0,150]]",diamond,green,vert,up,"[-106,-106]","[0,150]",up,1,,,,,,001,2025-03-17_14h18.00.808,SL_base,2021.2.3,Win32,59.88023952,1.2313,,,78,0,78,0,1,,,,,,,,
,,"[""diamond"",""red"",""vert"",""up"",[106,-106],[0,-150]]",diamond,red,vert,up,"[106,-106]","[0,-150]",up,1,,,,,,001,2025-03-17_14h18.00.808,SL_base,2021.2.3,Win32,59.88023952,1.208,,,79,0,79,0,1,,,,,,,,
,,"[""circle"",""no_dis"",""vert"",""up"",[99999,99999],[-106,-106]]",circle,no_dis,vert,up,"[99999,99999]","[-106,-106]",up,1,,,,,,001,2025-03-17_14h18.00.808,SL_base,2021.2.3,Win32,59.88023952,1.0331,,,80,0,80,0,1,,,,,,,,
,,"[""diamond"",""red"",""vert"",""up"",[0,150],[0,-150]]",diamond,red,vert,up,"[0,150]","[0,-150]",up,1,,,,,,001,2025-03-17_14h18.00.808,SL_base,2021.2.3,Win32,59.88023952,1.0437,,,81,0,81,0,1,,,,,,,,
,,"[""diamond"",""green"",""vert"",""up"",[-106,106],[106,106]]",diamond,green,vert,up,"[-106,106]","[106,106]",up,1,,,,,,001,2025-03-17_14h18.00.808,SL_base,2021.2.3,Win32,59.88023952,0.867,,,82,0,82,0,1,,,,,,,,
,,"[""diamond"",""green"",""vert"",""up"",[-150,0],[-106,106]]",diamond,green,vert,up,"[-150,0]","[-106,106]",up,1,,,,,,001,2025-03-17_14h18.00.808,SL_base,2021.2.3,Win32,59.88023952,0.9007,,,83,0,83,0,1,,,,,,,,
,,"[""diamond"",""red"",""hori"",""left"",[-106,106],[106,106]]",diamond,red,hori,left,"[-106,106]","[106,106]",left,1,,,,,,001,2025-03-17_14h18.00.808,SL_base,2021.2.3,Win32,59.88023952,0.7838,,,84,0,84,0,1,,,,,,,,
,,"[""circle"",""green"",""hori"",""left"",[0,150],[106,106]]",circle,green,hori,left,"[0,150]","[106,106]",left,1,,,,,,001,2025-03-17_14h18.00.808,SL_base,2021.2.3,Win32,59.88023952,0.8494,,,85,0,85,0,1,,,,,,,,
,,"[""circle"",""green"",""vert"",""up"",[0,-150],[0,150]]",circle,green,vert,up,"[0,-150]","[0,150]",up,1,,,,,,001,2025-03-17_14h18.00.808,SL_base,2021.2.3,Win32,59.88023952,2.1169,,,86,0,86,0,1,,,,,,,,
,,"[""diamond"",""no_dis"",""hori"",""left"",[99999,99999],[150,0]]",diamond,no_dis,hori,left,"[99999,99999]","[150,0]",left,1,,,,,,001,2025-03-17_14h18.00.808,SL_base,2021.2.3,Win32,59.88023952,0.8192,,,87,0,87,0,1,,,,,,,,
,,"[""diamond"",""green"",""hori"",""left"",[150,0],[-106,106]]",diamond,green,hori,left,"[150,0]","[-106,106]",left,1,,,,,,001,2025-03-17_14h18.00.808,SL_base,2021.2.3,Win32,59.88023952,0.8368,,,88,0,88,0,1,,,,,,,,
,,"[""circle"",""green"",""hori"",""left"",[106,-106],[-106,106]]",circle,green,hori,left,"[106,-106]","[-106,106]",left,1,,,,,,001,2025-03-17_14h18.00.808,SL_base,2021.2.3,Win32,59.88023952,1.4027,,,89,0,89,0,1,,,,,,,,
,,"[""circle"",""no_dis"",""vert"",""up"",[99999,99999],[150,0]]",circle,no_dis,vert,up,"[99999,99999]","[150,0]",up,1,,,,,,001,2025-03-17_14h18.00.808,SL_base,2021.2.3,Win32,59.88023952,0.8689,,,90,0,90,0,1,,,,,,,,
,,"[""circle"",""red"",""hori"",""left"",[106,-106],[0,-150]]",circle,red,hori,left,"[106,-106]","[0,-150]",left,1,,,,,,001,2025-03-17_14h18.00.808,SL_base,2021.2.3,Win32,59.88023952,1.8001,,,91,0,91,0,1,,,,,,,,
,,"[""diamond"",""no_dis"",""vert"",""up"",[99999,99999],[0,-150]]",diamond,no_dis,vert,up,"[99999,99999]","[0,-150]",up,1,,,,,,001,2025-03-17_14h18.00.808,SL_base,2021.2.3,Win32,59.88023952,1.0172,,,92,0,92,0,1,,,,,,,,
,,"[""diamond"",""no_dis"",""hori"",""left"",[99999,99999],[106,-106]]",diamond,no_dis,hori,left,"[99999,99999]","[106,-106]",left,1,,,,,,001,2025-03-17_14h18.00.808,SL_base,2021.2.3,Win32,59.88023952,1.436,,,93,0,93,0,1,,,,,,,,
,,"[""diamond"",""no_dis"",""hori"",""left"",[99999,99999],[0,-150]]",diamond,no_dis,hori,left,"[99999,99999]","[0,-150]",left,1,,,,,,001,2025-03-17_14h18.00.808,SL_base,2021.2.3,Win32,59.88023952,0.8255,,,94,0,94,0,1,,,,,,,,
,,"[""diamond"",""green"",""hori"",""left"",[-106,106],[0,150]]",diamond,green,hori,left,"[-106,106]","[0,150]",left,1,,,,,,001,2025-03-17_14h18.00.808,SL_base,2021.2.3,Win32,59.88023952,0.9163,,,95,0,95,0,1,,,,,,,,
,,"[""diamond"",""green"",""vert"",""up"",[0,150],[0,-150]]",diamond,green,vert,up,"[0,150]","[0,-150]",up,1,,,,,,001,2025-03-17_14h18.00.808,SL_base,2021.2.3,Win32,59.88023952,0.8933,,,96,0,96,0,1,,,,,,,,
,,"[""circle"",""no_dis"",""vert"",""up"",[99999,99999],[106,106]]",circle,no_dis,vert,up,"[99999,99999]","[106,106]",up,1,,,,,,001,2025-03-17_14h18.00.808,SL_base,2021.2.3,Win32,59.88023952,1.4479,,,97,0,97,0,1,,,,,,,,
,,"[""diamond"",""red"",""vert"",""up"",[-150,0],[-106,106]]",diamond,red,vert,up,"[-150,0]","[-106,106]",up,1,,,,,,001,2025-03-17_14h18.00.808,SL_base,2021.2.3,Win32,59.88023952,1.3058,,,98,0,98,0,1,,,,,,,,
,,"[""diamond"",""red"",""vert"",""up"",[106,-106],[-106,-106]]",diamond,red,vert,up,"[106,-106]","[-106,-106]",up,1,,,,,,001,2025-03-17_14h18.00.808,SL_base,2021.2.3,Win32,59.88023952,1.8002,,,99,0,99,0,1,,,,,,,,
,,"[""circle"",""red"",""hori"",""left"",[106,-106],[-106,106]]",circle,red,hori,left,"[106,-106]","[-106,106]",left,1,,,,,,001,2025-03-17_14h18.00.808,SL_base,2021.2.3,Win32,59.88023952,0.8828,,,100,0,100,0,1,,,,,,,,
,,"[""circle"",""red"",""vert"",""up"",[106,106],[-106,106]]",circle,red,vert,up,"[106,106]","[-106,106]",up,1,,,,,,001,2025-03-17_14h18.00.808,SL_base,2021.2.3,Win32,59.88023952,1.3547,,,101,0,101,0,1,,,,,,,,
,,"[""diamond"",""no_dis"",""vert"",""up"",[99999,99999],[0,150]]",diamond,no_dis,vert,up,"[99999,99999]","[0,150]",up,1,,,,,,001,2025-03-17_14h18.00.808,SL_base,2021.2.3,Win32,59.88023952,1.0396,,,102,0,102,0,1,,,,,,,,
,,"[""diamond"",""red"",""hori"",""left"",[0,150],[106,-106]]",diamond,red,hori,left,"[0,150]","[106,-106]",left,1,,,,,,001,2025-03-17_14h18.00.808,SL_base,2021.2.3,Win32,59.88023952,1.1997,,,103,0,103,0,1,,,,,,,,
,,"[""circle"",""no_dis"",""hori"",""left"",[99999,99999],[0,-150]]",circle,no_dis,hori,left,"[99999,99999]","[0,-150]",left,1,,,,,,001,2025-03-17_14h18.00.808,SL_base,2021.2.3,Win32,59.88023952,1.9916,,,104,0,104,0,1,,,,,,,,
,,"[""diamond"",""red"",""hori"",""left"",[-150,0],[106,106]]",diamond,red,hori,left,"[-150,0]","[106,106]",left,1,,,,,,001,2025-03-17_14h18.00.808,SL_base,2021.2.3,Win32,59.88023952,1.0839,,,105,0,105,0,1,,,,,,,,
,,"[""diamond"",""no_dis"",""vert"",""up"",[99999,99999],[0,150]]",diamond,no_dis,vert,up,"[99999,99999]","[0,150]",up,1,,,,,,001,2025-03-17_14h18.00.808,SL_base,2021.2.3,Win32,59.88023952,1.3991,,,106,0,106,0,1,,,,,,,,
,,"[""circle"",""green"",""vert"",""up"",[-106,106],[106,106]]",circle,green,vert,up,"[-106,106]","[106,106]",up,1,,,,,,001,2025-03-17_14h18.00.808,SL_base,2021.2.3,Win32,59.88023952,1.053,,,107,0,107,0,1,,,,,,,,
,,"[""circle"",""red"",""hori"",""left"",[-150,0],[150,0]]",circle,red,hori,left,"[-150,0]","[150,0]",left,1,,,,,,001,2025-03-17_14h18.00.808,SL_base,2021.2.3,Win32,59.88023952,0.7001,,,108,0,108,0,1,,,,,,,,
,,"[""diamond"",""green"",""hori"",""left"",[0,150],[-106,106]]",diamond,green,hori,left,"[0,150]","[-106,106]",left,1,,,,,,001,2025-03-17_14h18.00.808,SL_base,2021.2.3,Win32,59.88023952,1.1356,,,109,0,109,0,1,,,,,,,,
,,"[""diamond"",""no_dis"",""hori"",""left"",[99999,99999],[-106,106]]",diamond,no_dis,hori,left,"[99999,99999]","[-106,106]",left,1,,,,,,001,2025-03-17_14h18.00.808,SL_base,2021.2.3,Win32,59.88023952,0.7187,,,110,0,110,0,1,,,,,,,,
,,"[""diamond"",""red"",""hori"",""left"",[106,-106],[106,106]]",diamond,red,hori,left,"[106,-106]","[106,106]",left,1,,,,,,001,2025-03-17_14h18.00.808,SL_base,2021.2.3,Win32,59.88023952,0.9556,,,111,0,111,0,1,,,,,,,,
,,"[""circle"",""no_dis"",""vert"",""up"",[99999,99999],[-106,106]]",circle,no_dis,vert,up,"[99999,99999]","[-106,106]",up,1,,,,,,001,2025-03-17_14h18.00.808,SL_base,2021.2.3,Win32,59.88023952,1.0041,,,112,0,112,0,1,,,,,,,,
,,"[""circle"",""no_dis"",""hori"",""left"",[99999,99999],[106,-106]]",circle,no_dis,hori,left,"[99999,99999]","[106,-106]",left,1,,,,,,001,2025-03-17_14h18.00.808,SL_base,2021.2.3,Win32,59.88023952,1.2835,,,113,0,113,0,1,,,,,,,,
,,"[""circle"",""no_dis"",""vert"",""up"",[99999,99999],[-150,0]]",circle,no_dis,vert,up,"[99999,99999]","[-150,0]",up,1,,,,,,001,2025-03-17_14h18.00.808,SL_base,2021.2.3,Win32,59.88023952,1.1164,,,114,0,114,0,1,,,,,,,,
,,"[""circle"",""no_dis"",""vert"",""up"",[99999,99999],[0,-150]]",circle,no_dis,vert,up,"[99999,99999]","[0,-150]",up,1,,,,,,001,2025-03-17_14h18.00.808,SL_base,2021.2.3,Win32,59.88023952,0.9407,,,115,0,115,0,1,,,,,,,,
,,"[""circle"",""green"",""vert"",""up"",[0,-150],[106,-106]]",circle,green,vert,up,"[0,-150]","[106,-106]",up,1,,,,,,001,2025-03-17_14h18.00.808,SL_base,2021.2.3,Win32,59.88023952,1.0335,,,116,0,116,0,1,,,,,,,,
,,"[""circle"",""no_dis"",""hori"",""left"",[99999,99999],[-106,-106]]",circle,no_dis,hori,left,"[99999,99999]","[-106,-106]",left,1,,,,,,001,2025-03-17_14h18.00.808,SL_base,2021.2.3,Win32,59.88023952,0.6496,,,117,0,117,0,1,,,,,,,,
,,"[""circle"",""no_dis"",""hori"",""left"",[99999,99999],[0,150]]",circle,no_dis,hori,left,"[99999,99999]","[0,150]",left,1,,,,,,001,2025-03-17_14h18.00.808,SL_base,2021.2.3,Win32,59.88023952,1.7891,,,118,0,118,0,1,,,,,,,,
,,"[""diamond"",""no_dis"",""vert"",""up"",[99999,99999],[106,106]]",diamond,no_dis,vert,up,"[99999,99999]","[106,106]",up,1,,,,,,001,2025-03-17_14h18.00.808,SL_base,2021.2.3,Win32,59.88023952,1.2237,,,119,0,119,0,1,,,,,,,,
,,,,,,,,,,,,,,,,001,2025-03-17_14h18.00.808,SL_base,2021.2.3,Win32,59.88023952,,,,,,,,,1,space,1.7366,0,0,0,0,1
,,"[""diamond"",""red"",""hori"",""left"",[0,150],[106,-106]]",diamond,red,hori,left,"[0,150]","[106,-106]",left,1,,,,,,001,2025-03-17_14h18.00.808,SL_base,2021.2.3,Win32,59.88023952,1.0824,,,0,0,0,0,1,,,,,,,,
,,"[""circle"",""no_dis"",""vert"",""up"",[99999,99999],[-106,-106]]",circle,no_dis,vert,up,"[99999,99999]","[-106,-106]",up,1,,,,,,001,2025-03-17_14h18.00.808,SL_base,2021.2.3,Win32,59.88023952,1.0819,,,1,0,1,0,1,,,,,,,,
,,"[""circle"",""no_dis"",""hori"",""left"",[99999,99999],[0,150]]",circle,no_dis,hori,left,"[99999,99999]","[0,150]",left,1,,,,,,001,2025-03-17_14h18.00.808,SL_base,2021.2.3,Win32,59.88023952,1.5876,,,2,0,2,0,1,,,,,,,,
,,"[""circle"",""no_dis"",""hori"",""left"",[99999,99999],[-106,-106]]",circle,no_dis,hori,left,"[99999,99999]","[-106,-106]",left,1,,,,,,001,2025-03-17_14h18.00.808,SL_base,2021.2.3,Win32,59.88023952,0.8867,,,3,0,3,0,1,,,,,,,,
,,"[""circle"",""no_dis"",""hori"",""left"",[99999,99999],[-106,-106]]",circle,no_dis,hori,left,"[99999,99999]","[-106,-106]",left,1,,,,,,001,2025-03-17_14h18.00.808,SL_base,2021.2.3,Win32,59.88023952,0.7593,,,4,0,4,0,1,,,,,,,,
,,"[""circle"",""green"",""hori"",""left"",[-106,106],[-150,0]]",circle,green,hori,left,"[-106,106]","[-150,0]",left,1,,,,,,001,2025-03-17_14h18.00.808,SL_base,2021.2.3,Win32,59.88023952,0.6697,,,5,0,5,0,1,,,,,,,,
,,"[""diamond"",""green"",""hori"",""left"",[0,-150],[150,0]]",diamond,green,hori,left,"[0,-150]","[150,0]",left,1,,,,,,001,2025-03-17_14h18.00.808,SL_base,2021.2.3,Win32,59.88023952,1.1228,,,6,0,6,0,1,,,,,,,,
,,"[""diamond"",""green"",""vert"",""up"",[-150,0],[-106,106]]",diamond,green,vert,up,"[-150,0]","[-106,106]",up,1,,,,,,001,2025-03-17_14h18.00.808,SL_base,2021.2.3,Win32,59.88023952,0.9288,,,7,0,7,0,1,,,,,,,,
,,"[""diamond"",""no_dis"",""vert"",""up"",[99999,99999],[106,106]]",diamond,no_dis,vert,up,"[99999,99999]","[106,106]",up,1,,,,,,001,2025-03-17_14h18.00.808,SL_base,2021.2.3,Win32,59.88023952,2.1767,,,8,0,8,0,1,,,,,,,,
,,"[""diamond"",""green"",""hori"",""left"",[106,106],[-106,-106]]",diamond,green,hori,left,"[106,106]","[-106,-106]",left,1,,,,,,001,2025-03-17_14h18.00.808,SL_base,2021.2.3,Win32,59.88023952,1.0543,,,9,0,9,0,1,,,,,,,,
,,"[""circle"",""green"",""hori"",""left"",[-106,106],[0,150]]",circle,green,hori,left,"[-106,106]","[0,150]",left,1,,,,,,001,2025-03-17_14h18.00.808,SL_base,2021.2.3,Win32,59.88023952,1.5607,,,10,0,10,0,1,,,,,,,,
,,"[""circle"",""green"",""hori"",""left"",[106,-106],[-106,106]]",circle,green,hori,left,"[106,-106]","[-106,106]",left,1,,,,,,001,2025-03-17_14h18.00.808,SL_base,2021.2.3,Win32,59.88023952,1.4842,,,11,0,11,0,1,,,,,,,,
,,"[""diamond"",""green"",""hori"",""left"",[-106,106],[0,150]]",diamond,green,hori,left,"[-106,106]","[0,150]",left,1,,,,,,001,2025-03-17_14h18.00.808,SL_base,2021.2.3,Win32,59.88023952,1.6549,,,12,0,12,0,1,,,,,,,,
,,"[""circle"",""green"",""vert"",""up"",[-106,106],[106,106]]",circle,green,vert,up,"[-106,106]","[106,106]",up,1,,,,,,001,2025-03-17_14h18.00.808,SL_base,2021.2.3,Win32,59.88023952,1.3636,,,13,0,13,0,1,,,,,,,,
,,"[""diamond"",""no_dis"",""vert"",""up"",[99999,99999],[-150,0]]",diamond,no_dis,vert,up,"[99999,99999]","[-150,0]",up,1,,,,,,001,2025-03-17_14h18.00.808,SL_base,2021.2.3,Win32,59.88023952,1.1021,,,14,0,14,0,1,,,,,,,,
,,"[""diamond"",""red"",""vert"",""up"",[-150,0],[-106,106]]",diamond,red,vert,up,"[-150,0]","[-106,106]",up,1,,,,,,001,2025-03-17_14h18.00.808,SL_base,2021.2.3,Win32,59.88023952,1.2516,,,15,0,15,0,1,,,,,,,,
,,"[""diamond"",""no_dis"",""hori"",""left"",[99999,99999],[150,0]]",diamond,no_dis,hori,left,"[99999,99999]","[150,0]",left,1,,,,,,001,2025-03-17_14h18.00.808,SL_base,2021.2.3,Win32,59.88023952,0.8308,,,16,0,16,0,1,,,,,,,,
,,"[""diamond"",""green"",""hori"",""left"",[150,0],[-106,106]]",diamond,green,hori,left,"[150,0]","[-106,106]",left,1,,,,,,001,2025-03-17_14h18.00.808,SL_base,2021.2.3,Win32,59.88023952,0.9176,,,17,0,17,0,1,,,,,,,,
,,"[""circle"",""no_dis"",""hori"",""left"",[99999,99999],[-150,0]]",circle,no_dis,hori,left,"[99999,99999]","[-150,0]",left,1,,,,,,001,2025-03-17_14h18.00.808,SL_base,2021.2.3,Win32,59.88023952,1.4852,,,18,0,18,0,1,,,,,,,,
,,"[""diamond"",""red"",""vert"",""up"",[-106,106],[0,150]]",diamond,red,vert,up,"[-106,106]","[0,150]",up,1,,,,,,001,2025-03-17_14h18.00.808,SL_base,2021.2.3,Win32,59.88023952,1.5872,,,19,0,19,0,1,,,,,,,,
,,"[""diamond"",""no_dis"",""hori"",""left"",[99999,99999],[150,0]]",diamond,no_dis,hori,left,"[99999,99999]","[150,0]",left,1,,,,,,001,2025-03-17_14h18.00.808,SL_base,2021.2.3,Win32,59.88023952,1.2338,,,20,0,20,0,1,,,,,,,,
,,"[""diamond"",""red"",""vert"",""up"",[-106,106],[-106,-106]]",diamond,red,vert,up,"[-106,106]","[-106,-106]",up,1,,,,,,001,2025-03-17_14h18.00.808,SL_base,2021.2.3,Win32,59.88023952,1.1832,,,21,0,21,0,1,,,,,,,,
,,"[""circle"",""green"",""vert"",""up"",[0,-150],[106,-106]]",circle,green,vert,up,"[0,-150]","[106,-106]",up,1,,,,,,001,2025-03-17_14h18.00.808,SL_base,2021.2.3,Win32,59.88023952,1.1481,,,22,0,22,0,1,,,,,,,,
,,"[""diamond"",""no_dis"",""hori"",""left"",[99999,99999],[-150,0]]",diamond,no_dis,hori,left,"[99999,99999]","[-150,0]",left,1,,,,,,001,2025-03-17_14h18.00.808,SL_base,2021.2.3,Win32,59.88023952,0.8333,,,23,0,23,0,1,,,,,,,,
,,"[""diamond"",""no_dis"",""vert"",""up"",[99999,99999],[-106,-106]]",diamond,no_dis,vert,up,"[99999,99999]","[-106,-106]",up,1,,,,,,001,2025-03-17_14h18.00.808,SL_base,2021.2.3,Win32,59.88023952,0.9671,,,24,0,24,0,1,,,,,,,,
,,"[""circle"",""red"",""hori"",""left"",[106,-106],[0,-150]]",circle,red,hori,left,"[106,-106]","[0,-150]",left,1,,,,,,001,2025-03-17_14h18.00.808,SL_base,2021.2.3,Win32,59.88023952,1.3834,,,25,0,25,0,1,,,,,,,,
,,"[""circle"",""green"",""vert"",""up"",[0,150],[106,106]]",circle,green,vert,up,"[0,150]","[106,106]",up,1,,,,,,001,2025-03-17_14h18.00.808,SL_base,2021.2.3,Win32,59.88023952,1.8037,,,26,0,26,0,1,,,,,,,,
,,"[""diamond"",""green"",""vert"",""up"",[150,0],[0,-150]]",diamond,green,vert,up,"[150,0]","[0,-150]",up,1,,,,,,001,2025-03-17_14h18.00.808,SL_base,2021.2.3,Win32,59.88023952,1.1775,,,27,0,27,0,1,,,,,,,,
,,"[""circle"",""no_dis"",""vert"",""up"",[99999,99999],[106,-106]]",circle,no_dis,vert,up,"[99999,99999]","[106,-106]",up,1,,,,,,001,2025-03-17_14h18.00.808,SL_base,2021.2.3,Win32,59.88023952,0.9333,,,28,0,28,0,1,,,,,,,,
,,"[""circle"",""no_dis"",""vert"",""up"",[99999,99999],[-150,0]]",circle,no_dis,vert,up,"[99999,99999]","[-150,0]",up,1,,,,,,001,2025-03-17_14h18.00.808,SL_base,2021.2.3,Win32,59.88023952,0.7426,,,29,0,29,0,1,,,,,,,,
,,"[""circle"",""no_dis"",""vert"",""up"",[99999,99999],[106,106]]",circle,no_dis,vert,up,"[99999,99999]","[106,106]",up,1,,,,,,001,2025-03-17_14h18.00.808,SL_base,2021.2.3,Win32,59.88023952,0.6674,,,30,0,30,0,1,,,,,,,,
,,"[""circle"",""red"",""hori"",""left"",[-106,-106],[0,-150]]",circle,red,hori,left,"[-106,-106]","[0,-150]",left,1,,,,,,001,2025-03-17_14h18.00.808,SL_base,2021.2.3,Win32,59.88023952,0.8833,,,31,0,31,0,1,,,,,,,,
,,"[""circle"",""green"",""hori"",""left"",[-106,-106],[-150,0]]",circle,green,hori,left,"[-106,-106]","[-150,0]",left,1,,,,,,001,2025-03-17_14h18.00.808,SL_base,2021.2.3,Win32,59.88023952,0.9012,,,32,0,32,0,1,,,,,,,,
,,"[""diamond"",""green"",""hori"",""left"",[0,150],[-106,106]]",diamond,green,hori,left,"[0,150]","[-106,106]",left,1,,,,,,001,2025-03-17_14h18.00.808,SL_base,2021.2.3,Win32,59.88023952,1.5259,,,33,0,33,0,1,,,,,,,,
,,"[""circle"",""red"",""hori"",""left"",[-106,106],[150,0]]",circle,red,hori,left,"[-106,106]","[150,0]",left,1,,,,,,001,2025-03-17_14h18.00.808,SL_base,2021.2.3,Win32,59.88023952,0.9954,,,34,0,34,0,1,,,,,,,,
,,"[""circle"",""red"",""hori"",""left"",[-106,106],[106,106]]",circle,red,hori,left,"[-106,106]","[106,106]",left,1,,,,,,001,2025-03-17_14h18.00.808,SL_base,2021.2.3,Win32,59.88023952,0.7333,,,35,0,35,0,1,,,,,,,,
,,"[""circle"",""green"",""hori"",""left"",[106,106],[150,0]]",circle,green,hori,left,"[106,106]","[150,0]",left,1,,,,,,001,2025-03-17_14h18.00.808,SL_base,2021.2.3,Win32,59.88023952,0.9337,,,36,0,36,0,1,,,,,,,,
,,"[""circle"",""green"",""hori"",""left"",[-106,106],[-106,-106]]",circle,green,hori,left,"[-106,106]","[-106,-106]",left,1,,,,,,001,2025-03-17_14h18.00.808,SL_base,2021.2.3,Win32,59.88023952,0.8035,,,37,0,37,0,1,,,,,,,,
,,"[""diamond"",""red"",""vert"",""up"",[106,-106],[-106,-106]]",diamond,red,vert,up,"[106,-106]","[-106,-106]",up,1,,,,,,001,2025-03-17_14h18.00.808,SL_base,2021.2.3,Win32,59.88023952,0.8836,,,38,0,38,0,1,,,,,,,,
,,"[""circle"",""no_dis"",""hori"",""left"",[99999,99999],[-150,0]]",circle,no_dis,hori,left,"[99999,99999]","[-150,0]",left,1,,,,,,001,2025-03-17_14h18.00.808,SL_base,2021.2.3,Win32,59.88023952,0.8045,,,39,0,39,0,1,,,,,,,,
,,"[""circle"",""no_dis"",""vert"",""up"",[99999,99999],[0,150]]",circle,no_dis,vert,up,"[99999,99999]","[0,150]",up,1,,,,,,001,2025-03-17_14h18.00.808,SL_base,2021.2.3,Win32,59.88023952,0.7002,,,40,0,40,0,1,,,,,,,,
,,"[""circle"",""no_dis"",""vert"",""up"",[99999,99999],[-106,106]]",circle,no_dis,vert,up,"[99999,99999]","[-106,106]",up,1,,,,,,001,2025-03-17_14h18.00.808,SL_base,2021.2.3,Win32,59.88023952,0.8512,,,41,0,41,0,1,,,,,,,,
,,"[""diamond"",""no_dis"",""hori"",""left"",[99999,99999],[0,-150]]",diamond,no_dis,hori,left,"[99999,99999]","[0,-150]",left,1,,,,,,001,2025-03-17_14h18.00.808,SL_base,2021.2.3,Win32,59.88023952,1.2964,,,42,0,42,0,1,,,,,,,,
,,"[""diamond"",""no_dis"",""vert"",""up"",[99999,99999],[-106,-106]]",diamond,no_dis,vert,up,"[99999,99999]","[-106,-106]",up,1,,,,,,001,2025-03-17_14h18.00.808,SL_base,2021.2.3,Win32,59.88023952,1.133,,,43,0,43,0,1,,,,,,,,
,,"[""diamond"",""red"",""hori"",""left"",[106,-106],[106,106]]",diamond,red,hori,left,"[106,-106]","[106,106]",left,1,,,,,,001,2025-03-17_14h18.00.808,SL_base,2021.2.3,Win32,59.88023952,1.6297,,,44,0,44,0,1,,,,,,,,
,,"[""diamond"",""no_dis"",""hori"",""left"",[99999,99999],[-106,106]]",diamond,no_dis,hori,left,"[99999,99999]","[-106,106]",left,1,,,,,,001,2025-03-17_14h18.00.808,SL_base,2021.2.3,Win32,59.88023952,0.8169,,,45,0,45,0,1,,,,,,,,
,,"[""diamond"",""red"",""vert"",""up"",[106,-106],[-106,106]]",diamond,red,vert,up,"[106,-106]","[-106,106]",up,1,,,,,,001,2025-03-17_14h18.00.808,SL_base,2021.2.3,Win32,59.88023952,1.2336,,,46,0,46,0,1,,,,,,,,
,,"[""diamond"",""red"",""vert"",""up"",[150,0],[-106,106]]",diamond,red,vert,up,"[150,0]","[-106,106]",up,1,,,,,,001,2025-03-17_14h18.00.808,SL_base,2021.2.3,Win32,59.88023952,0.948,,,47,0,47,0,1,,,,,,,,
,,"[""diamond"",""green"",""vert"",""up"",[106,106],[0,150]]",diamond,green,vert,up,"[106,106]","[0,150]",up,1,,,,,,001,2025-03-17_14h18.00.808,SL_base,2021.2.3,Win32,59.88023952,0.9837,,,48,0,48,0,1,,,,,,,,
,,"[""diamond"",""red"",""hori"",""left"",[-106,106],[150,0]]",diamond,red,hori,left,"[-106,106]","[150,0]",left,1,,,,,,001,2025-03-17_14h18.00.808,SL_base,2021.2.3,Win32,59.88023952,1.0925,,,49,0,49,0,1,,,,,,,,
,,"[""circle"",""green"",""hori"",""left"",[0,-150],[106,106]]",circle,green,hori,left,"[0,-150]","[106,106]",left,1,,,,,,001,2025-03-17_14h18.00.808,SL_base,2021.2.3,Win32,59.88023952,1.2996,,,50,0,50,0,1,,,,,,,,
,,"[""circle"",""no_dis"",""vert"",""up"",[99999,99999],[-106,106]]",circle,no_dis,vert,up,"[99999,99999]","[-106,106]",up,1,,,,,,001,2025-03-17_14h18.00.808,SL_base,2021.2.3,Win32,59.88023952,0.9852,,,51,0,51,0,1,,,,,,,,
,,"[""diamond"",""no_dis"",""vert"",""up"",[99999,99999],[0,150]]",diamond,no_dis,vert,up,"[99999,99999]","[0,150]",up,1,,,,,,001,2025-03-17_14h18.00.808,SL_base,2021.2.3,Win32,59.88023952,1.3,,,52,0,52,0,1,,,,,,,,
,,"[""diamond"",""no_dis"",""hori"",""left"",[99999,99999],[106,-106]]",diamond,no_dis,hori,left,"[99999,99999]","[106,-106]",left,1,,,,,,001,2025-03-17_14h18.00.808,SL_base,2021.2.3,Win32,59.88023952,1.0031,,,53,0,53,0,1,,,,,,,,
,,"[""diamond"",""green"",""hori"",""left"",[-106,-106],[-150,0]]",diamond,green,hori,left,"[-106,-106]","[-150,0]",left,1,,,,,,001,2025-03-17_14h18.00.808,SL_base,2021.2.3,Win32,59.88023952,0.9002,,,54,0,54,0,1,,,,,,,,
,,"[""circle"",""no_dis"",""hori"",""left"",[99999,99999],[0,-150]]",circle,no_dis,hori,left,"[99999,99999]","[0,-150]",left,1,,,,,,001,2025-03-17_14h18.00.808,SL_base,2021.2.3,Win32,59.88023952,2.0187,,,55,0,55,0,1,,,,,,,,
,,"[""diamond"",""green"",""vert"",""up"",[106,106],[150,0]]",diamond,green,vert,up,"[106,106]","[150,0]",up,1,,,,,,001,2025-03-17_14h18.00.808,SL_base,2021.2.3,Win32,59.88023952,0.774,,,56,0,56,0,1,,,,,,,,
,,"[""diamond"",""no_dis"",""vert"",""up"",[99999,99999],[0,-150]]",diamond,no_dis,vert,up,"[99999,99999]","[0,-150]",up,1,,,,,,001,2025-03-17_14h18.00.808,SL_base,2021.2.3,Win32,59.88023952,0.9337,,,57,0,57,0,1,,,,,,,,
,,"[""circle"",""red"",""vert"",""up"",[-106,106],[0,-150]]",circle,red,vert,up,"[-106,106]","[0,-150]",up,1,,,,,,001,2025-03-17_14h18.00.808,SL_base,2021.2.3,Win32,59.88023952,1.1013,,,58,0,58,0,1,,,,,,,,
,,"[""circle"",""red"",""vert"",""up"",[-150,0],[-106,-106]]",circle,red,vert,up,"[-150,0]","[-106,-106]",up,1,,,,,,001,2025-03-17_14h18.00.808,SL_base,2021.2.3,Win32,59.88023952,1.8196,,,59,0,59,0,1,,,,,,,,
,,"[""circle"",""red"",""hori"",""left"",[106,-106],[-106,106]]",circle,red,hori,left,"[106,-106]","[-106,106]",left,1,,,,,,001,2025-03-17_14h18.00.808,SL_base,2021.2.3,Win32,59.88023952,1.4759,,,60,0,60,0,1,,,,,,,,
,,"[""circle"",""green"",""vert"",""up"",[0,-150],[0,150]]",circle,green,vert,up,"[0,-150]","[0,150]",up,1,,,,,,001,2025-03-17_14h18.00.808,SL_base,2021.2.3,Win32,59.88023952,1.3691,,,61,0,61,0,1,,,,,,,,
,,"[""diamond"",""red"",""hori"",""left"",[150,0],[106,106]]",diamond,red,hori,left,"[150,0]","[106,106]",left,1,,,,,,001,2025-03-17_14h18.00.808,SL_base,2021.2.3,Win32,59.88023952,1.0493,,,62,0,62,0,1,,,,,,,,
,,"[""circle"",""red"",""vert"",""up"",[-106,-106],[106,106]]",circle,red,vert,up,"[-106,-106]","[106,106]",up,1,,,,,,001,2025-03-17_14h18.00.808,SL_base,2021.2.3,Win32,59.88023952,1.7673,,,63,0,63,0,1,,,,,,,,
,,"[""circle"",""red"",""vert"",""up"",[0,-150],[106,-106]]",circle,red,vert,up,"[0,-150]","[106,-106]",up,1,,,,,,001,2025-03-17_14h18.00.808,SL_base,2021.2.3,Win32,59.88023952,0.8446,,,64,0,64,0,1,,,,,,,,
,,"[""diamond"",""no_dis"",""vert"",""up"",[99999,99999],[106,-106]]",diamond,no_dis,vert,up,"[99999,99999]","[106,-106]",up,1,,,,,,001,2025-03-17_14h18.00.808,SL_base,2021.2.3,Win32,59.88023952,1.4877,,,65,0,65,0,1,,,,,,,,
,,"[""diamond"",""green"",""vert"",""up"",[-106,-106],[0,150]]",diamond,green,vert,up,"[-106,-106]","[0,150]",up,1,,,,,,001,2025-03-17_14h18.00.808,SL_base,2021.2.3,Win32,59.88023952,0.979,,,66,0,66,0,1,,,,,,,,
,,"[""circle"",""no_dis"",""hori"",""left"",[99999,99999],[106,-106]]",circle,no_dis,hori,left,"[99999,99999]","[106,-106]",left,1,,,,,,001,2025-03-17_14h18.00.808,SL_base,2021.2.3,Win32,59.88023952,0.8832,,,67,0,67,0,1,,,,,,,,
,,"[""circle"",""no_dis"",""vert"",""up"",[99999,99999],[0,-150]]",circle,no_dis,vert,up,"[99999,99999]","[0,-150]",up,1,,,,,,001,2025-03-17_14h18.00.808,SL_base,2021.2.3,Win32,59.88023952,1.0849,,,68,0,68,0,1,,,,,,,,
,,"[""circle"",""red"",""hori"",""left"",[106,106],[106,-106]]",circle,red,hori,left,"[106,106]","[106,-106]",left,1,,,,,,001,2025-03-17_14h18.00.808,SL_base,2021.2.3,Win32,59.88023952,0.8555,,,69,0,69,0,1,,,,,,,,
,,"[""diamond"",""no_dis"",""hori"",""left"",[99999,99999],[-106,106]]",diamond,no_dis,hori,left,"[99999,99999]","[-106,106]",left,1,,,,,,001,2025-03-17_14h18.00.808,SL_base,2021.2.3,Win32,59.88023952,0.817,,,70,0,70,0,1,,,,,,,,
,,"[""diamond"",""no_dis"",""vert"",""up"",[99999,99999],[106,106]]",diamond,no_dis,vert,up,"[99999,99999]","[106,106]",up,1,,,,,,001,2025-03-17_14h18.00.808,SL_base,2021.2.3,Win32,59.88023952,0.8022,,,71,0,71,0,1,,,,,,,,
,,"[""diamond"",""red"",""vert"",""up"",[-106,106],[150,0]]",diamond,red,vert,up,"[-106,106]","[150,0]",up,1,,,,,,001,2025-03-17_14h18.00.808,SL_base,2021.2.3,Win32,59.88023952,0.7414,,,72,0,72,0,1,,,,,,,,
,,"[""diamond"",""green"",""hori"",""left"",[150,0],[-106,106]]",diamond,green,hori,left,"[150,0]","[-106,106]",left,1,,,,,,001,2025-03-17_14h18.00.808,SL_base,2021.2.3,Win32,59.88023952,0.699,,,73,0,73,0,1,,,,,,,,
,,"[""diamond"",""red"",""vert"",""up"",[0,150],[0,-150]]",diamond,red,vert,up,"[0,150]","[0,-150]",up,1,,,,,,001,2025-03-17_14h18.00.808,SL_base,2021.2.3,Win32,59.88023952,1.4032,,,74,0,74,0,1,,,,,,,,
,,"[""circle"",""red"",""hori"",""left"",[106,-106],[0,150]]",circle,red,hori,left,"[106,-106]","[0,150]",up,0,,,,,,001,2025-03-17_14h18.00.808,SL_base,2021.2.3,Win32,59.88023952,0.6986,,,75,0,75,0,1,,,,,,,,
,,"[""diamond"",""red"",""vert"",""up"",[106,-106],[0,-150]]",diamond,red,vert,up,"[106,-106]","[0,-150]",up,1,,,,,,001,2025-03-17_14h18.00.808,SL_base,2021.2.3,Win32,59.88023952,1.0099,,,76,0,76,0,1,,,,,,,,
,,"[""circle"",""no_dis"",""hori"",""left"",[99999,99999],[106,106]]",circle,no_dis,hori,left,"[99999,99999]","[106,106]",left,1,,,,,,001,2025-03-17_14h18.00.808,SL_base,2021.2.3,Win32,59.88023952,0.85,,,77,0,77,0,1,,,,,,,,
,,"[""circle"",""red"",""vert"",""up"",[106,106],[-106,106]]",circle,red,vert,up,"[106,106]","[-106,106]",up,1,,,,,,001,2025-03-17_14h18.00.808,SL_base,2021.2.3,Win32,59.88023952,0.7338,,,78,0,78,0,1,,,,,,,,
,,"[""circle"",""no_dis"",""hori"",""left"",[99999,99999],[106,106]]",circle,no_dis,hori,left,"[99999,99999]","[106,106]",left,1,,,,,,001,2025-03-17_14h18.00.808,SL_base,2021.2.3,Win32,59.88023952,0.7747,,,79,0,79,0,1,,,,,,,,
,,"[""diamond"",""green"",""vert"",""up"",[-106,106],[-150,0]]",diamond,green,vert,up,"[-106,106]","[-150,0]",up,1,,,,,,001,2025-03-17_14h18.00.808,SL_base,2021.2.3,Win32,59.88023952,1.0009,,,80,0,80,0,1,,,,,,,,
,,"[""circle"",""green"",""vert"",""up"",[-106,106],[0,-150]]",circle,green,vert,up,"[-106,106]","[0,-150]",up,1,,,,,,001,2025-03-17_14h18.00.808,SL_base,2021.2.3,Win32,59.88023952,1.6332,,,81,0,81,0,1,,,,,,,,
,,"[""diamond"",""no_dis"",""hori"",""left"",[99999,99999],[106,-106]]",diamond,no_dis,hori,left,"[99999,99999]","[106,-106]",left,1,,,,,,001,2025-03-17_14h18.00.808,SL_base,2021.2.3,Win32,59.88023952,0.8833,,,82,0,82,0,1,,,,,,,,
,,"[""circle"",""red"",""vert"",""up"",[0,-150],[150,0]]",circle,red,vert,up,"[0,-150]","[150,0]",up,1,,,,,,001,2025-03-17_14h18.00.808,SL_base,2021.2.3,Win32,59.88023952,0.9978,,,83,0,83,0,1,,,,,,,,
,,"[""diamond"",""red"",""hori"",""left"",[-150,0],[106,106]]",diamond,red,hori,left,"[-150,0]","[106,106]",left,1,,,,,,001,2025-03-17_14h18.00.808,SL_base,2021.2.3,Win32,59.88023952,0.985,,,84,0,84,0,1,,,,,,,,
,,"[""circle"",""green"",""hori"",""left"",[0,150],[106,106]]",circle,green,hori,left,"[0,150]","[106,106]",left,1,,,,,,001,2025-03-17_14h18.00.808,SL_base,2021.2.3,Win32,59.88023952,2.4829,,,85,0,85,0,1,,,,,,,,
,,"[""circle"",""green"",""vert"",""up"",[-150,0],[-106,-106]]",circle,green,vert,up,"[-150,0]","[-106,-106]",up,1,,,,,,001,2025-03-17_14h18.00.808,SL_base,2021.2.3,Win32,59.88023952,0.9072,,,86,0,86,0,1,,,,,,,,
,,"[""diamond"",""red"",""hori"",""left"",[-106,106],[-106,-106]]",diamond,red,hori,left,"[-106,106]","[-106,-106]",left,1,,,,,,001,2025-03-17_14h18.00.808,SL_base,2021.2.3,Win32,59.88023952,0.9667,,,87,0,87,0,1,,,,,,,,
,,"[""circle"",""no_dis"",""hori"",""left"",[99999,99999],[-106,106]]",circle,no_dis,hori,left,"[99999,99999]","[-106,106]",left,1,,,,,,001,2025-03-17_14h18.00.808,SL_base,2021.2.3,Win32,59.88023952,1.6002,,,88,0,88,0,1,,,,,,,,
,,"[""diamond"",""no_dis"",""vert"",""up"",[99999,99999],[0,150]]",diamond,no_dis,vert,up,"[99999,99999]","[0,150]",up,1,,,,,,001,2025-03-17_14h18.00.808,SL_base,2021.2.3,Win32,59.88023952,1.2659,,,89,0,89,0,1,,,,,,,,
,,"[""circle"",""red"",""hori"",""left"",[-106,106],[150,0]]",circle,red,hori,left,"[-106,106]","[150,0]",left,1,,,,,,001,2025-03-17_14h18.00.808,SL_base,2021.2.3,Win32,59.88023952,0.6669,,,90,0,90,0,1,,,,,,,,
,,"[""diamond"",""green"",""vert"",""up"",[0,150],[0,-150]]",diamond,green,vert,up,"[0,150]","[0,-150]",up,1,,,,,,001,2025-03-17_14h18.00.808,SL_base,2021.2.3,Win32,59.88023952,1.1842,,,91,0,91,0,1,,,,,,,,
,,"[""diamond"",""green"",""hori"",""left"",[-106,106],[0,150]]",diamond,green,hori,left,"[-106,106]","[0,150]",left,1,,,,,,001,2025-03-17_14h18.00.808,SL_base,2021.2.3,Win32,59.88023952,0.7334,,,92,0,92,0,1,,,,,,,,
,,"[""diamond"",""no_dis"",""vert"",""up"",[99999,99999],[0,150]]",diamond,no_dis,vert,up,"[99999,99999]","[0,150]",up,1,,,,,,001,2025-03-17_14h18.00.808,SL_base,2021.2.3,Win32,59.88023952,0.7502,,,93,0,93,0,1,,,,,,,,
,,"[""circle"",""green"",""hori"",""left"",[0,150],[-106,-106]]",circle,green,hori,left,"[0,150]","[-106,-106]",left,1,,,,,,001,2025-03-17_14h18.00.808,SL_base,2021.2.3,Win32,59.88023952,0.746,,,94,0,94,0,1,,,,,,,,
,,"[""circle"",""red"",""vert"",""up"",[0,-150],[106,106]]",circle,red,vert,up,"[0,-150]","[106,106]",up,1,,,,,,001,2025-03-17_14h18.00.808,SL_base,2021.2.3,Win32,59.88023952,1.2059,,,95,0,95,0,1,,,,,,,,
,,"[""circle"",""green"",""vert"",""up"",[-106,-106],[0,-150]]",circle,green,vert,up,"[-106,-106]","[0,-150]",up,1,,,,,,001,2025-03-17_14h18.00.808,SL_base,2021.2.3,Win32,59.88023952,1.7197,,,96,0,96,0,1,,,,,,,,
,,"[""circle"",""no_dis"",""vert"",""up"",[99999,99999],[150,0]]",circle,no_dis,vert,up,"[99999,99999]","[150,0]",up,1,,,,,,001,2025-03-17_14h18.00.808,SL_base,2021.2.3,Win32,59.88023952,0.5667,,,97,0,97,0,1,,,,,,,,
,,"[""diamond"",""green"",""vert"",""up"",[150,0],[-150,0]]",diamond,green,vert,up,"[150,0]","[-150,0]",left,0,,,,,,001,2025-03-17_14h18.00.808,SL_base,2021.2.3,Win32,59.88023952,0.7745,,,98,0,98,0,1,,,,,,,,
,,"[""diamond"",""green"",""vert"",""up"",[106,106],[-106,-106]]",diamond,green,vert,up,"[106,106]","[-106,-106]",up,1,,,,,,001,2025-03-17_14h18.00.808,SL_base,2021.2.3,Win32,59.88023952,1.4787,,,99,0,99,0,1,,,,,,,,
,,"[""diamond"",""red"",""hori"",""left"",[-106,106],[150,0]]",diamond,red,hori,left,"[-106,106]","[150,0]",left,1,,,,,,001,2025-03-17_14h18.00.808,SL_base,2021.2.3,Win32,59.88023952,0.6471,,,100,0,100,0,1,,,,,,,,
,,"[""diamond"",""red"",""hori"",""left"",[-106,106],[0,150]]",diamond,red,hori,left,"[-106,106]","[0,150]",left,1,,,,,,001,2025-03-17_14h18.00.808,SL_base,2021.2.3,Win32,59.88023952,0.8505,,,101,0,101,0,1,,,,,,,,
,,"[""circle"",""red"",""hori"",""left"",[-106,-106],[0,150]]",circle,red,hori,left,"[-106,-106]","[0,150]",left,1,,,,,,001,2025-03-17_14h18.00.808,SL_base,2021.2.3,Win32,59.88023952,1.153,,,102,0,102,0,1,,,,,,,,
,,"[""circle"",""no_dis"",""vert"",""up"",[99999,99999],[150,0]]",circle,no_dis,vert,up,"[99999,99999]","[150,0]",up,1,,,,,,001,2025-03-17_14h18.00.808,SL_base,2021.2.3,Win32,59.88023952,0.7669,,,103,0,103,0,1,,,,,,,,
,,"[""diamond"",""no_dis"",""hori"",""left"",[99999,99999],[150,0]]",diamond,no_dis,hori,left,"[99999,99999]","[150,0]",left,1,,,,,,001,2025-03-17_14h18.00.808,SL_base,2021.2.3,Win32,59.88023952,0.91,,,104,0,104,0,1,,,,,,,,
,,"[""diamond"",""red"",""hori"",""left"",[-106,106],[106,106]]",diamond,red,hori,left,"[-106,106]","[106,106]",left,1,,,,,,001,2025-03-17_14h18.00.808,SL_base,2021.2.3,Win32,59.88023952,1.967,,,105,0,105,0,1,,,,,,,,
,,"[""circle"",""red"",""hori"",""left"",[-150,0],[150,0]]",circle,red,hori,left,"[-150,0]","[150,0]",left,1,,,,,,001,2025-03-17_14h18.00.808,SL_base,2021.2.3,Win32,59.88023952,0.7462,,,106,0,106,0,1,,,,,,,,
,,"[""circle"",""red"",""vert"",""up"",[-150,0],[0,150]]",circle,red,vert,up,"[-150,0]","[0,150]",up,1,,,,,,001,2025-03-17_14h18.00.808,SL_base,2021.2.3,Win32,59.88023952,1.0233,,,107,0,107,0,1,,,,,,,,
,,"[""circle"",""green"",""vert"",""up"",[-106,-106],[0,-150]]",circle,green,vert,up,"[-106,-106]","[0,-150]",up,1,,,,,,001,2025-03-17_14h18.00.808,SL_base,2021.2.3,Win32,59.88023952,1.3999,,,108,0,108,0,1,,,,,,,,
,,"[""circle"",""green"",""hori"",""left"",[106,106],[0,150]]",circle,green,hori,left,"[106,106]","[0,150]",left,1,,,,,,001,2025-03-17_14h18.00.808,SL_base,2021.2.3,Win32,59.88023952,1.2003,,,109,0,109,0,1,,,,,,,,
,,"[""diamond"",""green"",""vert"",""up"",[-106,106],[106,106]]",diamond,green,vert,up,"[-106,106]","[106,106]",up,1,,,,,,001,2025-03-17_14h18.00.808,SL_base,2021.2.3,Win32,59.88023952,1.3668,,,110,0,110,0,1,,,,,,,,
,,"[""circle"",""red"",""vert"",""up"",[0,150],[106,106]]",circle,red,vert,up,"[0,150]","[106,106]",up,1,,,,,,001,2025-03-17_14h18.00.808,SL_base,2021.2.3,Win32,59.88023952,1.1596,,,111,0,111,0,1,,,,,,,,
,,"[""circle"",""green"",""vert"",""up"",[150,0],[-150,0]]",circle,green,vert,up,"[150,0]","[-150,0]",up,1,,,,,,001,2025-03-17_14h18.00.808,SL_base,2021.2.3,Win32,59.88023952,1.4171,,,112,0,112,0,1,,,,,,,,
,,"[""diamond"",""red"",""vert"",""up"",[150,0],[106,106]]",diamond,red,vert,up,"[150,0]","[106,106]",up,1,,,,,,001,2025-03-17_14h18.00.808,SL_base,2021.2.3,Win32,59.88023952,1.119,,,113,0,113,0,1,,,,,,,,
,,"[""diamond"",""green"",""hori"",""left"",[-150,0],[-106,-106]]",diamond,green,hori,left,"[-150,0]","[-106,-106]",left,1,,,,,,001,2025-03-17_14h18.00.808,SL_base,2021.2.3,Win32,59.88023952,0.967,,,114,0,114,0,1,,,,,,,,
,,"[""diamond"",""red"",""hori"",""left"",[-106,106],[-106,-106]]",diamond,red,hori,left,"[-106,106]","[-106,-106]",left,1,,,,,,001,2025-03-17_14h18.00.808,SL_base,2021.2.3,Win32,59.88023952,0.9161,,,115,0,115,0,1,,,,,,,,
,,"[""circle"",""green"",""vert"",""up"",[-106,106],[-150,0]]",circle,green,vert,up,"[-106,106]","[-150,0]",up,1,,,,,,001,2025-03-17_14h18.00.808,SL_base,2021.2.3,Win32,59.88023952,1.2153,,,116,0,116,0,1,,,,,,,,
,,"[""circle"",""red"",""vert"",""up"",[-106,106],[0,150]]",circle,red,vert,up,"[-106,106]","[0,150]",up,1,,,,,,001,2025-03-17_14h18.00.808,SL_base,2021.2.3,Win32,59.88023952,1.1501,,,117,0,117,0,1,,,,,,,,
,,"[""diamond"",""green"",""hori"",""left"",[0,-150],[-150,0]]",diamond,green,hori,left,"[0,-150]","[-150,0]",left,1,,,,,,001,2025-03-17_14h18.00.808,SL_base,2021.2.3,Win32,59.88023952,0.9999,,,118,0,118,0,1,,,,,,,,
,,"[""diamond"",""no_dis"",""hori"",""left"",[99999,99999],[0,-150]]",diamond,no_dis,hori,left,"[99999,99999]","[0,-150]",left,1,,,,,,001,2025-03-17_14h18.00.808,SL_base,2021.2.3,Win32,59.88023952,0.8482,,,119,0,119,0,1,,,,,,,,
,,,,,,,,,,,,,,,,001,2025-03-17_14h18.00.808,SL_base,2021.2.3,Win32,59.88023952,,,,,,,,,2,space,1.5262,1,0,1,0,1
,,"[""diamond"",""red"",""vert"",""up"",[0,150],[0,-150]]",diamond,red,vert,up,"[0,150]","[0,-150]",up,1,,,,,,001,2025-03-17_14h18.00.808,SL_base,2021.2.3,Win32,59.88023952,1.1169,,,0,0,0,0,1,,,,,,,,
,,"[""diamond"",""green"",""hori"",""left"",[-106,106],[0,150]]",diamond,green,hori,left,"[-106,106]","[0,150]",left,1,,,,,,001,2025-03-17_14h18.00.808,SL_base,2021.2.3,Win32,59.88023952,0.693,,,1,0,1,0,1,,,,,,,,
,,"[""diamond"",""red"",""vert"",""up"",[-106,106],[0,150]]",diamond,red,vert,up,"[-106,106]","[0,150]",up,1,,,,,,001,2025-03-17_14h18.00.808,SL_base,2021.2.3,Win32,59.88023952,1.1522,,,2,0,2,0,1,,,,,,,,
,,"[""diamond"",""green"",""hori"",""left"",[106,106],[-106,-106]]",diamond,green,hori,left,"[106,106]","[-106,-106]",left,1,,,,,,001,2025-03-17_14h18.00.808,SL_base,2021.2.3,Win32,59.88023952,0.8664,,,3,0,3,0,1,,,,,,,,
,,"[""diamond"",""no_dis"",""vert"",""up"",[99999,99999],[0,150]]",diamond,no_dis,vert,up,"[99999,99999]","[0,150]",up,1,,,,,,001,2025-03-17_14h18.00.808,SL_base,2021.2.3,Win32,59.88023952,0.9214,,,4,0,4,0,1,,,,,,,,
,,"[""circle"",""green"",""hori"",""left"",[0,150],[106,106]]",circle,green,hori,left,"[0,150]","[106,106]",left,1,,,,,,001,2025-03-17_14h18.00.808,SL_base,2021.2.3,Win32,59.88023952,1.0996,,,5,0,5,0,1,,,,,,,,
,,"[""diamond"",""no_dis"",""vert"",""up"",[99999,99999],[106,106]]",diamond,no_dis,vert,up,"[99999,99999]","[106,106]",up,1,,,,,,001,2025-03-17_14h18.00.808,SL_base,2021.2.3,Win32,59.88023952,0.6936,,,6,0,6,0,1,,,,,,,,
,,"[""diamond"",""green"",""vert"",""up"",[0,150],[0,-150]]",diamond,green,vert,up,"[0,150]","[0,-150]",up,1,,,,,,001,2025-03-17_14h18.00.808,SL_base,2021.2.3,Win32,59.88023952,1.1148,,,7,0,7,0,1,,,,,,,,
,,"[""diamond"",""red"",""vert"",""up"",[150,0],[106,106]]",diamond,red,vert,up,"[150,0]","[106,106]",up,1,,,,,,001,2025-03-17_14h18.00.808,SL_base,2021.2.3,Win32,59.88023952,0.8074,,,8,0,8,0,1,,,,,,,,
,,"[""diamond"",""red"",""vert"",""up"",[106,-106],[-106,106]]",diamond,red,vert,up,"[106,-106]","[-106,106]",up,1,,,,,,001,2025-03-17_14h18.00.808,SL_base,2021.2.3,Win32,59.88023952,0.7004,,,9,0,9,0,1,,,,,,,,
,,"[""diamond"",""no_dis"",""hori"",""left"",[99999,99999],[106,-106]]",diamond,no_dis,hori,left,"[99999,99999]","[106,-106]",left,1,,,,,,001,2025-03-17_14h18.00.808,SL_base,2021.2.3,Win32,59.88023952,1.0999,,,10,0,10,0,1,,,,,,,,
,,"[""diamond"",""green"",""vert"",""up"",[106,106],[0,150]]",diamond,green,vert,up,"[106,106]","[0,150]",up,1,,,,,,001,2025-03-17_14h18.00.808,SL_base,2021.2.3,Win32,59.88023952,0.883,,,11,0,11,0,1,,,,,,,,
,,"[""circle"",""red"",""hori"",""left"",[106,-106],[0,-150]]",circle,red,hori,left,"[106,-106]","[0,-150]",left,1,,,,,,001,2025-03-17_14h18.00.808,SL_base,2021.2.3,Win32,59.88023952,1.3502,,,12,0,12,0,1,,,,,,,,
,,"[""circle"",""no_dis"",""hori"",""left"",[99999,99999],[106,106]]",circle,no_dis,hori,left,"[99999,99999]","[106,106]",left,1,,,,,,001,2025-03-17_14h18.00.808,SL_base,2021.2.3,Win32,59.88023952,0.6847,,,13,0,13,0,1,,,,,,,,
,,"[""circle"",""no_dis"",""vert"",""up"",[99999,99999],[0,-150]]",circle,no_dis,vert,up,"[99999,99999]","[0,-150]",up,1,,,,,,001,2025-03-17_14h18.00.808,SL_base,2021.2.3,Win32,59.88023952,0.9535,,,14,0,14,0,1,,,,,,,,
,,"[""diamond"",""red"",""hori"",""left"",[-150,0],[106,106]]",diamond,red,hori,left,"[-150,0]","[106,106]",left,1,,,,,,001,2025-03-17_14h18.00.808,SL_base,2021.2.3,Win32,59.88023952,1.0485,,,15,0,15,0,1,,,,,,,,
,,"[""diamond"",""no_dis"",""vert"",""up"",[99999,99999],[-106,-106]]",diamond,no_dis,vert,up,"[99999,99999]","[-106,-106]",up,1,,,,,,001,2025-03-17_14h18.00.808,SL_base,2021.2.3,Win32,59.88023952,1.2005,,,16,0,16,0,1,,,,,,,,
,,"[""circle"",""green"",""vert"",""up"",[-106,106],[106,106]]",circle,green,vert,up,"[-106,106]","[106,106]",up,1,,,,,,001,2025-03-17_14h18.00.808,SL_base,2021.2.3,Win32,59.88023952,1.4016,,,17,0,17,0,1,,,,,,,,
,,"[""circle"",""green"",""hori"",""left"",[-106,106],[-106,-106]]",circle,green,hori,left,"[-106,106]","[-106,-106]",left,1,,,,,,001,2025-03-17_14h18.00.808,SL_base,2021.2.3,Win32,59.88023952,1.1593,,,18,0,18,0,1,,,,,,,,
,,"[""diamond"",""green"",""vert"",""up"",[-106,106],[-150,0]]",diamond,green,vert,up,"[-106,106]","[-150,0]",up,1,,,,,,001,2025-03-17_14h18.00.808,SL_base,2021.2.3,Win32,59.88023952,0.8842,,,19,0,19,0,1,,,,,,,,
,,"[""circle"",""green"",""hori"",""left"",[0,150],[-106,-106]]",circle,green,hori,left,"[0,150]","[-106,-106]",left,1,,,,,,001,2025-03-17_14h18.00.808,SL_base,2021.2.3,Win32,59.88023952,0.8114,,,20,0,20,0,1,,,,,,,,
,,"[""diamond"",""red"",""hori"",""left"",[-106,106],[0,150]]",diamond,red,hori,left,"[-106,106]","[0,150]",left,1,,,,,,001,2025-03-17_14h18.00.808,SL_base,2021.2.3,Win32,59.88023952,0.8425,,,21,0,21,0,1,,,,,,,,
,,"[""circle"",""no_dis"",""hori"",""left"",[99999,99999],[-106,-106]]",circle,no_dis,hori,left,"[99999,99999]","[-106,-106]",up,0,,,,,,001,2025-03-17_14h18.00.808,SL_base,2021.2.3,Win32,59.88023952,1.1343,,,22,0,22,0,1,,,,,,,,
,,"[""circle"",""red"",""vert"",""up"",[106,106],[-106,106]]",circle,red,vert,up,"[106,106]","[-106,106]",up,1,,,,,,001,2025-03-17_14h18.00.808,SL_base,2021.2.3,Win32,59.88023952,1,,,23,0,23,0,1,,,,,,,,
,,"[""circle"",""red"",""vert"",""up"",[0,-150],[150,0]]",circle,red,vert,up,"[0,-150]","[150,0]",up,1,,,,,,001,2025-03-17_14h18.00.808,SL_base,2021.2.3,Win32,59.88023952,0.793,,,24,0,24,0,1,,,,,,,,
,,"[""diamond"",""green"",""hori"",""left"",[0,150],[-106,106]]",diamond,green,hori,left,"[0,150]","[-106,106]",left,1,,,,,,001,2025-03-17_14h18.00.808,SL_base,2021.2.3,Win32,59.88023952,0.8002,,,25,0,25,0,1,,,,,,,,
,,"[""diamond"",""red"",""hori"",""left"",[-106,106],[150,0]]",diamond,red,hori,left,"[-106,106]","[150,0]",left,1,,,,,,001,2025-03-17_14h18.00.808,SL_base,2021.2.3,Win32,59.88023952,0.6362,,,26,0,26,0,1,,,,,,,,
,,"[""diamond"",""green"",""vert"",""up"",[106,106],[-106,-106]]",diamond,green,vert,up,"[106,106]","[-106,-106]",up,1,,,,,,001,2025-03-17_14h18.00.808,SL_base,2021.2.3,Win32,59.88023952,0.8013,,,27,0,27,0,1,,,,,,,,
,,"[""diamond"",""no_dis"",""vert"",""up"",[99999,99999],[0,-150]]",diamond,no_dis,vert,up,"[99999,99999]","[0,-150]",up,1,,,,,,001,2025-03-17_14h18.00.808,SL_base,2021.2.3,Win32,59.88023952,0.8501,,,28,0,28,0,1,,,,,,,,
,,"[""diamond"",""red"",""vert"",""up"",[106,-106],[0,-150]]",diamond,red,vert,up,"[106,-106]","[0,-150]",up,1,,,,,,001,2025-03-17_14h18.00.808,SL_base,2021.2.3,Win32,59.88023952,1.1238,,,29,0,29,0,1,,,,,,,,
,,"[""circle"",""no_dis"",""hori"",""left"",[99999,99999],[106,-106]]",circle,no_dis,hori,left,"[99999,99999]","[106,-106]",left,1,,,,,,001,2025-03-17_14h18.00.808,SL_base,2021.2.3,Win32,59.88023952,0.7676,,,30,0,30,0,1,,,,,,,,
,,"[""circle"",""red"",""hori"",""left"",[-106,106],[106,106]]",circle,red,hori,left,"[-106,106]","[106,106]",left,1,,,,,,001,2025-03-17_14h18.00.808,SL_base,2021.2.3,Win32,59.88023952,0.7171,,,31,0,31,0,1,,,,,,,,
,,"[""diamond"",""green"",""hori"",""left"",[-106,106],[0,150]]",diamond,green,hori,left,"[-106,106]","[0,150]",left,1,,,,,,001,2025-03-17_14h18.00.808,SL_base,2021.2.3,Win32,59.88023952,1.5528,,,32,0,32,0,1,,,,,,,,
,,"[""diamond"",""green"",""vert"",""up"",[-150,0],[-106,106]]",diamond,green,vert,up,"[-150,0]","[-106,106]",up,1,,,,,,001,2025-03-17_14h18.00.808,SL_base,2021.2.3,Win32,59.88023952,0.8094,,,33,0,33,0,1,,,,,,,,
,,"[""diamond"",""red"",""hori"",""left"",[-106,106],[106,106]]",diamond,red,hori,left,"[-106,106]","[106,106]",left,1,,,,,,001,2025-03-17_14h18.00.808,SL_base,2021.2.3,Win32,59.88023952,0.7168,,,34,0,34,0,1,,,,,,,,
,,"[""diamond"",""no_dis"",""hori"",""left"",[99999,99999],[-106,106]]",diamond,no_dis,hori,left,"[99999,99999]","[-106,106]",left,1,,,,,,001,2025-03-17_14h18.00.808,SL_base,2021.2.3,Win32,59.88023952,0.9036,,,35,0,35,0,1,,,,,,,,
,,"[""diamond"",""green"",""hori"",""left"",[-150,0],[-106,-106]]",diamond,green,hori,left,"[-150,0]","[-106,-106]",left,1,,,,,,001,2025-03-17_14h18.00.808,SL_base,2021.2.3,Win32,59.88023952,0.9004,,,36,0,36,0,1,,,,,,,,
,,"[""circle"",""no_dis"",""hori"",""left"",[99999,99999],[0,-150]]",circle,no_dis,hori,left,"[99999,99999]","[0,-150]",left,1,,,,,,001,2025-03-17_14h18.00.808,SL_base,2021.2.3,Win32,59.88023952,1.133,,,37,0,37,0,1,,,,,,,,
,,"[""circle"",""green"",""hori"",""left"",[-106,-106],[-150,0]]",circle,green,hori,left,"[-106,-106]","[-150,0]",left,1,,,,,,001,2025-03-17_14h18.00.808,SL_base,2021.2.3,Win32,59.88023952,1.2002,,,38,0,38,0,1,,,,,,,,
,,"[""circle"",""green"",""vert"",""up"",[0,-150],[0,150]]",circle,green,vert,up,"[0,-150]","[0,150]",up,1,,,,,,001,2025-03-17_14h18.00.808,SL_base,2021.2.3,Win32,59.88023952,1.1827,,,39,0,39,0,1,,,,,,,,
,,"[""diamond"",""red"",""hori"",""left"",[-106,106],[-106,-106]]",diamond,red,hori,left,"[-106,106]","[-106,-106]",left,1,,,,,,001,2025-03-17_14h18.00.808,SL_base,2021.2.3,Win32,59.88023952,1.016,,,40,0,40,0,1,,,,,,,,
,,"[""circle"",""green"",""vert"",""up"",[-106,106],[0,-150]]",circle,green,vert,up,"[-106,106]","[0,-150]",up,1,,,,,,001,2025-03-17_14h18.00.808,SL_base,2021.2.3,Win32,59.88023952,1.4236,,,41,0,41,0,1,,,,,,,,
,,"[""diamond"",""red"",""vert"",""up"",[-106,106],[-106,-106]]",diamond,red,vert,up,"[-106,106]","[-106,-106]",left,0,,,,,,001,2025-03-17_14h18.00.808,SL_base,2021.2.3,Win32,59.88023952,0.8206,,,42,0,42,0,1,,,,,,,,
,,"[""diamond"",""green"",""hori"",""left"",[150,0],[-106,106]]",diamond,green,hori,left,"[150,0]","[-106,106]",left,1,,,,,,001,2025-03-17_14h18.00.808,SL_base,2021.2.3,Win32,59.88023952,0.9342,,,43,0,43,0,1,,,,,,,,
,,"[""circle"",""red"",""vert"",""up"",[-106,106],[0,-150]]",circle,red,vert,up,"[-106,106]","[0,-150]",up,1,,,,,,001,2025-03-17_14h18.00.808,SL_base,2021.2.3,Win32,59.88023952,0.933,,,44,0,44,0,1,,,,,,,,
,,"[""diamond"",""no_dis"",""hori"",""left"",[99999,99999],[0,-150]]",diamond,no_dis,hori,left,"[99999,99999]","[0,-150]",left,1,,,,,,001,2025-03-17_14h18.00.808,SL_base,2021.2.3,Win32,59.88023952,0.8667,,,45,0,45,0,1,,,,,,,,
,,"[""circle"",""no_dis"",""vert"",""up"",[99999,99999],[106,106]]",circle,no_dis,vert,up,"[99999,99999]","[106,106]",up,1,,,,,,001,2025-03-17_14h18.00.808,SL_base,2021.2.3,Win32,59.88023952,0.7338,,,46,0,46,0,1,,,,,,,,
,,"[""diamond"",""no_dis"",""hori"",""left"",[99999,99999],[150,0]]",diamond,no_dis,hori,left,"[99999,99999]","[150,0]",left,1,,,,,,001,2025-03-17_14h18.00.808,SL_base,2021.2.3,Win32,59.88023952,0.8846,,,47,0,47,0,1,,,,,,,,
,,"[""circle"",""green"",""vert"",""up"",[0,-150],[106,-106]]",circle,green,vert,up,"[0,-150]","[106,-106]",up,1,,,,,,001,2025-03-17_14h18.00.808,SL_base,2021.2.3,Win32,59.88023952,0.8171,,,48,0,48,0,1,,,,,,,,
,,"[""diamond"",""no_dis"",""vert"",""up"",[99999,99999],[106,-106]]",diamond,no_dis,vert,up,"[99999,99999]","[106,-106]",up,1,,,,,,001,2025-03-17_14h18.00.808,SL_base,2021.2.3,Win32,59.88023952,1.1895,,,49,0,49,0,1,,,,,,,,
,,"[""diamond"",""green"",""hori"",""left"",[150,0],[-106,106]]",diamond,green,hori,left,"[150,0]","[-106,106]",left,1,,,,,,001,2025-03-17_14h18.00.808,SL_base,2021.2.3,Win32,59.88023952,0.8001,,,50,0,50,0,1,,,,,,,,
,,"[""circle"",""green"",""hori"",""left"",[0,-150],[106,106]]",circle,green,hori,left,"[0,-150]","[106,106]",left,1,,,,,,001,2025-03-17_14h18.00.808,SL_base,2021.2.3,Win32,59.88023952,0.7498,,,51,0,51,0,1,,,,,,,,
,,"[""diamond"",""green"",""vert"",""up"",[150,0],[0,-150]]",diamond,green,vert,up,"[150,0]","[0,-150]",up,1,,,,,,001,2025-03-17_14h18.00.808,SL_base,2021.2.3,Win32,59.88023952,1.0264,,,52,0,52,0,1,,,,,,,,
,,"[""circle"",""red"",""hori"",""left"",[106,-106],[0,150]]",circle,red,hori,left,"[106,-106]","[0,150]",left,1,,,,,,001,2025-03-17_14h18.00.808,SL_base,2021.2.3,Win32,59.88023952,1.1002,,,53,0,53,0,1,,,,,,,,
,,"[""diamond"",""red"",""hori"",""left"",[-106,106],[-106,-106]]",diamond,red,hori,left,"[-106,106]","[-106,-106]",left,1,,,,,,001,2025-03-17_14h18.00.808,SL_base,2021.2.3,Win32,59.88023952,1.2503,,,54,0,54,0,1,,,,,,,,
,,"[""circle"",""red"",""vert"",""up"",[-150,0],[-106,-106]]",circle,red,vert,up,"[-150,0]","[-106,-106]",up,1,,,,,,001,2025-03-17_14h18.00.808,SL_base,2021.2.3,Win32,59.88023952,1.263,,,55,0,55,0,1,,,,,,,,
,,"[""circle"",""green"",""hori"",""left"",[-106,106],[-150,0]]",circle,green,hori,left,"[-106,106]","[-150,0]",left,1,,,,,,001,2025-03-17_14h18.00.808,SL_base,2021.2.3,Win32,59.88023952,0.8501,,,56,0,56,0,1,,,,,,,,
,,"[""diamond"",""no_dis"",""hori"",""left"",[99999,99999],[150,0]]",diamond,no_dis,hori,left,"[99999,99999]","[150,0]",left,1,,,,,,001,2025-03-17_14h18.00.808,SL_base,2021.2.3,Win32,59.88023952,1.0747,,,57,0,57,0,1,,,,,,,,
,,"[""circle"",""green"",""vert"",""up"",[-106,-106],[0,-150]]",circle,green,vert,up,"[-106,-106]","[0,-150]",up,1,,,,,,001,2025-03-17_14h18.00.808,SL_base,2021.2.3,Win32,59.88023952,0.8329,,,58,0,58,0,1,,,,,,,,
,,"[""diamond"",""no_dis"",""vert"",""up"",[99999,99999],[-106,-106]]",diamond,no_dis,vert,up,"[99999,99999]","[-106,-106]",up,1,,,,,,001,2025-03-17_14h18.00.808,SL_base,2021.2.3,Win32,59.88023952,0.9668,,,59,0,59,0,1,,,,,,,,
,,"[""circle"",""no_dis"",""vert"",""up"",[99999,99999],[150,0]]",circle,no_dis,vert,up,"[99999,99999]","[150,0]",up,1,,,,,,001,2025-03-17_14h18.00.808,SL_base,2021.2.3,Win32,59.88023952,0.7336,,,60,0,60,0,1,,,,,,,,
,,"[""circle"",""green"",""hori"",""left"",[106,106],[0,150]]",circle,green,hori,left,"[106,106]","[0,150]",left,1,,,,,,001,2025-03-17_14h18.00.808,SL_base,2021.2.3,Win32,59.88023952,0.9918,,,61,0,61,0,1,,,,,,,,
,,"[""diamond"",""no_dis"",""vert"",""up"",[99999,99999],[-150,0]]",diamond,no_dis,vert,up,"[99999,99999]","[-150,0]",up,1,,,,,,001,2025-03-17_14h18.00.808,SL_base,2021.2.3,Win32,59.88023952,0.9811,,,62,0,62,0,1,,,,,,,,
,,"[""diamond"",""green"",""hori"",""left"",[0,-150],[150,0]]",diamond,green,hori,left,"[0,-150]","[150,0]",left,1,,,,,,001,2025-03-17_14h18.00.808,SL_base,2021.2.3,Win32,59.88023952,0.7285,,,63,0,63,0,1,,,,,,,,
,,"[""diamond"",""no_dis"",""vert"",""up"",[99999,99999],[106,106]]",diamond,no_dis,vert,up,"[99999,99999]","[106,106]",up,1,,,,,,001,2025-03-17_14h18.00.808,SL_base,2021.2.3,Win32,59.88023952,0.9036,,,64,0,64,0,1,,,,,,,,
,,"[""circle"",""red"",""vert"",""up"",[0,-150],[106,106]]",circle,red,vert,up,"[0,-150]","[106,106]",up,1,,,,,,001,2025-03-17_14h18.00.808,SL_base,2021.2.3,Win32,59.88023952,0.9837,,,65,0,65,0,1,,,,,,,,
,,"[""circle"",""green"",""vert"",""up"",[-106,-106],[0,-150]]",circle,green,vert,up,"[-106,-106]","[0,-150]",up,1,,,,,,001,2025-03-17_14h18.00.808,SL_base,2021.2.3,Win32,59.88023952,1.0841,,,66,0,66,0,1,,,,,,,,
,,"[""diamond"",""green"",""hori"",""left"",[0,-150],[-150,0]]",diamond,green,hori,left,"[0,-150]","[-150,0]",left,1,,,,,,001,2025-03-17_14h18.00.808,SL_base,2021.2.3,Win32,59.88023952,0.8656,,,67,0,67,0,1,,,,,,,,
,,"[""diamond"",""red"",""vert"",""up"",[-150,0],[-106,106]]",diamond,red,vert,up,"[-150,0]","[-106,106]",up,1,,,,,,001,2025-03-17_14h18.00.808,SL_base,2021.2.3,Win32,59.88023952,1.2283,,,68,0,68,0,1,,,,,,,,
,,"[""circle"",""no_dis"",""vert"",""up"",[99999,99999],[-106,106]]",circle,no_dis,vert,up,"[99999,99999]","[-106,106]",up,1,,,,,,001,2025-03-17_14h18.00.808,SL_base,2021.2.3,Win32,59.88023952,1.7172,,,69,0,69,0,1,,,,,,,,
,,"[""diamond"",""no_dis"",""hori"",""left"",[99999,99999],[150,0]]",diamond,no_dis,hori,left,"[99999,99999]","[150,0]",left,1,,,,,,001,2025-03-17_14h18.00.808,SL_base,2021.2.3,Win32,59.88023952,0.7008,,,70,0,70,0,1,,,,,,,,
,,"[""circle"",""no_dis"",""hori"",""left"",[99999,99999],[-150,0]]",circle,no_dis,hori,left,"[99999,99999]","[-150,0]",left,1,,,,,,001,2025-03-17_14h18.00.808,SL_base,2021.2.3,Win32,59.88023952,1.0837,,,71,0,71,0,1,,,,,,,,
,,"[""circle"",""no_dis"",""vert"",""up"",[99999,99999],[106,-106]]",circle,no_dis,vert,up,"[99999,99999]","[106,-106]",up,1,,,,,,001,2025-03-17_14h18.00.808,SL_base,2021.2.3,Win32,59.88023952,0.8798,,,72,0,72,0,1,,,,,,,,
,,"[""circle"",""no_dis"",""hori"",""left"",[99999,99999],[-106,106]]",circle,no_dis,hori,left,"[99999,99999]","[-106,106]",left,1,,,,,,001,2025-03-17_14h18.00.808,SL_base,2021.2.3,Win32,59.88023952,0.7838,,,73,0,73,0,1,,,,,,,,
,,"[""circle"",""red"",""hori"",""left"",[-106,106],[150,0]]",circle,red,hori,left,"[-106,106]","[150,0]",left,1,,,,,,001,2025-03-17_14h18.00.808,SL_base,2021.2.3,Win32,59.88023952,0.6747,,,74,0,74,0,1,,,,,,,,
,,"[""diamond"",""no_dis"",""vert"",""up"",[99999,99999],[0,150]]",diamond,no_dis,vert,up,"[99999,99999]","[0,150]",up,1,,,,,,001,2025-03-17_14h18.00.808,SL_base,2021.2.3,Win32,59.88023952,1.3362,,,75,0,75,0,1,,,,,,,,
,,"[""circle"",""no_dis"",""vert"",""up"",[99999,99999],[-150,0]]",circle,no_dis,vert,up,"[99999,99999]","[-150,0]",up,1,,,,,,001,2025-03-17_14h18.00.808,SL_base,2021.2.3,Win32,59.88023952,0.8537,,,76,0,76,0,1,,,,,,,,
,,"[""circle"",""green"",""vert"",""up"",[150,0],[-150,0]]",circle,green,vert,up,"[150,0]","[-150,0]",up,1,,,,,,001,2025-03-17_14h18.00.808,SL_base,2021.2.3,Win32,59.88023952,0.8058,,,77,0,77,0,1,,,,,,,,
,,"[""circle"",""red"",""vert"",""up"",[-106,-106],[106,106]]",circle,red,vert,up,"[-106,-106]","[106,106]",up,1,,,,,,001,2025-03-17_14h18.00.808,SL_base,2021.2.3,Win32,59.88023952,0.6951,,,78,0,78,0,1,,,,,,,,
,,"[""diamond"",""no_dis"",""vert"",""up"",[99999,99999],[0,150]]",diamond,no_dis,vert,up,"[99999,99999]","[0,150]",up,1,,,,,,001,2025-03-17_14h18.00.808,SL_base,2021.2.3,Win32,59.88023952,1.5697,,,79,0,79,0,1,,,,,,,,
,,"[""diamond"",""red"",""vert"",""up"",[150,0],[-106,106]]",diamond,red,vert,up,"[150,0]","[-106,106]",up,1,,,,,,001,2025-03-17_14h18.00.808,SL_base,2021.2.3,Win32,59.88023952,0.738,,,80,0,80,0,1,,,,,,,,
,,"[""diamond"",""no_dis"",""hori"",""left"",[99999,99999],[106,-106]]",diamond,no_dis,hori,left,"[99999,99999]","[106,-106]",left,1,,,,,,001,2025-03-17_14h18.00.808,SL_base,2021.2.3,Win32,59.88023952,0.9291,,,81,0,81,0,1,,,,,,,,
,,"[""circle"",""no_dis"",""vert"",""up"",[99999,99999],[-106,106]]",circle,no_dis,vert,up,"[99999,99999]","[-106,106]",up,1,,,,,,001,2025-03-17_14h18.00.808,SL_base,2021.2.3,Win32,59.88023952,1.3334,,,82,0,82,0,1,,,,,,,,
,,"[""diamond"",""red"",""vert"",""up"",[-106,106],[150,0]]",diamond,red,vert,up,"[-106,106]","[150,0]",up,1,,,,,,001,2025-03-17_14h18.00.808,SL_base,2021.2.3,Win32,59.88023952,0.9834,,,83,0,83,0,1,,,,,,,,
,,"[""circle"",""red"",""hori"",""left"",[-106,-106],[0,-150]]",circle,red,hori,left,"[-106,-106]","[0,-150]",left,1,,,,,,001,2025-03-17_14h18.00.808,SL_base,2021.2.3,Win32,59.88023952,1.0146,,,84,0,84,0,1,,,,,,,,
,,"[""diamond"",""green"",""vert"",""up"",[-106,106],[106,106]]",diamond,green,vert,up,"[-106,106]","[106,106]",up,1,,,,,,001,2025-03-17_14h18.00.808,SL_base,2021.2.3,Win32,59.88023952,0.9169,,,85,0,85,0,1,,,,,,,,
,,"[""circle"",""red"",""hori"",""left"",[106,-106],[-106,106]]",circle,red,hori,left,"[106,-106]","[-106,106]",left,1,,,,,,001,2025-03-17_14h18.00.808,SL_base,2021.2.3,Win32,59.88023952,1.8069,,,86,0,86,0,1,,,,,,,,
,,"[""circle"",""red"",""vert"",""up"",[-106,106],[0,150]]",circle,red,vert,up,"[-106,106]","[0,150]",up,1,,,,,,001,2025-03-17_14h18.00.808,SL_base,2021.2.3,Win32,59.88023952,0.767,,,87,0,87,0,1,,,,,,,,
,,"[""circle"",""no_dis"",""vert"",""up"",[99999,99999],[150,0]]",circle,no_dis,vert,up,"[99999,99999]","[150,0]",up,1,,,,,,001,2025-03-17_14h18.00.808,SL_base,2021.2.3,Win32,59.88023952,0.7506,,,88,0,88,0,1,,,,,,,,
,,"[""circle"",""green"",""hori"",""left"",[-106,106],[0,150]]",circle,green,hori,left,"[-106,106]","[0,150]",left,1,,,,,,001,2025-03-17_14h18.00.808,SL_base,2021.2.3,Win32,59.88023952,1.015,,,89,0,89,0,1,,,,,,,,
,,"[""diamond"",""no_dis"",""hori"",""left"",[99999,99999],[-106,106]]",diamond,no_dis,hori,left,"[99999,99999]","[-106,106]",up,0,,,,,,001,2025-03-17_14h18.00.808,SL_base,2021.2.3,Win32,59.88023952,1.1162,,,90,0,90,0,1,,,,,,,,
,,"[""circle"",""green"",""vert"",""up"",[-150,0],[-106,-106]]",circle,green,vert,up,"[-150,0]","[-106,-106]",up,1,,,,,,001,2025-03-17_14h18.00.808,SL_base,2021.2.3,Win32,59.88023952,1.2672,,,91,0,91,0,1,,,,,,,,
,,"[""circle"",""no_dis"",""vert"",""up"",[99999,99999],[-106,-106]]",circle,no_dis,vert,up,"[99999,99999]","[-106,-106]",up,1,,,,,,001,2025-03-17_14h18.00.808,SL_base,2021.2.3,Win32,59.88023952,0.7668,,,92,0,92,0,1,,,,,,,,
,,"[""circle"",""red"",""hori"",""left"",[-106,-106],[0,150]]",circle,red,hori,left,"[-106,-106]","[0,150]",left,1,,,,,,001,2025-03-17_14h18.00.808,SL_base,2021.2.3,Win32,59.88023952,1.3502,,,93,0,93,0,1,,,,,,,,
,,"[""circle"",""green"",""vert"",""up"",[0,150],[106,106]]",circle,green,vert,up,"[0,150]","[106,106]",up,1,,,,,,001,2025-03-17_14h18.00.808,SL_base,2021.2.3,Win32,59.88023952,0.7028,,,94,0,94,0,1,,,,,,,,
,,"[""circle"",""red"",""hori"",""left"",[106,106],[106,-106]]",circle,red,hori,left,"[106,106]","[106,-106]",left,1,,,,,,001,2025-03-17_14h18.00.808,SL_base,2021.2.3,Win32,59.88023952,0.7167,,,95,0,95,0,1,,,,,,,,
,,"[""circle"",""no_dis"",""hori"",""left"",[99999,99999],[-106,-106]]",circle,no_dis,hori,left,"[99999,99999]","[-106,-106]",left,1,,,,,,001,2025-03-17_14h18.00.808,SL_base,2021.2.3,Win32,59.88023952,0.9168,,,96,0,96,0,1,,,,,,,,
,,"[""circle"",""red"",""hori"",""left"",[-150,0],[150,0]]",circle,red,hori,left,"[-150,0]","[150,0]",left,1,,,,,,001,2025-03-17_14h18.00.808,SL_base,2021.2.3,Win32,59.88023952,0.6278,,,97,0,97,0,1,,,,,,,,
,,"[""circle"",""green"",""vert"",""up"",[-106,106],[-150,0]]",circle,green,vert,up,"[-106,106]","[-150,0]",up,1,,,,,,001,2025-03-17_14h18.00.808,SL_base,2021.2.3,Win32,59.88023952,1.1666,,,98,0,98,0,1,,,,,,,,
,,"[""diamond"",""green"",""vert"",""up"",[-106,-106],[0,150]]",diamond,green,vert,up,"[-106,-106]","[0,150]",up,1,,,,,,001,2025-03-17_14h18.00.808,SL_base,2021.2.3,Win32,59.88023952,1.6859,,,99,0,99,0,1,,,,,,,,
,,"[""diamond"",""red"",""vert"",""up"",[106,-106],[-106,-106]]",diamond,red,vert,up,"[106,-106]","[-106,-106]",up,1,,,,,,001,2025-03-17_14h18.00.808,SL_base,2021.2.3,Win32,59.88023952,1.3515,,,100,0,100,0,1,,,,,,,,
,,"[""circle"",""green"",""hori"",""left"",[106,106],[150,0]]",circle,green,hori,left,"[106,106]","[150,0]",left,1,,,,,,001,2025-03-17_14h18.00.808,SL_base,2021.2.3,Win32,59.88023952,0.7826,,,101,0,101,0,1,,,,,,,,
,,"[""circle"",""red"",""hori"",""left"",[-106,106],[150,0]]",circle,red,hori,left,"[-106,106]","[150,0]",left,1,,,,,,001,2025-03-17_14h18.00.808,SL_base,2021.2.3,Win32,59.88023952,0.7974,,,102,0,102,0,1,,,,,,,,
,,"[""circle"",""no_dis"",""hori"",""left"",[99999,99999],[0,150]]",circle,no_dis,hori,left,"[99999,99999]","[0,150]",left,1,,,,,,001,2025-03-17_14h18.00.808,SL_base,2021.2.3,Win32,59.88023952,0.9761,,,103,0,103,0,1,,,,,,,,
,,"[""circle"",""red"",""vert"",""up"",[0,-150],[106,-106]]",circle,red,vert,up,"[0,-150]","[106,-106]",up,1,,,,,,001,2025-03-17_14h18.00.808,SL_base,2021.2.3,Win32,59.88023952,0.7714,,,104,0,104,0,1,,,,,,,,
,,"[""circle"",""green"",""hori"",""left"",[106,-106],[-106,106]]",circle,green,hori,left,"[106,-106]","[-106,106]",left,1,,,,,,001,2025-03-17_14h18.00.808,SL_base,2021.2.3,Win32,59.88023952,0.6471,,,105,0,105,0,1,,,,,,,,
,,"[""diamond"",""red"",""hori"",""left"",[0,150],[106,-106]]",diamond,red,hori,left,"[0,150]","[106,-106]",left,1,,,,,,001,2025-03-17_14h18.00.808,SL_base,2021.2.3,Win32,59.88023952,0.9504,,,106,0,106,0,1,,,,,,,,
,,"[""diamond"",""no_dis"",""hori"",""left"",[99999,99999],[0,-150]]",diamond,no_dis,hori,left,"[99999,99999]","[0,-150]",left,1,,,,,,001,2025-03-17_14h18.00.808,SL_base,2021.2.3,Win32,59.88023952,1.2519,,,107,0,107,0,1,,,,,,,,
,,"[""diamond"",""green"",""hori"",""left"",[-106,-106],[-150,0]]",diamond,green,hori,left,"[-106,-106]","[-150,0]",left,1,,,,,,001,2025-03-17_14h18.00.808,SL_base,2021.2.3,Win32,59.88023952,1.0648,,,108,0,108,0,1,,,,,,,,
,,"[""diamond"",""red"",""hori"",""left"",[-106,106],[150,0]]",diamond,red,hori,left,"[-106,106]","[150,0]",left,1,,,,,,001,2025-03-17_14h18.00.808,SL_base,2021.2.3,Win32,59.88023952,0.6472,,,109,0,109,0,1,,,,,,,,
,,"[""diamond"",""green"",""vert"",""up"",[150,0],[-150,0]]",diamond,green,vert,up,"[150,0]","[-150,0]",up,1,,,,,,001,2025-03-17_14h18.00.808,SL_base,2021.2.3,Win32,59.88023952,0.5949,,,110,0,110,0,1,,,,,,,,
,,"[""circle"",""no_dis"",""hori"",""left"",[99999,99999],[106,106]]",circle,no_dis,hori,left,"[99999,99999]","[106,106]",left,1,,,,,,001,2025-03-17_14h18.00.808,SL_base,2021.2.3,Win32,59.88023952,0.7835,,,111,0,111,0,1,,,,,,,,
,,"[""circle"",""no_dis"",""vert"",""up"",[99999,99999],[0,150]]",circle,no_dis,vert,up,"[99999,99999]","[0,150]",up,1,,,,,,001,2025-03-17_14h18.00.808,SL_base,2021.2.3,Win32,59.88023952,0.6757,,,112,0,112,0,1,,,,,,,,
,,"[""diamond"",""red"",""hori"",""left"",[106,-106],[106,106]]",diamond,red,hori,left,"[106,-106]","[106,106]",left,1,,,,,,001,2025-03-17_14h18.00.808,SL_base,2021.2.3,Win32,59.88023952,1.1337,,,113,0,113,0,1,,,,,,,,
,,"[""circle"",""no_dis"",""hori"",""left"",[99999,99999],[-150,0]]",circle,no_dis,hori,left,"[99999,99999]","[-150,0]",left,1,,,,,,001,2025-03-17_14h18.00.808,SL_base,2021.2.3,Win32,59.88023952,1.1929,,,114,0,114,0,1,,,,,,,,
,,"[""circle"",""red"",""vert"",""up"",[0,150],[106,106]]",circle,red,vert,up,"[0,150]","[106,106]",up,1,,,,,,001,2025-03-17_14h18.00.808,SL_base,2021.2.3,Win32,59.88023952,0.9318,,,115,0,115,0,1,,,,,,,,
,,"[""circle"",""red"",""vert"",""up"",[-150,0],[0,150]]",circle,red,vert,up,"[-150,0]","[0,150]",up,1,,,,,,001,2025-03-17_14h18.00.808,SL_base,2021.2.3,Win32,59.88023952,0.7701,,,116,0,116,0,1,,,,,,,,
,,"[""diamond"",""green"",""vert"",""up"",[106,106],[150,0]]",diamond,green,vert,up,"[106,106]","[150,0]",up,1,,,,,,001,2025-03-17_14h18.00.808,SL_base,2021.2.3,Win32,59.88023952,0.901,,,117,0,117,0,1,,,,,,,,
,,"[""diamond"",""red"",""hori"",""left"",[150,0],[106,106]]",diamond,red,hori,left,"[150,0]","[106,106]",up,0,,,,,,001,2025-03-17_14h18.00.808,SL_base,2021.2.3,Win32,59.88023952,1.278,,,118,0,118,0,1,,,,,,,,
,,"[""diamond"",""no_dis"",""hori"",""left"",[99999,99999],[-150,0]]",diamond,no_dis,hori,left,"[99999,99999]","[-150,0]",left,1,,,,,,001,2025-03-17_14h18.00.808,SL_base,2021.2.3,Win32,59.88023952,0.6066,,,119,0,119,0,1,,,,,,,,
,,,,,,,,,,,,,,,,001,2025-03-17_14h18.00.808,SL_base,2021.2.3,Win32,59.88023952,,,,,,,,,3,space,1.6394,2,0,2,0,1
,,"[""diamond"",""red"",""vert"",""up"",[-106,106],[0,150]]",diamond,red,vert,up,"[-106,106]","[0,150]",up,1,,,,,,001,2025-03-17_14h18.00.808,SL_base,2021.2.3,Win32,59.88023952,1.3674,,,0,0,0,0,1,,,,,,,,
,,"[""diamond"",""green"",""hori"",""left"",[150,0],[-106,106]]",diamond,green,hori,left,"[150,0]","[-106,106]",left,1,,,,,,001,2025-03-17_14h18.00.808,SL_base,2021.2.3,Win32,59.88023952,0.683,,,1,0,1,0,1,,,,,,,,
,,"[""circle"",""green"",""hori"",""left"",[0,150],[-106,-106]]",circle,green,hori,left,"[0,150]","[-106,-106]",left,1,,,,,,001,2025-03-17_14h18.00.808,SL_base,2021.2.3,Win32,59.88023952,1.0607,,,2,0,2,0,1,,,,,,,,
,,"[""circle"",""no_dis"",""hori"",""left"",[99999,99999],[-106,-106]]",circle,no_dis,hori,left,"[99999,99999]","[-106,-106]",left,1,,,,,,001,2025-03-17_14h18.00.808,SL_base,2021.2.3,Win32,59.88023952,0.6165,,,3,0,3,0,1,,,,,,,,
,,"[""circle"",""green"",""vert"",""up"",[0,-150],[106,-106]]",circle,green,vert,up,"[0,-150]","[106,-106]",up,1,,,,,,001,2025-03-17_14h18.00.808,SL_base,2021.2.3,Win32,59.88023952,0.7391,,,4,0,4,0,1,,,,,,,,
,,"[""circle"",""no_dis"",""hori"",""left"",[99999,99999],[106,106]]",circle,no_dis,hori,left,"[99999,99999]","[106,106]",left,1,,,,,,001,2025-03-17_14h18.00.808,SL_base,2021.2.3,Win32,59.88023952,1.163,,,5,0,5,0,1,,,,,,,,
,,"[""diamond"",""no_dis"",""hori"",""left"",[99999,99999],[150,0]]",diamond,no_dis,hori,left,"[99999,99999]","[150,0]",left,1,,,,,,001,2025-03-17_14h18.00.808,SL_base,2021.2.3,Win32,59.88023952,1.011,,,6,0,6,0,1,,,,,,,,
,,"[""diamond"",""no_dis"",""vert"",""up"",[99999,99999],[-150,0]]",diamond,no_dis,vert,up,"[99999,99999]","[-150,0]",up,1,,,,,,001,2025-03-17_14h18.00.808,SL_base,2021.2.3,Win32,59.88023952,1.0544,,,7,0,7,0,1,,,,,,,,
,,"[""circle"",""red"",""vert"",""up"",[0,150],[106,106]]",circle,red,vert,up,"[0,150]","[106,106]",up,1,,,,,,001,2025-03-17_14h18.00.808,SL_base,2021.2.3,Win32,59.88023952,1.2832,,,8,0,8,0,1,,,,,,,,
,,"[""circle"",""green"",""vert"",""up"",[-106,106],[0,-150]]",circle,green,vert,up,"[-106,106]","[0,-150]",up,1,,,,,,001,2025-03-17_14h18.00.808,SL_base,2021.2.3,Win32,59.88023952,1.0082,,,9,0,9,0,1,,,,,,,,
,,"[""diamond"",""green"",""hori"",""left"",[0,-150],[-150,0]]",diamond,green,hori,left,"[0,-150]","[-150,0]",left,1,,,,,,001,2025-03-17_14h18.00.808,SL_base,2021.2.3,Win32,59.88023952,0.918,,,10,0,10,0,1,,,,,,,,
,,"[""circle"",""no_dis"",""vert"",""up"",[99999,99999],[106,-106]]",circle,no_dis,vert,up,"[99999,99999]","[106,-106]",up,1,,,,,,001,2025-03-17_14h18.00.808,SL_base,2021.2.3,Win32,59.88023952,1.6155,,,11,0,11,0,1,,,,,,,,
,,"[""diamond"",""no_dis"",""vert"",""up"",[99999,99999],[0,-150]]",diamond,no_dis,vert,up,"[99999,99999]","[0,-150]",up,1,,,,,,001,2025-03-17_14h18.00.808,SL_base,2021.2.3,Win32,59.88023952,0.8838,,,12,0,12,0,1,,,,,,,,
,,"[""circle"",""green"",""vert"",""up"",[0,150],[106,106]]",circle,green,vert,up,"[0,150]","[106,106]",up,1,,,,,,001,2025-03-17_14h18.00.808,SL_base,2021.2.3,Win32,59.88023952,1.1797,,,13,0,13,0,1,,,,,,,,
,,"[""diamond"",""red"",""vert"",""up"",[106,-106],[-106,-106]]",diamond,red,vert,up,"[106,-106]","[-106,-106]",up,1,,,,,,001,2025-03-17_14h18.00.808,SL_base,2021.2.3,Win32,59.88023952,1.2835,,,14,0,14,0,1,,,,,,,,
,,"[""circle"",""red"",""vert"",""up"",[-150,0],[-106,-106]]",circle,red,vert,up,"[-150,0]","[-106,-106]",up,1,,,,,,001,2025-03-17_14h18.00.808,SL_base,2021.2.3,Win32,59.88023952,1.1478,,,15,0,15,0,1,,,,,,,,
,,"[""circle"",""no_dis"",""vert"",""up"",[99999,99999],[106,106]]",circle,no_dis,vert,up,"[99999,99999]","[106,106]",up,1,,,,,,001,2025-03-17_14h18.00.808,SL_base,2021.2.3,Win32,59.88023952,0.9037,,,16,0,16,0,1,,,,,,,,
,,"[""diamond"",""red"",""hori"",""left"",[-150,0],[106,106]]",diamond,red,hori,left,"[-150,0]","[106,106]",left,1,,,,,,001,2025-03-17_14h18.00.808,SL_base,2021.2.3,Win32,59.88023952,1.5235,,,17,0,17,0,1,,,,,,,,
,,"[""diamond"",""red"",""vert"",""up"",[150,0],[-106,106]]",diamond,red,vert,up,"[150,0]","[-106,106]",up,1,,,,,,001,2025-03-17_14h18.00.808,SL_base,2021.2.3,Win32,59.88023952,0.7869,,,18,0,18,0,1,,,,,,,,
,,"[""circle"",""green"",""hori"",""left"",[-106,106],[-150,0]]",circle,green,hori,left,"[-106,106]","[-150,0]",left,1,,,,,,001,2025-03-17_14h18.00.808,SL_base,2021.2.3,Win32,59.88023952,0.7008,,,19,0,19,0,1,,,,,,,,
,,"[""diamond"",""no_dis"",""vert"",""up"",[99999,99999],[0,150]]",diamond,no_dis,vert,up,"[99999,99999]","[0,150]",up,1,,,,,,001,2025-03-17_14h18.00.808,SL_base,2021.2.3,Win32,59.88023952,0.8669,,,20,0,20,0,1,,,,,,,,
,,"[""diamond"",""green"",""vert"",""up"",[-150,0],[-106,106]]",diamond,green,vert,up,"[-150,0]","[-106,106]",up,1,,,,,,001,2025-03-17_14h18.00.808,SL_base,2021.2.3,Win32,59.88023952,1.163,,,21,0,21,0,1,,,,,,,,
,,"[""diamond"",""red"",""hori"",""left"",[150,0],[106,106]]",diamond,red,hori,left,"[150,0]","[106,106]",left,1,,,,,,001,2025-03-17_14h18.00.808,SL_base,2021.2.3,Win32,59.88023952,0.8037,,,22,0,22,0,1,,,,,,,,
,,"[""circle"",""red"",""hori"",""left"",[106,-106],[-106,106]]",circle,red,hori,left,"[106,-106]","[-106,106]",left,1,,,,,,001,2025-03-17_14h18.00.808,SL_base,2021.2.3,Win32,59.88023952,1.0513,,,23,0,23,0,1,,,,,,,,
,,"[""circle"",""green"",""vert"",""up"",[-106,106],[106,106]]",circle,green,vert,up,"[-106,106]","[106,106]",up,1,,,,,,001,2025-03-17_14h18.00.808,SL_base,2021.2.3,Win32,59.88023952,0.7408,,,24,0,24,0,1,,,,,,,,
,,"[""circle"",""green"",""vert"",""up"",[-106,106],[-150,0]]",circle,green,vert,up,"[-106,106]","[-150,0]",up,1,,,,,,001,2025-03-17_14h18.00.808,SL_base,2021.2.3,Win32,59.88023952,0.867,,,25,0,25,0,1,,,,,,,,
,,"[""circle"",""no_dis"",""vert"",""up"",[99999,99999],[-150,0]]",circle,no_dis,vert,up,"[99999,99999]","[-150,0]",up,1,,,,,,001,2025-03-17_14h18.00.808,SL_base,2021.2.3,Win32,59.88023952,0.7004,,,26,0,26,0,1,,,,,,,,
,,"[""diamond"",""green"",""hori"",""left"",[0,150],[-106,106]]",diamond,green,hori,left,"[0,150]","[-106,106]",left,1,,,,,,001,2025-03-17_14h18.00.808,SL_base,2021.2.3,Win32,59.88023952,0.8387,,,27,0,27,0,1,,,,,,,,
,,"[""circle"",""red"",""hori"",""left"",[-106,106],[150,0]]",circle,red,hori,left,"[-106,106]","[150,0]",left,1,,,,,,001,2025-03-17_14h18.00.808,SL_base,2021.2.3,Win32,59.88023952,0.7011,,,28,0,28,0,1,,,,,,,,
,,"[""circle"",""red"",""vert"",""up"",[-106,-106],[106,106]]",circle,red,vert,up,"[-106,-106]","[106,106]",up,1,,,,,,001,2025-03-17_14h18.00.808,SL_base,2021.2.3,Win32,59.88023952,1.0639,,,29,0,29,0,1,,,,,,,,
,,"[""diamond"",""green"",""vert"",""up"",[150,0],[0,-150]]",diamond,green,vert,up,"[150,0]","[0,-150]",up,1,,,,,,001,2025-03-17_14h18.00.808,SL_base,2021.2.3,Win32,59.88023952,1.3653,,,30,0,30,0,1,,,,,,,,
,,"[""circle"",""red"",""hori"",""left"",[-150,0],[150,0]]",circle,red,hori,left,"[-150,0]","[150,0]",left,1,,,,,,001,2025-03-17_14h18.00.808,SL_base,2021.2.3,Win32,59.88023952,0.7881,,,31,0,31,0,1,,,,,,,,
,,"[""circle"",""green"",""vert"",""up"",[-150,0],[-106,-106]]",circle,green,vert,up,"[-150,0]","[-106,-106]",up,1,,,,,,001,2025-03-17_14h18.00.808,SL_base,2021.2.3,Win32,59.88023952,1.5658,,,32,0,32,0,1,,,,,,,,
,,"[""circle"",""green"",""vert"",""up"",[0,-150],[0,150]]",circle,green,vert,up,"[0,-150]","[0,150]",up,1,,,,,,001,2025-03-17_14h18.00.808,SL_base,2021.2.3,Win32,59.88023952,1.6827,,,33,0,33,0,1,,,,,,,,
,,"[""diamond"",""red"",""vert"",""up"",[0,150],[0,-150]]",diamond,red,vert,up,"[0,150]","[0,-150]",up,1,,,,,,001,2025-03-17_14h18.00.808,SL_base,2021.2.3,Win32,59.88023952,1.4005,,,34,0,34,0,1,,,,,,,,
,,"[""circle"",""green"",""hori"",""left"",[-106,106],[-106,-106]]",circle,green,hori,left,"[-106,106]","[-106,-106]",left,1,,,,,,001,2025-03-17_14h18.00.808,SL_base,2021.2.3,Win32,59.88023952,0.9335,,,35,0,35,0,1,,,,,,,,
,,"[""diamond"",""green"",""hori"",""left"",[150,0],[-106,106]]",diamond,green,hori,left,"[150,0]","[-106,106]",left,1,,,,,,001,2025-03-17_14h18.00.808,SL_base,2021.2.3,Win32,59.88023952,1.0287,,,36,0,36,0,1,,,,,,,,
,,"[""diamond"",""green"",""vert"",""up"",[106,106],[-106,-106]]",diamond,green,vert,up,"[106,106]","[-106,-106]",up,1,,,,,,001,2025-03-17_14h18.00.808,SL_base,2021.2.3,Win32,59.88023952,0.7998,,,37,0,37,0,1,,,,,,,,
,,"[""diamond"",""no_dis"",""vert"",""up"",[99999,99999],[-106,-106]]",diamond,no_dis,vert,up,"[99999,99999]","[-106,-106]",up,1,,,,,,001,2025-03-17_14h18.00.808,SL_base,2021.2.3,Win32,59.88023952,0.6319,,,38,0,38,0,1,,,,,,,,
,,"[""diamond"",""green"",""hori"",""left"",[-106,-106],[-150,0]]",diamond,green,hori,left,"[-106,-106]","[-150,0]",up,0,,,,,,001,2025-03-17_14h18.00.808,SL_base,2021.2.3,Win32,59.88023952,1.4406,,,39,0,39,0,1,,,,,,,,
,,"[""diamond"",""red"",""hori"",""left"",[-106,106],[150,0]]",diamond,red,hori,left,"[-106,106]","[150,0]",left,1,,,,,,001,2025-03-17_14h18.00.808,SL_base,2021.2.3,Win32,59.88023952,0.6333,,,40,0,40,0,1,,,,,,,,
,,"[""diamond"",""green"",""vert"",""up"",[106,106],[150,0]]",diamond,green,vert,up,"[106,106]","[150,0]",up,1,,,,,,001,2025-03-17_14h18.00.808,SL_base,2021.2.3,Win32,59.88023952,1.108,,,41,0,41,0,1,,,,,,,,
,,"[""diamond"",""green"",""hori"",""left"",[-106,106],[0,150]]",diamond,green,hori,left,"[-106,106]","[0,150]",left,1,,,,,,001,2025-03-17_14h18.00.808,SL_base,2021.2.3,Win32,59.88023952,0.8773,,,42,0,42,0,1,,,,,,,,
,,"[""diamond"",""no_dis"",""hori"",""left"",[99999,99999],[0,-150]]",diamond,no_dis,hori,left,"[99999,99999]","[0,-150]",left,1,,,,,,001,2025-03-17_14h18.00.808,SL_base,2021.2.3,Win32,59.88023952,0.8671,,,43,0,43,0,1,,,,,,,,
,,"[""diamond"",""no_dis"",""hori"",""left"",[99999,99999],[106,-106]]",diamond,no_dis,hori,left,"[99999,99999]","[106,-106]",left,1,,,,,,001,2025-03-17_14h18.00.808,SL_base,2021.2.3,Win32,59.88023952,0.875,,,44,0,44,0,1,,,,,,,,
,,"[""diamond"",""red"",""vert"",""up"",[150,0],[106,106]]",diamond,red,vert,up,"[150,0]","[106,106]",up,1,,,,,,001,2025-03-17_14h18.00.808,SL_base,2021.2.3,Win32,59.88023952,0.8335,,,45,0,45,0,1,,,,,,,,
,,"[""diamond"",""no_dis"",""hori"",""left"",[99999,99999],[-106,106]]",diamond,no_dis,hori,left,"[99999,99999]","[-106,106]",left,1,,,,,,001,2025-03-17_14h18.00.808,SL_base,2021.2.3,Win32,59.88023952,0.7709,,,46,0,46,0,1,,,,,,,,
,,"[""circle"",""no_dis"",""hori"",""left"",[99999,99999],[106,106]]",circle,no_dis,hori,left,"[99999,99999]","[106,106]",left,1,,,,,,001,2025-03-17_14h18.00.808,SL_base,2021.2.3,Win32,59.88023952,1.3836,,,47,0,47,0,1,,,,,,,,
,,"[""circle"",""red"",""vert"",""up"",[-106,106],[0,150]]",circle,red,vert,up,"[-106,106]","[0,150]",up,1,,,,,,001,2025-03-17_14h18.00.808,SL_base,2021.2.3,Win32,59.88023952,1.1835,,,48,0,48,0,1,,,,,,,,
,,"[""diamond"",""no_dis"",""vert"",""up"",[99999,99999],[0,150]]",diamond,no_dis,vert,up,"[99999,99999]","[0,150]",up,1,,,,,,001,2025-03-17_14h18.00.808,SL_base,2021.2.3,Win32,59.88023952,0.7831,,,49,0,49,0,1,,,,,,,,
,,"[""circle"",""red"",""hori"",""left"",[-106,-106],[0,150]]",circle,red,hori,left,"[-106,-106]","[0,150]",left,1,,,,,,001,2025-03-17_14h18.00.808,SL_base,2021.2.3,Win32,59.88023952,1.35,,,50,0,50,0,1,,,,,,,,
,,"[""diamond"",""no_dis"",""vert"",""up"",[99999,99999],[106,106]]",diamond,no_dis,vert,up,"[99999,99999]","[106,106]",up,1,,,,,,001,2025-03-17_14h18.00.808,SL_base,2021.2.3,Win32,59.88023952,0.9337,,,51,0,51,0,1,,,,,,,,
,,"[""circle"",""no_dis"",""hori"",""left"",[99999,99999],[-150,0]]",circle,no_dis,hori,left,"[99999,99999]","[-150,0]",left,1,,,,,,001,2025-03-17_14h18.00.808,SL_base,2021.2.3,Win32,59.88023952,0.8002,,,52,0,52,0,1,,,,,,,,
,,"[""circle"",""green"",""hori"",""left"",[0,-150],[106,106]]",circle,green,hori,left,"[0,-150]","[106,106]",left,1,,,,,,001,2025-03-17_14h18.00.808,SL_base,2021.2.3,Win32,59.88023952,0.9675,,,53,0,53,0,1,,,,,,,,
,,"[""diamond"",""no_dis"",""hori"",""left"",[99999,99999],[-106,106]]",diamond,no_dis,hori,left,"[99999,99999]","[-106,106]",left,1,,,,,,001,2025-03-17_14h18.00.808,SL_base,2021.2.3,Win32,59.88023952,0.912,,,54,0,54,0,1,,,,,,,,
,,"[""diamond"",""red"",""vert"",""up"",[-106,106],[-106,-106]]",diamond,red,vert,up,"[-106,106]","[-106,-106]",up,1,,,,,,001,2025-03-17_14h18.00.808,SL_base,2021.2.3,Win32,59.88023952,1.0585,,,55,0,55,0,1,,,,,,,,
,,"[""diamond"",""green"",""hori"",""left"",[106,106],[-106,-106]]",diamond,green,hori,left,"[106,106]","[-106,-106]",left,1,,,,,,001,2025-03-17_14h18.00.808,SL_base,2021.2.3,Win32,59.88023952,0.7829,,,56,0,56,0,1,,,,,,,,
,,"[""circle"",""no_dis"",""vert"",""up"",[99999,99999],[0,150]]",circle,no_dis,vert,up,"[99999,99999]","[0,150]",up,1,,,,,,001,2025-03-17_14h18.00.808,SL_base,2021.2.3,Win32,59.88023952,0.6292,,,57,0,57,0,1,,,,,,,,
,,"[""diamond"",""no_dis"",""vert"",""up"",[99999,99999],[106,106]]",diamond,no_dis,vert,up,"[99999,99999]","[106,106]",up,1,,,,,,001,2025-03-17_14h18.00.808,SL_base,2021.2.3,Win32,59.88023952,1.29,,,58,0,58,0,1,,,,,,,,
,,"[""circle"",""no_dis"",""hori"",""left"",[99999,99999],[-150,0]]",circle,no_dis,hori,left,"[99999,99999]","[-150,0]",left,1,,,,,,001,2025-03-17_14h18.00.808,SL_base,2021.2.3,Win32,59.88023952,0.8007,,,59,0,59,0,1,,,,,,,,
,,"[""circle"",""red"",""vert"",""up"",[0,-150],[106,-106]]",circle,red,vert,up,"[0,-150]","[106,-106]",up,1,,,,,,001,2025-03-17_14h18.00.808,SL_base,2021.2.3,Win32,59.88023952,0.8675,,,60,0,60,0,1,,,,,,,,
,,"[""circle"",""red"",""vert"",""up"",[-150,0],[0,150]]",circle,red,vert,up,"[-150,0]","[0,150]",left,0,,,,,,001,2025-03-17_14h18.00.808,SL_base,2021.2.3,Win32,59.88023952,0.967,,,61,0,61,0,1,,,,,,,,
,,"[""circle"",""no_dis"",""hori"",""left"",[99999,99999],[0,-150]]",circle,no_dis,hori,left,"[99999,99999]","[0,-150]",left,1,,,,,,001,2025-03-17_14h18.00.808,SL_base,2021.2.3,Win32,59.88023952,1.1814,,,62,0,62,0,1,,,,,,,,
,,"[""circle"",""red"",""hori"",""left"",[106,-106],[0,-150]]",circle,red,hori,left,"[106,-106]","[0,-150]",left,1,,,,,,001,2025-03-17_14h18.00.808,SL_base,2021.2.3,Win32,59.88023952,1.8163,,,63,0,63,0,1,,,,,,,,
,,"[""diamond"",""no_dis"",""hori"",""left"",[99999,99999],[0,-150]]",diamond,no_dis,hori,left,"[99999,99999]","[0,-150]",left,1,,,,,,001,2025-03-17_14h18.00.808,SL_base,2021.2.3,Win32,59.88023952,1.8333,,,64,0,64,0,1,,,,,,,,
,,"[""circle"",""red"",""hori"",""left"",[-106,106],[106,106]]",circle,red,hori,left,"[-106,106]","[106,106]",left,1,,,,,,001,2025-03-17_14h18.00.808,SL_base,2021.2.3,Win32,59.88023952,0.9338,,,65,0,65,0,1,,,,,,,,
,,"[""circle"",""green"",""hori"",""left"",[-106,-106],[-150,0]]",circle,green,hori,left,"[-106,-106]","[-150,0]",left,1,,,,,,001,2025-03-17_14h18.00.808,SL_base,2021.2.3,Win32,59.88023952,1.2015,,,66,0,66,0,1,,,,,,,,
,,"[""circle"",""green"",""vert"",""up"",[150,0],[-150,0]]",circle,green,vert,up,"[150,0]","[-150,0]",left,0,,,,,,001,2025-03-17_14h18.00.808,SL_base,2021.2.3,Win32,59.88023952,0.9169,,,67,0,67,0,1,,,,,,,,
,,"[""diamond"",""red"",""hori"",""left"",[-106,106],[0,150]]",diamond,red,hori,left,"[-106,106]","[0,150]",left,1,,,,,,001,2025-03-17_14h18.00.808,SL_base,2021.2.3,Win32,59.88023952,1.0325,,,68,0,68,0,1,,,,,,,,
,,"[""circle"",""red"",""vert"",""up"",[-106,106],[0,-150]]",circle,red,vert,up,"[-106,106]","[0,-150]",up,1,,,,,,001,2025-03-17_14h18.00.808,SL_base,2021.2.3,Win32,59.88023952,1.0555,,,69,0,69,0,1,,,,,,,,
,,"[""diamond"",""green"",""vert"",""up"",[-106,-106],[0,150]]",diamond,green,vert,up,"[-106,-106]","[0,150]",up,1,,,,,,001,2025-03-17_14h18.00.808,SL_base,2021.2.3,Win32,59.88023952,1.0835,,,70,0,70,0,1,,,,,,,,
,,"[""diamond"",""no_dis"",""hori"",""left"",[99999,99999],[-150,0]]",diamond,no_dis,hori,left,"[99999,99999]","[-150,0]",left,1,,,,,,001,2025-03-17_14h18.00.808,SL_base,2021.2.3,Win32,59.88023952,0.9185,,,71,0,71,0,1,,,,,,,,
,,"[""diamond"",""red"",""hori"",""left"",[-106,106],[106,106]]",diamond,red,hori,left,"[-106,106]","[106,106]",left,1,,,,,,001,2025-03-17_14h18.00.808,SL_base,2021.2.3,Win32,59.88023952,0.7334,,,72,0,72,0,1,,,,,,,,
,,"[""diamond"",""red"",""vert"",""up"",[106,-106],[-106,106]]",diamond,red,vert,up,"[106,-106]","[-106,106]",up,1,,,,,,001,2025-03-17_14h18.00.808,SL_base,2021.2.3,Win32,59.88023952,1.717,,,73,0,73,0,1,,,,,,,,
,,"[""circle"",""no_dis"",""vert"",""up"",[99999,99999],[-106,106]]",circle,no_dis,vert,up,"[99999,99999]","[-106,106]",left,0,,,,,,001,2025-03-17_14h18.00.808,SL_base,2021.2.3,Win32,59.88023952,0.6244,,,74,0,74,0,1,,,,,,,,
,,"[""diamond"",""red"",""hori"",""left"",[-106,106],[-106,-106]]",diamond,red,hori,left,"[-106,106]","[-106,-106]",left,1,,,,,,001,2025-03-17_14h18.00.808,SL_base,2021.2.3,Win32,59.88023952,1.2162,,,75,0,75,0,1,,,,,,,,
,,"[""diamond"",""no_dis"",""hori"",""left"",[99999,99999],[106,-106]]",diamond,no_dis,hori,left,"[99999,99999]","[106,-106]",left,1,,,,,,001,2025-03-17_14h18.00.808,SL_base,2021.2.3,Win32,59.88023952,1.6315,,,76,0,76,0,1,,,,,,,,
,,"[""circle"",""no_dis"",""hori"",""left"",[99999,99999],[-106,106]]",circle,no_dis,hori,left,"[99999,99999]","[-106,106]",left,1,,,,,,001,2025-03-17_14h18.00.808,SL_base,2021.2.3,Win32,59.88023952,1.6447,,,77,0,77,0,1,,,,,,,,
,,"[""diamond"",""red"",""hori"",""left"",[-106,106],[150,0]]",diamond,red,hori,left,"[-106,106]","[150,0]",left,1,,,,,,001,2025-03-17_14h18.00.808,SL_base,2021.2.3,Win32,59.88023952,0.9337,,,78,0,78,0,1,,,,,,,,
,,"[""diamond"",""no_dis"",""hori"",""left"",[99999,99999],[150,0]]",diamond,no_dis,hori,left,"[99999,99999]","[150,0]",left,1,,,,,,001,2025-03-17_14h18.00.808,SL_base,2021.2.3,Win32,59.88023952,0.6834,,,79,0,79,0,1,,,,,,,,
,,"[""circle"",""red"",""vert"",""up"",[0,-150],[150,0]]",circle,red,vert,up,"[0,-150]","[150,0]",up,1,,,,,,001,2025-03-17_14h18.00.808,SL_base,2021.2.3,Win32,59.88023952,1.6188,,,80,0,80,0,1,,,,,,,,
,,"[""circle"",""green"",""hori"",""left"",[106,106],[150,0]]",circle,green,hori,left,"[106,106]","[150,0]",left,1,,,,,,001,2025-03-17_14h18.00.808,SL_base,2021.2.3,Win32,59.88023952,1.0825,,,81,0,81,0,1,,,,,,,,
,,"[""circle"",""red"",""hori"",""left"",[-106,-106],[0,-150]]",circle,red,hori,left,"[-106,-106]","[0,-150]",left,1,,,,,,001,2025-03-17_14h18.00.808,SL_base,2021.2.3,Win32,59.88023952,1.0001,,,82,0,82,0,1,,,,,,,,
,,"[""circle"",""no_dis"",""hori"",""left"",[99999,99999],[0,150]]",circle,no_dis,hori,left,"[99999,99999]","[0,150]",left,1,,,,,,001,2025-03-17_14h18.00.808,SL_base,2021.2.3,Win32,59.88023952,1.1959,,,83,0,83,0,1,,,,,,,,
,,"[""diamond"",""green"",""vert"",""up"",[-106,106],[-150,0]]",diamond,green,vert,up,"[-106,106]","[-150,0]",up,1,,,,,,001,2025-03-17_14h18.00.808,SL_base,2021.2.3,Win32,59.88023952,0.8804,,,84,0,84,0,1,,,,,,,,
,,"[""circle"",""red"",""vert"",""up"",[106,106],[-106,106]]",circle,red,vert,up,"[106,106]","[-106,106]",up,1,,,,,,001,2025-03-17_14h18.00.808,SL_base,2021.2.3,Win32,59.88023952,1.2004,,,85,0,85,0,1,,,,,,,,
,,"[""circle"",""green"",""hori"",""left"",[106,-106],[-106,106]]",circle,green,hori,left,"[106,-106]","[-106,106]",left,1,,,,,,001,2025-03-17_14h18.00.808,SL_base,2021.2.3,Win32,59.88023952,0.8169,,,86,0,86,0,1,,,,,,,,
,,"[""circle"",""no_dis"",""vert"",""up"",[99999,99999],[0,-150]]",circle,no_dis,vert,up,"[99999,99999]","[0,-150]",up,1,,,,,,001,2025-03-17_14h18.00.808,SL_base,2021.2.3,Win32,59.88023952,0.9178,,,87,0,87,0,1,,,,,,,,
,,"[""diamond"",""green"",""hori"",""left"",[-150,0],[-106,-106]]",diamond,green,hori,left,"[-150,0]","[-106,-106]",left,1,,,,,,001,2025-03-17_14h18.00.808,SL_base,2021.2.3,Win32,59.88023952,1.1001,,,88,0,88,0,1,,,,,,,,
,,"[""circle"",""no_dis"",""hori"",""left"",[99999,99999],[106,-106]]",circle,no_dis,hori,left,"[99999,99999]","[106,-106]",left,1,,,,,,001,2025-03-17_14h18.00.808,SL_base,2021.2.3,Win32,59.88023952,1.2499,,,89,0,89,0,1,,,,,,,,
