﻿key_resp.keys,key_resp.rt,trial_para,tar_shape,dis_color_condi,tar_line,cor_resp,dis_loc,tar_loc,resp.keys,resp.corr,resp.rt,trials.thisRepN,trials.thisTrialN,trials.thisN,trials.thisIndex,trials.ran,participant,date,expName,psychopyVersion,OS,frameRate,key_resp_2.keys,key_resp_2.rt,trials_2.thisRepN,trials_2.thisTrialN,trials_2.thisN,trials_2.thisIndex,trials_2.ran,block_num,key_resp_3.keys,key_resp_3.rt,trials_3.thisRepN,trials_3.thisTrialN,trials_3.thisN,trials_3.thisIndex,trials_3.ran
space,348.1673,"[""diamond"",""red"",""vert"",""up"",[0,150],[-106,106]]",diamond,red,vert,up,"[0,150]","[-106,106]",left,0,2.1718,0,0,0,0,1,001,2025-03-10_16h55.55.704,SL_base,2021.2.3,Win32,120.4819277,,,,,,,,,,,,,,,
,,"[""circle"",""green"",""hori"",""left"",[0,150],[106,106]]",circle,green,hori,left,"[0,150]","[106,106]",up,0,2.9061,1,0,1,0,1,001,2025-03-10_16h55.55.704,SL_base,2021.2.3,Win32,120.4819277,,,,,,,,,,,,,,,
,,"[""diamond"",""red"",""vert"",""up"",[106,106],[106,-106]]",diamond,red,vert,up,"[106,106]","[106,-106]",,0,,2,0,2,0,1,001,2025-03-10_16h55.55.704,SL_base,2021.2.3,Win32,120.4819277,,,,,,,,,,,,,,,
,,"[""circle"",""no_dis"",""vert"",""up"",[99999,99999],[-106,-106]]",circle,no_dis,vert,up,"[99999,99999]","[-106,-106]",left,0,2.033,3,0,3,0,1,001,2025-03-10_16h55.55.704,SL_base,2021.2.3,Win32,120.4819277,,,,,,,,,,,,,,,
,,"[""circle"",""red"",""vert"",""up"",[150,0],[-150,0]]",circle,red,vert,up,"[150,0]","[-150,0]",left,0,2.2796,4,0,4,0,1,001,2025-03-10_16h55.55.704,SL_base,2021.2.3,Win32,120.4819277,,,,,,,,,,,,,,,
,,"[""circle"",""no_dis"",""hori"",""left"",[99999,99999],[106,106]]",circle,no_dis,hori,left,"[99999,99999]","[106,106]",up,0,2.185,5,0,5,0,1,001,2025-03-10_16h55.55.704,SL_base,2021.2.3,Win32,120.4819277,,,,,,,,,,,,,,,
,,"[""diamond"",""no_dis"",""hori"",""left"",[99999,99999],[-150,0]]",diamond,no_dis,hori,left,"[99999,99999]","[-150,0]",left,1,2.3181,6,0,6,0,1,001,2025-03-10_16h55.55.704,SL_base,2021.2.3,Win32,120.4819277,,,,,,,,,,,,,,,
,,"[""circle"",""no_dis"",""vert"",""up"",[99999,99999],[-106,106]]",circle,no_dis,vert,up,"[99999,99999]","[-106,106]",left,0,1.8108,7,0,7,0,1,001,2025-03-10_16h55.55.704,SL_base,2021.2.3,Win32,120.4819277,,,,,,,,,,,,,,,
,,"[""diamond"",""no_dis"",""hori"",""left"",[99999,99999],[-150,0]]",diamond,no_dis,hori,left,"[99999,99999]","[-150,0]",left,1,1.5016,8,0,8,0,1,001,2025-03-10_16h55.55.704,SL_base,2021.2.3,Win32,120.4819277,,,,,,,,,,,,,,,
,,"[""circle"",""red"",""hori"",""left"",[0,150],[-150,0]]",circle,red,hori,left,"[0,150]","[-150,0]",left,1,1.5064,9,0,9,0,1,001,2025-03-10_16h55.55.704,SL_base,2021.2.3,Win32,120.4819277,,,,,,,,,,,,,,,
,,"[""diamond"",""red"",""vert"",""up"",[0,150],[-106,106]]",diamond,red,vert,up,"[0,150]","[-106,106]",up,1,2.5983,,,,,,001,2025-03-10_16h55.55.704,SL_base,2021.2.3,Win32,120.4819277,space,17.179,0,0,0,0,1,,,,,,,,
,,"[""circle"",""green"",""hori"",""left"",[0,150],[106,106]]",circle,green,hori,left,"[0,150]","[106,106]",left,1,1.7756,,,,,,001,2025-03-10_16h55.55.704,SL_base,2021.2.3,Win32,120.4819277,,,1,0,1,0,1,,,,,,,,
,,"[""diamond"",""red"",""vert"",""up"",[106,106],[106,-106]]",diamond,red,vert,up,"[106,106]","[106,-106]",up,1,2.6766,,,,,,001,2025-03-10_16h55.55.704,SL_base,2021.2.3,Win32,120.4819277,,,2,0,2,0,1,,,,,,,,
,,"[""circle"",""no_dis"",""vert"",""up"",[99999,99999],[-106,-106]]",circle,no_dis,vert,up,"[99999,99999]","[-106,-106]",up,1,1.6255,,,,,,001,2025-03-10_16h55.55.704,SL_base,2021.2.3,Win32,120.4819277,,,3,0,3,0,1,,,,,,,,
,,"[""circle"",""red"",""vert"",""up"",[150,0],[-150,0]]",circle,red,vert,up,"[150,0]","[-150,0]",up,1,1.8388,,,,,,001,2025-03-10_16h55.55.704,SL_base,2021.2.3,Win32,120.4819277,,,4,0,4,0,1,,,,,,,,
,,"[""circle"",""no_dis"",""hori"",""left"",[99999,99999],[106,106]]",circle,no_dis,hori,left,"[99999,99999]","[106,106]",left,1,2.1427,,,,,,001,2025-03-10_16h55.55.704,SL_base,2021.2.3,Win32,120.4819277,,,5,0,5,0,1,,,,,,,,
,,"[""diamond"",""no_dis"",""hori"",""left"",[99999,99999],[-150,0]]",diamond,no_dis,hori,left,"[99999,99999]","[-150,0]",left,1,1.4924,,,,,,001,2025-03-10_16h55.55.704,SL_base,2021.2.3,Win32,120.4819277,,,6,0,6,0,1,,,,,,,,
,,"[""circle"",""no_dis"",""vert"",""up"",[99999,99999],[-106,106]]",circle,no_dis,vert,up,"[99999,99999]","[-106,106]",up,1,1.3828,,,,,,001,2025-03-10_16h55.55.704,SL_base,2021.2.3,Win32,120.4819277,,,7,0,7,0,1,,,,,,,,
,,"[""diamond"",""no_dis"",""hori"",""left"",[99999,99999],[-150,0]]",diamond,no_dis,hori,left,"[99999,99999]","[-150,0]",left,1,1.3797,,,,,,001,2025-03-10_16h55.55.704,SL_base,2021.2.3,Win32,120.4819277,,,8,0,8,0,1,,,,,,,,
,,"[""circle"",""red"",""hori"",""left"",[0,150],[-150,0]]",circle,red,hori,left,"[0,150]","[-150,0]",left,1,2.0113,,,,,,001,2025-03-10_16h55.55.704,SL_base,2021.2.3,Win32,120.4819277,,,9,0,9,0,1,,,,,,,,
,,"[""diamond"",""red"",""hori"",""left"",[-106,106],[0,150]]",diamond,red,hori,left,"[-106,106]","[0,150]",left,1,2.6936,,,,,,001,2025-03-10_16h55.55.704,SL_base,2021.2.3,Win32,120.4819277,,,10,0,10,0,1,,,,,,,,
,,"[""diamond"",""green"",""hori"",""left"",[0,150],[-150,0]]",diamond,green,hori,left,"[0,150]","[-150,0]",left,1,1.2853,,,,,,001,2025-03-10_16h55.55.704,SL_base,2021.2.3,Win32,120.4819277,,,11,0,11,0,1,,,,,,,,
,,"[""diamond"",""green"",""vert"",""up"",[106,-106],[150,0]]",diamond,green,vert,up,"[106,-106]","[150,0]",up,1,1.2418,,,,,,001,2025-03-10_16h55.55.704,SL_base,2021.2.3,Win32,120.4819277,,,12,0,12,0,1,,,,,,,,
,,"[""diamond"",""green"",""vert"",""up"",[0,150],[106,-106]]",diamond,green,vert,up,"[0,150]","[106,-106]",up,1,1.1738,,,,,,001,2025-03-10_16h55.55.704,SL_base,2021.2.3,Win32,120.4819277,,,13,0,13,0,1,,,,,,,,
,,"[""circle"",""red"",""hori"",""left"",[106,-106],[0,-150]]",circle,red,hori,left,"[106,-106]","[0,-150]",left,1,1.176,,,,,,001,2025-03-10_16h55.55.704,SL_base,2021.2.3,Win32,120.4819277,,,14,0,14,0,1,,,,,,,,
,,"[""circle"",""no_dis"",""vert"",""up"",[99999,99999],[106,106]]",circle,no_dis,vert,up,"[99999,99999]","[106,106]",up,1,1.9495,,,,,,001,2025-03-10_16h55.55.704,SL_base,2021.2.3,Win32,120.4819277,,,15,0,15,0,1,,,,,,,,
,,"[""circle"",""red"",""vert"",""up"",[0,150],[106,-106]]",circle,red,vert,up,"[0,150]","[106,-106]",up,1,2.7486,,,,,,001,2025-03-10_16h55.55.704,SL_base,2021.2.3,Win32,120.4819277,,,16,0,16,0,1,,,,,,,,
,,"[""circle"",""no_dis"",""hori"",""left"",[99999,99999],[0,150]]",circle,no_dis,hori,left,"[99999,99999]","[0,150]",left,1,1.8194,,,,,,001,2025-03-10_16h55.55.704,SL_base,2021.2.3,Win32,120.4819277,,,17,0,17,0,1,,,,,,,,
,,"[""circle"",""no_dis"",""vert"",""up"",[99999,99999],[106,-106]]",circle,no_dis,vert,up,"[99999,99999]","[106,-106]",up,1,1.3682,,,,,,001,2025-03-10_16h55.55.704,SL_base,2021.2.3,Win32,120.4819277,,,18,0,18,0,1,,,,,,,,
,,"[""circle"",""green"",""vert"",""up"",[0,-150],[-106,106]]",circle,green,vert,up,"[0,-150]","[-106,106]",up,1,2.0077,,,,,,001,2025-03-10_16h55.55.704,SL_base,2021.2.3,Win32,120.4819277,,,19,0,19,0,1,,,,,,,,
,,"[""diamond"",""no_dis"",""hori"",""left"",[99999,99999],[-150,0]]",diamond,no_dis,hori,left,"[99999,99999]","[-150,0]",left,1,1.4904,,,,,,001,2025-03-10_16h55.55.704,SL_base,2021.2.3,Win32,120.4819277,,,20,0,20,0,1,,,,,,,,
,,"[""circle"",""green"",""hori"",""left"",[0,150],[-150,0]]",circle,green,hori,left,"[0,150]","[-150,0]",left,1,1.4436,,,,,,001,2025-03-10_16h55.55.704,SL_base,2021.2.3,Win32,120.4819277,,,21,0,21,0,1,,,,,,,,
,,"[""diamond"",""red"",""vert"",""up"",[0,150],[-150,0]]",diamond,red,vert,up,"[0,150]","[-150,0]",up,1,1.6321,,,,,,001,2025-03-10_16h55.55.704,SL_base,2021.2.3,Win32,120.4819277,,,22,0,22,0,1,,,,,,,,
,,"[""diamond"",""no_dis"",""vert"",""up"",[99999,99999],[106,-106]]",diamond,no_dis,vert,up,"[99999,99999]","[106,-106]",up,1,1.8299,,,,,,001,2025-03-10_16h55.55.704,SL_base,2021.2.3,Win32,120.4819277,,,23,0,23,0,1,,,,,,,,
,,"[""circle"",""no_dis"",""vert"",""up"",[99999,99999],[0,150]]",circle,no_dis,vert,up,"[99999,99999]","[0,150]",up,1,1.8024,,,,,,001,2025-03-10_16h55.55.704,SL_base,2021.2.3,Win32,120.4819277,,,24,0,24,0,1,,,,,,,,
,,"[""diamond"",""no_dis"",""vert"",""up"",[99999,99999],[-106,-106]]",diamond,no_dis,vert,up,"[99999,99999]","[-106,-106]",up,1,2.6725,,,,,,001,2025-03-10_16h55.55.704,SL_base,2021.2.3,Win32,120.4819277,,,25,0,25,0,1,,,,,,,,
,,"[""diamond"",""red"",""hori"",""left"",[106,106],[0,150]]",diamond,red,hori,left,"[106,106]","[0,150]",left,1,1.9302,,,,,,001,2025-03-10_16h55.55.704,SL_base,2021.2.3,Win32,120.4819277,,,26,0,26,0,1,,,,,,,,
,,"[""diamond"",""no_dis"",""hori"",""left"",[99999,99999],[0,-150]]",diamond,no_dis,hori,left,"[99999,99999]","[0,-150]",left,1,2.0986,,,,,,001,2025-03-10_16h55.55.704,SL_base,2021.2.3,Win32,120.4819277,,,27,0,27,0,1,,,,,,,,
,,"[""circle"",""red"",""hori"",""left"",[0,-150],[0,150]]",circle,red,hori,left,"[0,-150]","[0,150]",left,1,1.9089,,,,,,001,2025-03-10_16h55.55.704,SL_base,2021.2.3,Win32,120.4819277,,,28,0,28,0,1,,,,,,,,
,,"[""circle"",""green"",""vert"",""up"",[-106,-106],[0,-150]]",circle,green,vert,up,"[-106,-106]","[0,-150]",up,1,2.6069,,,,,,001,2025-03-10_16h55.55.704,SL_base,2021.2.3,Win32,120.4819277,,,29,0,29,0,1,,,,,,,,
,,"[""circle"",""red"",""vert"",""up"",[0,150],[106,-106]]",circle,red,vert,up,"[0,150]","[106,-106]",up,1,2.4123,,,,,,001,2025-03-10_16h55.55.704,SL_base,2021.2.3,Win32,120.4819277,,,30,0,30,0,1,,,,,,,,
,,"[""diamond"",""red"",""vert"",""up"",[-150,0],[106,106]]",diamond,red,vert,up,"[-150,0]","[106,106]",up,1,1.7296,,,,,,001,2025-03-10_16h55.55.704,SL_base,2021.2.3,Win32,120.4819277,,,31,0,31,0,1,,,,,,,,
,,"[""circle"",""red"",""hori"",""left"",[-106,106],[0,150]]",circle,red,hori,left,"[-106,106]","[0,150]",left,1,1.6603,,,,,,001,2025-03-10_16h55.55.704,SL_base,2021.2.3,Win32,120.4819277,,,32,0,32,0,1,,,,,,,,
,,"[""circle"",""red"",""hori"",""left"",[0,150],[0,-150]]",circle,red,hori,left,"[0,150]","[0,-150]",left,1,2.048,,,,,,001,2025-03-10_16h55.55.704,SL_base,2021.2.3,Win32,120.4819277,,,33,0,33,0,1,,,,,,,,
,,"[""circle"",""green"",""vert"",""up"",[0,-150],[0,150]]",circle,green,vert,up,"[0,-150]","[0,150]",up,1,2.6902,,,,,,001,2025-03-10_16h55.55.704,SL_base,2021.2.3,Win32,120.4819277,,,34,0,34,0,1,,,,,,,,
,,"[""diamond"",""red"",""vert"",""up"",[150,0],[-106,-106]]",diamond,red,vert,up,"[150,0]","[-106,-106]",up,1,1.7625,,,,,,001,2025-03-10_16h55.55.704,SL_base,2021.2.3,Win32,120.4819277,,,35,0,35,0,1,,,,,,,,
,,"[""circle"",""red"",""vert"",""up"",[106,106],[-106,-106]]",circle,red,vert,up,"[106,106]","[-106,-106]",up,1,1.2592,,,,,,001,2025-03-10_16h55.55.704,SL_base,2021.2.3,Win32,120.4819277,,,36,0,36,0,1,,,,,,,,
,,"[""diamond"",""green"",""hori"",""left"",[-150,0],[150,0]]",diamond,green,hori,left,"[-150,0]","[150,0]",left,1,1.4129,,,,,,001,2025-03-10_16h55.55.704,SL_base,2021.2.3,Win32,120.4819277,,,37,0,37,0,1,,,,,,,,
,,"[""circle"",""no_dis"",""hori"",""left"",[99999,99999],[150,0]]",circle,no_dis,hori,left,"[99999,99999]","[150,0]",left,1,1.5936,,,,,,001,2025-03-10_16h55.55.704,SL_base,2021.2.3,Win32,120.4819277,,,38,0,38,0,1,,,,,,,,
,,"[""diamond"",""red"",""vert"",""up"",[-106,106],[106,106]]",diamond,red,vert,up,"[-106,106]","[106,106]",up,1,2.4396,,,,,,001,2025-03-10_16h55.55.704,SL_base,2021.2.3,Win32,120.4819277,,,39,0,39,0,1,,,,,,,,
,,"[""diamond"",""red"",""hori"",""left"",[150,0],[-106,106]]",diamond,red,hori,left,"[150,0]","[-106,106]",left,1,1.1312,,,,,,001,2025-03-10_16h55.55.704,SL_base,2021.2.3,Win32,120.4819277,,,40,0,40,0,1,,,,,,,,
,,"[""diamond"",""no_dis"",""vert"",""up"",[99999,99999],[0,-150]]",diamond,no_dis,vert,up,"[99999,99999]","[0,-150]",up,1,1.2691,,,,,,001,2025-03-10_16h55.55.704,SL_base,2021.2.3,Win32,120.4819277,,,41,0,41,0,1,,,,,,,,
,,"[""circle"",""green"",""vert"",""up"",[150,0],[106,106]]",circle,green,vert,up,"[150,0]","[106,106]",up,1,1.8424,,,,,,001,2025-03-10_16h55.55.704,SL_base,2021.2.3,Win32,120.4819277,,,42,0,42,0,1,,,,,,,,
,,"[""circle"",""green"",""hori"",""left"",[0,150],[150,0]]",circle,green,hori,left,"[0,150]","[150,0]",left,1,1.5361,,,,,,001,2025-03-10_16h55.55.704,SL_base,2021.2.3,Win32,120.4819277,,,43,0,43,0,1,,,,,,,,
,,"[""diamond"",""no_dis"",""hori"",""left"",[99999,99999],[106,106]]",diamond,no_dis,hori,left,"[99999,99999]","[106,106]",left,1,2.4974,,,,,,001,2025-03-10_16h55.55.704,SL_base,2021.2.3,Win32,120.4819277,,,44,0,44,0,1,,,,,,,,
,,"[""diamond"",""green"",""vert"",""up"",[150,0],[-106,106]]",diamond,green,vert,up,"[150,0]","[-106,106]",up,1,2.8651,,,,,,001,2025-03-10_16h55.55.704,SL_base,2021.2.3,Win32,120.4819277,,,45,0,45,0,1,,,,,,,,
,,"[""diamond"",""green"",""vert"",""up"",[0,150],[0,-150]]",diamond,green,vert,up,"[0,150]","[0,-150]",up,1,1.1962,,,,,,001,2025-03-10_16h55.55.704,SL_base,2021.2.3,Win32,120.4819277,,,46,0,46,0,1,,,,,,,,
,,"[""circle"",""green"",""hori"",""left"",[-150,0],[0,-150]]",circle,green,hori,left,"[-150,0]","[0,-150]",left,1,1.2681,,,,,,001,2025-03-10_16h55.55.704,SL_base,2021.2.3,Win32,120.4819277,,,47,0,47,0,1,,,,,,,,
,,"[""diamond"",""green"",""hori"",""left"",[0,150],[-106,-106]]",diamond,green,hori,left,"[0,150]","[-106,-106]",left,1,1.4846,,,,,,001,2025-03-10_16h55.55.704,SL_base,2021.2.3,Win32,120.4819277,,,48,0,48,0,1,,,,,,,,
,,"[""diamond"",""red"",""vert"",""up"",[0,150],[106,106]]",diamond,red,vert,up,"[0,150]","[106,106]",,0,,,,,,,001,2025-03-10_16h55.55.704,SL_base,2021.2.3,Win32,120.4819277,,,49,0,49,0,1,,,,,,,,
,,"[""diamond"",""red"",""hori"",""left"",[0,-150],[106,-106]]",diamond,red,hori,left,"[0,-150]","[106,-106]",left,1,1.551,,,,,,001,2025-03-10_16h55.55.704,SL_base,2021.2.3,Win32,120.4819277,,,50,0,50,0,1,,,,,,,,
,,"[""diamond"",""no_dis"",""hori"",""left"",[99999,99999],[106,-106]]",diamond,no_dis,hori,left,"[99999,99999]","[106,-106]",left,1,1.5181,,,,,,001,2025-03-10_16h55.55.704,SL_base,2021.2.3,Win32,120.4819277,,,51,0,51,0,1,,,,,,,,
,,"[""diamond"",""no_dis"",""vert"",""up"",[99999,99999],[150,0]]",diamond,no_dis,vert,up,"[99999,99999]","[150,0]",up,1,2.0566,,,,,,001,2025-03-10_16h55.55.704,SL_base,2021.2.3,Win32,120.4819277,,,52,0,52,0,1,,,,,,,,
,,"[""diamond"",""no_dis"",""vert"",""up"",[99999,99999],[0,150]]",diamond,no_dis,vert,up,"[99999,99999]","[0,150]",up,1,1.4893,,,,,,001,2025-03-10_16h55.55.704,SL_base,2021.2.3,Win32,120.4819277,,,53,0,53,0,1,,,,,,,,
,,"[""diamond"",""red"",""vert"",""up"",[106,-106],[150,0]]",diamond,red,vert,up,"[106,-106]","[150,0]",up,1,2.0915,,,,,,001,2025-03-10_16h55.55.704,SL_base,2021.2.3,Win32,120.4819277,,,54,0,54,0,1,,,,,,,,
,,"[""diamond"",""red"",""hori"",""left"",[-106,106],[106,-106]]",diamond,red,hori,left,"[-106,106]","[106,-106]",left,1,1.6444,,,,,,001,2025-03-10_16h55.55.704,SL_base,2021.2.3,Win32,120.4819277,,,55,0,55,0,1,,,,,,,,
,,"[""circle"",""no_dis"",""hori"",""left"",[99999,99999],[106,106]]",circle,no_dis,hori,left,"[99999,99999]","[106,106]",left,1,0.9707,,,,,,001,2025-03-10_16h55.55.704,SL_base,2021.2.3,Win32,120.4819277,,,56,0,56,0,1,,,,,,,,
,,"[""diamond"",""red"",""vert"",""up"",[-150,0],[0,-150]]",diamond,red,vert,up,"[-150,0]","[0,-150]",up,1,1.4796,,,,,,001,2025-03-10_16h55.55.704,SL_base,2021.2.3,Win32,120.4819277,,,57,0,57,0,1,,,,,,,,
,,"[""diamond"",""green"",""vert"",""up"",[106,-106],[0,150]]",diamond,green,vert,up,"[106,-106]","[0,150]",up,1,1.5554,,,,,,001,2025-03-10_16h55.55.704,SL_base,2021.2.3,Win32,120.4819277,,,58,0,58,0,1,,,,,,,,
,,"[""circle"",""green"",""vert"",""up"",[106,106],[0,-150]]",circle,green,vert,up,"[106,106]","[0,-150]",up,1,2.836,,,,,,001,2025-03-10_16h55.55.704,SL_base,2021.2.3,Win32,120.4819277,,,59,0,59,0,1,,,,,,,,
,,"[""circle"",""no_dis"",""vert"",""up"",[99999,99999],[150,0]]",circle,no_dis,vert,up,"[99999,99999]","[150,0]",up,1,1.6957,,,,,,001,2025-03-10_16h55.55.704,SL_base,2021.2.3,Win32,120.4819277,,,60,0,60,0,1,,,,,,,,
,,"[""circle"",""no_dis"",""hori"",""left"",[99999,99999],[-106,106]]",circle,no_dis,hori,left,"[99999,99999]","[-106,106]",left,1,1.2192,,,,,,001,2025-03-10_16h55.55.704,SL_base,2021.2.3,Win32,120.4819277,,,61,0,61,0,1,,,,,,,,
,,"[""circle"",""green"",""hori"",""left"",[106,106],[0,-150]]",circle,green,hori,left,"[106,106]","[0,-150]",left,1,1.2503,,,,,,001,2025-03-10_16h55.55.704,SL_base,2021.2.3,Win32,120.4819277,,,62,0,62,0,1,,,,,,,,
,,"[""diamond"",""no_dis"",""vert"",""up"",[99999,99999],[0,150]]",diamond,no_dis,vert,up,"[99999,99999]","[0,150]",up,1,1.2256,,,,,,001,2025-03-10_16h55.55.704,SL_base,2021.2.3,Win32,120.4819277,,,63,0,63,0,1,,,,,,,,
,,"[""circle"",""red"",""vert"",""up"",[-106,-106],[-106,106]]",circle,red,vert,up,"[-106,-106]","[-106,106]",up,1,1.1175,,,,,,001,2025-03-10_16h55.55.704,SL_base,2021.2.3,Win32,120.4819277,,,64,0,64,0,1,,,,,,,,
,,"[""circle"",""no_dis"",""hori"",""left"",[99999,99999],[106,-106]]",circle,no_dis,hori,left,"[99999,99999]","[106,-106]",left,1,1.1355,,,,,,001,2025-03-10_16h55.55.704,SL_base,2021.2.3,Win32,120.4819277,,,65,0,65,0,1,,,,,,,,
,,"[""diamond"",""red"",""hori"",""left"",[106,-106],[106,106]]",diamond,red,hori,left,"[106,-106]","[106,106]",left,1,2.6471,,,,,,001,2025-03-10_16h55.55.704,SL_base,2021.2.3,Win32,120.4819277,,,66,0,66,0,1,,,,,,,,
,,"[""diamond"",""green"",""hori"",""left"",[-106,-106],[106,106]]",diamond,green,hori,left,"[-106,-106]","[106,106]",left,1,2.1214,,,,,,001,2025-03-10_16h55.55.704,SL_base,2021.2.3,Win32,120.4819277,,,67,0,67,0,1,,,,,,,,
,,"[""circle"",""green"",""vert"",""up"",[-106,106],[-106,-106]]",circle,green,vert,up,"[-106,106]","[-106,-106]",left,0,1.9658,,,,,,001,2025-03-10_16h55.55.704,SL_base,2021.2.3,Win32,120.4819277,,,68,0,68,0,1,,,,,,,,
,,"[""diamond"",""no_dis"",""vert"",""up"",[99999,99999],[-106,-106]]",diamond,no_dis,vert,up,"[99999,99999]","[-106,-106]",up,1,1.2183,,,,,,001,2025-03-10_16h55.55.704,SL_base,2021.2.3,Win32,120.4819277,,,69,0,69,0,1,,,,,,,,
,,"[""circle"",""green"",""hori"",""left"",[0,150],[-106,106]]",circle,green,hori,left,"[0,150]","[-106,106]",left,1,2.1443,,,,,,001,2025-03-10_16h55.55.704,SL_base,2021.2.3,Win32,120.4819277,,,70,0,70,0,1,,,,,,,,
,,"[""diamond"",""green"",""vert"",""up"",[-106,-106],[-106,106]]",diamond,green,vert,up,"[-106,-106]","[-106,106]",up,1,1.6394,,,,,,001,2025-03-10_16h55.55.704,SL_base,2021.2.3,Win32,120.4819277,,,71,0,71,0,1,,,,,,,,
,,"[""circle"",""red"",""vert"",""up"",[150,0],[-106,106]]",circle,red,vert,up,"[150,0]","[-106,106]",up,1,1.877,,,,,,001,2025-03-10_16h55.55.704,SL_base,2021.2.3,Win32,120.4819277,,,72,0,72,0,1,,,,,,,,
,,"[""diamond"",""no_dis"",""hori"",""left"",[99999,99999],[150,0]]",diamond,no_dis,hori,left,"[99999,99999]","[150,0]",left,1,1.2068,,,,,,001,2025-03-10_16h55.55.704,SL_base,2021.2.3,Win32,120.4819277,,,73,0,73,0,1,,,,,,,,
,,"[""circle"",""red"",""hori"",""left"",[-106,-106],[-150,0]]",circle,red,hori,left,"[-106,-106]","[-150,0]",left,1,2.4763,,,,,,001,2025-03-10_16h55.55.704,SL_base,2021.2.3,Win32,120.4819277,,,74,0,74,0,1,,,,,,,,
,,"[""circle"",""no_dis"",""hori"",""left"",[99999,99999],[-150,0]]",circle,no_dis,hori,left,"[99999,99999]","[-150,0]",left,1,1.3651,,,,,,001,2025-03-10_16h55.55.704,SL_base,2021.2.3,Win32,120.4819277,,,75,0,75,0,1,,,,,,,,
,,"[""circle"",""green"",""hori"",""left"",[-106,-106],[106,106]]",circle,green,hori,left,"[-106,-106]","[106,106]",left,1,1.5709,,,,,,001,2025-03-10_16h55.55.704,SL_base,2021.2.3,Win32,120.4819277,,,76,0,76,0,1,,,,,,,,
,,"[""circle"",""no_dis"",""vert"",""up"",[99999,99999],[106,106]]",circle,no_dis,vert,up,"[99999,99999]","[106,106]",up,1,1.4655,,,,,,001,2025-03-10_16h55.55.704,SL_base,2021.2.3,Win32,120.4819277,,,77,0,77,0,1,,,,,,,,
,,"[""diamond"",""green"",""hori"",""left"",[0,150],[0,-150]]",diamond,green,hori,left,"[0,150]","[0,-150]",,0,,,,,,,001,2025-03-10_16h55.55.704,SL_base,2021.2.3,Win32,120.4819277,,,78,0,78,0,1,,,,,,,,
,,"[""diamond"",""red"",""vert"",""up"",[106,106],[0,-150]]",diamond,red,vert,up,"[106,106]","[0,-150]",up,1,2.0581,,,,,,001,2025-03-10_16h55.55.704,SL_base,2021.2.3,Win32,120.4819277,,,79,0,79,0,1,,,,,,,,
,,"[""diamond"",""red"",""hori"",""left"",[0,150],[-106,-106]]",diamond,red,hori,left,"[0,150]","[-106,-106]",left,1,2.1881,,,,,,001,2025-03-10_16h55.55.704,SL_base,2021.2.3,Win32,120.4819277,,,80,0,80,0,1,,,,,,,,
,,"[""circle"",""red"",""vert"",""up"",[0,150],[-106,-106]]",circle,red,vert,up,"[0,150]","[-106,-106]",up,1,1.4186,,,,,,001,2025-03-10_16h55.55.704,SL_base,2021.2.3,Win32,120.4819277,,,81,0,81,0,1,,,,,,,,
,,"[""circle"",""red"",""vert"",""up"",[-150,0],[0,150]]",circle,red,vert,up,"[-150,0]","[0,150]",up,1,1.7692,,,,,,001,2025-03-10_16h55.55.704,SL_base,2021.2.3,Win32,120.4819277,,,82,0,82,0,1,,,,,,,,
,,"[""circle"",""red"",""vert"",""up"",[0,-150],[106,106]]",circle,red,vert,up,"[0,-150]","[106,106]",up,1,1.1285,,,,,,001,2025-03-10_16h55.55.704,SL_base,2021.2.3,Win32,120.4819277,,,83,0,83,0,1,,,,,,,,
,,"[""circle"",""no_dis"",""vert"",""up"",[99999,99999],[-106,106]]",circle,no_dis,vert,up,"[99999,99999]","[-106,106]",up,1,0.8335,,,,,,001,2025-03-10_16h55.55.704,SL_base,2021.2.3,Win32,120.4819277,,,84,0,84,0,1,,,,,,,,
,,"[""circle"",""red"",""hori"",""left"",[-150,0],[106,-106]]",circle,red,hori,left,"[-150,0]","[106,-106]",left,1,1.0288,,,,,,001,2025-03-10_16h55.55.704,SL_base,2021.2.3,Win32,120.4819277,,,85,0,85,0,1,,,,,,,,
,,"[""diamond"",""red"",""hori"",""left"",[0,150],[150,0]]",diamond,red,hori,left,"[0,150]","[150,0]",left,1,1.3532,,,,,,001,2025-03-10_16h55.55.704,SL_base,2021.2.3,Win32,120.4819277,,,86,0,86,0,1,,,,,,,,
,,"[""diamond"",""no_dis"",""vert"",""up"",[99999,99999],[0,150]]",diamond,no_dis,vert,up,"[99999,99999]","[0,150]",up,1,0.7679,,,,,,001,2025-03-10_16h55.55.704,SL_base,2021.2.3,Win32,120.4819277,,,87,0,87,0,1,,,,,,,,
,,"[""diamond"",""red"",""hori"",""left"",[-106,106],[150,0]]",diamond,red,hori,left,"[-106,106]","[150,0]",left,1,1.159,,,,,,001,2025-03-10_16h55.55.704,SL_base,2021.2.3,Win32,120.4819277,,,88,0,88,0,1,,,,,,,,
,,"[""diamond"",""green"",""vert"",""up"",[0,150],[-150,0]]",diamond,green,vert,up,"[0,150]","[-150,0]",up,1,1.2066,,,,,,001,2025-03-10_16h55.55.704,SL_base,2021.2.3,Win32,120.4819277,,,89,0,89,0,1,,,,,,,,
,,"[""circle"",""green"",""hori"",""left"",[106,106],[-150,0]]",circle,green,hori,left,"[106,106]","[-150,0]",left,1,1.5159,,,,,,001,2025-03-10_16h55.55.704,SL_base,2021.2.3,Win32,120.4819277,,,90,0,90,0,1,,,,,,,,
,,"[""diamond"",""green"",""hori"",""left"",[-106,106],[0,-150]]",diamond,green,hori,left,"[-106,106]","[0,-150]",left,1,1.1574,,,,,,001,2025-03-10_16h55.55.704,SL_base,2021.2.3,Win32,120.4819277,,,91,0,91,0,1,,,,,,,,
,,"[""diamond"",""green"",""hori"",""left"",[106,-106],[0,-150]]",diamond,green,hori,left,"[106,-106]","[0,-150]",left,1,1.6608,,,,,,001,2025-03-10_16h55.55.704,SL_base,2021.2.3,Win32,120.4819277,,,92,0,92,0,1,,,,,,,,
,,"[""circle"",""green"",""vert"",""up"",[-106,-106],[106,106]]",circle,green,vert,up,"[-106,-106]","[106,106]",up,1,1.6022,,,,,,001,2025-03-10_16h55.55.704,SL_base,2021.2.3,Win32,120.4819277,,,93,0,93,0,1,,,,,,,,
,,"[""circle"",""no_dis"",""hori"",""left"",[99999,99999],[-106,106]]",circle,no_dis,hori,left,"[99999,99999]","[-106,106]",left,1,0.9125,,,,,,001,2025-03-10_16h55.55.704,SL_base,2021.2.3,Win32,120.4819277,,,94,0,94,0,1,,,,,,,,
,,"[""circle"",""green"",""hori"",""left"",[0,150],[-106,106]]",circle,green,hori,left,"[0,150]","[-106,106]",left,1,1.7195,,,,,,001,2025-03-10_16h55.55.704,SL_base,2021.2.3,Win32,120.4819277,,,95,0,95,0,1,,,,,,,,
,,"[""diamond"",""green"",""vert"",""up"",[0,150],[150,0]]",diamond,green,vert,up,"[0,150]","[150,0]",up,1,1.2727,,,,,,001,2025-03-10_16h55.55.704,SL_base,2021.2.3,Win32,120.4819277,,,96,0,96,0,1,,,,,,,,
,,"[""circle"",""no_dis"",""hori"",""left"",[99999,99999],[-106,106]]",circle,no_dis,hori,left,"[99999,99999]","[-106,106]",left,1,1.405,,,,,,001,2025-03-10_16h55.55.704,SL_base,2021.2.3,Win32,120.4819277,,,97,0,97,0,1,,,,,,,,
,,"[""diamond"",""green"",""hori"",""left"",[0,-150],[-150,0]]",diamond,green,hori,left,"[0,-150]","[-150,0]",left,1,1.531,,,,,,001,2025-03-10_16h55.55.704,SL_base,2021.2.3,Win32,120.4819277,,,98,0,98,0,1,,,,,,,,
,,"[""diamond"",""green"",""hori"",""left"",[-106,-106],[106,106]]",diamond,green,hori,left,"[-106,-106]","[106,106]",left,1,1.8191,,,,,,001,2025-03-10_16h55.55.704,SL_base,2021.2.3,Win32,120.4819277,,,99,0,99,0,1,,,,,,,,
,,"[""circle"",""green"",""vert"",""up"",[-150,0],[106,106]]",circle,green,vert,up,"[-150,0]","[106,106]",up,1,1.4582,,,,,,001,2025-03-10_16h55.55.704,SL_base,2021.2.3,Win32,120.4819277,,,100,0,100,0,1,,,,,,,,
,,"[""diamond"",""no_dis"",""vert"",""up"",[99999,99999],[0,-150]]",diamond,no_dis,vert,up,"[99999,99999]","[0,-150]",up,1,1.917,,,,,,001,2025-03-10_16h55.55.704,SL_base,2021.2.3,Win32,120.4819277,,,101,0,101,0,1,,,,,,,,
,,"[""diamond"",""no_dis"",""vert"",""up"",[99999,99999],[150,0]]",diamond,no_dis,vert,up,"[99999,99999]","[150,0]",up,1,1.7395,,,,,,001,2025-03-10_16h55.55.704,SL_base,2021.2.3,Win32,120.4819277,,,102,0,102,0,1,,,,,,,,
,,"[""diamond"",""no_dis"",""hori"",""left"",[99999,99999],[-106,-106]]",diamond,no_dis,hori,left,"[99999,99999]","[-106,-106]",left,1,1.2502,,,,,,001,2025-03-10_16h55.55.704,SL_base,2021.2.3,Win32,120.4819277,,,103,0,103,0,1,,,,,,,,
,,"[""diamond"",""green"",""hori"",""left"",[0,-150],[-106,-106]]",diamond,green,hori,left,"[0,-150]","[-106,-106]",left,1,1.1086,,,,,,001,2025-03-10_16h55.55.704,SL_base,2021.2.3,Win32,120.4819277,,,104,0,104,0,1,,,,,,,,
,,"[""circle"",""no_dis"",""vert"",""up"",[99999,99999],[-106,-106]]",circle,no_dis,vert,up,"[99999,99999]","[-106,-106]",left,0,1.4233,,,,,,001,2025-03-10_16h55.55.704,SL_base,2021.2.3,Win32,120.4819277,,,105,0,105,0,1,,,,,,,,
,,"[""circle"",""green"",""vert"",""up"",[0,150],[106,-106]]",circle,green,vert,up,"[0,150]","[106,-106]",up,1,1.7966,,,,,,001,2025-03-10_16h55.55.704,SL_base,2021.2.3,Win32,120.4819277,,,106,0,106,0,1,,,,,,,,
,,"[""circle"",""red"",""vert"",""up"",[150,0],[106,106]]",circle,red,vert,up,"[150,0]","[106,106]",left,0,1.3628,,,,,,001,2025-03-10_16h55.55.704,SL_base,2021.2.3,Win32,120.4819277,,,107,0,107,0,1,,,,,,,,
,,"[""circle"",""no_dis"",""hori"",""left"",[99999,99999],[0,-150]]",circle,no_dis,hori,left,"[99999,99999]","[0,-150]",left,1,1.0192,,,,,,001,2025-03-10_16h55.55.704,SL_base,2021.2.3,Win32,120.4819277,,,108,0,108,0,1,,,,,,,,
,,"[""diamond"",""green"",""vert"",""up"",[150,0],[0,-150]]",diamond,green,vert,up,"[150,0]","[0,-150]",up,1,1.5916,,,,,,001,2025-03-10_16h55.55.704,SL_base,2021.2.3,Win32,120.4819277,,,109,0,109,0,1,,,,,,,,
,,"[""circle"",""green"",""vert"",""up"",[-106,106],[0,-150]]",circle,green,vert,up,"[-106,106]","[0,-150]",up,1,1.6841,,,,,,001,2025-03-10_16h55.55.704,SL_base,2021.2.3,Win32,120.4819277,,,110,0,110,0,1,,,,,,,,
,,"[""diamond"",""red"",""hori"",""left"",[0,-150],[-106,-106]]",diamond,red,hori,left,"[0,-150]","[-106,-106]",left,1,1.8857,,,,,,001,2025-03-10_16h55.55.704,SL_base,2021.2.3,Win32,120.4819277,,,111,0,111,0,1,,,,,,,,
,,"[""circle"",""no_dis"",""vert"",""up"",[99999,99999],[106,-106]]",circle,no_dis,vert,up,"[99999,99999]","[106,-106]",up,1,1.7453,,,,,,001,2025-03-10_16h55.55.704,SL_base,2021.2.3,Win32,120.4819277,,,112,0,112,0,1,,,,,,,,
,,"[""diamond"",""no_dis"",""hori"",""left"",[99999,99999],[-150,0]]",diamond,no_dis,hori,left,"[99999,99999]","[-150,0]",left,1,1.2089,,,,,,001,2025-03-10_16h55.55.704,SL_base,2021.2.3,Win32,120.4819277,,,113,0,113,0,1,,,,,,,,
,,"[""circle"",""red"",""hori"",""left"",[106,106],[-106,106]]",circle,red,hori,left,"[106,106]","[-106,106]",left,1,1.4092,,,,,,001,2025-03-10_16h55.55.704,SL_base,2021.2.3,Win32,120.4819277,,,114,0,114,0,1,,,,,,,,
,,"[""circle"",""red"",""hori"",""left"",[106,-106],[0,-150]]",circle,red,hori,left,"[106,-106]","[0,-150]",left,1,0.9756,,,,,,001,2025-03-10_16h55.55.704,SL_base,2021.2.3,Win32,120.4819277,,,115,0,115,0,1,,,,,,,,
,,"[""circle"",""red"",""hori"",""left"",[0,150],[106,106]]",circle,red,hori,left,"[0,150]","[106,106]",left,1,1.1322,,,,,,001,2025-03-10_16h55.55.704,SL_base,2021.2.3,Win32,120.4819277,,,116,0,116,0,1,,,,,,,,
,,"[""circle"",""green"",""hori"",""left"",[-150,0],[-106,106]]",circle,green,hori,left,"[-150,0]","[-106,106]",left,1,0.859,,,,,,001,2025-03-10_16h55.55.704,SL_base,2021.2.3,Win32,120.4819277,,,117,0,117,0,1,,,,,,,,
,,"[""diamond"",""green"",""vert"",""up"",[106,-106],[106,106]]",diamond,green,vert,up,"[106,-106]","[106,106]",up,1,0.9632,,,,,,001,2025-03-10_16h55.55.704,SL_base,2021.2.3,Win32,120.4819277,,,118,0,118,0,1,,,,,,,,
,,"[""diamond"",""no_dis"",""hori"",""left"",[99999,99999],[0,-150]]",diamond,no_dis,hori,left,"[99999,99999]","[0,-150]",left,1,0.9233,,,,,,001,2025-03-10_16h55.55.704,SL_base,2021.2.3,Win32,120.4819277,,,119,0,119,0,1,,,,,,,,
,,,,,,,,,,,,,,,,,001,2025-03-10_16h55.55.704,SL_base,2021.2.3,Win32,120.4819277,,,,,,,,1,space,31.9173,0,0,0,0,1
,,"[""diamond"",""no_dis"",""vert"",""up"",[99999,99999],[0,150]]",diamond,no_dis,vert,up,"[99999,99999]","[0,150]",up,1,1.3942,,,,,,001,2025-03-10_16h55.55.704,SL_base,2021.2.3,Win32,120.4819277,,,0,0,0,0,1,,,,,,,,
,,"[""circle"",""green"",""hori"",""left"",[106,106],[0,-150]]",circle,green,hori,left,"[106,106]","[0,-150]",left,1,1.8171,,,,,,001,2025-03-10_16h55.55.704,SL_base,2021.2.3,Win32,120.4819277,,,1,0,1,0,1,,,,,,,,
,,"[""circle"",""red"",""hori"",""left"",[106,-106],[0,-150]]",circle,red,hori,left,"[106,-106]","[0,-150]",left,1,1.4377,,,,,,001,2025-03-10_16h55.55.704,SL_base,2021.2.3,Win32,120.4819277,,,2,0,2,0,1,,,,,,,,
,,"[""diamond"",""green"",""vert"",""up"",[0,150],[0,-150]]",diamond,green,vert,up,"[0,150]","[0,-150]",up,1,1.8494,,,,,,001,2025-03-10_16h55.55.704,SL_base,2021.2.3,Win32,120.4819277,,,3,0,3,0,1,,,,,,,,
,,"[""circle"",""red"",""vert"",""up"",[150,0],[-106,106]]",circle,red,vert,up,"[150,0]","[-106,106]",up,1,1.1106,,,,,,001,2025-03-10_16h55.55.704,SL_base,2021.2.3,Win32,120.4819277,,,4,0,4,0,1,,,,,,,,
,,"[""diamond"",""green"",""vert"",""up"",[106,-106],[150,0]]",diamond,green,vert,up,"[106,-106]","[150,0]",up,1,2.0614,,,,,,001,2025-03-10_16h55.55.704,SL_base,2021.2.3,Win32,120.4819277,,,5,0,5,0,1,,,,,,,,
,,"[""diamond"",""red"",""hori"",""left"",[150,0],[-106,106]]",diamond,red,hori,left,"[150,0]","[-106,106]",left,1,0.9894,,,,,,001,2025-03-10_16h55.55.704,SL_base,2021.2.3,Win32,120.4819277,,,6,0,6,0,1,,,,,,,,
,,"[""diamond"",""no_dis"",""vert"",""up"",[99999,99999],[150,0]]",diamond,no_dis,vert,up,"[99999,99999]","[150,0]",up,1,1.0368,,,,,,001,2025-03-10_16h55.55.704,SL_base,2021.2.3,Win32,120.4819277,,,7,0,7,0,1,,,,,,,,
,,"[""circle"",""no_dis"",""vert"",""up"",[99999,99999],[106,106]]",circle,no_dis,vert,up,"[99999,99999]","[106,106]",up,1,0.7875,,,,,,001,2025-03-10_16h55.55.704,SL_base,2021.2.3,Win32,120.4819277,,,8,0,8,0,1,,,,,,,,
,,"[""circle"",""green"",""vert"",""up"",[-106,106],[0,-150]]",circle,green,vert,up,"[-106,106]","[0,-150]",up,1,1.7709,,,,,,001,2025-03-10_16h55.55.704,SL_base,2021.2.3,Win32,120.4819277,,,9,0,9,0,1,,,,,,,,
,,"[""diamond"",""red"",""hori"",""left"",[-106,106],[150,0]]",diamond,red,hori,left,"[-106,106]","[150,0]",left,1,0.7605,,,,,,001,2025-03-10_16h55.55.704,SL_base,2021.2.3,Win32,120.4819277,,,10,0,10,0,1,,,,,,,,
,,"[""diamond"",""green"",""hori"",""left"",[-150,0],[150,0]]",diamond,green,hori,left,"[-150,0]","[150,0]",left,1,1.4478,,,,,,001,2025-03-10_16h55.55.704,SL_base,2021.2.3,Win32,120.4819277,,,11,0,11,0,1,,,,,,,,
,,"[""circle"",""red"",""vert"",""up"",[0,150],[106,-106]]",circle,red,vert,up,"[0,150]","[106,-106]",up,1,2.048,,,,,,001,2025-03-10_16h55.55.704,SL_base,2021.2.3,Win32,120.4819277,,,12,0,12,0,1,,,,,,,,
,,"[""diamond"",""red"",""vert"",""up"",[-150,0],[0,-150]]",diamond,red,vert,up,"[-150,0]","[0,-150]",up,1,1.618,,,,,,001,2025-03-10_16h55.55.704,SL_base,2021.2.3,Win32,120.4819277,,,13,0,13,0,1,,,,,,,,
,,"[""diamond"",""no_dis"",""vert"",""up"",[99999,99999],[106,-106]]",diamond,no_dis,vert,up,"[99999,99999]","[106,-106]",up,1,1.0397,,,,,,001,2025-03-10_16h55.55.704,SL_base,2021.2.3,Win32,120.4819277,,,14,0,14,0,1,,,,,,,,
,,"[""circle"",""green"",""vert"",""up"",[150,0],[106,106]]",circle,green,vert,up,"[150,0]","[106,106]",up,1,1.3792,,,,,,001,2025-03-10_16h55.55.704,SL_base,2021.2.3,Win32,120.4819277,,,15,0,15,0,1,,,,,,,,
,,"[""circle"",""green"",""hori"",""left"",[0,150],[106,106]]",circle,green,hori,left,"[0,150]","[106,106]",left,1,1.2406,,,,,,001,2025-03-10_16h55.55.704,SL_base,2021.2.3,Win32,120.4819277,,,16,0,16,0,1,,,,,,,,
,,"[""diamond"",""red"",""vert"",""up"",[0,150],[-150,0]]",diamond,red,vert,up,"[0,150]","[-150,0]",up,1,1.1465,,,,,,001,2025-03-10_16h55.55.704,SL_base,2021.2.3,Win32,120.4819277,,,17,0,17,0,1,,,,,,,,
,,"[""diamond"",""no_dis"",""hori"",""left"",[99999,99999],[0,-150]]",diamond,no_dis,hori,left,"[99999,99999]","[0,-150]",left,1,0.9197,,,,,,001,2025-03-10_16h55.55.704,SL_base,2021.2.3,Win32,120.4819277,,,18,0,18,0,1,,,,,,,,
,,"[""circle"",""no_dis"",""hori"",""left"",[99999,99999],[106,106]]",circle,no_dis,hori,left,"[99999,99999]","[106,106]",left,1,1.0332,,,,,,001,2025-03-10_16h55.55.704,SL_base,2021.2.3,Win32,120.4819277,,,19,0,19,0,1,,,,,,,,
,,"[""circle"",""green"",""vert"",""up"",[-106,106],[-106,-106]]",circle,green,vert,up,"[-106,106]","[-106,-106]",up,1,2.0533,,,,,,001,2025-03-10_16h55.55.704,SL_base,2021.2.3,Win32,120.4819277,,,20,0,20,0,1,,,,,,,,
,,"[""circle"",""no_dis"",""vert"",""up"",[99999,99999],[-106,106]]",circle,no_dis,vert,up,"[99999,99999]","[-106,106]",up,1,1.4421,,,,,,001,2025-03-10_16h55.55.704,SL_base,2021.2.3,Win32,120.4819277,,,21,0,21,0,1,,,,,,,,
,,"[""diamond"",""red"",""vert"",""up"",[0,150],[-106,106]]",diamond,red,vert,up,"[0,150]","[-106,106]",up,1,1.6933,,,,,,001,2025-03-10_16h55.55.704,SL_base,2021.2.3,Win32,120.4819277,,,22,0,22,0,1,,,,,,,,
,,"[""circle"",""no_dis"",""hori"",""left"",[99999,99999],[0,-150]]",circle,no_dis,hori,left,"[99999,99999]","[0,-150]",left,1,0.8818,,,,,,001,2025-03-10_16h55.55.704,SL_base,2021.2.3,Win32,120.4819277,,,23,0,23,0,1,,,,,,,,
,,"[""circle"",""no_dis"",""hori"",""left"",[99999,99999],[-106,106]]",circle,no_dis,hori,left,"[99999,99999]","[-106,106]",left,1,0.8286,,,,,,001,2025-03-10_16h55.55.704,SL_base,2021.2.3,Win32,120.4819277,,,24,0,24,0,1,,,,,,,,
,,"[""circle"",""green"",""vert"",""up"",[0,-150],[-106,106]]",circle,green,vert,up,"[0,-150]","[-106,106]",up,1,1.5933,,,,,,001,2025-03-10_16h55.55.704,SL_base,2021.2.3,Win32,120.4819277,,,25,0,25,0,1,,,,,,,,
,,"[""circle"",""green"",""hori"",""left"",[0,150],[-106,106]]",circle,green,hori,left,"[0,150]","[-106,106]",left,1,1.4403,,,,,,001,2025-03-10_16h55.55.704,SL_base,2021.2.3,Win32,120.4819277,,,26,0,26,0,1,,,,,,,,
,,"[""circle"",""green"",""hori"",""left"",[-106,-106],[106,106]]",circle,green,hori,left,"[-106,-106]","[106,106]",left,1,0.7248,,,,,,001,2025-03-10_16h55.55.704,SL_base,2021.2.3,Win32,120.4819277,,,27,0,27,0,1,,,,,,,,
,,"[""circle"",""red"",""vert"",""up"",[150,0],[106,106]]",circle,red,vert,up,"[150,0]","[106,106]",up,1,0.7663,,,,,,001,2025-03-10_16h55.55.704,SL_base,2021.2.3,Win32,120.4819277,,,28,0,28,0,1,,,,,,,,
,,"[""diamond"",""red"",""hori"",""left"",[106,-106],[106,106]]",diamond,red,hori,left,"[106,-106]","[106,106]",left,1,2.092,,,,,,001,2025-03-10_16h55.55.704,SL_base,2021.2.3,Win32,120.4819277,,,29,0,29,0,1,,,,,,,,
,,"[""diamond"",""red"",""vert"",""up"",[-106,106],[106,106]]",diamond,red,vert,up,"[-106,106]","[106,106]",up,1,2.5249,,,,,,001,2025-03-10_16h55.55.704,SL_base,2021.2.3,Win32,120.4819277,,,30,0,30,0,1,,,,,,,,
,,"[""circle"",""red"",""hori"",""left"",[0,150],[0,-150]]",circle,red,hori,left,"[0,150]","[0,-150]",left,1,1.5447,,,,,,001,2025-03-10_16h55.55.704,SL_base,2021.2.3,Win32,120.4819277,,,31,0,31,0,1,,,,,,,,
,,"[""diamond"",""green"",""vert"",""up"",[0,150],[150,0]]",diamond,green,vert,up,"[0,150]","[150,0]",up,1,1.2563,,,,,,001,2025-03-10_16h55.55.704,SL_base,2021.2.3,Win32,120.4819277,,,32,0,32,0,1,,,,,,,,
,,"[""circle"",""no_dis"",""vert"",""up"",[99999,99999],[150,0]]",circle,no_dis,vert,up,"[99999,99999]","[150,0]",up,1,1.8065,,,,,,001,2025-03-10_16h55.55.704,SL_base,2021.2.3,Win32,120.4819277,,,33,0,33,0,1,,,,,,,,
,,"[""circle"",""red"",""vert"",""up"",[-106,-106],[-106,106]]",circle,red,vert,up,"[-106,-106]","[-106,106]",left,0,2.0747,,,,,,001,2025-03-10_16h55.55.704,SL_base,2021.2.3,Win32,120.4819277,,,34,0,34,0,1,,,,,,,,
,,"[""diamond"",""red"",""hori"",""left"",[-106,106],[106,-106]]",diamond,red,hori,left,"[-106,106]","[106,-106]",left,1,1.2429,,,,,,001,2025-03-10_16h55.55.704,SL_base,2021.2.3,Win32,120.4819277,,,35,0,35,0,1,,,,,,,,
,,"[""circle"",""red"",""hori"",""left"",[106,106],[-106,106]]",circle,red,hori,left,"[106,106]","[-106,106]",left,1,1.7511,,,,,,001,2025-03-10_16h55.55.704,SL_base,2021.2.3,Win32,120.4819277,,,36,0,36,0,1,,,,,,,,
,,"[""circle"",""red"",""vert"",""up"",[150,0],[-150,0]]",circle,red,vert,up,"[150,0]","[-150,0]",up,1,0.7998,,,,,,001,2025-03-10_16h55.55.704,SL_base,2021.2.3,Win32,120.4819277,,,37,0,37,0,1,,,,,,,,
,,"[""circle"",""green"",""hori"",""left"",[0,150],[-106,106]]",circle,green,hori,left,"[0,150]","[-106,106]",left,1,1.1575,,,,,,001,2025-03-10_16h55.55.704,SL_base,2021.2.3,Win32,120.4819277,,,38,0,38,0,1,,,,,,,,
,,"[""diamond"",""red"",""hori"",""left"",[0,150],[150,0]]",diamond,red,hori,left,"[0,150]","[150,0]",left,1,1.2502,,,,,,001,2025-03-10_16h55.55.704,SL_base,2021.2.3,Win32,120.4819277,,,39,0,39,0,1,,,,,,,,
,,"[""circle"",""green"",""vert"",""up"",[106,106],[0,-150]]",circle,green,vert,up,"[106,106]","[0,-150]",up,1,1.5594,,,,,,001,2025-03-10_16h55.55.704,SL_base,2021.2.3,Win32,120.4819277,,,40,0,40,0,1,,,,,,,,
,,"[""diamond"",""red"",""vert"",""up"",[106,106],[0,-150]]",diamond,red,vert,up,"[106,106]","[0,-150]",up,1,1.2228,,,,,,001,2025-03-10_16h55.55.704,SL_base,2021.2.3,Win32,120.4819277,,,41,0,41,0,1,,,,,,,,
,,"[""diamond"",""no_dis"",""hori"",""left"",[99999,99999],[106,106]]",diamond,no_dis,hori,left,"[99999,99999]","[106,106]",left,1,2.0641,,,,,,001,2025-03-10_16h55.55.704,SL_base,2021.2.3,Win32,120.4819277,,,42,0,42,0,1,,,,,,,,
,,"[""circle"",""red"",""vert"",""up"",[0,150],[-106,-106]]",circle,red,vert,up,"[0,150]","[-106,-106]",up,1,1.1075,,,,,,001,2025-03-10_16h55.55.704,SL_base,2021.2.3,Win32,120.4819277,,,43,0,43,0,1,,,,,,,,
,,"[""diamond"",""no_dis"",""hori"",""left"",[99999,99999],[0,-150]]",diamond,no_dis,hori,left,"[99999,99999]","[0,-150]",left,1,1.3971,,,,,,001,2025-03-10_16h55.55.704,SL_base,2021.2.3,Win32,120.4819277,,,44,0,44,0,1,,,,,,,,
,,"[""circle"",""red"",""hori"",""left"",[0,-150],[0,150]]",circle,red,hori,left,"[0,-150]","[0,150]",left,1,1.4998,,,,,,001,2025-03-10_16h55.55.704,SL_base,2021.2.3,Win32,120.4819277,,,45,0,45,0,1,,,,,,,,
,,"[""circle"",""no_dis"",""hori"",""left"",[99999,99999],[150,0]]",circle,no_dis,hori,left,"[99999,99999]","[150,0]",left,1,1.2959,,,,,,001,2025-03-10_16h55.55.704,SL_base,2021.2.3,Win32,120.4819277,,,46,0,46,0,1,,,,,,,,
,,"[""diamond"",""no_dis"",""vert"",""up"",[99999,99999],[0,150]]",diamond,no_dis,vert,up,"[99999,99999]","[0,150]",up,1,1.2557,,,,,,001,2025-03-10_16h55.55.704,SL_base,2021.2.3,Win32,120.4819277,,,47,0,47,0,1,,,,,,,,
,,"[""diamond"",""green"",""hori"",""left"",[0,150],[-150,0]]",diamond,green,hori,left,"[0,150]","[-150,0]",left,1,1.8979,,,,,,001,2025-03-10_16h55.55.704,SL_base,2021.2.3,Win32,120.4819277,,,48,0,48,0,1,,,,,,,,
,,"[""diamond"",""green"",""vert"",""up"",[106,-106],[106,106]]",diamond,green,vert,up,"[106,-106]","[106,106]",up,1,1.5786,,,,,,001,2025-03-10_16h55.55.704,SL_base,2021.2.3,Win32,120.4819277,,,49,0,49,0,1,,,,,,,,
,,"[""diamond"",""no_dis"",""hori"",""left"",[99999,99999],[150,0]]",diamond,no_dis,hori,left,"[99999,99999]","[150,0]",left,1,0.9776,,,,,,001,2025-03-10_16h55.55.704,SL_base,2021.2.3,Win32,120.4819277,,,50,0,50,0,1,,,,,,,,
,,"[""circle"",""red"",""hori"",""left"",[0,150],[106,106]]",circle,red,hori,left,"[0,150]","[106,106]",left,1,1.0508,,,,,,001,2025-03-10_16h55.55.704,SL_base,2021.2.3,Win32,120.4819277,,,51,0,51,0,1,,,,,,,,
,,"[""diamond"",""green"",""hori"",""left"",[0,150],[0,-150]]",diamond,green,hori,left,"[0,150]","[0,-150]",left,1,0.998,,,,,,001,2025-03-10_16h55.55.704,SL_base,2021.2.3,Win32,120.4819277,,,52,0,52,0,1,,,,,,,,
,,"[""circle"",""no_dis"",""hori"",""left"",[99999,99999],[-106,106]]",circle,no_dis,hori,left,"[99999,99999]","[-106,106]",left,1,1.0772,,,,,,001,2025-03-10_16h55.55.704,SL_base,2021.2.3,Win32,120.4819277,,,53,0,53,0,1,,,,,,,,
,,"[""diamond"",""no_dis"",""hori"",""left"",[99999,99999],[-106,-106]]",diamond,no_dis,hori,left,"[99999,99999]","[-106,-106]",left,1,1.8715,,,,,,001,2025-03-10_16h55.55.704,SL_base,2021.2.3,Win32,120.4819277,,,54,0,54,0,1,,,,,,,,
,,"[""circle"",""no_dis"",""hori"",""left"",[99999,99999],[0,150]]",circle,no_dis,hori,left,"[99999,99999]","[0,150]",up,0,1.5247,,,,,,001,2025-03-10_16h55.55.704,SL_base,2021.2.3,Win32,120.4819277,,,55,0,55,0,1,,,,,,,,
,,"[""circle"",""green"",""vert"",""up"",[-150,0],[106,106]]",circle,green,vert,up,"[-150,0]","[106,106]",up,1,1.2692,,,,,,001,2025-03-10_16h55.55.704,SL_base,2021.2.3,Win32,120.4819277,,,56,0,56,0,1,,,,,,,,
,,"[""diamond"",""green"",""vert"",""up"",[0,150],[106,-106]]",diamond,green,vert,up,"[0,150]","[106,-106]",up,1,1.6888,,,,,,001,2025-03-10_16h55.55.704,SL_base,2021.2.3,Win32,120.4819277,,,57,0,57,0,1,,,,,,,,
,,"[""circle"",""red"",""hori"",""left"",[106,-106],[0,-150]]",circle,red,hori,left,"[106,-106]","[0,-150]",left,1,0.7792,,,,,,001,2025-03-10_16h55.55.704,SL_base,2021.2.3,Win32,120.4819277,,,58,0,58,0,1,,,,,,,,
,,"[""circle"",""red"",""hori"",""left"",[-106,-106],[-150,0]]",circle,red,hori,left,"[-106,-106]","[-150,0]",left,1,0.9623,,,,,,001,2025-03-10_16h55.55.704,SL_base,2021.2.3,Win32,120.4819277,,,59,0,59,0,1,,,,,,,,
,,"[""diamond"",""red"",""hori"",""left"",[0,-150],[106,-106]]",diamond,red,hori,left,"[0,-150]","[106,-106]",left,1,1.2892,,,,,,001,2025-03-10_16h55.55.704,SL_base,2021.2.3,Win32,120.4819277,,,60,0,60,0,1,,,,,,,,
,,"[""diamond"",""red"",""hori"",""left"",[106,106],[0,150]]",diamond,red,hori,left,"[106,106]","[0,150]",left,1,1.875,,,,,,001,2025-03-10_16h55.55.704,SL_base,2021.2.3,Win32,120.4819277,,,61,0,61,0,1,,,,,,,,
,,"[""diamond"",""no_dis"",""vert"",""up"",[99999,99999],[150,0]]",diamond,no_dis,vert,up,"[99999,99999]","[150,0]",up,1,1.6061,,,,,,001,2025-03-10_16h55.55.704,SL_base,2021.2.3,Win32,120.4819277,,,62,0,62,0,1,,,,,,,,
,,"[""diamond"",""no_dis"",""vert"",""up"",[99999,99999],[0,-150]]",diamond,no_dis,vert,up,"[99999,99999]","[0,-150]",up,1,1.1295,,,,,,001,2025-03-10_16h55.55.704,SL_base,2021.2.3,Win32,120.4819277,,,63,0,63,0,1,,,,,,,,
,,"[""circle"",""no_dis"",""vert"",""up"",[99999,99999],[-106,-106]]",circle,no_dis,vert,up,"[99999,99999]","[-106,-106]",up,1,1.3327,,,,,,001,2025-03-10_16h55.55.704,SL_base,2021.2.3,Win32,120.4819277,,,64,0,64,0,1,,,,,,,,
,,"[""diamond"",""red"",""vert"",""up"",[150,0],[-106,-106]]",diamond,red,vert,up,"[150,0]","[-106,-106]",up,1,1.0437,,,,,,001,2025-03-10_16h55.55.704,SL_base,2021.2.3,Win32,120.4819277,,,65,0,65,0,1,,,,,,,,
,,"[""diamond"",""green"",""vert"",""up"",[106,-106],[0,150]]",diamond,green,vert,up,"[106,-106]","[0,150]",up,1,1.0657,,,,,,001,2025-03-10_16h55.55.704,SL_base,2021.2.3,Win32,120.4819277,,,66,0,66,0,1,,,,,,,,
,,"[""circle"",""red"",""hori"",""left"",[-150,0],[106,-106]]",circle,red,hori,left,"[-150,0]","[106,-106]",left,1,1.1682,,,,,,001,2025-03-10_16h55.55.704,SL_base,2021.2.3,Win32,120.4819277,,,67,0,67,0,1,,,,,,,,
,,"[""circle"",""red"",""vert"",""up"",[106,106],[-106,-106]]",circle,red,vert,up,"[106,106]","[-106,-106]",up,1,1.0296,,,,,,001,2025-03-10_16h55.55.704,SL_base,2021.2.3,Win32,120.4819277,,,68,0,68,0,1,,,,,,,,
,,"[""circle"",""red"",""vert"",""up"",[0,150],[106,-106]]",circle,red,vert,up,"[0,150]","[106,-106]",up,1,0.8818,,,,,,001,2025-03-10_16h55.55.704,SL_base,2021.2.3,Win32,120.4819277,,,69,0,69,0,1,,,,,,,,
,,"[""diamond"",""no_dis"",""vert"",""up"",[99999,99999],[-106,-106]]",diamond,no_dis,vert,up,"[99999,99999]","[-106,-106]",up,1,1.3549,,,,,,001,2025-03-10_16h55.55.704,SL_base,2021.2.3,Win32,120.4819277,,,70,0,70,0,1,,,,,,,,
,,"[""diamond"",""green"",""hori"",""left"",[106,-106],[0,-150]]",diamond,green,hori,left,"[106,-106]","[0,-150]",left,1,0.9557,,,,,,001,2025-03-10_16h55.55.704,SL_base,2021.2.3,Win32,120.4819277,,,71,0,71,0,1,,,,,,,,
,,"[""diamond"",""no_dis"",""hori"",""left"",[99999,99999],[-150,0]]",diamond,no_dis,hori,left,"[99999,99999]","[-150,0]",left,1,0.8917,,,,,,001,2025-03-10_16h55.55.704,SL_base,2021.2.3,Win32,120.4819277,,,72,0,72,0,1,,,,,,,,
,,"[""diamond"",""no_dis"",""vert"",""up"",[99999,99999],[0,150]]",diamond,no_dis,vert,up,"[99999,99999]","[0,150]",up,1,1.2836,,,,,,001,2025-03-10_16h55.55.704,SL_base,2021.2.3,Win32,120.4819277,,,73,0,73,0,1,,,,,,,,
,,"[""diamond"",""no_dis"",""vert"",""up"",[99999,99999],[-106,-106]]",diamond,no_dis,vert,up,"[99999,99999]","[-106,-106]",up,1,1.0404,,,,,,001,2025-03-10_16h55.55.704,SL_base,2021.2.3,Win32,120.4819277,,,74,0,74,0,1,,,,,,,,
,,"[""diamond"",""no_dis"",""hori"",""left"",[99999,99999],[-150,0]]",diamond,no_dis,hori,left,"[99999,99999]","[-150,0]",left,1,1.23,,,,,,001,2025-03-10_16h55.55.704,SL_base,2021.2.3,Win32,120.4819277,,,75,0,75,0,1,,,,,,,,
,,"[""diamond"",""green"",""vert"",""up"",[0,150],[-150,0]]",diamond,green,vert,up,"[0,150]","[-150,0]",up,1,1.0112,,,,,,001,2025-03-10_16h55.55.704,SL_base,2021.2.3,Win32,120.4819277,,,76,0,76,0,1,,,,,,,,
,,"[""diamond"",""green"",""hori"",""left"",[-106,106],[0,-150]]",diamond,green,hori,left,"[-106,106]","[0,-150]",left,1,0.8619,,,,,,001,2025-03-10_16h55.55.704,SL_base,2021.2.3,Win32,120.4819277,,,77,0,77,0,1,,,,,,,,
,,"[""circle"",""no_dis"",""hori"",""left"",[99999,99999],[106,-106]]",circle,no_dis,hori,left,"[99999,99999]","[106,-106]",left,1,1.9304,,,,,,001,2025-03-10_16h55.55.704,SL_base,2021.2.3,Win32,120.4819277,,,78,0,78,0,1,,,,,,,,
,,"[""diamond"",""green"",""hori"",""left"",[-106,-106],[106,106]]",diamond,green,hori,left,"[-106,-106]","[106,106]",left,1,1.2321,,,,,,001,2025-03-10_16h55.55.704,SL_base,2021.2.3,Win32,120.4819277,,,79,0,79,0,1,,,,,,,,
,,"[""circle"",""green"",""hori"",""left"",[-150,0],[0,-150]]",circle,green,hori,left,"[-150,0]","[0,-150]",left,1,1.9196,,,,,,001,2025-03-10_16h55.55.704,SL_base,2021.2.3,Win32,120.4819277,,,80,0,80,0,1,,,,,,,,
,,"[""circle"",""red"",""vert"",""up"",[-150,0],[0,150]]",circle,red,vert,up,"[-150,0]","[0,150]",up,1,1.191,,,,,,001,2025-03-10_16h55.55.704,SL_base,2021.2.3,Win32,120.4819277,,,81,0,81,0,1,,,,,,,,
,,"[""circle"",""green"",""hori"",""left"",[106,106],[-150,0]]",circle,green,hori,left,"[106,106]","[-150,0]",left,1,0.8942,,,,,,001,2025-03-10_16h55.55.704,SL_base,2021.2.3,Win32,120.4819277,,,82,0,82,0,1,,,,,,,,
,,"[""circle"",""no_dis"",""vert"",""up"",[99999,99999],[-106,106]]",circle,no_dis,vert,up,"[99999,99999]","[-106,106]",up,1,0.8485,,,,,,001,2025-03-10_16h55.55.704,SL_base,2021.2.3,Win32,120.4819277,,,83,0,83,0,1,,,,,,,,
,,"[""circle"",""no_dis"",""vert"",""up"",[99999,99999],[106,-106]]",circle,no_dis,vert,up,"[99999,99999]","[106,-106]",up,1,1.4594,,,,,,001,2025-03-10_16h55.55.704,SL_base,2021.2.3,Win32,120.4819277,,,84,0,84,0,1,,,,,,,,
,,"[""circle"",""red"",""vert"",""up"",[0,-150],[106,106]]",circle,red,vert,up,"[0,-150]","[106,106]",up,1,0.9907,,,,,,001,2025-03-10_16h55.55.704,SL_base,2021.2.3,Win32,120.4819277,,,85,0,85,0,1,,,,,,,,
,,"[""circle"",""red"",""hori"",""left"",[0,150],[-150,0]]",circle,red,hori,left,"[0,150]","[-150,0]",left,1,1.3502,,,,,,001,2025-03-10_16h55.55.704,SL_base,2021.2.3,Win32,120.4819277,,,86,0,86,0,1,,,,,,,,
,,"[""circle"",""no_dis"",""hori"",""left"",[99999,99999],[106,106]]",circle,no_dis,hori,left,"[99999,99999]","[106,106]",left,1,0.8952,,,,,,001,2025-03-10_16h55.55.704,SL_base,2021.2.3,Win32,120.4819277,,,87,0,87,0,1,,,,,,,,
,,"[""diamond"",""green"",""vert"",""up"",[150,0],[-106,106]]",diamond,green,vert,up,"[150,0]","[-106,106]",up,1,1.4975,,,,,,001,2025-03-10_16h55.55.704,SL_base,2021.2.3,Win32,120.4819277,,,88,0,88,0,1,,,,,,,,
,,"[""circle"",""green"",""hori"",""left"",[0,150],[-150,0]]",circle,green,hori,left,"[0,150]","[-150,0]",left,1,1.2677,,,,,,001,2025-03-10_16h55.55.704,SL_base,2021.2.3,Win32,120.4819277,,,89,0,89,0,1,,,,,,,,
,,"[""circle"",""red"",""hori"",""left"",[-106,106],[0,150]]",circle,red,hori,left,"[-106,106]","[0,150]",left,1,1.671,,,,,,001,2025-03-10_16h55.55.704,SL_base,2021.2.3,Win32,120.4819277,,,90,0,90,0,1,,,,,,,,
,,"[""diamond"",""red"",""hori"",""left"",[0,-150],[-106,-106]]",diamond,red,hori,left,"[0,-150]","[-106,-106]",left,1,2.0575,,,,,,001,2025-03-10_16h55.55.704,SL_base,2021.2.3,Win32,120.4819277,,,91,0,91,0,1,,,,,,,,
,,"[""circle"",""green"",""vert"",""up"",[-106,-106],[106,106]]",circle,green,vert,up,"[-106,-106]","[106,106]",up,1,1.643,,,,,,001,2025-03-10_16h55.55.704,SL_base,2021.2.3,Win32,120.4819277,,,92,0,92,0,1,,,,,,,,
,,"[""diamond"",""no_dis"",""hori"",""left"",[99999,99999],[106,-106]]",diamond,no_dis,hori,left,"[99999,99999]","[106,-106]",left,1,1.84,,,,,,001,2025-03-10_16h55.55.704,SL_base,2021.2.3,Win32,120.4819277,,,93,0,93,0,1,,,,,,,,
,,"[""diamond"",""red"",""hori"",""left"",[-106,106],[0,150]]",diamond,red,hori,left,"[-106,106]","[0,150]",left,1,1.0667,,,,,,001,2025-03-10_16h55.55.704,SL_base,2021.2.3,Win32,120.4819277,,,94,0,94,0,1,,,,,,,,
,,"[""diamond"",""green"",""hori"",""left"",[0,-150],[-106,-106]]",diamond,green,hori,left,"[0,-150]","[-106,-106]",left,1,1.0232,,,,,,001,2025-03-10_16h55.55.704,SL_base,2021.2.3,Win32,120.4819277,,,95,0,95,0,1,,,,,,,,
,,"[""circle"",""no_dis"",""vert"",""up"",[99999,99999],[106,106]]",circle,no_dis,vert,up,"[99999,99999]","[106,106]",up,1,1.2245,,,,,,001,2025-03-10_16h55.55.704,SL_base,2021.2.3,Win32,120.4819277,,,96,0,96,0,1,,,,,,,,
,,"[""circle"",""no_dis"",""vert"",""up"",[99999,99999],[106,-106]]",circle,no_dis,vert,up,"[99999,99999]","[106,-106]",up,1,1.8054,,,,,,001,2025-03-10_16h55.55.704,SL_base,2021.2.3,Win32,120.4819277,,,97,0,97,0,1,,,,,,,,
,,"[""diamond"",""red"",""vert"",""up"",[-150,0],[106,106]]",diamond,red,vert,up,"[-150,0]","[106,106]",left,0,1.1478,,,,,,001,2025-03-10_16h55.55.704,SL_base,2021.2.3,Win32,120.4819277,,,98,0,98,0,1,,,,,,,,
,,"[""diamond"",""no_dis"",""vert"",""up"",[99999,99999],[0,-150]]",diamond,no_dis,vert,up,"[99999,99999]","[0,-150]",up,1,1.1695,,,,,,001,2025-03-10_16h55.55.704,SL_base,2021.2.3,Win32,120.4819277,,,99,0,99,0,1,,,,,,,,
,,"[""circle"",""green"",""vert"",""up"",[-106,-106],[0,-150]]",circle,green,vert,up,"[-106,-106]","[0,-150]",up,1,1.1312,,,,,,001,2025-03-10_16h55.55.704,SL_base,2021.2.3,Win32,120.4819277,,,100,0,100,0,1,,,,,,,,
,,"[""circle"",""no_dis"",""hori"",""left"",[99999,99999],[-150,0]]",circle,no_dis,hori,left,"[99999,99999]","[-150,0]",left,1,0.7321,,,,,,001,2025-03-10_16h55.55.704,SL_base,2021.2.3,Win32,120.4819277,,,101,0,101,0,1,,,,,,,,
,,"[""diamond"",""no_dis"",""hori"",""left"",[99999,99999],[-150,0]]",diamond,no_dis,hori,left,"[99999,99999]","[-150,0]",left,1,2.1933,,,,,,001,2025-03-10_16h55.55.704,SL_base,2021.2.3,Win32,120.4819277,,,102,0,102,0,1,,,,,,,,
,,"[""circle"",""green"",""hori"",""left"",[0,150],[150,0]]",circle,green,hori,left,"[0,150]","[150,0]",up,0,1.5109,,,,,,001,2025-03-10_16h55.55.704,SL_base,2021.2.3,Win32,120.4819277,,,103,0,103,0,1,,,,,,,,
,,"[""circle"",""no_dis"",""hori"",""left"",[99999,99999],[-106,106]]",circle,no_dis,hori,left,"[99999,99999]","[-106,106]",left,1,1.9997,,,,,,001,2025-03-10_16h55.55.704,SL_base,2021.2.3,Win32,120.4819277,,,104,0,104,0,1,,,,,,,,
,,"[""diamond"",""red"",""vert"",""up"",[0,150],[106,106]]",diamond,red,vert,up,"[0,150]","[106,106]",up,1,0.9801,,,,,,001,2025-03-10_16h55.55.704,SL_base,2021.2.3,Win32,120.4819277,,,105,0,105,0,1,,,,,,,,
,,"[""circle"",""green"",""vert"",""up"",[0,-150],[0,150]]",circle,green,vert,up,"[0,-150]","[0,150]",left,0,2.3148,,,,,,001,2025-03-10_16h55.55.704,SL_base,2021.2.3,Win32,120.4819277,,,106,0,106,0,1,,,,,,,,
,,"[""diamond"",""green"",""hori"",""left"",[-106,-106],[106,106]]",diamond,green,hori,left,"[-106,-106]","[106,106]",left,1,1.9808,,,,,,001,2025-03-10_16h55.55.704,SL_base,2021.2.3,Win32,120.4819277,,,107,0,107,0,1,,,,,,,,
,,"[""diamond"",""red"",""vert"",""up"",[106,-106],[150,0]]",diamond,red,vert,up,"[106,-106]","[150,0]",up,1,1.001,,,,,,001,2025-03-10_16h55.55.704,SL_base,2021.2.3,Win32,120.4819277,,,108,0,108,0,1,,,,,,,,
,,"[""circle"",""no_dis"",""vert"",""up"",[99999,99999],[0,150]]",circle,no_dis,vert,up,"[99999,99999]","[0,150]",up,1,1.5664,,,,,,001,2025-03-10_16h55.55.704,SL_base,2021.2.3,Win32,120.4819277,,,109,0,109,0,1,,,,,,,,
,,"[""diamond"",""green"",""hori"",""left"",[0,150],[-106,-106]]",diamond,green,hori,left,"[0,150]","[-106,-106]",left,1,1.2032,,,,,,001,2025-03-10_16h55.55.704,SL_base,2021.2.3,Win32,120.4819277,,,110,0,110,0,1,,,,,,,,
,,"[""circle"",""no_dis"",""vert"",""up"",[99999,99999],[-106,-106]]",circle,no_dis,vert,up,"[99999,99999]","[-106,-106]",up,1,1.3794,,,,,,001,2025-03-10_16h55.55.704,SL_base,2021.2.3,Win32,120.4819277,,,111,0,111,0,1,,,,,,,,
,,"[""circle"",""green"",""vert"",""up"",[0,150],[106,-106]]",circle,green,vert,up,"[0,150]","[106,-106]",up,1,1.5546,,,,,,001,2025-03-10_16h55.55.704,SL_base,2021.2.3,Win32,120.4819277,,,112,0,112,0,1,,,,,,,,
,,"[""diamond"",""green"",""hori"",""left"",[0,-150],[-150,0]]",diamond,green,hori,left,"[0,-150]","[-150,0]",left,1,1.1619,,,,,,001,2025-03-10_16h55.55.704,SL_base,2021.2.3,Win32,120.4819277,,,113,0,113,0,1,,,,,,,,
,,"[""diamond"",""red"",""hori"",""left"",[0,150],[-106,-106]]",diamond,red,hori,left,"[0,150]","[-106,-106]",left,1,0.8747,,,,,,001,2025-03-10_16h55.55.704,SL_base,2021.2.3,Win32,120.4819277,,,114,0,114,0,1,,,,,,,,
,,"[""diamond"",""no_dis"",""hori"",""left"",[99999,99999],[-150,0]]",diamond,no_dis,hori,left,"[99999,99999]","[-150,0]",left,1,0.8697,,,,,,001,2025-03-10_16h55.55.704,SL_base,2021.2.3,Win32,120.4819277,,,115,0,115,0,1,,,,,,,,
,,"[""diamond"",""red"",""vert"",""up"",[106,106],[106,-106]]",diamond,red,vert,up,"[106,106]","[106,-106]",up,1,1.4096,,,,,,001,2025-03-10_16h55.55.704,SL_base,2021.2.3,Win32,120.4819277,,,116,0,116,0,1,,,,,,,,
,,"[""diamond"",""green"",""vert"",""up"",[150,0],[0,-150]]",diamond,green,vert,up,"[150,0]","[0,-150]",up,1,1.3826,,,,,,001,2025-03-10_16h55.55.704,SL_base,2021.2.3,Win32,120.4819277,,,117,0,117,0,1,,,,,,,,
,,"[""diamond"",""green"",""vert"",""up"",[-106,-106],[-106,106]]",diamond,green,vert,up,"[-106,-106]","[-106,106]",up,1,0.9804,,,,,,001,2025-03-10_16h55.55.704,SL_base,2021.2.3,Win32,120.4819277,,,118,0,118,0,1,,,,,,,,
,,"[""circle"",""green"",""hori"",""left"",[-150,0],[-106,106]]",circle,green,hori,left,"[-150,0]","[-106,106]",up,0,0.716,,,,,,001,2025-03-10_16h55.55.704,SL_base,2021.2.3,Win32,120.4819277,,,119,0,119,0,1,,,,,,,,
,,,,,,,,,,,,,,,,,001,2025-03-10_16h55.55.704,SL_base,2021.2.3,Win32,120.4819277,,,,,,,,2,space,166.1942,1,0,1,0,1
,,"[""diamond"",""no_dis"",""hori"",""left"",[99999,99999],[-150,0]]",diamond,no_dis,hori,left,"[99999,99999]","[-150,0]",left,1,1.9881,,,,,,001,2025-03-10_16h55.55.704,SL_base,2021.2.3,Win32,120.4819277,,,0,0,0,0,1,,,,,,,,
,,"[""diamond"",""green"",""hori"",""left"",[0,150],[0,-150]]",diamond,green,hori,left,"[0,150]","[0,-150]",left,1,1.1468,,,,,,001,2025-03-10_16h55.55.704,SL_base,2021.2.3,Win32,120.4819277,,,1,0,1,0,1,,,,,,,,
,,"[""diamond"",""no_dis"",""hori"",""left"",[99999,99999],[-150,0]]",diamond,no_dis,hori,left,"[99999,99999]","[-150,0]",left,1,1.417,,,,,,001,2025-03-10_16h55.55.704,SL_base,2021.2.3,Win32,120.4819277,,,2,0,2,0,1,,,,,,,,
,,"[""circle"",""green"",""vert"",""up"",[-106,-106],[0,-150]]",circle,green,vert,up,"[-106,-106]","[0,-150]",up,1,1.2086,,,,,,001,2025-03-10_16h55.55.704,SL_base,2021.2.3,Win32,120.4819277,,,3,0,3,0,1,,,,,,,,
,,"[""diamond"",""green"",""vert"",""up"",[106,-106],[106,106]]",diamond,green,vert,up,"[106,-106]","[106,106]",up,1,1.375,,,,,,001,2025-03-10_16h55.55.704,SL_base,2021.2.3,Win32,120.4819277,,,4,0,4,0,1,,,,,,,,
,,"[""diamond"",""red"",""hori"",""left"",[106,106],[0,150]]",diamond,red,hori,left,"[106,106]","[0,150]",left,1,2.3537,,,,,,001,2025-03-10_16h55.55.704,SL_base,2021.2.3,Win32,120.4819277,,,5,0,5,0,1,,,,,,,,
,,"[""circle"",""no_dis"",""vert"",""up"",[99999,99999],[150,0]]",circle,no_dis,vert,up,"[99999,99999]","[150,0]",up,1,1.3153,,,,,,001,2025-03-10_16h55.55.704,SL_base,2021.2.3,Win32,120.4819277,,,6,0,6,0,1,,,,,,,,
,,"[""diamond"",""red"",""hori"",""left"",[150,0],[-106,106]]",diamond,red,hori,left,"[150,0]","[-106,106]",left,1,1.2918,,,,,,001,2025-03-10_16h55.55.704,SL_base,2021.2.3,Win32,120.4819277,,,7,0,7,0,1,,,,,,,,
,,"[""diamond"",""no_dis"",""vert"",""up"",[99999,99999],[0,150]]",diamond,no_dis,vert,up,"[99999,99999]","[0,150]",up,1,2.2832,,,,,,001,2025-03-10_16h55.55.704,SL_base,2021.2.3,Win32,120.4819277,,,8,0,8,0,1,,,,,,,,
,,"[""circle"",""green"",""hori"",""left"",[106,106],[0,-150]]",circle,green,hori,left,"[106,106]","[0,-150]",left,1,1.3359,,,,,,001,2025-03-10_16h55.55.704,SL_base,2021.2.3,Win32,120.4819277,,,9,0,9,0,1,,,,,,,,
,,"[""diamond"",""green"",""hori"",""left"",[106,-106],[0,-150]]",diamond,green,hori,left,"[106,-106]","[0,-150]",left,1,2.2706,,,,,,001,2025-03-10_16h55.55.704,SL_base,2021.2.3,Win32,120.4819277,,,10,0,10,0,1,,,,,,,,
,,"[""diamond"",""red"",""vert"",""up"",[150,0],[-106,-106]]",diamond,red,vert,up,"[150,0]","[-106,-106]",up,1,1.7516,,,,,,001,2025-03-10_16h55.55.704,SL_base,2021.2.3,Win32,120.4819277,,,11,0,11,0,1,,,,,,,,
,,"[""circle"",""red"",""hori"",""left"",[106,106],[-106,106]]",circle,red,hori,left,"[106,106]","[-106,106]",left,1,1.7914,,,,,,001,2025-03-10_16h55.55.704,SL_base,2021.2.3,Win32,120.4819277,,,12,0,12,0,1,,,,,,,,
,,"[""diamond"",""green"",""hori"",""left"",[0,-150],[-150,0]]",diamond,green,hori,left,"[0,-150]","[-150,0]",left,1,1.2148,,,,,,001,2025-03-10_16h55.55.704,SL_base,2021.2.3,Win32,120.4819277,,,13,0,13,0,1,,,,,,,,
,,"[""circle"",""green"",""hori"",""left"",[-150,0],[-106,106]]",circle,green,hori,left,"[-150,0]","[-106,106]",left,1,1.243,,,,,,001,2025-03-10_16h55.55.704,SL_base,2021.2.3,Win32,120.4819277,,,14,0,14,0,1,,,,,,,,
,,"[""circle"",""green"",""hori"",""left"",[0,150],[-106,106]]",circle,green,hori,left,"[0,150]","[-106,106]",left,1,1.3334,,,,,,001,2025-03-10_16h55.55.704,SL_base,2021.2.3,Win32,120.4819277,,,15,0,15,0,1,,,,,,,,
,,"[""diamond"",""green"",""vert"",""up"",[150,0],[0,-150]]",diamond,green,vert,up,"[150,0]","[0,-150]",up,1,1.5385,,,,,,001,2025-03-10_16h55.55.704,SL_base,2021.2.3,Win32,120.4819277,,,16,0,16,0,1,,,,,,,,
,,"[""diamond"",""no_dis"",""vert"",""up"",[99999,99999],[0,150]]",diamond,no_dis,vert,up,"[99999,99999]","[0,150]",up,1,1.3063,,,,,,001,2025-03-10_16h55.55.704,SL_base,2021.2.3,Win32,120.4819277,,,17,0,17,0,1,,,,,,,,
,,"[""diamond"",""no_dis"",""hori"",""left"",[99999,99999],[0,-150]]",diamond,no_dis,hori,left,"[99999,99999]","[0,-150]",left,1,1.1322,,,,,,001,2025-03-10_16h55.55.704,SL_base,2021.2.3,Win32,120.4819277,,,18,0,18,0,1,,,,,,,,
,,"[""circle"",""red"",""vert"",""up"",[150,0],[-106,106]]",circle,red,vert,up,"[150,0]","[-106,106]",up,1,0.7983,,,,,,001,2025-03-10_16h55.55.704,SL_base,2021.2.3,Win32,120.4819277,,,19,0,19,0,1,,,,,,,,
,,"[""diamond"",""no_dis"",""vert"",""up"",[99999,99999],[0,150]]",diamond,no_dis,vert,up,"[99999,99999]","[0,150]",up,1,1.5944,,,,,,001,2025-03-10_16h55.55.704,SL_base,2021.2.3,Win32,120.4819277,,,20,0,20,0,1,,,,,,,,
,,"[""circle"",""green"",""vert"",""up"",[106,106],[0,-150]]",circle,green,vert,up,"[106,106]","[0,-150]",up,1,1.0186,,,,,,001,2025-03-10_16h55.55.704,SL_base,2021.2.3,Win32,120.4819277,,,21,0,21,0,1,,,,,,,,
,,"[""diamond"",""red"",""hori"",""left"",[0,-150],[106,-106]]",diamond,red,hori,left,"[0,-150]","[106,-106]",left,1,1.2812,,,,,,001,2025-03-10_16h55.55.704,SL_base,2021.2.3,Win32,120.4819277,,,22,0,22,0,1,,,,,,,,
,,"[""diamond"",""red"",""vert"",""up"",[-150,0],[0,-150]]",diamond,red,vert,up,"[-150,0]","[0,-150]",up,1,0.9304,,,,,,001,2025-03-10_16h55.55.704,SL_base,2021.2.3,Win32,120.4819277,,,23,0,23,0,1,,,,,,,,
,,"[""circle"",""green"",""hori"",""left"",[-150,0],[0,-150]]",circle,green,hori,left,"[-150,0]","[0,-150]",left,1,0.9157,,,,,,001,2025-03-10_16h55.55.704,SL_base,2021.2.3,Win32,120.4819277,,,24,0,24,0,1,,,,,,,,
,,"[""circle"",""red"",""vert"",""up"",[0,150],[106,-106]]",circle,red,vert,up,"[0,150]","[106,-106]",up,1,1.0273,,,,,,001,2025-03-10_16h55.55.704,SL_base,2021.2.3,Win32,120.4819277,,,25,0,25,0,1,,,,,,,,
,,"[""diamond"",""no_dis"",""vert"",""up"",[99999,99999],[0,-150]]",diamond,no_dis,vert,up,"[99999,99999]","[0,-150]",up,1,1.0609,,,,,,001,2025-03-10_16h55.55.704,SL_base,2021.2.3,Win32,120.4819277,,,26,0,26,0,1,,,,,,,,
,,"[""circle"",""green"",""hori"",""left"",[-106,-106],[106,106]]",circle,green,hori,left,"[-106,-106]","[106,106]",left,1,1.1846,,,,,,001,2025-03-10_16h55.55.704,SL_base,2021.2.3,Win32,120.4819277,,,27,0,27,0,1,,,,,,,,
,,"[""diamond"",""red"",""vert"",""up"",[-150,0],[106,106]]",diamond,red,vert,up,"[-150,0]","[106,106]",up,1,1.0612,,,,,,001,2025-03-10_16h55.55.704,SL_base,2021.2.3,Win32,120.4819277,,,28,0,28,0,1,,,,,,,,
,,"[""circle"",""red"",""vert"",""up"",[-106,-106],[-106,106]]",circle,red,vert,up,"[-106,-106]","[-106,106]",up,1,1.6244,,,,,,001,2025-03-10_16h55.55.704,SL_base,2021.2.3,Win32,120.4819277,,,29,0,29,0,1,,,,,,,,
,,"[""circle"",""red"",""vert"",""up"",[0,150],[106,-106]]",circle,red,vert,up,"[0,150]","[106,-106]",up,1,2.0392,,,,,,001,2025-03-10_16h55.55.704,SL_base,2021.2.3,Win32,120.4819277,,,30,0,30,0,1,,,,,,,,
,,"[""circle"",""no_dis"",""hori"",""left"",[99999,99999],[-106,106]]",circle,no_dis,hori,left,"[99999,99999]","[-106,106]",left,1,0.7379,,,,,,001,2025-03-10_16h55.55.704,SL_base,2021.2.3,Win32,120.4819277,,,31,0,31,0,1,,,,,,,,
,,"[""circle"",""no_dis"",""hori"",""left"",[99999,99999],[106,106]]",circle,no_dis,hori,left,"[99999,99999]","[106,106]",left,1,1.2664,,,,,,001,2025-03-10_16h55.55.704,SL_base,2021.2.3,Win32,120.4819277,,,32,0,32,0,1,,,,,,,,
,,"[""diamond"",""red"",""vert"",""up"",[106,106],[0,-150]]",diamond,red,vert,up,"[106,106]","[0,-150]",up,1,1.0414,,,,,,001,2025-03-10_16h55.55.704,SL_base,2021.2.3,Win32,120.4819277,,,33,0,33,0,1,,,,,,,,
,,"[""circle"",""red"",""vert"",""up"",[-150,0],[0,150]]",circle,red,vert,up,"[-150,0]","[0,150]",up,1,1.0647,,,,,,001,2025-03-10_16h55.55.704,SL_base,2021.2.3,Win32,120.4819277,,,34,0,34,0,1,,,,,,,,
,,"[""circle"",""red"",""hori"",""left"",[-106,106],[0,150]]",circle,red,hori,left,"[-106,106]","[0,150]",up,0,1.4032,,,,,,001,2025-03-10_16h55.55.704,SL_base,2021.2.3,Win32,120.4819277,,,35,0,35,0,1,,,,,,,,
,,"[""circle"",""green"",""hori"",""left"",[0,150],[150,0]]",circle,green,hori,left,"[0,150]","[150,0]",left,1,1.6071,,,,,,001,2025-03-10_16h55.55.704,SL_base,2021.2.3,Win32,120.4819277,,,36,0,36,0,1,,,,,,,,
,,"[""diamond"",""green"",""vert"",""up"",[0,150],[106,-106]]",diamond,green,vert,up,"[0,150]","[106,-106]",up,1,2.0674,,,,,,001,2025-03-10_16h55.55.704,SL_base,2021.2.3,Win32,120.4819277,,,37,0,37,0,1,,,,,,,,
,,"[""circle"",""green"",""hori"",""left"",[106,106],[-150,0]]",circle,green,hori,left,"[106,106]","[-150,0]",left,1,1.2483,,,,,,001,2025-03-10_16h55.55.704,SL_base,2021.2.3,Win32,120.4819277,,,38,0,38,0,1,,,,,,,,
,,"[""circle"",""no_dis"",""hori"",""left"",[99999,99999],[0,-150]]",circle,no_dis,hori,left,"[99999,99999]","[0,-150]",left,1,1.0537,,,,,,001,2025-03-10_16h55.55.704,SL_base,2021.2.3,Win32,120.4819277,,,39,0,39,0,1,,,,,,,,
,,"[""diamond"",""no_dis"",""hori"",""left"",[99999,99999],[150,0]]",diamond,no_dis,hori,left,"[99999,99999]","[150,0]",left,1,2.8549,,,,,,001,2025-03-10_16h55.55.704,SL_base,2021.2.3,Win32,120.4819277,,,40,0,40,0,1,,,,,,,,
,,"[""diamond"",""no_dis"",""vert"",""up"",[99999,99999],[150,0]]",diamond,no_dis,vert,up,"[99999,99999]","[150,0]",up,1,1.0585,,,,,,001,2025-03-10_16h55.55.704,SL_base,2021.2.3,Win32,120.4819277,,,41,0,41,0,1,,,,,,,,
,,"[""diamond"",""no_dis"",""vert"",""up"",[99999,99999],[106,-106]]",diamond,no_dis,vert,up,"[99999,99999]","[106,-106]",up,1,2.2318,,,,,,001,2025-03-10_16h55.55.704,SL_base,2021.2.3,Win32,120.4819277,,,42,0,42,0,1,,,,,,,,
,,"[""diamond"",""no_dis"",""hori"",""left"",[99999,99999],[106,-106]]",diamond,no_dis,hori,left,"[99999,99999]","[106,-106]",left,1,2.2565,,,,,,001,2025-03-10_16h55.55.704,SL_base,2021.2.3,Win32,120.4819277,,,43,0,43,0,1,,,,,,,,
,,"[""circle"",""no_dis"",""vert"",""up"",[99999,99999],[106,106]]",circle,no_dis,vert,up,"[99999,99999]","[106,106]",up,1,1.1179,,,,,,001,2025-03-10_16h55.55.704,SL_base,2021.2.3,Win32,120.4819277,,,44,0,44,0,1,,,,,,,,
,,"[""circle"",""green"",""vert"",""up"",[-106,-106],[106,106]]",circle,green,vert,up,"[-106,-106]","[106,106]",up,1,1.4954,,,,,,001,2025-03-10_16h55.55.704,SL_base,2021.2.3,Win32,120.4819277,,,45,0,45,0,1,,,,,,,,
,,"[""diamond"",""red"",""hori"",""left"",[0,150],[150,0]]",diamond,red,hori,left,"[0,150]","[150,0]",left,1,1.2471,,,,,,001,2025-03-10_16h55.55.704,SL_base,2021.2.3,Win32,120.4819277,,,46,0,46,0,1,,,,,,,,
,,"[""circle"",""green"",""vert"",""up"",[-106,106],[0,-150]]",circle,green,vert,up,"[-106,106]","[0,-150]",left,0,0.8452,,,,,,001,2025-03-10_16h55.55.704,SL_base,2021.2.3,Win32,120.4819277,,,47,0,47,0,1,,,,,,,,
,,"[""circle"",""red"",""hori"",""left"",[-150,0],[106,-106]]",circle,red,hori,left,"[-150,0]","[106,-106]",left,1,1.4246,,,,,,001,2025-03-10_16h55.55.704,SL_base,2021.2.3,Win32,120.4819277,,,48,0,48,0,1,,,,,,,,
,,"[""circle"",""red"",""hori"",""left"",[106,-106],[0,-150]]",circle,red,hori,left,"[106,-106]","[0,-150]",left,1,1.5983,,,,,,001,2025-03-10_16h55.55.704,SL_base,2021.2.3,Win32,120.4819277,,,49,0,49,0,1,,,,,,,,
,,"[""circle"",""red"",""vert"",""up"",[106,106],[-106,-106]]",circle,red,vert,up,"[106,106]","[-106,-106]",up,1,0.8851,,,,,,001,2025-03-10_16h55.55.704,SL_base,2021.2.3,Win32,120.4819277,,,50,0,50,0,1,,,,,,,,
,,"[""diamond"",""no_dis"",""hori"",""left"",[99999,99999],[0,-150]]",diamond,no_dis,hori,left,"[99999,99999]","[0,-150]",left,1,0.8443,,,,,,001,2025-03-10_16h55.55.704,SL_base,2021.2.3,Win32,120.4819277,,,51,0,51,0,1,,,,,,,,
,,"[""circle"",""green"",""vert"",""up"",[150,0],[106,106]]",circle,green,vert,up,"[150,0]","[106,106]",up,1,0.9447,,,,,,001,2025-03-10_16h55.55.704,SL_base,2021.2.3,Win32,120.4819277,,,52,0,52,0,1,,,,,,,,
,,"[""circle"",""no_dis"",""hori"",""left"",[99999,99999],[106,106]]",circle,no_dis,hori,left,"[99999,99999]","[106,106]",left,1,0.7374,,,,,,001,2025-03-10_16h55.55.704,SL_base,2021.2.3,Win32,120.4819277,,,53,0,53,0,1,,,,,,,,
,,"[""circle"",""red"",""vert"",""up"",[150,0],[106,106]]",circle,red,vert,up,"[150,0]","[106,106]",up,1,1.6243,,,,,,001,2025-03-10_16h55.55.704,SL_base,2021.2.3,Win32,120.4819277,,,54,0,54,0,1,,,,,,,,
,,"[""circle"",""no_dis"",""vert"",""up"",[99999,99999],[-106,-106]]",circle,no_dis,vert,up,"[99999,99999]","[-106,-106]",up,1,1.1083,,,,,,001,2025-03-10_16h55.55.704,SL_base,2021.2.3,Win32,120.4819277,,,55,0,55,0,1,,,,,,,,
,,"[""diamond"",""red"",""vert"",""up"",[0,150],[-150,0]]",diamond,red,vert,up,"[0,150]","[-150,0]",left,0,1.7394,,,,,,001,2025-03-10_16h55.55.704,SL_base,2021.2.3,Win32,120.4819277,,,56,0,56,0,1,,,,,,,,
,,"[""diamond"",""red"",""vert"",""up"",[0,150],[-106,106]]",diamond,red,vert,up,"[0,150]","[-106,106]",up,1,1.5323,,,,,,001,2025-03-10_16h55.55.704,SL_base,2021.2.3,Win32,120.4819277,,,57,0,57,0,1,,,,,,,,
,,"[""diamond"",""green"",""vert"",""up"",[106,-106],[150,0]]",diamond,green,vert,up,"[106,-106]","[150,0]",up,1,1.301,,,,,,001,2025-03-10_16h55.55.704,SL_base,2021.2.3,Win32,120.4819277,,,58,0,58,0,1,,,,,,,,
,,"[""diamond"",""green"",""vert"",""up"",[150,0],[-106,106]]",diamond,green,vert,up,"[150,0]","[-106,106]",up,1,0.974,,,,,,001,2025-03-10_16h55.55.704,SL_base,2021.2.3,Win32,120.4819277,,,59,0,59,0,1,,,,,,,,
,,"[""diamond"",""green"",""vert"",""up"",[0,150],[150,0]]",diamond,green,vert,up,"[0,150]","[150,0]",up,1,0.9167,,,,,,001,2025-03-10_16h55.55.704,SL_base,2021.2.3,Win32,120.4819277,,,60,0,60,0,1,,,,,,,,
,,"[""diamond"",""red"",""hori"",""left"",[-106,106],[106,-106]]",diamond,red,hori,left,"[-106,106]","[106,-106]",left,1,1.1337,,,,,,001,2025-03-10_16h55.55.704,SL_base,2021.2.3,Win32,120.4819277,,,61,0,61,0,1,,,,,,,,
,,"[""circle"",""red"",""vert"",""up"",[150,0],[-150,0]]",circle,red,vert,up,"[150,0]","[-150,0]",up,1,1.3045,,,,,,001,2025-03-10_16h55.55.704,SL_base,2021.2.3,Win32,120.4819277,,,62,0,62,0,1,,,,,,,,
,,"[""diamond"",""red"",""hori"",""left"",[-106,106],[150,0]]",diamond,red,hori,left,"[-106,106]","[150,0]",up,0,1.4326,,,,,,001,2025-03-10_16h55.55.704,SL_base,2021.2.3,Win32,120.4819277,,,63,0,63,0,1,,,,,,,,
,,"[""diamond"",""green"",""vert"",""up"",[0,150],[-150,0]]",diamond,green,vert,up,"[0,150]","[-150,0]",up,1,1.0405,,,,,,001,2025-03-10_16h55.55.704,SL_base,2021.2.3,Win32,120.4819277,,,64,0,64,0,1,,,,,,,,
,,"[""circle"",""red"",""hori"",""left"",[-106,-106],[-150,0]]",circle,red,hori,left,"[-106,-106]","[-150,0]",left,1,1.5166,,,,,,001,2025-03-10_16h55.55.704,SL_base,2021.2.3,Win32,120.4819277,,,65,0,65,0,1,,,,,,,,
,,"[""circle"",""green"",""vert"",""up"",[0,150],[106,-106]]",circle,green,vert,up,"[0,150]","[106,-106]",up,1,1.9573,,,,,,001,2025-03-10_16h55.55.704,SL_base,2021.2.3,Win32,120.4819277,,,66,0,66,0,1,,,,,,,,
,,"[""diamond"",""no_dis"",""hori"",""left"",[99999,99999],[106,106]]",diamond,no_dis,hori,left,"[99999,99999]","[106,106]",left,1,1.1933,,,,,,001,2025-03-10_16h55.55.704,SL_base,2021.2.3,Win32,120.4819277,,,67,0,67,0,1,,,,,,,,
,,"[""circle"",""red"",""hori"",""left"",[0,150],[-150,0]]",circle,red,hori,left,"[0,150]","[-150,0]",left,1,1.09,,,,,,001,2025-03-10_16h55.55.704,SL_base,2021.2.3,Win32,120.4819277,,,68,0,68,0,1,,,,,,,,
,,"[""diamond"",""green"",""hori"",""left"",[0,150],[-150,0]]",diamond,green,hori,left,"[0,150]","[-150,0]",left,1,0.6762,,,,,,001,2025-03-10_16h55.55.704,SL_base,2021.2.3,Win32,120.4819277,,,69,0,69,0,1,,,,,,,,
,,"[""diamond"",""no_dis"",""vert"",""up"",[99999,99999],[-106,-106]]",diamond,no_dis,vert,up,"[99999,99999]","[-106,-106]",up,1,1.5816,,,,,,001,2025-03-10_16h55.55.704,SL_base,2021.2.3,Win32,120.4819277,,,70,0,70,0,1,,,,,,,,
,,"[""diamond"",""green"",""hori"",""left"",[-106,106],[0,-150]]",diamond,green,hori,left,"[-106,106]","[0,-150]",left,1,1.2527,,,,,,001,2025-03-10_16h55.55.704,SL_base,2021.2.3,Win32,120.4819277,,,71,0,71,0,1,,,,,,,,
,,"[""diamond"",""green"",""hori"",""left"",[-106,-106],[106,106]]",diamond,green,hori,left,"[-106,-106]","[106,106]",left,1,0.8001,,,,,,001,2025-03-10_16h55.55.704,SL_base,2021.2.3,Win32,120.4819277,,,72,0,72,0,1,,,,,,,,
,,"[""diamond"",""green"",""vert"",""up"",[0,150],[0,-150]]",diamond,green,vert,up,"[0,150]","[0,-150]",up,1,1.0156,,,,,,001,2025-03-10_16h55.55.704,SL_base,2021.2.3,Win32,120.4819277,,,73,0,73,0,1,,,,,,,,
,,"[""circle"",""red"",""hori"",""left"",[0,-150],[0,150]]",circle,red,hori,left,"[0,-150]","[0,150]",up,0,1.173,,,,,,001,2025-03-10_16h55.55.704,SL_base,2021.2.3,Win32,120.4819277,,,74,0,74,0,1,,,,,,,,
,,"[""circle"",""no_dis"",""vert"",""up"",[99999,99999],[0,150]]",circle,no_dis,vert,up,"[99999,99999]","[0,150]",left,0,1.6341,,,,,,001,2025-03-10_16h55.55.704,SL_base,2021.2.3,Win32,120.4819277,,,75,0,75,0,1,,,,,,,,
,,"[""diamond"",""red"",""hori"",""left"",[0,-150],[-106,-106]]",diamond,red,hori,left,"[0,-150]","[-106,-106]",left,1,1.3985,,,,,,001,2025-03-10_16h55.55.704,SL_base,2021.2.3,Win32,120.4819277,,,76,0,76,0,1,,,,,,,,
,,"[""circle"",""green"",""hori"",""left"",[0,150],[106,106]]",circle,green,hori,left,"[0,150]","[106,106]",left,1,1.8698,,,,,,001,2025-03-10_16h55.55.704,SL_base,2021.2.3,Win32,120.4819277,,,77,0,77,0,1,,,,,,,,
,,"[""circle"",""no_dis"",""vert"",""up"",[99999,99999],[-106,106]]",circle,no_dis,vert,up,"[99999,99999]","[-106,106]",up,1,1.9483,,,,,,001,2025-03-10_16h55.55.704,SL_base,2021.2.3,Win32,120.4819277,,,78,0,78,0,1,,,,,,,,
,,"[""diamond"",""no_dis"",""vert"",""up"",[99999,99999],[0,-150]]",diamond,no_dis,vert,up,"[99999,99999]","[0,-150]",up,1,1.0349,,,,,,001,2025-03-10_16h55.55.704,SL_base,2021.2.3,Win32,120.4819277,,,79,0,79,0,1,,,,,,,,
,,"[""diamond"",""green"",""hori"",""left"",[-150,0],[150,0]]",diamond,green,hori,left,"[-150,0]","[150,0]",left,1,1.0966,,,,,,001,2025-03-10_16h55.55.704,SL_base,2021.2.3,Win32,120.4819277,,,80,0,80,0,1,,,,,,,,
,,"[""diamond"",""no_dis"",""hori"",""left"",[99999,99999],[-150,0]]",diamond,no_dis,hori,left,"[99999,99999]","[-150,0]",left,1,0.9634,,,,,,001,2025-03-10_16h55.55.704,SL_base,2021.2.3,Win32,120.4819277,,,81,0,81,0,1,,,,,,,,
,,"[""diamond"",""red"",""hori"",""left"",[106,-106],[106,106]]",diamond,red,hori,left,"[106,-106]","[106,106]",left,1,1.1215,,,,,,001,2025-03-10_16h55.55.704,SL_base,2021.2.3,Win32,120.4819277,,,82,0,82,0,1,,,,,,,,
,,"[""circle"",""green"",""hori"",""left"",[0,150],[-150,0]]",circle,green,hori,left,"[0,150]","[-150,0]",left,1,0.9569,,,,,,001,2025-03-10_16h55.55.704,SL_base,2021.2.3,Win32,120.4819277,,,83,0,83,0,1,,,,,,,,
,,"[""diamond"",""red"",""vert"",""up"",[-106,106],[106,106]]",diamond,red,vert,up,"[-106,106]","[106,106]",up,1,1.9551,,,,,,001,2025-03-10_16h55.55.704,SL_base,2021.2.3,Win32,120.4819277,,,84,0,84,0,1,,,,,,,,
,,"[""circle"",""green"",""vert"",""up"",[0,-150],[-106,106]]",circle,green,vert,up,"[0,-150]","[-106,106]",up,1,1.554,,,,,,001,2025-03-10_16h55.55.704,SL_base,2021.2.3,Win32,120.4819277,,,85,0,85,0,1,,,,,,,,
,,"[""circle"",""green"",""vert"",""up"",[-106,106],[-106,-106]]",circle,green,vert,up,"[-106,106]","[-106,-106]",up,1,1.3608,,,,,,001,2025-03-10_16h55.55.704,SL_base,2021.2.3,Win32,120.4819277,,,86,0,86,0,1,,,,,,,,
,,"[""circle"",""no_dis"",""hori"",""left"",[99999,99999],[-106,106]]",circle,no_dis,hori,left,"[99999,99999]","[-106,106]",left,1,1.1836,,,,,,001,2025-03-10_16h55.55.704,SL_base,2021.2.3,Win32,120.4819277,,,87,0,87,0,1,,,,,,,,
,,"[""diamond"",""no_dis"",""vert"",""up"",[99999,99999],[-106,-106]]",diamond,no_dis,vert,up,"[99999,99999]","[-106,-106]",up,1,0.987,,,,,,001,2025-03-10_16h55.55.704,SL_base,2021.2.3,Win32,120.4819277,,,88,0,88,0,1,,,,,,,,
,,"[""diamond"",""no_dis"",""hori"",""left"",[99999,99999],[-106,-106]]",diamond,no_dis,hori,left,"[99999,99999]","[-106,-106]",left,1,1.601,,,,,,001,2025-03-10_16h55.55.704,SL_base,2021.2.3,Win32,120.4819277,,,89,0,89,0,1,,,,,,,,
,,"[""circle"",""red"",""vert"",""up"",[0,150],[-106,-106]]",circle,red,vert,up,"[0,150]","[-106,-106]",up,1,1.6332,,,,,,001,2025-03-10_16h55.55.704,SL_base,2021.2.3,Win32,120.4819277,,,90,0,90,0,1,,,,,,,,
,,"[""circle"",""no_dis"",""hori"",""left"",[99999,99999],[-106,106]]",circle,no_dis,hori,left,"[99999,99999]","[-106,106]",left,1,0.9876,,,,,,001,2025-03-10_16h55.55.704,SL_base,2021.2.3,Win32,120.4819277,,,91,0,91,0,1,,,,,,,,
,,"[""circle"",""no_dis"",""vert"",""up"",[99999,99999],[106,106]]",circle,no_dis,vert,up,"[99999,99999]","[106,106]",up,1,0.9039,,,,,,001,2025-03-10_16h55.55.704,SL_base,2021.2.3,Win32,120.4819277,,,92,0,92,0,1,,,,,,,,
,,"[""circle"",""green"",""vert"",""up"",[0,-150],[0,150]]",circle,green,vert,up,"[0,-150]","[0,150]",up,1,1.4514,,,,,,001,2025-03-10_16h55.55.704,SL_base,2021.2.3,Win32,120.4819277,,,93,0,93,0,1,,,,,,,,
,,"[""circle"",""green"",""hori"",""left"",[0,150],[-106,106]]",circle,green,hori,left,"[0,150]","[-106,106]",left,1,0.6086,,,,,,001,2025-03-10_16h55.55.704,SL_base,2021.2.3,Win32,120.4819277,,,94,0,94,0,1,,,,,,,,
,,"[""diamond"",""no_dis"",""vert"",""up"",[99999,99999],[150,0]]",diamond,no_dis,vert,up,"[99999,99999]","[150,0]",up,1,1.3,,,,,,001,2025-03-10_16h55.55.704,SL_base,2021.2.3,Win32,120.4819277,,,95,0,95,0,1,,,,,,,,
,,"[""diamond"",""red"",""vert"",""up"",[106,106],[106,-106]]",diamond,red,vert,up,"[106,106]","[106,-106]",up,1,1.0441,,,,,,001,2025-03-10_16h55.55.704,SL_base,2021.2.3,Win32,120.4819277,,,96,0,96,0,1,,,,,,,,
,,"[""diamond"",""green"",""hori"",""left"",[0,-150],[-106,-106]]",diamond,green,hori,left,"[0,-150]","[-106,-106]",left,1,2.0946,,,,,,001,2025-03-10_16h55.55.704,SL_base,2021.2.3,Win32,120.4819277,,,97,0,97,0,1,,,,,,,,
,,"[""circle"",""no_dis"",""vert"",""up"",[99999,99999],[106,-106]]",circle,no_dis,vert,up,"[99999,99999]","[106,-106]",up,1,0.7,,,,,,001,2025-03-10_16h55.55.704,SL_base,2021.2.3,Win32,120.4819277,,,98,0,98,0,1,,,,,,,,
,,"[""circle"",""green"",""vert"",""up"",[-150,0],[106,106]]",circle,green,vert,up,"[-150,0]","[106,106]",left,0,1.8864,,,,,,001,2025-03-10_16h55.55.704,SL_base,2021.2.3,Win32,120.4819277,,,99,0,99,0,1,,,,,,,,
,,"[""circle"",""red"",""hori"",""left"",[106,-106],[0,-150]]",circle,red,hori,left,"[106,-106]","[0,-150]",left,1,1.6184,,,,,,001,2025-03-10_16h55.55.704,SL_base,2021.2.3,Win32,120.4819277,,,100,0,100,0,1,,,,,,,,
,,"[""diamond"",""red"",""vert"",""up"",[0,150],[106,106]]",diamond,red,vert,up,"[0,150]","[106,106]",up,1,2.2604,,,,,,001,2025-03-10_16h55.55.704,SL_base,2021.2.3,Win32,120.4819277,,,101,0,101,0,1,,,,,,,,
,,"[""diamond"",""green"",""vert"",""up"",[106,-106],[0,150]]",diamond,green,vert,up,"[106,-106]","[0,150]",up,1,2.409,,,,,,001,2025-03-10_16h55.55.704,SL_base,2021.2.3,Win32,120.4819277,,,102,0,102,0,1,,,,,,,,
,,"[""circle"",""no_dis"",""vert"",""up"",[99999,99999],[106,-106]]",circle,no_dis,vert,up,"[99999,99999]","[106,-106]",left,0,1.8152,,,,,,001,2025-03-10_16h55.55.704,SL_base,2021.2.3,Win32,120.4819277,,,103,0,103,0,1,,,,,,,,
,,"[""circle"",""red"",""hori"",""left"",[0,150],[0,-150]]",circle,red,hori,left,"[0,150]","[0,-150]",left,1,1.4607,,,,,,001,2025-03-10_16h55.55.704,SL_base,2021.2.3,Win32,120.4819277,,,104,0,104,0,1,,,,,,,,
,,"[""circle"",""no_dis"",""hori"",""left"",[99999,99999],[106,-106]]",circle,no_dis,hori,left,"[99999,99999]","[106,-106]",left,1,1.2564,,,,,,001,2025-03-10_16h55.55.704,SL_base,2021.2.3,Win32,120.4819277,,,105,0,105,0,1,,,,,,,,
,,"[""diamond"",""green"",""vert"",""up"",[-106,-106],[-106,106]]",diamond,green,vert,up,"[-106,-106]","[-106,106]",up,1,2.043,,,,,,001,2025-03-10_16h55.55.704,SL_base,2021.2.3,Win32,120.4819277,,,106,0,106,0,1,,,,,,,,
,,"[""diamond"",""red"",""vert"",""up"",[106,-106],[150,0]]",diamond,red,vert,up,"[106,-106]","[150,0]",up,1,1.9325,,,,,,001,2025-03-10_16h55.55.704,SL_base,2021.2.3,Win32,120.4819277,,,107,0,107,0,1,,,,,,,,
,,"[""circle"",""red"",""vert"",""up"",[0,-150],[106,106]]",circle,red,vert,up,"[0,-150]","[106,106]",up,1,2.0485,,,,,,001,2025-03-10_16h55.55.704,SL_base,2021.2.3,Win32,120.4819277,,,108,0,108,0,1,,,,,,,,
,,"[""circle"",""no_dis"",""vert"",""up"",[99999,99999],[-106,-106]]",circle,no_dis,vert,up,"[99999,99999]","[-106,-106]",up,1,0.7391,,,,,,001,2025-03-10_16h55.55.704,SL_base,2021.2.3,Win32,120.4819277,,,109,0,109,0,1,,,,,,,,
,,"[""diamond"",""green"",""hori"",""left"",[0,150],[-106,-106]]",diamond,green,hori,left,"[0,150]","[-106,-106]",left,1,0.9527,,,,,,001,2025-03-10_16h55.55.704,SL_base,2021.2.3,Win32,120.4819277,,,110,0,110,0,1,,,,,,,,
,,"[""circle"",""no_dis"",""hori"",""left"",[99999,99999],[-150,0]]",circle,no_dis,hori,left,"[99999,99999]","[-150,0]",left,1,0.7285,,,,,,001,2025-03-10_16h55.55.704,SL_base,2021.2.3,Win32,120.4819277,,,111,0,111,0,1,,,,,,,,
,,"[""diamond"",""red"",""hori"",""left"",[-106,106],[0,150]]",diamond,red,hori,left,"[-106,106]","[0,150]",up,0,1.1035,,,,,,001,2025-03-10_16h55.55.704,SL_base,2021.2.3,Win32,120.4819277,,,112,0,112,0,1,,,,,,,,
,,"[""diamond"",""red"",""hori"",""left"",[0,150],[-106,-106]]",diamond,red,hori,left,"[0,150]","[-106,-106]",left,1,1.007,,,,,,001,2025-03-10_16h55.55.704,SL_base,2021.2.3,Win32,120.4819277,,,113,0,113,0,1,,,,,,,,
,,"[""circle"",""no_dis"",""vert"",""up"",[99999,99999],[-106,106]]",circle,no_dis,vert,up,"[99999,99999]","[-106,106]",up,1,0.807,,,,,,001,2025-03-10_16h55.55.704,SL_base,2021.2.3,Win32,120.4819277,,,114,0,114,0,1,,,,,,,,
,,"[""circle"",""red"",""hori"",""left"",[0,150],[106,106]]",circle,red,hori,left,"[0,150]","[106,106]",left,1,0.7245,,,,,,001,2025-03-10_16h55.55.704,SL_base,2021.2.3,Win32,120.4819277,,,115,0,115,0,1,,,,,,,,
,,"[""diamond"",""no_dis"",""hori"",""left"",[99999,99999],[-150,0]]",diamond,no_dis,hori,left,"[99999,99999]","[-150,0]",left,1,1.0286,,,,,,001,2025-03-10_16h55.55.704,SL_base,2021.2.3,Win32,120.4819277,,,116,0,116,0,1,,,,,,,,
,,"[""circle"",""no_dis"",""hori"",""left"",[99999,99999],[150,0]]",circle,no_dis,hori,left,"[99999,99999]","[150,0]",left,1,1.1631,,,,,,001,2025-03-10_16h55.55.704,SL_base,2021.2.3,Win32,120.4819277,,,117,0,117,0,1,,,,,,,,
,,"[""circle"",""no_dis"",""hori"",""left"",[99999,99999],[0,150]]",circle,no_dis,hori,left,"[99999,99999]","[0,150]",left,1,0.9484,,,,,,001,2025-03-10_16h55.55.704,SL_base,2021.2.3,Win32,120.4819277,,,118,0,118,0,1,,,,,,,,
,,"[""diamond"",""green"",""hori"",""left"",[-106,-106],[106,106]]",diamond,green,hori,left,"[-106,-106]","[106,106]",left,1,2.1459,,,,,,001,2025-03-10_16h55.55.704,SL_base,2021.2.3,Win32,120.4819277,,,119,0,119,0,1,,,,,,,,
,,,,,,,,,,,,,,,,,001,2025-03-10_16h55.55.704,SL_base,2021.2.3,Win32,120.4819277,,,,,,,,3,space,68.8796,2,0,2,0,1
,,"[""circle"",""no_dis"",""vert"",""up"",[99999,99999],[-106,106]]",circle,no_dis,vert,up,"[99999,99999]","[-106,106]",up,1,2.2091,,,,,,001,2025-03-10_16h55.55.704,SL_base,2021.2.3,Win32,120.4819277,,,0,0,0,0,1,,,,,,,,
,,"[""diamond"",""no_dis"",""vert"",""up"",[99999,99999],[-106,-106]]",diamond,no_dis,vert,up,"[99999,99999]","[-106,-106]",up,1,0.9585,,,,,,001,2025-03-10_16h55.55.704,SL_base,2021.2.3,Win32,120.4819277,,,1,0,1,0,1,,,,,,,,
,,"[""circle"",""green"",""vert"",""up"",[-106,-106],[0,-150]]",circle,green,vert,up,"[-106,-106]","[0,-150]",up,1,1.5753,,,,,,001,2025-03-10_16h55.55.704,SL_base,2021.2.3,Win32,120.4819277,,,2,0,2,0,1,,,,,,,,
,,"[""diamond"",""no_dis"",""vert"",""up"",[99999,99999],[106,-106]]",diamond,no_dis,vert,up,"[99999,99999]","[106,-106]",up,1,1.3581,,,,,,001,2025-03-10_16h55.55.704,SL_base,2021.2.3,Win32,120.4819277,,,3,0,3,0,1,,,,,,,,
,,"[""diamond"",""no_dis"",""hori"",""left"",[99999,99999],[106,106]]",diamond,no_dis,hori,left,"[99999,99999]","[106,106]",left,1,1.4947,,,,,,001,2025-03-10_16h55.55.704,SL_base,2021.2.3,Win32,120.4819277,,,4,0,4,0,1,,,,,,,,
,,"[""diamond"",""red"",""hori"",""left"",[0,-150],[106,-106]]",diamond,red,hori,left,"[0,-150]","[106,-106]",left,1,1.1676,,,,,,001,2025-03-10_16h55.55.704,SL_base,2021.2.3,Win32,120.4819277,,,5,0,5,0,1,,,,,,,,
,,"[""diamond"",""red"",""vert"",""up"",[0,150],[-106,106]]",diamond,red,vert,up,"[0,150]","[-106,106]",up,1,0.9997,,,,,,001,2025-03-10_16h55.55.704,SL_base,2021.2.3,Win32,120.4819277,,,6,0,6,0,1,,,,,,,,
,,"[""circle"",""red"",""hori"",""left"",[0,150],[-150,0]]",circle,red,hori,left,"[0,150]","[-150,0]",left,1,1.6257,,,,,,001,2025-03-10_16h55.55.704,SL_base,2021.2.3,Win32,120.4819277,,,7,0,7,0,1,,,,,,,,
,,"[""diamond"",""no_dis"",""vert"",""up"",[99999,99999],[-106,-106]]",diamond,no_dis,vert,up,"[99999,99999]","[-106,-106]",up,1,1.394,,,,,,001,2025-03-10_16h55.55.704,SL_base,2021.2.3,Win32,120.4819277,,,8,0,8,0,1,,,,,,,,
,,"[""circle"",""no_dis"",""vert"",""up"",[99999,99999],[0,150]]",circle,no_dis,vert,up,"[99999,99999]","[0,150]",up,1,1.2257,,,,,,001,2025-03-10_16h55.55.704,SL_base,2021.2.3,Win32,120.4819277,,,9,0,9,0,1,,,,,,,,
,,"[""diamond"",""no_dis"",""vert"",""up"",[99999,99999],[0,-150]]",diamond,no_dis,vert,up,"[99999,99999]","[0,-150]",up,1,0.9676,,,,,,001,2025-03-10_16h55.55.704,SL_base,2021.2.3,Win32,120.4819277,,,10,0,10,0,1,,,,,,,,
,,"[""diamond"",""red"",""hori"",""left"",[106,-106],[106,106]]",diamond,red,hori,left,"[106,-106]","[106,106]",left,1,1.1888,,,,,,001,2025-03-10_16h55.55.704,SL_base,2021.2.3,Win32,120.4819277,,,11,0,11,0,1,,,,,,,,
,,"[""diamond"",""red"",""vert"",""up"",[150,0],[-106,-106]]",diamond,red,vert,up,"[150,0]","[-106,-106]",up,1,1.3365,,,,,,001,2025-03-10_16h55.55.704,SL_base,2021.2.3,Win32,120.4819277,,,12,0,12,0,1,,,,,,,,
,,"[""diamond"",""green"",""hori"",""left"",[0,-150],[-106,-106]]",diamond,green,hori,left,"[0,-150]","[-106,-106]",left,1,1.05,,,,,,001,2025-03-10_16h55.55.704,SL_base,2021.2.3,Win32,120.4819277,,,13,0,13,0,1,,,,,,,,
,,"[""circle"",""no_dis"",""hori"",""left"",[99999,99999],[0,150]]",circle,no_dis,hori,left,"[99999,99999]","[0,150]",left,1,1.3899,,,,,,001,2025-03-10_16h55.55.704,SL_base,2021.2.3,Win32,120.4819277,,,14,0,14,0,1,,,,,,,,
,,"[""circle"",""green"",""hori"",""left"",[106,106],[-150,0]]",circle,green,hori,left,"[106,106]","[-150,0]",left,1,1.0979,,,,,,001,2025-03-10_16h55.55.704,SL_base,2021.2.3,Win32,120.4819277,,,15,0,15,0,1,,,,,,,,
,,"[""diamond"",""red"",""vert"",""up"",[0,150],[-150,0]]",diamond,red,vert,up,"[0,150]","[-150,0]",up,1,1.571,,,,,,001,2025-03-10_16h55.55.704,SL_base,2021.2.3,Win32,120.4819277,,,16,0,16,0,1,,,,,,,,
,,"[""diamond"",""green"",""vert"",""up"",[-106,-106],[-106,106]]",diamond,green,vert,up,"[-106,-106]","[-106,106]",up,1,1.5219,,,,,,001,2025-03-10_16h55.55.704,SL_base,2021.2.3,Win32,120.4819277,,,17,0,17,0,1,,,,,,,,
,,"[""diamond"",""green"",""vert"",""up"",[150,0],[0,-150]]",diamond,green,vert,up,"[150,0]","[0,-150]",up,1,0.9948,,,,,,001,2025-03-10_16h55.55.704,SL_base,2021.2.3,Win32,120.4819277,,,18,0,18,0,1,,,,,,,,
,,"[""diamond"",""green"",""hori"",""left"",[0,150],[0,-150]]",diamond,green,hori,left,"[0,150]","[0,-150]",left,1,1.3781,,,,,,001,2025-03-10_16h55.55.704,SL_base,2021.2.3,Win32,120.4819277,,,19,0,19,0,1,,,,,,,,
,,"[""circle"",""green"",""vert"",""up"",[0,150],[106,-106]]",circle,green,vert,up,"[0,150]","[106,-106]",up,1,1.6413,,,,,,001,2025-03-10_16h55.55.704,SL_base,2021.2.3,Win32,120.4819277,,,20,0,20,0,1,,,,,,,,
,,"[""circle"",""no_dis"",""hori"",""left"",[99999,99999],[-106,106]]",circle,no_dis,hori,left,"[99999,99999]","[-106,106]",left,1,0.6547,,,,,,001,2025-03-10_16h55.55.704,SL_base,2021.2.3,Win32,120.4819277,,,21,0,21,0,1,,,,,,,,
,,"[""circle"",""green"",""vert"",""up"",[-106,-106],[106,106]]",circle,green,vert,up,"[-106,-106]","[106,106]",up,1,1.4987,,,,,,001,2025-03-10_16h55.55.704,SL_base,2021.2.3,Win32,120.4819277,,,22,0,22,0,1,,,,,,,,
,,"[""circle"",""red"",""vert"",""up"",[0,150],[-106,-106]]",circle,red,vert,up,"[0,150]","[-106,-106]",up,1,1.8913,,,,,,001,2025-03-10_16h55.55.704,SL_base,2021.2.3,Win32,120.4819277,,,23,0,23,0,1,,,,,,,,
,,"[""diamond"",""no_dis"",""hori"",""left"",[99999,99999],[106,-106]]",diamond,no_dis,hori,left,"[99999,99999]","[106,-106]",left,1,1.3492,,,,,,001,2025-03-10_16h55.55.704,SL_base,2021.2.3,Win32,120.4819277,,,24,0,24,0,1,,,,,,,,
,,"[""circle"",""green"",""hori"",""left"",[0,150],[-150,0]]",circle,green,hori,left,"[0,150]","[-150,0]",left,1,1.0321,,,,,,001,2025-03-10_16h55.55.704,SL_base,2021.2.3,Win32,120.4819277,,,25,0,25,0,1,,,,,,,,
,,"[""circle"",""green"",""hori"",""left"",[0,150],[-106,106]]",circle,green,hori,left,"[0,150]","[-106,106]",left,1,0.9635,,,,,,001,2025-03-10_16h55.55.704,SL_base,2021.2.3,Win32,120.4819277,,,26,0,26,0,1,,,,,,,,
,,"[""circle"",""no_dis"",""vert"",""up"",[99999,99999],[106,-106]]",circle,no_dis,vert,up,"[99999,99999]","[106,-106]",up,1,0.8178,,,,,,001,2025-03-10_16h55.55.704,SL_base,2021.2.3,Win32,120.4819277,,,27,0,27,0,1,,,,,,,,
,,"[""diamond"",""no_dis"",""hori"",""left"",[99999,99999],[-150,0]]",diamond,no_dis,hori,left,"[99999,99999]","[-150,0]",left,1,1.0565,,,,,,001,2025-03-10_16h55.55.704,SL_base,2021.2.3,Win32,120.4819277,,,28,0,28,0,1,,,,,,,,
,,"[""diamond"",""no_dis"",""vert"",""up"",[99999,99999],[0,150]]",diamond,no_dis,vert,up,"[99999,99999]","[0,150]",left,0,1.7704,,,,,,001,2025-03-10_16h55.55.704,SL_base,2021.2.3,Win32,120.4819277,,,29,0,29,0,1,,,,,,,,
,,"[""circle"",""red"",""hori"",""left"",[0,150],[0,-150]]",circle,red,hori,left,"[0,150]","[0,-150]",up,0,1.3545,,,,,,001,2025-03-10_16h55.55.704,SL_base,2021.2.3,Win32,120.4819277,,,30,0,30,0,1,,,,,,,,
,,"[""circle"",""no_dis"",""hori"",""left"",[99999,99999],[-150,0]]",circle,no_dis,hori,left,"[99999,99999]","[-150,0]",left,1,0.8913,,,,,,001,2025-03-10_16h55.55.704,SL_base,2021.2.3,Win32,120.4819277,,,31,0,31,0,1,,,,,,,,
,,"[""circle"",""green"",""hori"",""left"",[0,150],[106,106]]",circle,green,hori,left,"[0,150]","[106,106]",left,1,1.1987,,,,,,001,2025-03-10_16h55.55.704,SL_base,2021.2.3,Win32,120.4819277,,,32,0,32,0,1,,,,,,,,
,,"[""diamond"",""green"",""hori"",""left"",[-106,106],[0,-150]]",diamond,green,hori,left,"[-106,106]","[0,-150]",left,1,1.8207,,,,,,001,2025-03-10_16h55.55.704,SL_base,2021.2.3,Win32,120.4819277,,,33,0,33,0,1,,,,,,,,
,,"[""diamond"",""red"",""hori"",""left"",[0,-150],[-106,-106]]",diamond,red,hori,left,"[0,-150]","[-106,-106]",left,1,1.7039,,,,,,001,2025-03-10_16h55.55.704,SL_base,2021.2.3,Win32,120.4819277,,,34,0,34,0,1,,,,,,,,
,,"[""circle"",""green"",""hori"",""left"",[-106,-106],[106,106]]",circle,green,hori,left,"[-106,-106]","[106,106]",left,1,1.465,,,,,,001,2025-03-10_16h55.55.704,SL_base,2021.2.3,Win32,120.4819277,,,35,0,35,0,1,,,,,,,,
,,"[""circle"",""no_dis"",""hori"",""left"",[99999,99999],[0,-150]]",circle,no_dis,hori,left,"[99999,99999]","[0,-150]",left,1,0.6196,,,,,,001,2025-03-10_16h55.55.704,SL_base,2021.2.3,Win32,120.4819277,,,36,0,36,0,1,,,,,,,,
,,"[""diamond"",""no_dis"",""hori"",""left"",[99999,99999],[-150,0]]",diamond,no_dis,hori,left,"[99999,99999]","[-150,0]",left,1,1.8619,,,,,,001,2025-03-10_16h55.55.704,SL_base,2021.2.3,Win32,120.4819277,,,37,0,37,0,1,,,,,,,,
,,"[""circle"",""no_dis"",""hori"",""left"",[99999,99999],[106,106]]",circle,no_dis,hori,left,"[99999,99999]","[106,106]",left,1,2.1653,,,,,,001,2025-03-10_16h55.55.704,SL_base,2021.2.3,Win32,120.4819277,,,38,0,38,0,1,,,,,,,,
,,"[""diamond"",""green"",""vert"",""up"",[0,150],[-150,0]]",diamond,green,vert,up,"[0,150]","[-150,0]",up,1,1.881,,,,,,001,2025-03-10_16h55.55.704,SL_base,2021.2.3,Win32,120.4819277,,,39,0,39,0,1,,,,,,,,
,,"[""diamond"",""red"",""vert"",""up"",[106,106],[0,-150]]",diamond,red,vert,up,"[106,106]","[0,-150]",up,1,1.8078,,,,,,001,2025-03-10_16h55.55.704,SL_base,2021.2.3,Win32,120.4819277,,,40,0,40,0,1,,,,,,,,
,,"[""diamond"",""red"",""vert"",""up"",[-106,106],[106,106]]",diamond,red,vert,up,"[-106,106]","[106,106]",up,1,1.5271,,,,,,001,2025-03-10_16h55.55.704,SL_base,2021.2.3,Win32,120.4819277,,,41,0,41,0,1,,,,,,,,
,,"[""diamond"",""red"",""hori"",""left"",[-106,106],[0,150]]",diamond,red,hori,left,"[-106,106]","[0,150]",left,1,0.9503,,,,,,001,2025-03-10_16h55.55.704,SL_base,2021.2.3,Win32,120.4819277,,,42,0,42,0,1,,,,,,,,
,,"[""circle"",""red"",""vert"",""up"",[0,150],[106,-106]]",circle,red,vert,up,"[0,150]","[106,-106]",left,0,1.1104,,,,,,001,2025-03-10_16h55.55.704,SL_base,2021.2.3,Win32,120.4819277,,,43,0,43,0,1,,,,,,,,
,,"[""diamond"",""green"",""hori"",""left"",[-106,-106],[106,106]]",diamond,green,hori,left,"[-106,-106]","[106,106]",left,1,1.4548,,,,,,001,2025-03-10_16h55.55.704,SL_base,2021.2.3,Win32,120.4819277,,,44,0,44,0,1,,,,,,,,
,,"[""circle"",""green"",""vert"",""up"",[106,106],[0,-150]]",circle,green,vert,up,"[106,106]","[0,-150]",up,1,2.4749,,,,,,001,2025-03-10_16h55.55.704,SL_base,2021.2.3,Win32,120.4819277,,,45,0,45,0,1,,,,,,,,
,,"[""circle"",""green"",""vert"",""up"",[-150,0],[106,106]]",circle,green,vert,up,"[-150,0]","[106,106]",up,1,1.0942,,,,,,001,2025-03-10_16h55.55.704,SL_base,2021.2.3,Win32,120.4819277,,,46,0,46,0,1,,,,,,,,
,,"[""circle"",""red"",""vert"",""up"",[150,0],[-106,106]]",circle,red,vert,up,"[150,0]","[-106,106]",left,0,1.345,,,,,,001,2025-03-10_16h55.55.704,SL_base,2021.2.3,Win32,120.4819277,,,47,0,47,0,1,,,,,,,,
,,"[""diamond"",""no_dis"",""vert"",""up"",[99999,99999],[0,150]]",diamond,no_dis,vert,up,"[99999,99999]","[0,150]",up,1,1.5838,,,,,,001,2025-03-10_16h55.55.704,SL_base,2021.2.3,Win32,120.4819277,,,48,0,48,0,1,,,,,,,,
,,"[""diamond"",""red"",""vert"",""up"",[-150,0],[106,106]]",diamond,red,vert,up,"[-150,0]","[106,106]",up,1,1.478,,,,,,001,2025-03-10_16h55.55.704,SL_base,2021.2.3,Win32,120.4819277,,,49,0,49,0,1,,,,,,,,
,,"[""diamond"",""red"",""vert"",""up"",[-150,0],[0,-150]]",diamond,red,vert,up,"[-150,0]","[0,-150]",up,1,1.3232,,,,,,001,2025-03-10_16h55.55.704,SL_base,2021.2.3,Win32,120.4819277,,,50,0,50,0,1,,,,,,,,
,,"[""diamond"",""red"",""vert"",""up"",[106,-106],[150,0]]",diamond,red,vert,up,"[106,-106]","[150,0]",up,1,1.8184,,,,,,001,2025-03-10_16h55.55.704,SL_base,2021.2.3,Win32,120.4819277,,,51,0,51,0,1,,,,,,,,
,,"[""circle"",""red"",""vert"",""up"",[106,106],[-106,-106]]",circle,red,vert,up,"[106,106]","[-106,-106]",up,1,1.0736,,,,,,001,2025-03-10_16h55.55.704,SL_base,2021.2.3,Win32,120.4819277,,,52,0,52,0,1,,,,,,,,
,,"[""circle"",""green"",""vert"",""up"",[-106,106],[0,-150]]",circle,green,vert,up,"[-106,106]","[0,-150]",up,1,2.132,,,,,,001,2025-03-10_16h55.55.704,SL_base,2021.2.3,Win32,120.4819277,,,53,0,53,0,1,,,,,,,,
,,"[""diamond"",""green"",""vert"",""up"",[150,0],[-106,106]]",diamond,green,vert,up,"[150,0]","[-106,106]",up,1,1.6591,,,,,,001,2025-03-10_16h55.55.704,SL_base,2021.2.3,Win32,120.4819277,,,54,0,54,0,1,,,,,,,,
,,"[""diamond"",""no_dis"",""vert"",""up"",[99999,99999],[150,0]]",diamond,no_dis,vert,up,"[99999,99999]","[150,0]",up,1,1.0133,,,,,,001,2025-03-10_16h55.55.704,SL_base,2021.2.3,Win32,120.4819277,,,55,0,55,0,1,,,,,,,,
,,"[""circle"",""no_dis"",""vert"",""up"",[99999,99999],[106,106]]",circle,no_dis,vert,up,"[99999,99999]","[106,106]",up,1,0.8599,,,,,,001,2025-03-10_16h55.55.704,SL_base,2021.2.3,Win32,120.4819277,,,56,0,56,0,1,,,,,,,,
,,"[""diamond"",""red"",""hori"",""left"",[-106,106],[150,0]]",diamond,red,hori,left,"[-106,106]","[150,0]",up,0,2.1839,,,,,,001,2025-03-10_16h55.55.704,SL_base,2021.2.3,Win32,120.4819277,,,57,0,57,0,1,,,,,,,,
,,"[""circle"",""red"",""hori"",""left"",[-106,106],[0,150]]",circle,red,hori,left,"[-106,106]","[0,150]",left,1,1.5819,,,,,,001,2025-03-10_16h55.55.704,SL_base,2021.2.3,Win32,120.4819277,,,58,0,58,0,1,,,,,,,,
,,"[""diamond"",""red"",""hori"",""left"",[0,150],[150,0]]",diamond,red,hori,left,"[0,150]","[150,0]",left,1,1.1317,,,,,,001,2025-03-10_16h55.55.704,SL_base,2021.2.3,Win32,120.4819277,,,59,0,59,0,1,,,,,,,,
,,"[""circle"",""green"",""hori"",""left"",[-150,0],[0,-150]]",circle,green,hori,left,"[-150,0]","[0,-150]",left,1,1.742,,,,,,001,2025-03-10_16h55.55.704,SL_base,2021.2.3,Win32,120.4819277,,,60,0,60,0,1,,,,,,,,
,,"[""diamond"",""red"",""hori"",""left"",[150,0],[-106,106]]",diamond,red,hori,left,"[150,0]","[-106,106]",left,1,1.2139,,,,,,001,2025-03-10_16h55.55.704,SL_base,2021.2.3,Win32,120.4819277,,,61,0,61,0,1,,,,,,,,
,,"[""diamond"",""no_dis"",""hori"",""left"",[99999,99999],[-106,-106]]",diamond,no_dis,hori,left,"[99999,99999]","[-106,-106]",left,1,1.1695,,,,,,001,2025-03-10_16h55.55.704,SL_base,2021.2.3,Win32,120.4819277,,,62,0,62,0,1,,,,,,,,
,,"[""diamond"",""no_dis"",""hori"",""left"",[99999,99999],[-150,0]]",diamond,no_dis,hori,left,"[99999,99999]","[-150,0]",left,1,0.9437,,,,,,001,2025-03-10_16h55.55.704,SL_base,2021.2.3,Win32,120.4819277,,,63,0,63,0,1,,,,,,,,
,,"[""circle"",""no_dis"",""hori"",""left"",[99999,99999],[106,106]]",circle,no_dis,hori,left,"[99999,99999]","[106,106]",left,1,1.9853,,,,,,001,2025-03-10_16h55.55.704,SL_base,2021.2.3,Win32,120.4819277,,,64,0,64,0,1,,,,,,,,
,,"[""circle"",""green"",""vert"",""up"",[150,0],[106,106]]",circle,green,vert,up,"[150,0]","[106,106]",up,1,1.3839,,,,,,001,2025-03-10_16h55.55.704,SL_base,2021.2.3,Win32,120.4819277,,,65,0,65,0,1,,,,,,,,
,,"[""diamond"",""green"",""vert"",""up"",[0,150],[106,-106]]",diamond,green,vert,up,"[0,150]","[106,-106]",up,1,1.6898,,,,,,001,2025-03-10_16h55.55.704,SL_base,2021.2.3,Win32,120.4819277,,,66,0,66,0,1,,,,,,,,
,,"[""circle"",""no_dis"",""hori"",""left"",[99999,99999],[-106,106]]",circle,no_dis,hori,left,"[99999,99999]","[-106,106]",left,1,1.6938,,,,,,001,2025-03-10_16h55.55.704,SL_base,2021.2.3,Win32,120.4819277,,,67,0,67,0,1,,,,,,,,
,,"[""circle"",""no_dis"",""hori"",""left"",[99999,99999],[-106,106]]",circle,no_dis,hori,left,"[99999,99999]","[-106,106]",left,1,1.8011,,,,,,001,2025-03-10_16h55.55.704,SL_base,2021.2.3,Win32,120.4819277,,,68,0,68,0,1,,,,,,,,
,,"[""circle"",""green"",""vert"",""up"",[-106,106],[-106,-106]]",circle,green,vert,up,"[-106,106]","[-106,-106]",up,1,2.0165,,,,,,001,2025-03-10_16h55.55.704,SL_base,2021.2.3,Win32,120.4819277,,,69,0,69,0,1,,,,,,,,
,,"[""diamond"",""no_dis"",""vert"",""up"",[99999,99999],[0,-150]]",diamond,no_dis,vert,up,"[99999,99999]","[0,-150]",up,1,2.2125,,,,,,001,2025-03-10_16h55.55.704,SL_base,2021.2.3,Win32,120.4819277,,,70,0,70,0,1,,,,,,,,
,,"[""diamond"",""green"",""hori"",""left"",[106,-106],[0,-150]]",diamond,green,hori,left,"[106,-106]","[0,-150]",left,1,2.1849,,,,,,001,2025-03-10_16h55.55.704,SL_base,2021.2.3,Win32,120.4819277,,,71,0,71,0,1,,,,,,,,
,,"[""diamond"",""green"",""vert"",""up"",[106,-106],[150,0]]",diamond,green,vert,up,"[106,-106]","[150,0]",up,1,1.8462,,,,,,001,2025-03-10_16h55.55.704,SL_base,2021.2.3,Win32,120.4819277,,,72,0,72,0,1,,,,,,,,
,,"[""diamond"",""green"",""hori"",""left"",[-106,-106],[106,106]]",diamond,green,hori,left,"[-106,-106]","[106,106]",left,1,1.3062,,,,,,001,2025-03-10_16h55.55.704,SL_base,2021.2.3,Win32,120.4819277,,,73,0,73,0,1,,,,,,,,
,,"[""circle"",""red"",""vert"",""up"",[-106,-106],[-106,106]]",circle,red,vert,up,"[-106,-106]","[-106,106]",left,0,0.9178,,,,,,001,2025-03-10_16h55.55.704,SL_base,2021.2.3,Win32,120.4819277,,,74,0,74,0,1,,,,,,,,
,,"[""circle"",""no_dis"",""hori"",""left"",[99999,99999],[150,0]]",circle,no_dis,hori,left,"[99999,99999]","[150,0]",left,1,1.8574,,,,,,001,2025-03-10_16h55.55.704,SL_base,2021.2.3,Win32,120.4819277,,,75,0,75,0,1,,,,,,,,
,,"[""circle"",""green"",""hori"",""left"",[106,106],[0,-150]]",circle,green,hori,left,"[106,106]","[0,-150]",left,1,1.8933,,,,,,001,2025-03-10_16h55.55.704,SL_base,2021.2.3,Win32,120.4819277,,,76,0,76,0,1,,,,,,,,
,,"[""circle"",""green"",""vert"",""up"",[0,-150],[0,150]]",circle,green,vert,up,"[0,-150]","[0,150]",up,1,1.2738,,,,,,001,2025-03-10_16h55.55.704,SL_base,2021.2.3,Win32,120.4819277,,,77,0,77,0,1,,,,,,,,
,,"[""diamond"",""green"",""vert"",""up"",[106,-106],[0,150]]",diamond,green,vert,up,"[106,-106]","[0,150]",up,1,1.9926,,,,,,001,2025-03-10_16h55.55.704,SL_base,2021.2.3,Win32,120.4819277,,,78,0,78,0,1,,,,,,,,
,,"[""diamond"",""no_dis"",""hori"",""left"",[99999,99999],[0,-150]]",diamond,no_dis,hori,left,"[99999,99999]","[0,-150]",left,1,1.5844,,,,,,001,2025-03-10_16h55.55.704,SL_base,2021.2.3,Win32,120.4819277,,,79,0,79,0,1,,,,,,,,
,,"[""circle"",""green"",""hori"",""left"",[-150,0],[-106,106]]",circle,green,hori,left,"[-150,0]","[-106,106]",,0,,,,,,,001,2025-03-10_16h55.55.704,SL_base,2021.2.3,Win32,120.4819277,,,80,0,80,0,1,,,,,,,,
,,"[""diamond"",""no_dis"",""vert"",""up"",[99999,99999],[150,0]]",diamond,no_dis,vert,up,"[99999,99999]","[150,0]",up,1,1.8775,,,,,,001,2025-03-10_16h55.55.704,SL_base,2021.2.3,Win32,120.4819277,,,81,0,81,0,1,,,,,,,,
,,"[""circle"",""no_dis"",""vert"",""up"",[99999,99999],[-106,106]]",circle,no_dis,vert,up,"[99999,99999]","[-106,106]",up,1,1.0093,,,,,,001,2025-03-10_16h55.55.704,SL_base,2021.2.3,Win32,120.4819277,,,82,0,82,0,1,,,,,,,,
,,"[""circle"",""no_dis"",""vert"",""up"",[99999,99999],[150,0]]",circle,no_dis,vert,up,"[99999,99999]","[150,0]",up,1,1.2716,,,,,,001,2025-03-10_16h55.55.704,SL_base,2021.2.3,Win32,120.4819277,,,83,0,83,0,1,,,,,,,,
,,"[""circle"",""red"",""vert"",""up"",[150,0],[-150,0]]",circle,red,vert,up,"[150,0]","[-150,0]",up,1,1.0181,,,,,,001,2025-03-10_16h55.55.704,SL_base,2021.2.3,Win32,120.4819277,,,84,0,84,0,1,,,,,,,,
,,"[""circle"",""no_dis"",""vert"",""up"",[99999,99999],[-106,-106]]",circle,no_dis,vert,up,"[99999,99999]","[-106,-106]",up,1,1.7048,,,,,,001,2025-03-10_16h55.55.704,SL_base,2021.2.3,Win32,120.4819277,,,85,0,85,0,1,,,,,,,,
,,"[""diamond"",""no_dis"",""vert"",""up"",[99999,99999],[0,150]]",diamond,no_dis,vert,up,"[99999,99999]","[0,150]",up,1,1.832,,,,,,001,2025-03-10_16h55.55.704,SL_base,2021.2.3,Win32,120.4819277,,,86,0,86,0,1,,,,,,,,
,,"[""diamond"",""no_dis"",""hori"",""left"",[99999,99999],[0,-150]]",diamond,no_dis,hori,left,"[99999,99999]","[0,-150]",left,1,1.4053,,,,,,001,2025-03-10_16h55.55.704,SL_base,2021.2.3,Win32,120.4819277,,,87,0,87,0,1,,,,,,,,
,,"[""circle"",""green"",""vert"",""up"",[0,-150],[-106,106]]",circle,green,vert,up,"[0,-150]","[-106,106]",up,1,2.34,,,,,,001,2025-03-10_16h55.55.704,SL_base,2021.2.3,Win32,120.4819277,,,88,0,88,0,1,,,,,,,,
,,"[""circle"",""no_dis"",""vert"",""up"",[99999,99999],[-106,-106]]",circle,no_dis,vert,up,"[99999,99999]","[-106,-106]",up,1,1.404,,,,,,001,2025-03-10_16h55.55.704,SL_base,2021.2.3,Win32,120.4819277,,,89,0,89,0,1,,,,,,,,
,,"[""circle"",""green"",""hori"",""left"",[0,150],[-106,106]]",circle,green,hori,left,"[0,150]","[-106,106]",left,1,1.1701,,,,,,001,2025-03-10_16h55.55.704,SL_base,2021.2.3,Win32,120.4819277,,,90,0,90,0,1,,,,,,,,
