﻿key_resp.keys,key_resp.rt,trial_para,tar_shape,dis_color_condi,tar_line,cor_resp,dis_loc,tar_loc,resp.keys,resp.corr,resp.rt,trials.thisRepN,trials.thisTrialN,trials.thisN,trials.thisIndex,trials.ran,participant,date,expName,psychopyVersion,OS,frameRate,key_resp_2.keys,key_resp_2.rt,trials_2.thisRepN,trials_2.thisTrialN,trials_2.thisN,trials_2.thisIndex,trials_2.ran,block_num,key_resp_3.keys,key_resp_3.rt,trials_3.thisRepN,trials_3.thisTrialN,trials_3.thisN,trials_3.thisIndex,trials_3.ran
space,14.2919,"[""diamond"",""green"",""hori"",""left"",[0,-150],[-106,106]]",diamond,green,hori,left,"[0,-150]","[-106,106]",left,1,1.8164,0,0,0,0,1,001,2025-03-10_16h52.29.087,SL_base,2021.2.3,Win32,59.88023952,,,,,,,,,,,,,,,
,,"[""diamond"",""green"",""vert"",""up"",[150,0],[106,-106]]",diamond,green,vert,up,"[150,0]","[106,-106]",left,0,1.7907,1,0,1,0,1,001,2025-03-10_16h52.29.087,SL_base,2021.2.3,Win32,59.88023952,,,,,,,,,,,,,,,
,,"[""circle"",""red"",""hori"",""left"",[106,106],[-106,-106]]",circle,red,hori,left,"[106,106]","[-106,-106]",left,1,1.0988,2,0,2,0,1,001,2025-03-10_16h52.29.087,SL_base,2021.2.3,Win32,59.88023952,,,,,,,,,,,,,,,
,,"[""circle"",""red"",""vert"",""up"",[0,150],[-106,-106]]",circle,red,vert,up,"[0,150]","[-106,-106]",left,0,2.0402,3,0,3,0,1,001,2025-03-10_16h52.29.087,SL_base,2021.2.3,Win32,59.88023952,,,,,,,,,,,,,,,
,,"[""diamond"",""no_dis"",""hori"",""left"",[99999,99999],[106,-106]]",diamond,no_dis,hori,left,"[99999,99999]","[106,-106]",left,1,1.6048,4,0,4,0,1,001,2025-03-10_16h52.29.087,SL_base,2021.2.3,Win32,59.88023952,,,,,,,,,,,,,,,
,,"[""circle"",""no_dis"",""vert"",""up"",[99999,99999],[0,150]]",circle,no_dis,vert,up,"[99999,99999]","[0,150]",up,1,2.1359,5,0,5,0,1,001,2025-03-10_16h52.29.087,SL_base,2021.2.3,Win32,59.88023952,,,,,,,,,,,,,,,
,,"[""circle"",""green"",""vert"",""up"",[0,-150],[-106,-106]]",circle,green,vert,up,"[0,-150]","[-106,-106]",up,1,2.6905,6,0,6,0,1,001,2025-03-10_16h52.29.087,SL_base,2021.2.3,Win32,59.88023952,,,,,,,,,,,,,,,
,,"[""diamond"",""red"",""vert"",""up"",[150,0],[-106,-106]]",diamond,red,vert,up,"[150,0]","[-106,-106]",left,0,1.7102,7,0,7,0,1,001,2025-03-10_16h52.29.087,SL_base,2021.2.3,Win32,59.88023952,,,,,,,,,,,,,,,
,,"[""circle"",""green"",""vert"",""up"",[106,-106],[0,-150]]",circle,green,vert,up,"[106,-106]","[0,-150]",,0,,8,0,8,0,1,001,2025-03-10_16h52.29.087,SL_base,2021.2.3,Win32,59.88023952,,,,,,,,,,,,,,,
,,"[""diamond"",""no_dis"",""vert"",""up"",[99999,99999],[-106,106]]",diamond,no_dis,vert,up,"[99999,99999]","[-106,106]",up,1,2.9501,9,0,9,0,1,001,2025-03-10_16h52.29.087,SL_base,2021.2.3,Win32,59.88023952,,,,,,,,,,,,,,,
,,"[""diamond"",""green"",""hori"",""left"",[0,-150],[-106,106]]",diamond,green,hori,left,"[0,-150]","[-106,106]",left,1,1.203,,,,,,001,2025-03-10_16h52.29.087,SL_base,2021.2.3,Win32,59.88023952,space,7.2321,0,0,0,0,1,,,,,,,,
,,"[""diamond"",""green"",""vert"",""up"",[150,0],[106,-106]]",diamond,green,vert,up,"[150,0]","[106,-106]",up,1,1.1601,,,,,,001,2025-03-10_16h52.29.087,SL_base,2021.2.3,Win32,59.88023952,,,1,0,1,0,1,,,,,,,,
,,"[""circle"",""red"",""hori"",""left"",[106,106],[-106,-106]]",circle,red,hori,left,"[106,106]","[-106,-106]",left,1,2.1717,,,,,,001,2025-03-10_16h52.29.087,SL_base,2021.2.3,Win32,59.88023952,,,2,0,2,0,1,,,,,,,,
,,"[""circle"",""red"",""vert"",""up"",[0,150],[-106,-106]]",circle,red,vert,up,"[0,150]","[-106,-106]",up,1,0.882,,,,,,001,2025-03-10_16h52.29.087,SL_base,2021.2.3,Win32,59.88023952,,,3,0,3,0,1,,,,,,,,
,,"[""diamond"",""no_dis"",""hori"",""left"",[99999,99999],[106,-106]]",diamond,no_dis,hori,left,"[99999,99999]","[106,-106]",left,1,1.0034,,,,,,001,2025-03-10_16h52.29.087,SL_base,2021.2.3,Win32,59.88023952,,,4,0,4,0,1,,,,,,,,
,,"[""circle"",""no_dis"",""vert"",""up"",[99999,99999],[0,150]]",circle,no_dis,vert,up,"[99999,99999]","[0,150]",up,1,0.8763,,,,,,001,2025-03-10_16h52.29.087,SL_base,2021.2.3,Win32,59.88023952,,,5,0,5,0,1,,,,,,,,
,,"[""circle"",""green"",""vert"",""up"",[0,-150],[-106,-106]]",circle,green,vert,up,"[0,-150]","[-106,-106]",up,1,1.5644,,,,,,001,2025-03-10_16h52.29.087,SL_base,2021.2.3,Win32,59.88023952,,,6,0,6,0,1,,,,,,,,
,,"[""diamond"",""red"",""vert"",""up"",[150,0],[-106,-106]]",diamond,red,vert,up,"[150,0]","[-106,-106]",up,1,1.5515,,,,,,001,2025-03-10_16h52.29.087,SL_base,2021.2.3,Win32,59.88023952,,,7,0,7,0,1,,,,,,,,
,,"[""circle"",""green"",""vert"",""up"",[106,-106],[0,-150]]",circle,green,vert,up,"[106,-106]","[0,-150]",up,1,1.2081,,,,,,001,2025-03-10_16h52.29.087,SL_base,2021.2.3,Win32,59.88023952,,,8,0,8,0,1,,,,,,,,
,,"[""diamond"",""no_dis"",""vert"",""up"",[99999,99999],[-106,106]]",diamond,no_dis,vert,up,"[99999,99999]","[-106,106]",up,1,1.021,,,,,,001,2025-03-10_16h52.29.087,SL_base,2021.2.3,Win32,59.88023952,,,9,0,9,0,1,,,,,,,,
,,"[""diamond"",""green"",""hori"",""left"",[0,150],[0,-150]]",diamond,green,hori,left,"[0,150]","[0,-150]",left,1,1.1432,,,,,,001,2025-03-10_16h52.29.087,SL_base,2021.2.3,Win32,59.88023952,,,10,0,10,0,1,,,,,,,,
,,"[""diamond"",""no_dis"",""hori"",""left"",[99999,99999],[150,0]]",diamond,no_dis,hori,left,"[99999,99999]","[150,0]",left,1,1.3294,,,,,,001,2025-03-10_16h52.29.087,SL_base,2021.2.3,Win32,59.88023952,,,11,0,11,0,1,,,,,,,,
,,"[""circle"",""green"",""hori"",""left"",[106,106],[150,0]]",circle,green,hori,left,"[106,106]","[150,0]",left,1,1.81,,,,,,001,2025-03-10_16h52.29.087,SL_base,2021.2.3,Win32,59.88023952,,,12,0,12,0,1,,,,,,,,
,,"[""circle"",""green"",""vert"",""up"",[-106,-106],[0,-150]]",circle,green,vert,up,"[-106,-106]","[0,-150]",up,1,2.0864,,,,,,001,2025-03-10_16h52.29.087,SL_base,2021.2.3,Win32,59.88023952,,,13,0,13,0,1,,,,,,,,
,,"[""diamond"",""red"",""hori"",""left"",[-106,106],[0,-150]]",diamond,red,hori,left,"[-106,106]","[0,-150]",left,1,0.9291,,,,,,001,2025-03-10_16h52.29.087,SL_base,2021.2.3,Win32,59.88023952,,,14,0,14,0,1,,,,,,,,
,,"[""circle"",""green"",""hori"",""left"",[106,-106],[150,0]]",circle,green,hori,left,"[106,-106]","[150,0]",left,1,1.0847,,,,,,001,2025-03-10_16h52.29.087,SL_base,2021.2.3,Win32,59.88023952,,,15,0,15,0,1,,,,,,,,
,,"[""diamond"",""no_dis"",""hori"",""left"",[99999,99999],[0,-150]]",diamond,no_dis,hori,left,"[99999,99999]","[0,-150]",left,1,0.7141,,,,,,001,2025-03-10_16h52.29.087,SL_base,2021.2.3,Win32,59.88023952,,,16,0,16,0,1,,,,,,,,
,,"[""diamond"",""red"",""hori"",""left"",[0,-150],[-106,106]]",diamond,red,hori,left,"[0,-150]","[-106,106]",left,1,1.701,,,,,,001,2025-03-10_16h52.29.087,SL_base,2021.2.3,Win32,59.88023952,,,17,0,17,0,1,,,,,,,,
,,"[""diamond"",""green"",""vert"",""up"",[-106,-106],[0,150]]",diamond,green,vert,up,"[-106,-106]","[0,150]",up,1,0.7809,,,,,,001,2025-03-10_16h52.29.087,SL_base,2021.2.3,Win32,59.88023952,,,18,0,18,0,1,,,,,,,,
,,"[""circle"",""no_dis"",""hori"",""left"",[99999,99999],[106,106]]",circle,no_dis,hori,left,"[99999,99999]","[106,106]",left,1,1.1841,,,,,,001,2025-03-10_16h52.29.087,SL_base,2021.2.3,Win32,59.88023952,,,19,0,19,0,1,,,,,,,,
,,"[""circle"",""red"",""hori"",""left"",[106,106],[106,-106]]",circle,red,hori,left,"[106,106]","[106,-106]",left,1,1.2102,,,,,,001,2025-03-10_16h52.29.087,SL_base,2021.2.3,Win32,59.88023952,,,20,0,20,0,1,,,,,,,,
,,"[""diamond"",""green"",""vert"",""up"",[0,-150],[150,0]]",diamond,green,vert,up,"[0,-150]","[150,0]",up,1,1.2309,,,,,,001,2025-03-10_16h52.29.087,SL_base,2021.2.3,Win32,59.88023952,,,21,0,21,0,1,,,,,,,,
,,"[""circle"",""red"",""vert"",""up"",[0,-150],[-106,106]]",circle,red,vert,up,"[0,-150]","[-106,106]",up,1,1.751,,,,,,001,2025-03-10_16h52.29.087,SL_base,2021.2.3,Win32,59.88023952,,,22,0,22,0,1,,,,,,,,
,,"[""diamond"",""red"",""vert"",""up"",[150,0],[0,-150]]",diamond,red,vert,up,"[150,0]","[0,-150]",up,1,1.0971,,,,,,001,2025-03-10_16h52.29.087,SL_base,2021.2.3,Win32,59.88023952,,,23,0,23,0,1,,,,,,,,
,,"[""circle"",""red"",""hori"",""left"",[106,106],[106,-106]]",circle,red,hori,left,"[106,106]","[106,-106]",left,1,1.3526,,,,,,001,2025-03-10_16h52.29.087,SL_base,2021.2.3,Win32,59.88023952,,,24,0,24,0,1,,,,,,,,
,,"[""diamond"",""no_dis"",""vert"",""up"",[99999,99999],[106,-106]]",diamond,no_dis,vert,up,"[99999,99999]","[106,-106]",up,1,1.0789,,,,,,001,2025-03-10_16h52.29.087,SL_base,2021.2.3,Win32,59.88023952,,,25,0,25,0,1,,,,,,,,
,,"[""circle"",""red"",""hori"",""left"",[0,-150],[106,106]]",circle,red,hori,left,"[0,-150]","[106,106]",left,1,0.8492,,,,,,001,2025-03-10_16h52.29.087,SL_base,2021.2.3,Win32,59.88023952,,,26,0,26,0,1,,,,,,,,
,,"[""circle"",""green"",""vert"",""up"",[-106,-106],[-150,0]]",circle,green,vert,up,"[-106,-106]","[-150,0]",up,1,0.9329,,,,,,001,2025-03-10_16h52.29.087,SL_base,2021.2.3,Win32,59.88023952,,,27,0,27,0,1,,,,,,,,
,,"[""diamond"",""no_dis"",""hori"",""left"",[99999,99999],[106,-106]]",diamond,no_dis,hori,left,"[99999,99999]","[106,-106]",left,1,1.0076,,,,,,001,2025-03-10_16h52.29.087,SL_base,2021.2.3,Win32,59.88023952,,,28,0,28,0,1,,,,,,,,
,,"[""diamond"",""red"",""vert"",""up"",[150,0],[-150,0]]",diamond,red,vert,up,"[150,0]","[-150,0]",up,1,0.8689,,,,,,001,2025-03-10_16h52.29.087,SL_base,2021.2.3,Win32,59.88023952,,,29,0,29,0,1,,,,,,,,
,,"[""diamond"",""red"",""hori"",""left"",[0,-150],[-106,106]]",diamond,red,hori,left,"[0,-150]","[-106,106]",left,1,1.9128,,,,,,001,2025-03-10_16h52.29.087,SL_base,2021.2.3,Win32,59.88023952,,,30,0,30,0,1,,,,,,,,
,,"[""circle"",""green"",""vert"",""up"",[0,-150],[-106,-106]]",circle,green,vert,up,"[0,-150]","[-106,-106]",up,1,1.0235,,,,,,001,2025-03-10_16h52.29.087,SL_base,2021.2.3,Win32,59.88023952,,,31,0,31,0,1,,,,,,,,
,,"[""diamond"",""green"",""hori"",""left"",[-150,0],[150,0]]",diamond,green,hori,left,"[-150,0]","[150,0]",left,1,0.7994,,,,,,001,2025-03-10_16h52.29.087,SL_base,2021.2.3,Win32,59.88023952,,,32,0,32,0,1,,,,,,,,
,,"[""diamond"",""red"",""vert"",""up"",[0,-150],[-106,106]]",diamond,red,vert,up,"[0,-150]","[-106,106]",up,1,0.8457,,,,,,001,2025-03-10_16h52.29.087,SL_base,2021.2.3,Win32,59.88023952,,,33,0,33,0,1,,,,,,,,
,,"[""circle"",""no_dis"",""vert"",""up"",[99999,99999],[-106,106]]",circle,no_dis,vert,up,"[99999,99999]","[-106,106]",up,1,1.365,,,,,,001,2025-03-10_16h52.29.087,SL_base,2021.2.3,Win32,59.88023952,,,34,0,34,0,1,,,,,,,,
,,"[""diamond"",""red"",""hori"",""left"",[-150,0],[0,150]]",diamond,red,hori,left,"[-150,0]","[0,150]",left,1,1.0703,,,,,,001,2025-03-10_16h52.29.087,SL_base,2021.2.3,Win32,59.88023952,,,35,0,35,0,1,,,,,,,,
,,"[""diamond"",""green"",""hori"",""left"",[-106,106],[-106,-106]]",diamond,green,hori,left,"[-106,106]","[-106,-106]",left,1,1.0241,,,,,,001,2025-03-10_16h52.29.087,SL_base,2021.2.3,Win32,59.88023952,,,36,0,36,0,1,,,,,,,,
,,"[""circle"",""red"",""hori"",""left"",[0,-150],[0,150]]",circle,red,hori,left,"[0,-150]","[0,150]",left,1,0.8811,,,,,,001,2025-03-10_16h52.29.087,SL_base,2021.2.3,Win32,59.88023952,,,37,0,37,0,1,,,,,,,,
,,"[""circle"",""red"",""hori"",""left"",[-106,-106],[0,150]]",circle,red,hori,left,"[-106,-106]","[0,150]",left,1,2.0167,,,,,,001,2025-03-10_16h52.29.087,SL_base,2021.2.3,Win32,59.88023952,,,38,0,38,0,1,,,,,,,,
,,"[""circle"",""green"",""vert"",""up"",[-106,106],[-150,0]]",circle,green,vert,up,"[-106,106]","[-150,0]",up,1,1.2706,,,,,,001,2025-03-10_16h52.29.087,SL_base,2021.2.3,Win32,59.88023952,,,39,0,39,0,1,,,,,,,,
,,"[""diamond"",""no_dis"",""hori"",""left"",[99999,99999],[0,-150]]",diamond,no_dis,hori,left,"[99999,99999]","[0,-150]",left,1,0.9339,,,,,,001,2025-03-10_16h52.29.087,SL_base,2021.2.3,Win32,59.88023952,,,40,0,40,0,1,,,,,,,,
,,"[""circle"",""green"",""hori"",""left"",[0,-150],[-106,-106]]",circle,green,hori,left,"[0,-150]","[-106,-106]",left,1,1.0308,,,,,,001,2025-03-10_16h52.29.087,SL_base,2021.2.3,Win32,59.88023952,,,41,0,41,0,1,,,,,,,,
,,"[""circle"",""red"",""vert"",""up"",[106,106],[106,-106]]",circle,red,vert,up,"[106,106]","[106,-106]",up,1,1.8258,,,,,,001,2025-03-10_16h52.29.087,SL_base,2021.2.3,Win32,59.88023952,,,42,0,42,0,1,,,,,,,,
,,"[""diamond"",""red"",""hori"",""left"",[0,-150],[106,-106]]",diamond,red,hori,left,"[0,-150]","[106,-106]",left,1,1.0639,,,,,,001,2025-03-10_16h52.29.087,SL_base,2021.2.3,Win32,59.88023952,,,43,0,43,0,1,,,,,,,,
,,"[""circle"",""green"",""hori"",""left"",[0,-150],[-150,0]]",circle,green,hori,left,"[0,-150]","[-150,0]",left,1,0.8546,,,,,,001,2025-03-10_16h52.29.087,SL_base,2021.2.3,Win32,59.88023952,,,44,0,44,0,1,,,,,,,,
,,"[""circle"",""no_dis"",""vert"",""up"",[99999,99999],[-150,0]]",circle,no_dis,vert,up,"[99999,99999]","[-150,0]",left,0,0.7261,,,,,,001,2025-03-10_16h52.29.087,SL_base,2021.2.3,Win32,59.88023952,,,45,0,45,0,1,,,,,,,,
,,"[""circle"",""no_dis"",""vert"",""up"",[99999,99999],[0,-150]]",circle,no_dis,vert,up,"[99999,99999]","[0,-150]",up,1,0.8371,,,,,,001,2025-03-10_16h52.29.087,SL_base,2021.2.3,Win32,59.88023952,,,46,0,46,0,1,,,,,,,,
,,"[""diamond"",""red"",""vert"",""up"",[0,150],[106,106]]",diamond,red,vert,up,"[0,150]","[106,106]",left,0,0.8725,,,,,,001,2025-03-10_16h52.29.087,SL_base,2021.2.3,Win32,59.88023952,,,47,0,47,0,1,,,,,,,,
,,"[""circle"",""green"",""hori"",""left"",[150,0],[-106,106]]",circle,green,hori,left,"[150,0]","[-106,106]",left,1,1.1181,,,,,,001,2025-03-10_16h52.29.087,SL_base,2021.2.3,Win32,59.88023952,,,48,0,48,0,1,,,,,,,,
,,"[""circle"",""green"",""hori"",""left"",[-150,0],[-106,-106]]",circle,green,hori,left,"[-150,0]","[-106,-106]",up,0,1.2662,,,,,,001,2025-03-10_16h52.29.087,SL_base,2021.2.3,Win32,59.88023952,,,49,0,49,0,1,,,,,,,,
,,"[""circle"",""green"",""vert"",""up"",[106,-106],[-106,-106]]",circle,green,vert,up,"[106,-106]","[-106,-106]",up,1,0.9857,,,,,,001,2025-03-10_16h52.29.087,SL_base,2021.2.3,Win32,59.88023952,,,50,0,50,0,1,,,,,,,,
,,"[""diamond"",""green"",""vert"",""up"",[150,0],[-106,106]]",diamond,green,vert,up,"[150,0]","[-106,106]",up,1,1.5072,,,,,,001,2025-03-10_16h52.29.087,SL_base,2021.2.3,Win32,59.88023952,,,51,0,51,0,1,,,,,,,,
,,"[""diamond"",""green"",""vert"",""up"",[0,-150],[106,106]]",diamond,green,vert,up,"[0,-150]","[106,106]",up,1,1.1417,,,,,,001,2025-03-10_16h52.29.087,SL_base,2021.2.3,Win32,59.88023952,,,52,0,52,0,1,,,,,,,,
,,"[""circle"",""no_dis"",""hori"",""left"",[99999,99999],[106,-106]]",circle,no_dis,hori,left,"[99999,99999]","[106,-106]",left,1,0.737,,,,,,001,2025-03-10_16h52.29.087,SL_base,2021.2.3,Win32,59.88023952,,,53,0,53,0,1,,,,,,,,
,,"[""circle"",""red"",""vert"",""up"",[150,0],[0,-150]]",circle,red,vert,up,"[150,0]","[0,-150]",up,1,0.7946,,,,,,001,2025-03-10_16h52.29.087,SL_base,2021.2.3,Win32,59.88023952,,,54,0,54,0,1,,,,,,,,
,,"[""circle"",""red"",""hori"",""left"",[-106,-106],[-150,0]]",circle,red,hori,left,"[-106,-106]","[-150,0]",up,0,1.3242,,,,,,001,2025-03-10_16h52.29.087,SL_base,2021.2.3,Win32,59.88023952,,,55,0,55,0,1,,,,,,,,
,,"[""circle"",""no_dis"",""hori"",""left"",[99999,99999],[-106,-106]]",circle,no_dis,hori,left,"[99999,99999]","[-106,-106]",left,1,0.7958,,,,,,001,2025-03-10_16h52.29.087,SL_base,2021.2.3,Win32,59.88023952,,,56,0,56,0,1,,,,,,,,
,,"[""circle"",""red"",""vert"",""up"",[106,106],[-150,0]]",circle,red,vert,up,"[106,106]","[-150,0]",up,1,1.7004,,,,,,001,2025-03-10_16h52.29.087,SL_base,2021.2.3,Win32,59.88023952,,,57,0,57,0,1,,,,,,,,
,,"[""diamond"",""no_dis"",""vert"",""up"",[99999,99999],[-150,0]]",diamond,no_dis,vert,up,"[99999,99999]","[-150,0]",up,1,1.1385,,,,,,001,2025-03-10_16h52.29.087,SL_base,2021.2.3,Win32,59.88023952,,,58,0,58,0,1,,,,,,,,
,,"[""diamond"",""green"",""hori"",""left"",[-150,0],[0,-150]]",diamond,green,hori,left,"[-150,0]","[0,-150]",left,1,0.9812,,,,,,001,2025-03-10_16h52.29.087,SL_base,2021.2.3,Win32,59.88023952,,,59,0,59,0,1,,,,,,,,
,,"[""circle"",""no_dis"",""hori"",""left"",[99999,99999],[-106,-106]]",circle,no_dis,hori,left,"[99999,99999]","[-106,-106]",left,1,0.8195,,,,,,001,2025-03-10_16h52.29.087,SL_base,2021.2.3,Win32,59.88023952,,,60,0,60,0,1,,,,,,,,
,,"[""diamond"",""green"",""vert"",""up"",[0,-150],[-106,-106]]",diamond,green,vert,up,"[0,-150]","[-106,-106]",up,1,1.3662,,,,,,001,2025-03-10_16h52.29.087,SL_base,2021.2.3,Win32,59.88023952,,,61,0,61,0,1,,,,,,,,
,,"[""circle"",""red"",""hori"",""left"",[-106,-106],[-150,0]]",circle,red,hori,left,"[-106,-106]","[-150,0]",left,1,1.2553,,,,,,001,2025-03-10_16h52.29.087,SL_base,2021.2.3,Win32,59.88023952,,,62,0,62,0,1,,,,,,,,
,,"[""circle"",""red"",""vert"",""up"",[-150,0],[0,150]]",circle,red,vert,up,"[-150,0]","[0,150]",up,1,1.0634,,,,,,001,2025-03-10_16h52.29.087,SL_base,2021.2.3,Win32,59.88023952,,,63,0,63,0,1,,,,,,,,
,,"[""diamond"",""no_dis"",""vert"",""up"",[99999,99999],[106,106]]",diamond,no_dis,vert,up,"[99999,99999]","[106,106]",up,1,1.0517,,,,,,001,2025-03-10_16h52.29.087,SL_base,2021.2.3,Win32,59.88023952,,,64,0,64,0,1,,,,,,,,
,,"[""circle"",""red"",""vert"",""up"",[106,106],[106,-106]]",circle,red,vert,up,"[106,106]","[106,-106]",up,1,1.2847,,,,,,001,2025-03-10_16h52.29.087,SL_base,2021.2.3,Win32,59.88023952,,,65,0,65,0,1,,,,,,,,
,,"[""diamond"",""green"",""vert"",""up"",[-150,0],[0,150]]",diamond,green,vert,up,"[-150,0]","[0,150]",up,1,1.0321,,,,,,001,2025-03-10_16h52.29.087,SL_base,2021.2.3,Win32,59.88023952,,,66,0,66,0,1,,,,,,,,
,,"[""circle"",""green"",""vert"",""up"",[0,150],[150,0]]",circle,green,vert,up,"[0,150]","[150,0]",up,1,1.236,,,,,,001,2025-03-10_16h52.29.087,SL_base,2021.2.3,Win32,59.88023952,,,67,0,67,0,1,,,,,,,,
,,"[""circle"",""green"",""hori"",""left"",[-106,106],[150,0]]",circle,green,hori,left,"[-106,106]","[150,0]",left,1,0.9214,,,,,,001,2025-03-10_16h52.29.087,SL_base,2021.2.3,Win32,59.88023952,,,68,0,68,0,1,,,,,,,,
,,"[""diamond"",""no_dis"",""vert"",""up"",[99999,99999],[0,150]]",diamond,no_dis,vert,up,"[99999,99999]","[0,150]",up,1,0.9708,,,,,,001,2025-03-10_16h52.29.087,SL_base,2021.2.3,Win32,59.88023952,,,69,0,69,0,1,,,,,,,,
,,"[""diamond"",""green"",""hori"",""left"",[0,-150],[-150,0]]",diamond,green,hori,left,"[0,-150]","[-150,0]",left,1,0.7315,,,,,,001,2025-03-10_16h52.29.087,SL_base,2021.2.3,Win32,59.88023952,,,70,0,70,0,1,,,,,,,,
,,"[""circle"",""no_dis"",""vert"",""up"",[99999,99999],[0,-150]]",circle,no_dis,vert,up,"[99999,99999]","[0,-150]",up,1,1.4811,,,,,,001,2025-03-10_16h52.29.087,SL_base,2021.2.3,Win32,59.88023952,,,71,0,71,0,1,,,,,,,,
,,"[""diamond"",""red"",""hori"",""left"",[-106,106],[-106,-106]]",diamond,red,hori,left,"[-106,106]","[-106,-106]",left,1,0.8728,,,,,,001,2025-03-10_16h52.29.087,SL_base,2021.2.3,Win32,59.88023952,,,72,0,72,0,1,,,,,,,,
,,"[""circle"",""no_dis"",""vert"",""up"",[99999,99999],[-106,106]]",circle,no_dis,vert,up,"[99999,99999]","[-106,106]",up,1,1.0884,,,,,,001,2025-03-10_16h52.29.087,SL_base,2021.2.3,Win32,59.88023952,,,73,0,73,0,1,,,,,,,,
,,"[""diamond"",""no_dis"",""vert"",""up"",[99999,99999],[150,0]]",diamond,no_dis,vert,up,"[99999,99999]","[150,0]",up,1,1.259,,,,,,001,2025-03-10_16h52.29.087,SL_base,2021.2.3,Win32,59.88023952,,,74,0,74,0,1,,,,,,,,
,,"[""diamond"",""red"",""hori"",""left"",[0,-150],[-106,-106]]",diamond,red,hori,left,"[0,-150]","[-106,-106]",left,1,1.4214,,,,,,001,2025-03-10_16h52.29.087,SL_base,2021.2.3,Win32,59.88023952,,,75,0,75,0,1,,,,,,,,
,,"[""circle"",""green"",""hori"",""left"",[-106,106],[150,0]]",circle,green,hori,left,"[-106,106]","[150,0]",left,1,1.4242,,,,,,001,2025-03-10_16h52.29.087,SL_base,2021.2.3,Win32,59.88023952,,,76,0,76,0,1,,,,,,,,
,,"[""circle"",""no_dis"",""hori"",""left"",[99999,99999],[106,-106]]",circle,no_dis,hori,left,"[99999,99999]","[106,-106]",left,1,1.4365,,,,,,001,2025-03-10_16h52.29.087,SL_base,2021.2.3,Win32,59.88023952,,,77,0,77,0,1,,,,,,,,
,,"[""circle"",""red"",""vert"",""up"",[-106,106],[0,150]]",circle,red,vert,up,"[-106,106]","[0,150]",up,1,0.87,,,,,,001,2025-03-10_16h52.29.087,SL_base,2021.2.3,Win32,59.88023952,,,78,0,78,0,1,,,,,,,,
,,"[""circle"",""no_dis"",""vert"",""up"",[99999,99999],[106,106]]",circle,no_dis,vert,up,"[99999,99999]","[106,106]",up,1,1.1201,,,,,,001,2025-03-10_16h52.29.087,SL_base,2021.2.3,Win32,59.88023952,,,79,0,79,0,1,,,,,,,,
,,"[""circle"",""green"",""vert"",""up"",[106,-106],[-106,106]]",circle,green,vert,up,"[106,-106]","[-106,106]",up,1,1.216,,,,,,001,2025-03-10_16h52.29.087,SL_base,2021.2.3,Win32,59.88023952,,,80,0,80,0,1,,,,,,,,
,,"[""diamond"",""no_dis"",""hori"",""left"",[99999,99999],[0,150]]",diamond,no_dis,hori,left,"[99999,99999]","[0,150]",left,1,1.1225,,,,,,001,2025-03-10_16h52.29.087,SL_base,2021.2.3,Win32,59.88023952,,,81,0,81,0,1,,,,,,,,
,,"[""circle"",""no_dis"",""hori"",""left"",[99999,99999],[106,106]]",circle,no_dis,hori,left,"[99999,99999]","[106,106]",left,1,1.3995,,,,,,001,2025-03-10_16h52.29.087,SL_base,2021.2.3,Win32,59.88023952,,,82,0,82,0,1,,,,,,,,
,,"[""diamond"",""red"",""vert"",""up"",[106,-106],[0,150]]",diamond,red,vert,up,"[106,-106]","[0,150]",up,1,0.8541,,,,,,001,2025-03-10_16h52.29.087,SL_base,2021.2.3,Win32,59.88023952,,,83,0,83,0,1,,,,,,,,
,,"[""diamond"",""no_dis"",""vert"",""up"",[99999,99999],[150,0]]",diamond,no_dis,vert,up,"[99999,99999]","[150,0]",up,1,0.9469,,,,,,001,2025-03-10_16h52.29.087,SL_base,2021.2.3,Win32,59.88023952,,,84,0,84,0,1,,,,,,,,
,,"[""diamond"",""green"",""hori"",""left"",[0,-150],[-106,106]]",diamond,green,hori,left,"[0,-150]","[-106,106]",left,1,1.3471,,,,,,001,2025-03-10_16h52.29.087,SL_base,2021.2.3,Win32,59.88023952,,,85,0,85,0,1,,,,,,,,
,,"[""diamond"",""no_dis"",""hori"",""left"",[99999,99999],[-106,-106]]",diamond,no_dis,hori,left,"[99999,99999]","[-106,-106]",left,1,1.1872,,,,,,001,2025-03-10_16h52.29.087,SL_base,2021.2.3,Win32,59.88023952,,,86,0,86,0,1,,,,,,,,
,,"[""diamond"",""no_dis"",""hori"",""left"",[99999,99999],[-150,0]]",diamond,no_dis,hori,left,"[99999,99999]","[-150,0]",left,1,0.7994,,,,,,001,2025-03-10_16h52.29.087,SL_base,2021.2.3,Win32,59.88023952,,,87,0,87,0,1,,,,,,,,
,,"[""diamond"",""green"",""vert"",""up"",[-150,0],[106,106]]",diamond,green,vert,up,"[-150,0]","[106,106]",up,1,0.7471,,,,,,001,2025-03-10_16h52.29.087,SL_base,2021.2.3,Win32,59.88023952,,,88,0,88,0,1,,,,,,,,
,,"[""diamond"",""red"",""hori"",""left"",[106,-106],[-106,-106]]",diamond,red,hori,left,"[106,-106]","[-106,-106]",left,1,0.9168,,,,,,001,2025-03-10_16h52.29.087,SL_base,2021.2.3,Win32,59.88023952,,,89,0,89,0,1,,,,,,,,
,,"[""circle"",""red"",""hori"",""left"",[-106,-106],[0,150]]",circle,red,hori,left,"[-106,-106]","[0,150]",left,1,1.2116,,,,,,001,2025-03-10_16h52.29.087,SL_base,2021.2.3,Win32,59.88023952,,,90,0,90,0,1,,,,,,,,
,,"[""diamond"",""green"",""hori"",""left"",[106,106],[-106,106]]",diamond,green,hori,left,"[106,106]","[-106,106]",left,1,1.0147,,,,,,001,2025-03-10_16h52.29.087,SL_base,2021.2.3,Win32,59.88023952,,,91,0,91,0,1,,,,,,,,
,,"[""circle"",""green"",""hori"",""left"",[0,150],[-106,106]]",circle,green,hori,left,"[0,150]","[-106,106]",left,1,1.1262,,,,,,001,2025-03-10_16h52.29.087,SL_base,2021.2.3,Win32,59.88023952,,,92,0,92,0,1,,,,,,,,
,,"[""circle"",""red"",""vert"",""up"",[0,150],[-106,-106]]",circle,red,vert,up,"[0,150]","[-106,-106]",up,1,1.054,,,,,,001,2025-03-10_16h52.29.087,SL_base,2021.2.3,Win32,59.88023952,,,93,0,93,0,1,,,,,,,,
,,"[""diamond"",""red"",""hori"",""left"",[-150,0],[106,-106]]",diamond,red,hori,left,"[-150,0]","[106,-106]",up,0,1.434,,,,,,001,2025-03-10_16h52.29.087,SL_base,2021.2.3,Win32,59.88023952,,,94,0,94,0,1,,,,,,,,
,,"[""diamond"",""green"",""hori"",""left"",[0,150],[-106,106]]",diamond,green,hori,left,"[0,150]","[-106,106]",left,1,0.9027,,,,,,001,2025-03-10_16h52.29.087,SL_base,2021.2.3,Win32,59.88023952,,,95,0,95,0,1,,,,,,,,
,,"[""circle"",""no_dis"",""vert"",""up"",[99999,99999],[-106,-106]]",circle,no_dis,vert,up,"[99999,99999]","[-106,-106]",left,0,1.5785,,,,,,001,2025-03-10_16h52.29.087,SL_base,2021.2.3,Win32,59.88023952,,,96,0,96,0,1,,,,,,,,
,,"[""diamond"",""no_dis"",""vert"",""up"",[99999,99999],[-106,106]]",diamond,no_dis,vert,up,"[99999,99999]","[-106,106]",up,1,1.01,,,,,,001,2025-03-10_16h52.29.087,SL_base,2021.2.3,Win32,59.88023952,,,97,0,97,0,1,,,,,,,,
,,"[""circle"",""no_dis"",""hori"",""left"",[99999,99999],[-106,106]]",circle,no_dis,hori,left,"[99999,99999]","[-106,106]",left,1,0.8805,,,,,,001,2025-03-10_16h52.29.087,SL_base,2021.2.3,Win32,59.88023952,,,98,0,98,0,1,,,,,,,,
,,"[""diamond"",""red"",""vert"",""up"",[-106,106],[150,0]]",diamond,red,vert,up,"[-106,106]","[150,0]",up,1,1.5766,,,,,,001,2025-03-10_16h52.29.087,SL_base,2021.2.3,Win32,59.88023952,,,99,0,99,0,1,,,,,,,,
,,"[""diamond"",""no_dis"",""vert"",""up"",[99999,99999],[0,150]]",diamond,no_dis,vert,up,"[99999,99999]","[0,150]",left,0,0.9816,,,,,,001,2025-03-10_16h52.29.087,SL_base,2021.2.3,Win32,59.88023952,,,100,0,100,0,1,,,,,,,,
,,"[""diamond"",""green"",""vert"",""up"",[0,-150],[-106,-106]]",diamond,green,vert,up,"[0,-150]","[-106,-106]",up,1,2.1382,,,,,,001,2025-03-10_16h52.29.087,SL_base,2021.2.3,Win32,59.88023952,,,101,0,101,0,1,,,,,,,,
,,"[""diamond"",""red"",""vert"",""up"",[106,-106],[0,-150]]",diamond,red,vert,up,"[106,-106]","[0,-150]",up,1,1.1517,,,,,,001,2025-03-10_16h52.29.087,SL_base,2021.2.3,Win32,59.88023952,,,102,0,102,0,1,,,,,,,,
,,"[""circle"",""no_dis"",""vert"",""up"",[99999,99999],[-106,-106]]",circle,no_dis,vert,up,"[99999,99999]","[-106,-106]",up,1,1.2701,,,,,,001,2025-03-10_16h52.29.087,SL_base,2021.2.3,Win32,59.88023952,,,103,0,103,0,1,,,,,,,,
,,"[""circle"",""no_dis"",""hori"",""left"",[99999,99999],[150,0]]",circle,no_dis,hori,left,"[99999,99999]","[150,0]",left,1,0.8491,,,,,,001,2025-03-10_16h52.29.087,SL_base,2021.2.3,Win32,59.88023952,,,104,0,104,0,1,,,,,,,,
,,"[""diamond"",""green"",""vert"",""up"",[0,-150],[106,106]]",diamond,green,vert,up,"[0,-150]","[106,106]",up,1,1.021,,,,,,001,2025-03-10_16h52.29.087,SL_base,2021.2.3,Win32,59.88023952,,,105,0,105,0,1,,,,,,,,
,,"[""diamond"",""red"",""vert"",""up"",[0,-150],[-150,0]]",diamond,red,vert,up,"[0,-150]","[-150,0]",up,1,0.8172,,,,,,001,2025-03-10_16h52.29.087,SL_base,2021.2.3,Win32,59.88023952,,,106,0,106,0,1,,,,,,,,
,,"[""circle"",""no_dis"",""hori"",""left"",[99999,99999],[0,150]]",circle,no_dis,hori,left,"[99999,99999]","[0,150]",left,1,0.7551,,,,,,001,2025-03-10_16h52.29.087,SL_base,2021.2.3,Win32,59.88023952,,,107,0,107,0,1,,,,,,,,
,,"[""diamond"",""no_dis"",""hori"",""left"",[99999,99999],[-150,0]]",diamond,no_dis,hori,left,"[99999,99999]","[-150,0]",left,1,0.8894,,,,,,001,2025-03-10_16h52.29.087,SL_base,2021.2.3,Win32,59.88023952,,,108,0,108,0,1,,,,,,,,
,,"[""diamond"",""red"",""vert"",""up"",[0,-150],[-106,106]]",diamond,red,vert,up,"[0,-150]","[-106,106]",up,1,1.1571,,,,,,001,2025-03-10_16h52.29.087,SL_base,2021.2.3,Win32,59.88023952,,,109,0,109,0,1,,,,,,,,
,,"[""circle"",""red"",""vert"",""up"",[150,0],[0,150]]",circle,red,vert,up,"[150,0]","[0,150]",up,1,0.9926,,,,,,001,2025-03-10_16h52.29.087,SL_base,2021.2.3,Win32,59.88023952,,,110,0,110,0,1,,,,,,,,
,,"[""diamond"",""no_dis"",""hori"",""left"",[99999,99999],[0,-150]]",diamond,no_dis,hori,left,"[99999,99999]","[0,-150]",left,1,1.0811,,,,,,001,2025-03-10_16h52.29.087,SL_base,2021.2.3,Win32,59.88023952,,,111,0,111,0,1,,,,,,,,
,,"[""circle"",""no_dis"",""vert"",""up"",[99999,99999],[106,106]]",circle,no_dis,vert,up,"[99999,99999]","[106,106]",up,1,1.2318,,,,,,001,2025-03-10_16h52.29.087,SL_base,2021.2.3,Win32,59.88023952,,,112,0,112,0,1,,,,,,,,
,,"[""diamond"",""red"",""hori"",""left"",[0,150],[150,0]]",diamond,red,hori,left,"[0,150]","[150,0]",left,1,0.9252,,,,,,001,2025-03-10_16h52.29.087,SL_base,2021.2.3,Win32,59.88023952,,,113,0,113,0,1,,,,,,,,
,,"[""diamond"",""green"",""hori"",""left"",[-106,-106],[150,0]]",diamond,green,hori,left,"[-106,-106]","[150,0]",left,1,0.8488,,,,,,001,2025-03-10_16h52.29.087,SL_base,2021.2.3,Win32,59.88023952,,,114,0,114,0,1,,,,,,,,
,,"[""circle"",""green"",""hori"",""left"",[106,-106],[0,-150]]",circle,green,hori,left,"[106,-106]","[0,-150]",up,0,0.7889,,,,,,001,2025-03-10_16h52.29.087,SL_base,2021.2.3,Win32,59.88023952,,,115,0,115,0,1,,,,,,,,
,,"[""circle"",""green"",""vert"",""up"",[0,-150],[0,150]]",circle,green,vert,up,"[0,-150]","[0,150]",up,1,1.0273,,,,,,001,2025-03-10_16h52.29.087,SL_base,2021.2.3,Win32,59.88023952,,,116,0,116,0,1,,,,,,,,
,,"[""diamond"",""no_dis"",""vert"",""up"",[99999,99999],[150,0]]",diamond,no_dis,vert,up,"[99999,99999]","[150,0]",up,1,0.8887,,,,,,001,2025-03-10_16h52.29.087,SL_base,2021.2.3,Win32,59.88023952,,,117,0,117,0,1,,,,,,,,
,,"[""circle"",""no_dis"",""hori"",""left"",[99999,99999],[-150,0]]",circle,no_dis,hori,left,"[99999,99999]","[-150,0]",left,1,1.8075,,,,,,001,2025-03-10_16h52.29.087,SL_base,2021.2.3,Win32,59.88023952,,,118,0,118,0,1,,,,,,,,
,,"[""circle"",""red"",""hori"",""left"",[0,-150],[106,106]]",circle,red,hori,left,"[0,-150]","[106,106]",left,1,1.144,,,,,,001,2025-03-10_16h52.29.087,SL_base,2021.2.3,Win32,59.88023952,,,119,0,119,0,1,,,,,,,,
,,,,,,,,,,,,,,,,,001,2025-03-10_16h52.29.087,SL_base,2021.2.3,Win32,59.88023952,,,,,,,,1,space,1.6008,0,0,0,0,1
,,"[""circle"",""no_dis"",""hori"",""left"",[99999,99999],[106,106]]",circle,no_dis,hori,left,"[99999,99999]","[106,106]",left,1,2.1755,,,,,,001,2025-03-10_16h52.29.087,SL_base,2021.2.3,Win32,59.88023952,,,0,0,0,0,1,,,,,,,,
,,"[""diamond"",""no_dis"",""hori"",""left"",[99999,99999],[106,-106]]",diamond,no_dis,hori,left,"[99999,99999]","[106,-106]",left,1,1.3508,,,,,,001,2025-03-10_16h52.29.087,SL_base,2021.2.3,Win32,59.88023952,,,1,0,1,0,1,,,,,,,,
,,"[""diamond"",""no_dis"",""vert"",""up"",[99999,99999],[150,0]]",diamond,no_dis,vert,up,"[99999,99999]","[150,0]",up,1,0.8886,,,,,,001,2025-03-10_16h52.29.087,SL_base,2021.2.3,Win32,59.88023952,,,2,0,2,0,1,,,,,,,,
,,"[""diamond"",""red"",""vert"",""up"",[0,-150],[-106,106]]",diamond,red,vert,up,"[0,-150]","[-106,106]",up,1,1.0427,,,,,,001,2025-03-10_16h52.29.087,SL_base,2021.2.3,Win32,59.88023952,,,3,0,3,0,1,,,,,,,,
,,"[""circle"",""red"",""vert"",""up"",[150,0],[0,-150]]",circle,red,vert,up,"[150,0]","[0,-150]",up,1,1.4289,,,,,,001,2025-03-10_16h52.29.087,SL_base,2021.2.3,Win32,59.88023952,,,4,0,4,0,1,,,,,,,,
,,"[""circle"",""red"",""vert"",""up"",[106,106],[-150,0]]",circle,red,vert,up,"[106,106]","[-150,0]",up,1,1.0512,,,,,,001,2025-03-10_16h52.29.087,SL_base,2021.2.3,Win32,59.88023952,,,5,0,5,0,1,,,,,,,,
,,"[""circle"",""red"",""hori"",""left"",[106,106],[-106,-106]]",circle,red,hori,left,"[106,106]","[-106,-106]",left,1,0.8159,,,,,,001,2025-03-10_16h52.29.087,SL_base,2021.2.3,Win32,59.88023952,,,6,0,6,0,1,,,,,,,,
,,"[""circle"",""green"",""hori"",""left"",[150,0],[-106,106]]",circle,green,hori,left,"[150,0]","[-106,106]",left,1,1.5372,,,,,,001,2025-03-10_16h52.29.087,SL_base,2021.2.3,Win32,59.88023952,,,7,0,7,0,1,,,,,,,,
,,"[""diamond"",""no_dis"",""vert"",""up"",[99999,99999],[0,150]]",diamond,no_dis,vert,up,"[99999,99999]","[0,150]",up,1,1.6026,,,,,,001,2025-03-10_16h52.29.087,SL_base,2021.2.3,Win32,59.88023952,,,8,0,8,0,1,,,,,,,,
,,"[""diamond"",""no_dis"",""hori"",""left"",[99999,99999],[-106,-106]]",diamond,no_dis,hori,left,"[99999,99999]","[-106,-106]",left,1,1.0345,,,,,,001,2025-03-10_16h52.29.087,SL_base,2021.2.3,Win32,59.88023952,,,9,0,9,0,1,,,,,,,,
,,"[""diamond"",""green"",""vert"",""up"",[-150,0],[106,106]]",diamond,green,vert,up,"[-150,0]","[106,106]",up,1,0.963,,,,,,001,2025-03-10_16h52.29.087,SL_base,2021.2.3,Win32,59.88023952,,,10,0,10,0,1,,,,,,,,
,,"[""diamond"",""no_dis"",""hori"",""left"",[99999,99999],[-150,0]]",diamond,no_dis,hori,left,"[99999,99999]","[-150,0]",left,1,0.7865,,,,,,001,2025-03-10_16h52.29.087,SL_base,2021.2.3,Win32,59.88023952,,,11,0,11,0,1,,,,,,,,
,,"[""diamond"",""red"",""vert"",""up"",[-106,106],[150,0]]",diamond,red,vert,up,"[-106,106]","[150,0]",up,1,1.6892,,,,,,001,2025-03-10_16h52.29.087,SL_base,2021.2.3,Win32,59.88023952,,,12,0,12,0,1,,,,,,,,
,,"[""diamond"",""green"",""vert"",""up"",[150,0],[-106,106]]",diamond,green,vert,up,"[150,0]","[-106,106]",up,1,1.0105,,,,,,001,2025-03-10_16h52.29.087,SL_base,2021.2.3,Win32,59.88023952,,,13,0,13,0,1,,,,,,,,
,,"[""diamond"",""red"",""vert"",""up"",[106,-106],[0,-150]]",diamond,red,vert,up,"[106,-106]","[0,-150]",up,1,0.9993,,,,,,001,2025-03-10_16h52.29.087,SL_base,2021.2.3,Win32,59.88023952,,,14,0,14,0,1,,,,,,,,
,,"[""diamond"",""red"",""hori"",""left"",[0,-150],[106,-106]]",diamond,red,hori,left,"[0,-150]","[106,-106]",left,1,0.9904,,,,,,001,2025-03-10_16h52.29.087,SL_base,2021.2.3,Win32,59.88023952,,,15,0,15,0,1,,,,,,,,
,,"[""circle"",""green"",""hori"",""left"",[-106,106],[150,0]]",circle,green,hori,left,"[-106,106]","[150,0]",left,1,1.1736,,,,,,001,2025-03-10_16h52.29.087,SL_base,2021.2.3,Win32,59.88023952,,,16,0,16,0,1,,,,,,,,
,,"[""diamond"",""red"",""vert"",""up"",[0,-150],[-106,106]]",diamond,red,vert,up,"[0,-150]","[-106,106]",up,1,1.468,,,,,,001,2025-03-10_16h52.29.087,SL_base,2021.2.3,Win32,59.88023952,,,17,0,17,0,1,,,,,,,,
,,"[""diamond"",""red"",""hori"",""left"",[-150,0],[0,150]]",diamond,red,hori,left,"[-150,0]","[0,150]",left,1,1.0849,,,,,,001,2025-03-10_16h52.29.087,SL_base,2021.2.3,Win32,59.88023952,,,18,0,18,0,1,,,,,,,,
,,"[""diamond"",""no_dis"",""hori"",""left"",[99999,99999],[0,-150]]",diamond,no_dis,hori,left,"[99999,99999]","[0,-150]",left,1,1.2699,,,,,,001,2025-03-10_16h52.29.087,SL_base,2021.2.3,Win32,59.88023952,,,19,0,19,0,1,,,,,,,,
,,"[""circle"",""green"",""hori"",""left"",[106,106],[150,0]]",circle,green,hori,left,"[106,106]","[150,0]",left,1,1.1804,,,,,,001,2025-03-10_16h52.29.087,SL_base,2021.2.3,Win32,59.88023952,,,20,0,20,0,1,,,,,,,,
,,"[""circle"",""no_dis"",""hori"",""left"",[99999,99999],[106,-106]]",circle,no_dis,hori,left,"[99999,99999]","[106,-106]",left,1,1.2244,,,,,,001,2025-03-10_16h52.29.087,SL_base,2021.2.3,Win32,59.88023952,,,21,0,21,0,1,,,,,,,,
,,"[""diamond"",""red"",""hori"",""left"",[0,-150],[-106,-106]]",diamond,red,hori,left,"[0,-150]","[-106,-106]",left,1,1.5309,,,,,,001,2025-03-10_16h52.29.087,SL_base,2021.2.3,Win32,59.88023952,,,22,0,22,0,1,,,,,,,,
,,"[""diamond"",""green"",""hori"",""left"",[-106,106],[-106,-106]]",diamond,green,hori,left,"[-106,106]","[-106,-106]",left,1,1.2065,,,,,,001,2025-03-10_16h52.29.087,SL_base,2021.2.3,Win32,59.88023952,,,23,0,23,0,1,,,,,,,,
,,"[""diamond"",""red"",""hori"",""left"",[0,-150],[-106,106]]",diamond,red,hori,left,"[0,-150]","[-106,106]",left,1,1.1515,,,,,,001,2025-03-10_16h52.29.087,SL_base,2021.2.3,Win32,59.88023952,,,24,0,24,0,1,,,,,,,,
,,"[""diamond"",""no_dis"",""vert"",""up"",[99999,99999],[150,0]]",diamond,no_dis,vert,up,"[99999,99999]","[150,0]",up,1,1.0832,,,,,,001,2025-03-10_16h52.29.087,SL_base,2021.2.3,Win32,59.88023952,,,25,0,25,0,1,,,,,,,,
,,"[""circle"",""green"",""vert"",""up"",[0,-150],[-106,-106]]",circle,green,vert,up,"[0,-150]","[-106,-106]",up,1,1.1698,,,,,,001,2025-03-10_16h52.29.087,SL_base,2021.2.3,Win32,59.88023952,,,26,0,26,0,1,,,,,,,,
,,"[""diamond"",""no_dis"",""vert"",""up"",[99999,99999],[0,150]]",diamond,no_dis,vert,up,"[99999,99999]","[0,150]",up,1,1.1317,,,,,,001,2025-03-10_16h52.29.087,SL_base,2021.2.3,Win32,59.88023952,,,27,0,27,0,1,,,,,,,,
,,"[""circle"",""red"",""hori"",""left"",[-106,-106],[-150,0]]",circle,red,hori,left,"[-106,-106]","[-150,0]",left,1,1.7669,,,,,,001,2025-03-10_16h52.29.087,SL_base,2021.2.3,Win32,59.88023952,,,28,0,28,0,1,,,,,,,,
,,"[""diamond"",""green"",""hori"",""left"",[0,-150],[-106,106]]",diamond,green,hori,left,"[0,-150]","[-106,106]",left,1,1.4935,,,,,,001,2025-03-10_16h52.29.087,SL_base,2021.2.3,Win32,59.88023952,,,29,0,29,0,1,,,,,,,,
,,"[""circle"",""green"",""vert"",""up"",[0,-150],[-106,-106]]",circle,green,vert,up,"[0,-150]","[-106,-106]",up,1,1.4447,,,,,,001,2025-03-10_16h52.29.087,SL_base,2021.2.3,Win32,59.88023952,,,30,0,30,0,1,,,,,,,,
,,"[""circle"",""green"",""hori"",""left"",[106,-106],[150,0]]",circle,green,hori,left,"[106,-106]","[150,0]",left,1,1.1059,,,,,,001,2025-03-10_16h52.29.087,SL_base,2021.2.3,Win32,59.88023952,,,31,0,31,0,1,,,,,,,,
,,"[""diamond"",""red"",""hori"",""left"",[-106,106],[-106,-106]]",diamond,red,hori,left,"[-106,106]","[-106,-106]",left,1,1.4044,,,,,,001,2025-03-10_16h52.29.087,SL_base,2021.2.3,Win32,59.88023952,,,32,0,32,0,1,,,,,,,,
,,"[""circle"",""green"",""vert"",""up"",[-106,106],[-150,0]]",circle,green,vert,up,"[-106,106]","[-150,0]",left,0,1.4232,,,,,,001,2025-03-10_16h52.29.087,SL_base,2021.2.3,Win32,59.88023952,,,33,0,33,0,1,,,,,,,,
,,"[""diamond"",""no_dis"",""hori"",""left"",[99999,99999],[0,150]]",diamond,no_dis,hori,left,"[99999,99999]","[0,150]",left,1,1.1388,,,,,,001,2025-03-10_16h52.29.087,SL_base,2021.2.3,Win32,59.88023952,,,34,0,34,0,1,,,,,,,,
,,"[""circle"",""red"",""vert"",""up"",[0,150],[-106,-106]]",circle,red,vert,up,"[0,150]","[-106,-106]",up,1,1.5457,,,,,,001,2025-03-10_16h52.29.087,SL_base,2021.2.3,Win32,59.88023952,,,35,0,35,0,1,,,,,,,,
,,"[""circle"",""no_dis"",""vert"",""up"",[99999,99999],[0,-150]]",circle,no_dis,vert,up,"[99999,99999]","[0,-150]",up,1,1.1384,,,,,,001,2025-03-10_16h52.29.087,SL_base,2021.2.3,Win32,59.88023952,,,36,0,36,0,1,,,,,,,,
,,"[""circle"",""no_dis"",""hori"",""left"",[99999,99999],[150,0]]",circle,no_dis,hori,left,"[99999,99999]","[150,0]",left,1,1.002,,,,,,001,2025-03-10_16h52.29.087,SL_base,2021.2.3,Win32,59.88023952,,,37,0,37,0,1,,,,,,,,
,,"[""circle"",""red"",""hori"",""left"",[106,106],[106,-106]]",circle,red,hori,left,"[106,106]","[106,-106]",left,1,2.7148,,,,,,001,2025-03-10_16h52.29.087,SL_base,2021.2.3,Win32,59.88023952,,,38,0,38,0,1,,,,,,,,
,,"[""circle"",""no_dis"",""hori"",""left"",[99999,99999],[106,-106]]",circle,no_dis,hori,left,"[99999,99999]","[106,-106]",left,1,1.0527,,,,,,001,2025-03-10_16h52.29.087,SL_base,2021.2.3,Win32,59.88023952,,,39,0,39,0,1,,,,,,,,
,,"[""diamond"",""no_dis"",""hori"",""left"",[99999,99999],[0,-150]]",diamond,no_dis,hori,left,"[99999,99999]","[0,-150]",left,1,1.1485,,,,,,001,2025-03-10_16h52.29.087,SL_base,2021.2.3,Win32,59.88023952,,,40,0,40,0,1,,,,,,,,
,,"[""diamond"",""red"",""hori"",""left"",[106,-106],[-106,-106]]",diamond,red,hori,left,"[106,-106]","[-106,-106]",left,1,1.3467,,,,,,001,2025-03-10_16h52.29.087,SL_base,2021.2.3,Win32,59.88023952,,,41,0,41,0,1,,,,,,,,
,,"[""circle"",""green"",""vert"",""up"",[0,150],[150,0]]",circle,green,vert,up,"[0,150]","[150,0]",up,1,1.3006,,,,,,001,2025-03-10_16h52.29.087,SL_base,2021.2.3,Win32,59.88023952,,,42,0,42,0,1,,,,,,,,
,,"[""diamond"",""green"",""vert"",""up"",[-106,-106],[0,150]]",diamond,green,vert,up,"[-106,-106]","[0,150]",up,1,1.0508,,,,,,001,2025-03-10_16h52.29.087,SL_base,2021.2.3,Win32,59.88023952,,,43,0,43,0,1,,,,,,,,
,,"[""diamond"",""no_dis"",""hori"",""left"",[99999,99999],[0,-150]]",diamond,no_dis,hori,left,"[99999,99999]","[0,-150]",left,1,0.9667,,,,,,001,2025-03-10_16h52.29.087,SL_base,2021.2.3,Win32,59.88023952,,,44,0,44,0,1,,,,,,,,
,,"[""circle"",""red"",""vert"",""up"",[106,106],[106,-106]]",circle,red,vert,up,"[106,106]","[106,-106]",up,1,0.9853,,,,,,001,2025-03-10_16h52.29.087,SL_base,2021.2.3,Win32,59.88023952,,,45,0,45,0,1,,,,,,,,
,,"[""circle"",""no_dis"",""hori"",""left"",[99999,99999],[106,106]]",circle,no_dis,hori,left,"[99999,99999]","[106,106]",left,1,1.4384,,,,,,001,2025-03-10_16h52.29.087,SL_base,2021.2.3,Win32,59.88023952,,,46,0,46,0,1,,,,,,,,
,,"[""diamond"",""green"",""hori"",""left"",[0,-150],[-150,0]]",diamond,green,hori,left,"[0,-150]","[-150,0]",left,1,1.6973,,,,,,001,2025-03-10_16h52.29.087,SL_base,2021.2.3,Win32,59.88023952,,,47,0,47,0,1,,,,,,,,
,,"[""diamond"",""red"",""vert"",""up"",[0,150],[106,106]]",diamond,red,vert,up,"[0,150]","[106,106]",up,1,1.2065,,,,,,001,2025-03-10_16h52.29.087,SL_base,2021.2.3,Win32,59.88023952,,,48,0,48,0,1,,,,,,,,
,,"[""circle"",""green"",""vert"",""up"",[0,-150],[0,150]]",circle,green,vert,up,"[0,-150]","[0,150]",up,1,1.4187,,,,,,001,2025-03-10_16h52.29.087,SL_base,2021.2.3,Win32,59.88023952,,,49,0,49,0,1,,,,,,,,
,,"[""diamond"",""red"",""vert"",""up"",[150,0],[-106,-106]]",diamond,red,vert,up,"[150,0]","[-106,-106]",up,1,2.3153,,,,,,001,2025-03-10_16h52.29.087,SL_base,2021.2.3,Win32,59.88023952,,,50,0,50,0,1,,,,,,,,
,,"[""diamond"",""no_dis"",""hori"",""left"",[99999,99999],[106,-106]]",diamond,no_dis,hori,left,"[99999,99999]","[106,-106]",left,1,1.806,,,,,,001,2025-03-10_16h52.29.087,SL_base,2021.2.3,Win32,59.88023952,,,51,0,51,0,1,,,,,,,,
,,"[""diamond"",""no_dis"",""vert"",""up"",[99999,99999],[-106,106]]",diamond,no_dis,vert,up,"[99999,99999]","[-106,106]",up,1,1.0158,,,,,,001,2025-03-10_16h52.29.087,SL_base,2021.2.3,Win32,59.88023952,,,52,0,52,0,1,,,,,,,,
,,"[""circle"",""no_dis"",""vert"",""up"",[99999,99999],[0,-150]]",circle,no_dis,vert,up,"[99999,99999]","[0,-150]",left,0,1.4658,,,,,,001,2025-03-10_16h52.29.087,SL_base,2021.2.3,Win32,59.88023952,,,53,0,53,0,1,,,,,,,,
,,"[""circle"",""no_dis"",""vert"",""up"",[99999,99999],[-106,106]]",circle,no_dis,vert,up,"[99999,99999]","[-106,106]",up,1,1.0737,,,,,,001,2025-03-10_16h52.29.087,SL_base,2021.2.3,Win32,59.88023952,,,54,0,54,0,1,,,,,,,,
,,"[""diamond"",""green"",""vert"",""up"",[0,-150],[106,106]]",diamond,green,vert,up,"[0,-150]","[106,106]",up,1,1.344,,,,,,001,2025-03-10_16h52.29.087,SL_base,2021.2.3,Win32,59.88023952,,,55,0,55,0,1,,,,,,,,
,,"[""circle"",""red"",""vert"",""up"",[106,106],[106,-106]]",circle,red,vert,up,"[106,106]","[106,-106]",up,1,1.6479,,,,,,001,2025-03-10_16h52.29.087,SL_base,2021.2.3,Win32,59.88023952,,,56,0,56,0,1,,,,,,,,
,,"[""circle"",""red"",""vert"",""up"",[150,0],[0,150]]",circle,red,vert,up,"[150,0]","[0,150]",up,1,0.762,,,,,,001,2025-03-10_16h52.29.087,SL_base,2021.2.3,Win32,59.88023952,,,57,0,57,0,1,,,,,,,,
,,"[""diamond"",""green"",""hori"",""left"",[-150,0],[150,0]]",diamond,green,hori,left,"[-150,0]","[150,0]",left,1,1.2898,,,,,,001,2025-03-10_16h52.29.087,SL_base,2021.2.3,Win32,59.88023952,,,58,0,58,0,1,,,,,,,,
,,"[""diamond"",""red"",""hori"",""left"",[0,-150],[-106,106]]",diamond,red,hori,left,"[0,-150]","[-106,106]",up,0,0.3434,,,,,,001,2025-03-10_16h52.29.087,SL_base,2021.2.3,Win32,59.88023952,,,59,0,59,0,1,,,,,,,,
,,"[""diamond"",""no_dis"",""vert"",""up"",[99999,99999],[106,106]]",diamond,no_dis,vert,up,"[99999,99999]","[106,106]",up,1,0.9311,,,,,,001,2025-03-10_16h52.29.087,SL_base,2021.2.3,Win32,59.88023952,,,60,0,60,0,1,,,,,,,,
,,"[""circle"",""green"",""hori"",""left"",[0,-150],[-106,-106]]",circle,green,hori,left,"[0,-150]","[-106,-106]",left,1,1.136,,,,,,001,2025-03-10_16h52.29.087,SL_base,2021.2.3,Win32,59.88023952,,,61,0,61,0,1,,,,,,,,
,,"[""circle"",""red"",""hori"",""left"",[-106,-106],[0,150]]",circle,red,hori,left,"[-106,-106]","[0,150]",left,1,1.2849,,,,,,001,2025-03-10_16h52.29.087,SL_base,2021.2.3,Win32,59.88023952,,,62,0,62,0,1,,,,,,,,
,,"[""circle"",""no_dis"",""vert"",""up"",[99999,99999],[106,106]]",circle,no_dis,vert,up,"[99999,99999]","[106,106]",up,1,0.9617,,,,,,001,2025-03-10_16h52.29.087,SL_base,2021.2.3,Win32,59.88023952,,,63,0,63,0,1,,,,,,,,
,,"[""circle"",""no_dis"",""vert"",""up"",[99999,99999],[-106,106]]",circle,no_dis,vert,up,"[99999,99999]","[-106,106]",up,1,0.7436,,,,,,001,2025-03-10_16h52.29.087,SL_base,2021.2.3,Win32,59.88023952,,,64,0,64,0,1,,,,,,,,
,,"[""circle"",""red"",""hori"",""left"",[0,-150],[106,106]]",circle,red,hori,left,"[0,-150]","[106,106]",left,1,0.7331,,,,,,001,2025-03-10_16h52.29.087,SL_base,2021.2.3,Win32,59.88023952,,,65,0,65,0,1,,,,,,,,
,,"[""diamond"",""green"",""vert"",""up"",[0,-150],[-106,-106]]",diamond,green,vert,up,"[0,-150]","[-106,-106]",up,1,1.0138,,,,,,001,2025-03-10_16h52.29.087,SL_base,2021.2.3,Win32,59.88023952,,,66,0,66,0,1,,,,,,,,
,,"[""circle"",""no_dis"",""vert"",""up"",[99999,99999],[0,150]]",circle,no_dis,vert,up,"[99999,99999]","[0,150]",up,1,1.2224,,,,,,001,2025-03-10_16h52.29.087,SL_base,2021.2.3,Win32,59.88023952,,,67,0,67,0,1,,,,,,,,
,,"[""diamond"",""green"",""vert"",""up"",[-150,0],[0,150]]",diamond,green,vert,up,"[-150,0]","[0,150]",up,1,0.8895,,,,,,001,2025-03-10_16h52.29.087,SL_base,2021.2.3,Win32,59.88023952,,,68,0,68,0,1,,,,,,,,
,,"[""diamond"",""red"",""vert"",""up"",[106,-106],[0,150]]",diamond,red,vert,up,"[106,-106]","[0,150]",up,1,0.9356,,,,,,001,2025-03-10_16h52.29.087,SL_base,2021.2.3,Win32,59.88023952,,,69,0,69,0,1,,,,,,,,
,,"[""circle"",""no_dis"",""vert"",""up"",[99999,99999],[106,106]]",circle,no_dis,vert,up,"[99999,99999]","[106,106]",left,0,0.8988,,,,,,001,2025-03-10_16h52.29.087,SL_base,2021.2.3,Win32,59.88023952,,,70,0,70,0,1,,,,,,,,
,,"[""diamond"",""red"",""vert"",""up"",[0,-150],[-150,0]]",diamond,red,vert,up,"[0,-150]","[-150,0]",up,1,0.9723,,,,,,001,2025-03-10_16h52.29.087,SL_base,2021.2.3,Win32,59.88023952,,,71,0,71,0,1,,,,,,,,
,,"[""circle"",""green"",""vert"",""up"",[106,-106],[-106,106]]",circle,green,vert,up,"[106,-106]","[-106,106]",up,1,1.0767,,,,,,001,2025-03-10_16h52.29.087,SL_base,2021.2.3,Win32,59.88023952,,,72,0,72,0,1,,,,,,,,
,,"[""diamond"",""no_dis"",""vert"",""up"",[99999,99999],[150,0]]",diamond,no_dis,vert,up,"[99999,99999]","[150,0]",up,1,1.1027,,,,,,001,2025-03-10_16h52.29.087,SL_base,2021.2.3,Win32,59.88023952,,,73,0,73,0,1,,,,,,,,
,,"[""circle"",""no_dis"",""hori"",""left"",[99999,99999],[-106,106]]",circle,no_dis,hori,left,"[99999,99999]","[-106,106]",left,1,1.1569,,,,,,001,2025-03-10_16h52.29.087,SL_base,2021.2.3,Win32,59.88023952,,,74,0,74,0,1,,,,,,,,
,,"[""circle"",""green"",""hori"",""left"",[0,150],[-106,106]]",circle,green,hori,left,"[0,150]","[-106,106]",left,1,1.4796,,,,,,001,2025-03-10_16h52.29.087,SL_base,2021.2.3,Win32,59.88023952,,,75,0,75,0,1,,,,,,,,
,,"[""circle"",""green"",""vert"",""up"",[106,-106],[0,-150]]",circle,green,vert,up,"[106,-106]","[0,-150]",up,1,0.9055,,,,,,001,2025-03-10_16h52.29.087,SL_base,2021.2.3,Win32,59.88023952,,,76,0,76,0,1,,,,,,,,
,,"[""diamond"",""no_dis"",""hori"",""left"",[99999,99999],[-150,0]]",diamond,no_dis,hori,left,"[99999,99999]","[-150,0]",left,1,1.5391,,,,,,001,2025-03-10_16h52.29.087,SL_base,2021.2.3,Win32,59.88023952,,,77,0,77,0,1,,,,,,,,
,,"[""circle"",""green"",""hori"",""left"",[106,-106],[0,-150]]",circle,green,hori,left,"[106,-106]","[0,-150]",left,1,1.0147,,,,,,001,2025-03-10_16h52.29.087,SL_base,2021.2.3,Win32,59.88023952,,,78,0,78,0,1,,,,,,,,
,,"[""diamond"",""green"",""hori"",""left"",[0,150],[-106,106]]",diamond,green,hori,left,"[0,150]","[-106,106]",left,1,1.4798,,,,,,001,2025-03-10_16h52.29.087,SL_base,2021.2.3,Win32,59.88023952,,,79,0,79,0,1,,,,,,,,
,,"[""circle"",""green"",""vert"",""up"",[-106,-106],[0,-150]]",circle,green,vert,up,"[-106,-106]","[0,-150]",up,1,0.9783,,,,,,001,2025-03-10_16h52.29.087,SL_base,2021.2.3,Win32,59.88023952,,,80,0,80,0,1,,,,,,,,
,,"[""circle"",""no_dis"",""hori"",""left"",[99999,99999],[-106,-106]]",circle,no_dis,hori,left,"[99999,99999]","[-106,-106]",left,1,0.849,,,,,,001,2025-03-10_16h52.29.087,SL_base,2021.2.3,Win32,59.88023952,,,81,0,81,0,1,,,,,,,,
,,"[""diamond"",""green"",""vert"",""up"",[0,-150],[-106,-106]]",diamond,green,vert,up,"[0,-150]","[-106,-106]",up,1,0.9785,,,,,,001,2025-03-10_16h52.29.087,SL_base,2021.2.3,Win32,59.88023952,,,82,0,82,0,1,,,,,,,,
,,"[""diamond"",""green"",""hori"",""left"",[106,106],[-106,106]]",diamond,green,hori,left,"[106,106]","[-106,106]",left,1,2.4674,,,,,,001,2025-03-10_16h52.29.087,SL_base,2021.2.3,Win32,59.88023952,,,83,0,83,0,1,,,,,,,,
,,"[""circle"",""red"",""hori"",""left"",[0,-150],[106,106]]",circle,red,hori,left,"[0,-150]","[106,106]",left,1,0.9656,,,,,,001,2025-03-10_16h52.29.087,SL_base,2021.2.3,Win32,59.88023952,,,84,0,84,0,1,,,,,,,,
,,"[""circle"",""red"",""vert"",""up"",[-106,106],[0,150]]",circle,red,vert,up,"[-106,106]","[0,150]",up,1,1.7738,,,,,,001,2025-03-10_16h52.29.087,SL_base,2021.2.3,Win32,59.88023952,,,85,0,85,0,1,,,,,,,,
,,"[""circle"",""no_dis"",""hori"",""left"",[99999,99999],[-150,0]]",circle,no_dis,hori,left,"[99999,99999]","[-150,0]",,0,,,,,,,001,2025-03-10_16h52.29.087,SL_base,2021.2.3,Win32,59.88023952,,,86,0,86,0,1,,,,,,,,
,,"[""diamond"",""green"",""vert"",""up"",[150,0],[106,-106]]",diamond,green,vert,up,"[150,0]","[106,-106]",up,1,1.2873,,,,,,001,2025-03-10_16h52.29.087,SL_base,2021.2.3,Win32,59.88023952,,,87,0,87,0,1,,,,,,,,
,,"[""diamond"",""no_dis"",""vert"",""up"",[99999,99999],[-106,106]]",diamond,no_dis,vert,up,"[99999,99999]","[-106,106]",up,1,2.6505,,,,,,001,2025-03-10_16h52.29.087,SL_base,2021.2.3,Win32,59.88023952,,,88,0,88,0,1,,,,,,,,
,,"[""diamond"",""no_dis"",""vert"",""up"",[99999,99999],[-150,0]]",diamond,no_dis,vert,up,"[99999,99999]","[-150,0]",up,1,1.0138,,,,,,001,2025-03-10_16h52.29.087,SL_base,2021.2.3,Win32,59.88023952,,,89,0,89,0,1,,,,,,,,
,,"[""circle"",""no_dis"",""hori"",""left"",[99999,99999],[-106,-106]]",circle,no_dis,hori,left,"[99999,99999]","[-106,-106]",left,1,0.7327,,,,,,001,2025-03-10_16h52.29.087,SL_base,2021.2.3,Win32,59.88023952,,,90,0,90,0,1,,,,,,,,
,,"[""circle"",""red"",""vert"",""up"",[0,150],[-106,-106]]",circle,red,vert,up,"[0,150]","[-106,-106]",left,0,2.0323,,,,,,001,2025-03-10_16h52.29.087,SL_base,2021.2.3,Win32,59.88023952,,,91,0,91,0,1,,,,,,,,
,,"[""diamond"",""green"",""vert"",""up"",[0,-150],[150,0]]",diamond,green,vert,up,"[0,-150]","[150,0]",up,1,1.9776,,,,,,001,2025-03-10_16h52.29.087,SL_base,2021.2.3,Win32,59.88023952,,,92,0,92,0,1,,,,,,,,
,,"[""circle"",""red"",""hori"",""left"",[-106,-106],[0,150]]",circle,red,hori,left,"[-106,-106]","[0,150]",left,1,1.0884,,,,,,001,2025-03-10_16h52.29.087,SL_base,2021.2.3,Win32,59.88023952,,,93,0,93,0,1,,,,,,,,
,,"[""circle"",""no_dis"",""vert"",""up"",[99999,99999],[-106,-106]]",circle,no_dis,vert,up,"[99999,99999]","[-106,-106]",up,1,1.1524,,,,,,001,2025-03-10_16h52.29.087,SL_base,2021.2.3,Win32,59.88023952,,,94,0,94,0,1,,,,,,,,
,,"[""diamond"",""green"",""hori"",""left"",[0,-150],[-106,106]]",diamond,green,hori,left,"[0,-150]","[-106,106]",left,1,2.4469,,,,,,001,2025-03-10_16h52.29.087,SL_base,2021.2.3,Win32,59.88023952,,,95,0,95,0,1,,,,,,,,
,,"[""diamond"",""no_dis"",""hori"",""left"",[99999,99999],[150,0]]",diamond,no_dis,hori,left,"[99999,99999]","[150,0]",left,1,0.6842,,,,,,001,2025-03-10_16h52.29.087,SL_base,2021.2.3,Win32,59.88023952,,,96,0,96,0,1,,,,,,,,
,,"[""diamond"",""red"",""hori"",""left"",[-150,0],[106,-106]]",diamond,red,hori,left,"[-150,0]","[106,-106]",left,1,1.2067,,,,,,001,2025-03-10_16h52.29.087,SL_base,2021.2.3,Win32,59.88023952,,,97,0,97,0,1,,,,,,,,
,,"[""diamond"",""red"",""vert"",""up"",[150,0],[-150,0]]",diamond,red,vert,up,"[150,0]","[-150,0]",up,1,0.7623,,,,,,001,2025-03-10_16h52.29.087,SL_base,2021.2.3,Win32,59.88023952,,,98,0,98,0,1,,,,,,,,
,,"[""diamond"",""green"",""hori"",""left"",[0,150],[0,-150]]",diamond,green,hori,left,"[0,150]","[0,-150]",left,1,0.9653,,,,,,001,2025-03-10_16h52.29.087,SL_base,2021.2.3,Win32,59.88023952,,,99,0,99,0,1,,,,,,,,
,,"[""circle"",""no_dis"",""hori"",""left"",[99999,99999],[0,150]]",circle,no_dis,hori,left,"[99999,99999]","[0,150]",up,0,2.1164,,,,,,001,2025-03-10_16h52.29.087,SL_base,2021.2.3,Win32,59.88023952,,,100,0,100,0,1,,,,,,,,
,,"[""diamond"",""green"",""vert"",""up"",[0,-150],[106,106]]",diamond,green,vert,up,"[0,-150]","[106,106]",,0,,,,,,,001,2025-03-10_16h52.29.087,SL_base,2021.2.3,Win32,59.88023952,,,101,0,101,0,1,,,,,,,,
,,"[""diamond"",""red"",""hori"",""left"",[-106,106],[0,-150]]",diamond,red,hori,left,"[-106,106]","[0,-150]",left,1,0.7226,,,,,,001,2025-03-10_16h52.29.087,SL_base,2021.2.3,Win32,59.88023952,,,102,0,102,0,1,,,,,,,,
,,"[""circle"",""red"",""hori"",""left"",[106,106],[106,-106]]",circle,red,hori,left,"[106,106]","[106,-106]",left,1,1.0369,,,,,,001,2025-03-10_16h52.29.087,SL_base,2021.2.3,Win32,59.88023952,,,103,0,103,0,1,,,,,,,,
,,"[""circle"",""green"",""vert"",""up"",[-106,-106],[-150,0]]",circle,green,vert,up,"[-106,-106]","[-150,0]",up,1,0.9732,,,,,,001,2025-03-10_16h52.29.087,SL_base,2021.2.3,Win32,59.88023952,,,104,0,104,0,1,,,,,,,,
,,"[""circle"",""green"",""hori"",""left"",[0,-150],[-150,0]]",circle,green,hori,left,"[0,-150]","[-150,0]",left,1,1.7539,,,,,,001,2025-03-10_16h52.29.087,SL_base,2021.2.3,Win32,59.88023952,,,105,0,105,0,1,,,,,,,,
,,"[""diamond"",""green"",""hori"",""left"",[-106,-106],[150,0]]",diamond,green,hori,left,"[-106,-106]","[150,0]",left,1,0.956,,,,,,001,2025-03-10_16h52.29.087,SL_base,2021.2.3,Win32,59.88023952,,,106,0,106,0,1,,,,,,,,
,,"[""diamond"",""no_dis"",""vert"",""up"",[99999,99999],[106,-106]]",diamond,no_dis,vert,up,"[99999,99999]","[106,-106]",up,1,1.5847,,,,,,001,2025-03-10_16h52.29.087,SL_base,2021.2.3,Win32,59.88023952,,,107,0,107,0,1,,,,,,,,
,,"[""circle"",""red"",""vert"",""up"",[0,-150],[-106,106]]",circle,red,vert,up,"[0,-150]","[-106,106]",up,1,1.1952,,,,,,001,2025-03-10_16h52.29.087,SL_base,2021.2.3,Win32,59.88023952,,,108,0,108,0,1,,,,,,,,
,,"[""diamond"",""red"",""hori"",""left"",[0,150],[150,0]]",diamond,red,hori,left,"[0,150]","[150,0]",left,1,1.1893,,,,,,001,2025-03-10_16h52.29.087,SL_base,2021.2.3,Win32,59.88023952,,,109,0,109,0,1,,,,,,,,
,,"[""circle"",""red"",""hori"",""left"",[-106,-106],[-150,0]]",circle,red,hori,left,"[-106,-106]","[-150,0]",left,1,0.9918,,,,,,001,2025-03-10_16h52.29.087,SL_base,2021.2.3,Win32,59.88023952,,,110,0,110,0,1,,,,,,,,
,,"[""diamond"",""red"",""vert"",""up"",[150,0],[0,-150]]",diamond,red,vert,up,"[150,0]","[0,-150]",up,1,1.1836,,,,,,001,2025-03-10_16h52.29.087,SL_base,2021.2.3,Win32,59.88023952,,,111,0,111,0,1,,,,,,,,
,,"[""circle"",""no_dis"",""vert"",""up"",[99999,99999],[-106,-106]]",circle,no_dis,vert,up,"[99999,99999]","[-106,-106]",up,1,0.7558,,,,,,001,2025-03-10_16h52.29.087,SL_base,2021.2.3,Win32,59.88023952,,,112,0,112,0,1,,,,,,,,
,,"[""circle"",""green"",""hori"",""left"",[-150,0],[-106,-106]]",circle,green,hori,left,"[-150,0]","[-106,-106]",left,1,1.5227,,,,,,001,2025-03-10_16h52.29.087,SL_base,2021.2.3,Win32,59.88023952,,,113,0,113,0,1,,,,,,,,
,,"[""circle"",""green"",""hori"",""left"",[-106,106],[150,0]]",circle,green,hori,left,"[-106,106]","[150,0]",left,1,1.7001,,,,,,001,2025-03-10_16h52.29.087,SL_base,2021.2.3,Win32,59.88023952,,,114,0,114,0,1,,,,,,,,
,,"[""circle"",""green"",""vert"",""up"",[106,-106],[-106,-106]]",circle,green,vert,up,"[106,-106]","[-106,-106]",left,0,1.2698,,,,,,001,2025-03-10_16h52.29.087,SL_base,2021.2.3,Win32,59.88023952,,,115,0,115,0,1,,,,,,,,
,,"[""diamond"",""green"",""hori"",""left"",[-150,0],[0,-150]]",diamond,green,hori,left,"[-150,0]","[0,-150]",left,1,1.5632,,,,,,001,2025-03-10_16h52.29.087,SL_base,2021.2.3,Win32,59.88023952,,,116,0,116,0,1,,,,,,,,
,,"[""circle"",""no_dis"",""vert"",""up"",[99999,99999],[-150,0]]",circle,no_dis,vert,up,"[99999,99999]","[-150,0]",up,1,1.6942,,,,,,001,2025-03-10_16h52.29.087,SL_base,2021.2.3,Win32,59.88023952,,,117,0,117,0,1,,,,,,,,
,,"[""circle"",""red"",""vert"",""up"",[-150,0],[0,150]]",circle,red,vert,up,"[-150,0]","[0,150]",up,1,1.5154,,,,,,001,2025-03-10_16h52.29.087,SL_base,2021.2.3,Win32,59.88023952,,,118,0,118,0,1,,,,,,,,
,,"[""circle"",""red"",""hori"",""left"",[0,-150],[0,150]]",circle,red,hori,left,"[0,-150]","[0,150]",left,1,0.9536,,,,,,001,2025-03-10_16h52.29.087,SL_base,2021.2.3,Win32,59.88023952,,,119,0,119,0,1,,,,,,,,
,,,,,,,,,,,,,,,,,001,2025-03-10_16h52.29.087,SL_base,2021.2.3,Win32,59.88023952,,,,,,,,2,space,20.6376,1,0,1,0,1
,,"[""circle"",""red"",""vert"",""up"",[106,106],[106,-106]]",circle,red,vert,up,"[106,106]","[106,-106]",up,1,1.0312,,,,,,001,2025-03-10_16h52.29.087,SL_base,2021.2.3,Win32,59.88023952,,,0,0,0,0,1,,,,,,,,
,,"[""circle"",""red"",""vert"",""up"",[0,150],[-106,-106]]",circle,red,vert,up,"[0,150]","[-106,-106]",up,1,0.5912,,,,,,001,2025-03-10_16h52.29.087,SL_base,2021.2.3,Win32,59.88023952,,,1,0,1,0,1,,,,,,,,
,,"[""diamond"",""green"",""vert"",""up"",[0,-150],[-106,-106]]",diamond,green,vert,up,"[0,-150]","[-106,-106]",left,0,0.6647,,,,,,001,2025-03-10_16h52.29.087,SL_base,2021.2.3,Win32,59.88023952,,,2,0,2,0,1,,,,,,,,
,,"[""circle"",""red"",""vert"",""up"",[0,-150],[-106,106]]",circle,red,vert,up,"[0,-150]","[-106,106]",up,1,0.6354,,,,,,001,2025-03-10_16h52.29.087,SL_base,2021.2.3,Win32,59.88023952,,,3,0,3,0,1,,,,,,,,
,,"[""circle"",""no_dis"",""hori"",""left"",[99999,99999],[-106,-106]]",circle,no_dis,hori,left,"[99999,99999]","[-106,-106]",left,1,0.5588,,,,,,001,2025-03-10_16h52.29.087,SL_base,2021.2.3,Win32,59.88023952,,,4,0,4,0,1,,,,,,,,
,,"[""diamond"",""red"",""vert"",""up"",[150,0],[0,-150]]",diamond,red,vert,up,"[150,0]","[0,-150]",up,1,0.9708,,,,,,001,2025-03-10_16h52.29.087,SL_base,2021.2.3,Win32,59.88023952,,,5,0,5,0,1,,,,,,,,
,,"[""diamond"",""red"",""vert"",""up"",[0,-150],[-150,0]]",diamond,red,vert,up,"[0,-150]","[-150,0]",up,1,0.8692,,,,,,001,2025-03-10_16h52.29.087,SL_base,2021.2.3,Win32,59.88023952,,,6,0,6,0,1,,,,,,,,
,,"[""circle"",""no_dis"",""hori"",""left"",[99999,99999],[106,106]]",circle,no_dis,hori,left,"[99999,99999]","[106,106]",left,1,0.7432,,,,,,001,2025-03-10_16h52.29.087,SL_base,2021.2.3,Win32,59.88023952,,,7,0,7,0,1,,,,,,,,
,,"[""diamond"",""red"",""hori"",""left"",[0,-150],[-106,-106]]",diamond,red,hori,left,"[0,-150]","[-106,-106]",left,1,0.6139,,,,,,001,2025-03-10_16h52.29.087,SL_base,2021.2.3,Win32,59.88023952,,,8,0,8,0,1,,,,,,,,
,,"[""diamond"",""red"",""hori"",""left"",[0,-150],[106,-106]]",diamond,red,hori,left,"[0,-150]","[106,-106]",left,1,1.3149,,,,,,001,2025-03-10_16h52.29.087,SL_base,2021.2.3,Win32,59.88023952,,,9,0,9,0,1,,,,,,,,
,,"[""diamond"",""red"",""vert"",""up"",[0,-150],[-106,106]]",diamond,red,vert,up,"[0,-150]","[-106,106]",up,1,0.9324,,,,,,001,2025-03-10_16h52.29.087,SL_base,2021.2.3,Win32,59.88023952,,,10,0,10,0,1,,,,,,,,
,,"[""circle"",""no_dis"",""hori"",""left"",[99999,99999],[-150,0]]",circle,no_dis,hori,left,"[99999,99999]","[-150,0]",left,1,0.8938,,,,,,001,2025-03-10_16h52.29.087,SL_base,2021.2.3,Win32,59.88023952,,,11,0,11,0,1,,,,,,,,
,,"[""circle"",""no_dis"",""vert"",""up"",[99999,99999],[0,-150]]",circle,no_dis,vert,up,"[99999,99999]","[0,-150]",up,1,2.0766,,,,,,001,2025-03-10_16h52.29.087,SL_base,2021.2.3,Win32,59.88023952,,,12,0,12,0,1,,,,,,,,
,,"[""diamond"",""no_dis"",""vert"",""up"",[99999,99999],[0,150]]",diamond,no_dis,vert,up,"[99999,99999]","[0,150]",up,1,0.881,,,,,,001,2025-03-10_16h52.29.087,SL_base,2021.2.3,Win32,59.88023952,,,13,0,13,0,1,,,,,,,,
,,"[""circle"",""green"",""hori"",""left"",[0,150],[-106,106]]",circle,green,hori,left,"[0,150]","[-106,106]",left,1,2.0685,,,,,,001,2025-03-10_16h52.29.087,SL_base,2021.2.3,Win32,59.88023952,,,14,0,14,0,1,,,,,,,,
,,"[""circle"",""no_dis"",""hori"",""left"",[99999,99999],[106,-106]]",circle,no_dis,hori,left,"[99999,99999]","[106,-106]",left,1,0.6268,,,,,,001,2025-03-10_16h52.29.087,SL_base,2021.2.3,Win32,59.88023952,,,15,0,15,0,1,,,,,,,,
,,"[""circle"",""green"",""hori"",""left"",[0,-150],[-150,0]]",circle,green,hori,left,"[0,-150]","[-150,0]",left,1,0.6401,,,,,,001,2025-03-10_16h52.29.087,SL_base,2021.2.3,Win32,59.88023952,,,16,0,16,0,1,,,,,,,,
,,"[""circle"",""no_dis"",""vert"",""up"",[99999,99999],[-150,0]]",circle,no_dis,vert,up,"[99999,99999]","[-150,0]",left,0,0.5295,,,,,,001,2025-03-10_16h52.29.087,SL_base,2021.2.3,Win32,59.88023952,,,17,0,17,0,1,,,,,,,,
,,"[""diamond"",""red"",""vert"",""up"",[0,-150],[-106,106]]",diamond,red,vert,up,"[0,-150]","[-106,106]",up,1,0.8477,,,,,,001,2025-03-10_16h52.29.087,SL_base,2021.2.3,Win32,59.88023952,,,18,0,18,0,1,,,,,,,,
,,"[""diamond"",""no_dis"",""vert"",""up"",[99999,99999],[150,0]]",diamond,no_dis,vert,up,"[99999,99999]","[150,0]",up,1,0.6153,,,,,,001,2025-03-10_16h52.29.087,SL_base,2021.2.3,Win32,59.88023952,,,19,0,19,0,1,,,,,,,,
,,"[""circle"",""green"",""vert"",""up"",[0,-150],[-106,-106]]",circle,green,vert,up,"[0,-150]","[-106,-106]",up,1,0.8546,,,,,,001,2025-03-10_16h52.29.087,SL_base,2021.2.3,Win32,59.88023952,,,20,0,20,0,1,,,,,,,,
,,"[""diamond"",""green"",""hori"",""left"",[0,-150],[-106,106]]",diamond,green,hori,left,"[0,-150]","[-106,106]",left,1,0.6892,,,,,,001,2025-03-10_16h52.29.087,SL_base,2021.2.3,Win32,59.88023952,,,21,0,21,0,1,,,,,,,,
,,"[""circle"",""green"",""vert"",""up"",[0,-150],[-106,-106]]",circle,green,vert,up,"[0,-150]","[-106,-106]",up,1,0.8824,,,,,,001,2025-03-10_16h52.29.087,SL_base,2021.2.3,Win32,59.88023952,,,22,0,22,0,1,,,,,,,,
,,"[""diamond"",""green"",""vert"",""up"",[0,-150],[106,106]]",diamond,green,vert,up,"[0,-150]","[106,106]",up,1,1.9214,,,,,,001,2025-03-10_16h52.29.087,SL_base,2021.2.3,Win32,59.88023952,,,23,0,23,0,1,,,,,,,,
,,"[""diamond"",""no_dis"",""hori"",""left"",[99999,99999],[-106,-106]]",diamond,no_dis,hori,left,"[99999,99999]","[-106,-106]",left,1,0.6273,,,,,,001,2025-03-10_16h52.29.087,SL_base,2021.2.3,Win32,59.88023952,,,24,0,24,0,1,,,,,,,,
,,"[""diamond"",""green"",""hori"",""left"",[0,150],[-106,106]]",diamond,green,hori,left,"[0,150]","[-106,106]",left,1,0.8996,,,,,,001,2025-03-10_16h52.29.087,SL_base,2021.2.3,Win32,59.88023952,,,25,0,25,0,1,,,,,,,,
,,"[""diamond"",""green"",""hori"",""left"",[-106,-106],[150,0]]",diamond,green,hori,left,"[-106,-106]","[150,0]",up,0,0.6689,,,,,,001,2025-03-10_16h52.29.087,SL_base,2021.2.3,Win32,59.88023952,,,26,0,26,0,1,,,,,,,,
,,"[""diamond"",""green"",""vert"",""up"",[-106,-106],[0,150]]",diamond,green,vert,up,"[-106,-106]","[0,150]",up,1,0.9638,,,,,,001,2025-03-10_16h52.29.087,SL_base,2021.2.3,Win32,59.88023952,,,27,0,27,0,1,,,,,,,,
,,"[""diamond"",""no_dis"",""hori"",""left"",[99999,99999],[106,-106]]",diamond,no_dis,hori,left,"[99999,99999]","[106,-106]",left,1,0.7539,,,,,,001,2025-03-10_16h52.29.087,SL_base,2021.2.3,Win32,59.88023952,,,28,0,28,0,1,,,,,,,,
,,"[""circle"",""red"",""hori"",""left"",[0,-150],[0,150]]",circle,red,hori,left,"[0,-150]","[0,150]",left,1,1.4858,,,,,,001,2025-03-10_16h52.29.087,SL_base,2021.2.3,Win32,59.88023952,,,29,0,29,0,1,,,,,,,,
,,"[""circle"",""green"",""vert"",""up"",[0,150],[150,0]]",circle,green,vert,up,"[0,150]","[150,0]",up,1,0.7649,,,,,,001,2025-03-10_16h52.29.087,SL_base,2021.2.3,Win32,59.88023952,,,30,0,30,0,1,,,,,,,,
,,"[""circle"",""no_dis"",""vert"",""up"",[99999,99999],[-106,106]]",circle,no_dis,vert,up,"[99999,99999]","[-106,106]",up,1,0.7952,,,,,,001,2025-03-10_16h52.29.087,SL_base,2021.2.3,Win32,59.88023952,,,31,0,31,0,1,,,,,,,,
,,"[""circle"",""green"",""vert"",""up"",[-106,106],[-150,0]]",circle,green,vert,up,"[-106,106]","[-150,0]",up,1,1.7493,,,,,,001,2025-03-10_16h52.29.087,SL_base,2021.2.3,Win32,59.88023952,,,32,0,32,0,1,,,,,,,,
,,"[""circle"",""no_dis"",""vert"",""up"",[99999,99999],[-106,-106]]",circle,no_dis,vert,up,"[99999,99999]","[-106,-106]",up,1,0.6278,,,,,,001,2025-03-10_16h52.29.087,SL_base,2021.2.3,Win32,59.88023952,,,33,0,33,0,1,,,,,,,,
,,"[""diamond"",""red"",""hori"",""left"",[-106,106],[0,-150]]",diamond,red,hori,left,"[-106,106]","[0,-150]",left,1,0.6665,,,,,,001,2025-03-10_16h52.29.087,SL_base,2021.2.3,Win32,59.88023952,,,34,0,34,0,1,,,,,,,,
,,"[""circle"",""no_dis"",""vert"",""up"",[99999,99999],[-106,106]]",circle,no_dis,vert,up,"[99999,99999]","[-106,106]",up,1,1.0234,,,,,,001,2025-03-10_16h52.29.087,SL_base,2021.2.3,Win32,59.88023952,,,35,0,35,0,1,,,,,,,,
,,"[""circle"",""green"",""vert"",""up"",[106,-106],[-106,106]]",circle,green,vert,up,"[106,-106]","[-106,106]",up,1,0.8167,,,,,,001,2025-03-10_16h52.29.087,SL_base,2021.2.3,Win32,59.88023952,,,36,0,36,0,1,,,,,,,,
,,"[""circle"",""green"",""hori"",""left"",[106,-106],[0,-150]]",circle,green,hori,left,"[106,-106]","[0,-150]",left,1,1.3247,,,,,,001,2025-03-10_16h52.29.087,SL_base,2021.2.3,Win32,59.88023952,,,37,0,37,0,1,,,,,,,,
,,"[""circle"",""no_dis"",""vert"",""up"",[99999,99999],[0,-150]]",circle,no_dis,vert,up,"[99999,99999]","[0,-150]",up,1,0.6813,,,,,,001,2025-03-10_16h52.29.087,SL_base,2021.2.3,Win32,59.88023952,,,38,0,38,0,1,,,,,,,,
,,"[""circle"",""red"",""vert"",""up"",[0,150],[-106,-106]]",circle,red,vert,up,"[0,150]","[-106,-106]",up,1,0.8644,,,,,,001,2025-03-10_16h52.29.087,SL_base,2021.2.3,Win32,59.88023952,,,39,0,39,0,1,,,,,,,,
,,"[""diamond"",""red"",""hori"",""left"",[0,-150],[-106,106]]",diamond,red,hori,left,"[0,-150]","[-106,106]",left,1,1.0864,,,,,,001,2025-03-10_16h52.29.087,SL_base,2021.2.3,Win32,59.88023952,,,40,0,40,0,1,,,,,,,,
,,"[""diamond"",""green"",""vert"",""up"",[-150,0],[0,150]]",diamond,green,vert,up,"[-150,0]","[0,150]",up,1,0.9312,,,,,,001,2025-03-10_16h52.29.087,SL_base,2021.2.3,Win32,59.88023952,,,41,0,41,0,1,,,,,,,,
,,"[""diamond"",""red"",""hori"",""left"",[-150,0],[0,150]]",diamond,red,hori,left,"[-150,0]","[0,150]",left,1,0.7974,,,,,,001,2025-03-10_16h52.29.087,SL_base,2021.2.3,Win32,59.88023952,,,42,0,42,0,1,,,,,,,,
,,"[""circle"",""green"",""hori"",""left"",[-150,0],[-106,-106]]",circle,green,hori,left,"[-150,0]","[-106,-106]",up,0,1.0654,,,,,,001,2025-03-10_16h52.29.087,SL_base,2021.2.3,Win32,59.88023952,,,43,0,43,0,1,,,,,,,,
,,"[""circle"",""no_dis"",""vert"",""up"",[99999,99999],[106,106]]",circle,no_dis,vert,up,"[99999,99999]","[106,106]",up,1,0.8565,,,,,,001,2025-03-10_16h52.29.087,SL_base,2021.2.3,Win32,59.88023952,,,44,0,44,0,1,,,,,,,,
,,"[""diamond"",""red"",""vert"",""up"",[150,0],[-150,0]]",diamond,red,vert,up,"[150,0]","[-150,0]",up,1,0.9018,,,,,,001,2025-03-10_16h52.29.087,SL_base,2021.2.3,Win32,59.88023952,,,45,0,45,0,1,,,,,,,,
,,"[""diamond"",""green"",""hori"",""left"",[-150,0],[0,-150]]",diamond,green,hori,left,"[-150,0]","[0,-150]",left,1,0.8824,,,,,,001,2025-03-10_16h52.29.087,SL_base,2021.2.3,Win32,59.88023952,,,46,0,46,0,1,,,,,,,,
,,"[""diamond"",""green"",""hori"",""left"",[106,106],[-106,106]]",diamond,green,hori,left,"[106,106]","[-106,106]",left,1,0.7959,,,,,,001,2025-03-10_16h52.29.087,SL_base,2021.2.3,Win32,59.88023952,,,47,0,47,0,1,,,,,,,,
,,"[""circle"",""green"",""hori"",""left"",[-106,106],[150,0]]",circle,green,hori,left,"[-106,106]","[150,0]",left,1,0.9543,,,,,,001,2025-03-10_16h52.29.087,SL_base,2021.2.3,Win32,59.88023952,,,48,0,48,0,1,,,,,,,,
,,"[""circle"",""no_dis"",""hori"",""left"",[99999,99999],[-106,-106]]",circle,no_dis,hori,left,"[99999,99999]","[-106,-106]",left,1,0.9708,,,,,,001,2025-03-10_16h52.29.087,SL_base,2021.2.3,Win32,59.88023952,,,49,0,49,0,1,,,,,,,,
,,"[""diamond"",""no_dis"",""hori"",""left"",[99999,99999],[0,-150]]",diamond,no_dis,hori,left,"[99999,99999]","[0,-150]",left,1,0.8276,,,,,,001,2025-03-10_16h52.29.087,SL_base,2021.2.3,Win32,59.88023952,,,50,0,50,0,1,,,,,,,,
,,"[""diamond"",""red"",""vert"",""up"",[0,150],[106,106]]",diamond,red,vert,up,"[0,150]","[106,106]",up,1,0.8707,,,,,,001,2025-03-10_16h52.29.087,SL_base,2021.2.3,Win32,59.88023952,,,51,0,51,0,1,,,,,,,,
,,"[""diamond"",""green"",""hori"",""left"",[0,150],[0,-150]]",diamond,green,hori,left,"[0,150]","[0,-150]",left,1,0.9576,,,,,,001,2025-03-10_16h52.29.087,SL_base,2021.2.3,Win32,59.88023952,,,52,0,52,0,1,,,,,,,,
,,"[""diamond"",""green"",""vert"",""up"",[0,-150],[106,106]]",diamond,green,vert,up,"[0,-150]","[106,106]",up,1,1.1012,,,,,,001,2025-03-10_16h52.29.087,SL_base,2021.2.3,Win32,59.88023952,,,53,0,53,0,1,,,,,,,,
,,"[""circle"",""red"",""hori"",""left"",[-106,-106],[-150,0]]",circle,red,hori,left,"[-106,-106]","[-150,0]",left,1,1.6316,,,,,,001,2025-03-10_16h52.29.087,SL_base,2021.2.3,Win32,59.88023952,,,54,0,54,0,1,,,,,,,,
,,"[""circle"",""green"",""hori"",""left"",[0,-150],[-106,-106]]",circle,green,hori,left,"[0,-150]","[-106,-106]",left,1,0.7854,,,,,,001,2025-03-10_16h52.29.087,SL_base,2021.2.3,Win32,59.88023952,,,55,0,55,0,1,,,,,,,,
,,"[""diamond"",""green"",""vert"",""up"",[-150,0],[106,106]]",diamond,green,vert,up,"[-150,0]","[106,106]",up,1,0.7518,,,,,,001,2025-03-10_16h52.29.087,SL_base,2021.2.3,Win32,59.88023952,,,56,0,56,0,1,,,,,,,,
,,"[""circle"",""green"",""vert"",""up"",[-106,-106],[0,-150]]",circle,green,vert,up,"[-106,-106]","[0,-150]",up,1,1.2428,,,,,,001,2025-03-10_16h52.29.087,SL_base,2021.2.3,Win32,59.88023952,,,57,0,57,0,1,,,,,,,,
,,"[""circle"",""green"",""vert"",""up"",[-106,-106],[-150,0]]",circle,green,vert,up,"[-106,-106]","[-150,0]",up,1,0.9729,,,,,,001,2025-03-10_16h52.29.087,SL_base,2021.2.3,Win32,59.88023952,,,58,0,58,0,1,,,,,,,,
,,"[""circle"",""green"",""hori"",""left"",[150,0],[-106,106]]",circle,green,hori,left,"[150,0]","[-106,106]",left,1,1.276,,,,,,001,2025-03-10_16h52.29.087,SL_base,2021.2.3,Win32,59.88023952,,,59,0,59,0,1,,,,,,,,
,,"[""circle"",""red"",""vert"",""up"",[150,0],[0,-150]]",circle,red,vert,up,"[150,0]","[0,-150]",up,1,0.7254,,,,,,001,2025-03-10_16h52.29.087,SL_base,2021.2.3,Win32,59.88023952,,,60,0,60,0,1,,,,,,,,
,,"[""diamond"",""no_dis"",""hori"",""left"",[99999,99999],[106,-106]]",diamond,no_dis,hori,left,"[99999,99999]","[106,-106]",left,1,1.2989,,,,,,001,2025-03-10_16h52.29.087,SL_base,2021.2.3,Win32,59.88023952,,,61,0,61,0,1,,,,,,,,
,,"[""diamond"",""no_dis"",""vert"",""up"",[99999,99999],[-106,106]]",diamond,no_dis,vert,up,"[99999,99999]","[-106,106]",up,1,0.8416,,,,,,001,2025-03-10_16h52.29.087,SL_base,2021.2.3,Win32,59.88023952,,,62,0,62,0,1,,,,,,,,
,,"[""diamond"",""no_dis"",""vert"",""up"",[99999,99999],[-150,0]]",diamond,no_dis,vert,up,"[99999,99999]","[-150,0]",up,1,0.8564,,,,,,001,2025-03-10_16h52.29.087,SL_base,2021.2.3,Win32,59.88023952,,,63,0,63,0,1,,,,,,,,
,,"[""circle"",""red"",""hori"",""left"",[0,-150],[106,106]]",circle,red,hori,left,"[0,-150]","[106,106]",left,1,1.1014,,,,,,001,2025-03-10_16h52.29.087,SL_base,2021.2.3,Win32,59.88023952,,,64,0,64,0,1,,,,,,,,
,,"[""diamond"",""green"",""vert"",""up"",[0,-150],[150,0]]",diamond,green,vert,up,"[0,-150]","[150,0]",up,1,1.0522,,,,,,001,2025-03-10_16h52.29.087,SL_base,2021.2.3,Win32,59.88023952,,,65,0,65,0,1,,,,,,,,
,,"[""diamond"",""no_dis"",""vert"",""up"",[99999,99999],[-106,106]]",diamond,no_dis,vert,up,"[99999,99999]","[-106,106]",up,1,1.5473,,,,,,001,2025-03-10_16h52.29.087,SL_base,2021.2.3,Win32,59.88023952,,,66,0,66,0,1,,,,,,,,
,,"[""circle"",""no_dis"",""vert"",""up"",[99999,99999],[0,150]]",circle,no_dis,vert,up,"[99999,99999]","[0,150]",up,1,1.187,,,,,,001,2025-03-10_16h52.29.087,SL_base,2021.2.3,Win32,59.88023952,,,67,0,67,0,1,,,,,,,,
,,"[""diamond"",""green"",""hori"",""left"",[-106,106],[-106,-106]]",diamond,green,hori,left,"[-106,106]","[-106,-106]",left,1,1.0298,,,,,,001,2025-03-10_16h52.29.087,SL_base,2021.2.3,Win32,59.88023952,,,68,0,68,0,1,,,,,,,,
,,"[""circle"",""red"",""hori"",""left"",[-106,-106],[0,150]]",circle,red,hori,left,"[-106,-106]","[0,150]",left,1,2.0452,,,,,,001,2025-03-10_16h52.29.087,SL_base,2021.2.3,Win32,59.88023952,,,69,0,69,0,1,,,,,,,,
,,"[""diamond"",""red"",""vert"",""up"",[106,-106],[0,-150]]",diamond,red,vert,up,"[106,-106]","[0,-150]",up,1,1.003,,,,,,001,2025-03-10_16h52.29.087,SL_base,2021.2.3,Win32,59.88023952,,,70,0,70,0,1,,,,,,,,
,,"[""diamond"",""red"",""vert"",""up"",[-106,106],[150,0]]",diamond,red,vert,up,"[-106,106]","[150,0]",up,1,1.2172,,,,,,001,2025-03-10_16h52.29.087,SL_base,2021.2.3,Win32,59.88023952,,,71,0,71,0,1,,,,,,,,
,,"[""circle"",""green"",""hori"",""left"",[106,-106],[150,0]]",circle,green,hori,left,"[106,-106]","[150,0]",left,1,1.4656,,,,,,001,2025-03-10_16h52.29.087,SL_base,2021.2.3,Win32,59.88023952,,,72,0,72,0,1,,,,,,,,
,,"[""diamond"",""no_dis"",""vert"",""up"",[99999,99999],[0,150]]",diamond,no_dis,vert,up,"[99999,99999]","[0,150]",left,0,1.1058,,,,,,001,2025-03-10_16h52.29.087,SL_base,2021.2.3,Win32,59.88023952,,,73,0,73,0,1,,,,,,,,
,,"[""circle"",""red"",""hori"",""left"",[-106,-106],[-150,0]]",circle,red,hori,left,"[-106,-106]","[-150,0]",left,1,1.5413,,,,,,001,2025-03-10_16h52.29.087,SL_base,2021.2.3,Win32,59.88023952,,,74,0,74,0,1,,,,,,,,
,,"[""diamond"",""no_dis"",""hori"",""left"",[99999,99999],[0,150]]",diamond,no_dis,hori,left,"[99999,99999]","[0,150]",up,0,0.6358,,,,,,001,2025-03-10_16h52.29.087,SL_base,2021.2.3,Win32,59.88023952,,,75,0,75,0,1,,,,,,,,
,,"[""diamond"",""green"",""hori"",""left"",[-150,0],[150,0]]",diamond,green,hori,left,"[-150,0]","[150,0]",left,1,0.9303,,,,,,001,2025-03-10_16h52.29.087,SL_base,2021.2.3,Win32,59.88023952,,,76,0,76,0,1,,,,,,,,
,,"[""diamond"",""no_dis"",""hori"",""left"",[99999,99999],[0,-150]]",diamond,no_dis,hori,left,"[99999,99999]","[0,-150]",left,1,0.7333,,,,,,001,2025-03-10_16h52.29.087,SL_base,2021.2.3,Win32,59.88023952,,,77,0,77,0,1,,,,,,,,
,,"[""circle"",""no_dis"",""vert"",""up"",[99999,99999],[106,106]]",circle,no_dis,vert,up,"[99999,99999]","[106,106]",up,1,0.6161,,,,,,001,2025-03-10_16h52.29.087,SL_base,2021.2.3,Win32,59.88023952,,,78,0,78,0,1,,,,,,,,
,,"[""diamond"",""green"",""hori"",""left"",[0,-150],[-106,106]]",diamond,green,hori,left,"[0,-150]","[-106,106]",left,1,0.8575,,,,,,001,2025-03-10_16h52.29.087,SL_base,2021.2.3,Win32,59.88023952,,,79,0,79,0,1,,,,,,,,
,,"[""circle"",""red"",""hori"",""left"",[-106,-106],[0,150]]",circle,red,hori,left,"[-106,-106]","[0,150]",left,1,0.9491,,,,,,001,2025-03-10_16h52.29.087,SL_base,2021.2.3,Win32,59.88023952,,,80,0,80,0,1,,,,,,,,
,,"[""circle"",""no_dis"",""hori"",""left"",[99999,99999],[0,150]]",circle,no_dis,hori,left,"[99999,99999]","[0,150]",left,1,0.7341,,,,,,001,2025-03-10_16h52.29.087,SL_base,2021.2.3,Win32,59.88023952,,,81,0,81,0,1,,,,,,,,
,,"[""diamond"",""green"",""vert"",""up"",[150,0],[106,-106]]",diamond,green,vert,up,"[150,0]","[106,-106]",up,1,1.2417,,,,,,001,2025-03-10_16h52.29.087,SL_base,2021.2.3,Win32,59.88023952,,,82,0,82,0,1,,,,,,,,
,,"[""circle"",""green"",""vert"",""up"",[106,-106],[-106,-106]]",circle,green,vert,up,"[106,-106]","[-106,-106]",left,0,1.0514,,,,,,001,2025-03-10_16h52.29.087,SL_base,2021.2.3,Win32,59.88023952,,,83,0,83,0,1,,,,,,,,
,,"[""diamond"",""no_dis"",""hori"",""left"",[99999,99999],[-150,0]]",diamond,no_dis,hori,left,"[99999,99999]","[-150,0]",left,1,0.7564,,,,,,001,2025-03-10_16h52.29.087,SL_base,2021.2.3,Win32,59.88023952,,,84,0,84,0,1,,,,,,,,
,,"[""diamond"",""red"",""hori"",""left"",[-150,0],[106,-106]]",diamond,red,hori,left,"[-150,0]","[106,-106]",left,1,0.9644,,,,,,001,2025-03-10_16h52.29.087,SL_base,2021.2.3,Win32,59.88023952,,,85,0,85,0,1,,,,,,,,
,,"[""circle"",""red"",""hori"",""left"",[0,-150],[106,106]]",circle,red,hori,left,"[0,-150]","[106,106]",left,1,0.9542,,,,,,001,2025-03-10_16h52.29.087,SL_base,2021.2.3,Win32,59.88023952,,,86,0,86,0,1,,,,,,,,
,,"[""circle"",""red"",""hori"",""left"",[106,106],[106,-106]]",circle,red,hori,left,"[106,106]","[106,-106]",left,1,1.0389,,,,,,001,2025-03-10_16h52.29.087,SL_base,2021.2.3,Win32,59.88023952,,,87,0,87,0,1,,,,,,,,
,,"[""diamond"",""red"",""hori"",""left"",[0,-150],[-106,106]]",diamond,red,hori,left,"[0,-150]","[-106,106]",left,1,1.2673,,,,,,001,2025-03-10_16h52.29.087,SL_base,2021.2.3,Win32,59.88023952,,,88,0,88,0,1,,,,,,,,
,,"[""diamond"",""no_dis"",""vert"",""up"",[99999,99999],[150,0]]",diamond,no_dis,vert,up,"[99999,99999]","[150,0]",up,1,0.7114,,,,,,001,2025-03-10_16h52.29.087,SL_base,2021.2.3,Win32,59.88023952,,,89,0,89,0,1,,,,,,,,
,,"[""diamond"",""no_dis"",""hori"",""left"",[99999,99999],[0,-150]]",diamond,no_dis,hori,left,"[99999,99999]","[0,-150]",left,1,1.2993,,,,,,001,2025-03-10_16h52.29.087,SL_base,2021.2.3,Win32,59.88023952,,,90,0,90,0,1,,,,,,,,
,,"[""diamond"",""no_dis"",""vert"",""up"",[99999,99999],[106,106]]",diamond,no_dis,vert,up,"[99999,99999]","[106,106]",up,1,0.6763,,,,,,001,2025-03-10_16h52.29.087,SL_base,2021.2.3,Win32,59.88023952,,,91,0,91,0,1,,,,,,,,
,,"[""circle"",""no_dis"",""hori"",""left"",[99999,99999],[150,0]]",circle,no_dis,hori,left,"[99999,99999]","[150,0]",left,1,1.1111,,,,,,001,2025-03-10_16h52.29.087,SL_base,2021.2.3,Win32,59.88023952,,,92,0,92,0,1,,,,,,,,
,,"[""circle"",""no_dis"",""vert"",""up"",[99999,99999],[-106,-106]]",circle,no_dis,vert,up,"[99999,99999]","[-106,-106]",up,1,0.7234,,,,,,001,2025-03-10_16h52.29.087,SL_base,2021.2.3,Win32,59.88023952,,,93,0,93,0,1,,,,,,,,
,,"[""diamond"",""no_dis"",""hori"",""left"",[99999,99999],[150,0]]",diamond,no_dis,hori,left,"[99999,99999]","[150,0]",left,1,0.6867,,,,,,001,2025-03-10_16h52.29.087,SL_base,2021.2.3,Win32,59.88023952,,,94,0,94,0,1,,,,,,,,
,,"[""circle"",""red"",""hori"",""left"",[106,106],[106,-106]]",circle,red,hori,left,"[106,106]","[106,-106]",left,1,0.9697,,,,,,001,2025-03-10_16h52.29.087,SL_base,2021.2.3,Win32,59.88023952,,,95,0,95,0,1,,,,,,,,
,,"[""diamond"",""red"",""hori"",""left"",[106,-106],[-106,-106]]",diamond,red,hori,left,"[106,-106]","[-106,-106]",left,1,0.6711,,,,,,001,2025-03-10_16h52.29.087,SL_base,2021.2.3,Win32,59.88023952,,,96,0,96,0,1,,,,,,,,
,,"[""circle"",""red"",""vert"",""up"",[150,0],[0,150]]",circle,red,vert,up,"[150,0]","[0,150]",up,1,0.8505,,,,,,001,2025-03-10_16h52.29.087,SL_base,2021.2.3,Win32,59.88023952,,,97,0,97,0,1,,,,,,,,
,,"[""diamond"",""red"",""hori"",""left"",[-106,106],[-106,-106]]",diamond,red,hori,left,"[-106,106]","[-106,-106]",left,1,0.7707,,,,,,001,2025-03-10_16h52.29.087,SL_base,2021.2.3,Win32,59.88023952,,,98,0,98,0,1,,,,,,,,
,,"[""circle"",""red"",""hori"",""left"",[106,106],[-106,-106]]",circle,red,hori,left,"[106,106]","[-106,-106]",left,1,0.7044,,,,,,001,2025-03-10_16h52.29.087,SL_base,2021.2.3,Win32,59.88023952,,,99,0,99,0,1,,,,,,,,
,,"[""circle"",""green"",""vert"",""up"",[0,-150],[0,150]]",circle,green,vert,up,"[0,-150]","[0,150]",up,1,0.6592,,,,,,001,2025-03-10_16h52.29.087,SL_base,2021.2.3,Win32,59.88023952,,,100,0,100,0,1,,,,,,,,
,,"[""diamond"",""no_dis"",""vert"",""up"",[99999,99999],[106,-106]]",diamond,no_dis,vert,up,"[99999,99999]","[106,-106]",up,1,0.76,,,,,,001,2025-03-10_16h52.29.087,SL_base,2021.2.3,Win32,59.88023952,,,101,0,101,0,1,,,,,,,,
,,"[""circle"",""green"",""vert"",""up"",[106,-106],[0,-150]]",circle,green,vert,up,"[106,-106]","[0,-150]",up,1,0.8863,,,,,,001,2025-03-10_16h52.29.087,SL_base,2021.2.3,Win32,59.88023952,,,102,0,102,0,1,,,,,,,,
,,"[""diamond"",""green"",""hori"",""left"",[0,-150],[-150,0]]",diamond,green,hori,left,"[0,-150]","[-150,0]",left,1,1.067,,,,,,001,2025-03-10_16h52.29.087,SL_base,2021.2.3,Win32,59.88023952,,,103,0,103,0,1,,,,,,,,
,,"[""diamond"",""no_dis"",""hori"",""left"",[99999,99999],[-150,0]]",diamond,no_dis,hori,left,"[99999,99999]","[-150,0]",left,1,0.6851,,,,,,001,2025-03-10_16h52.29.087,SL_base,2021.2.3,Win32,59.88023952,,,104,0,104,0,1,,,,,,,,
,,"[""circle"",""red"",""vert"",""up"",[106,106],[-150,0]]",circle,red,vert,up,"[106,106]","[-150,0]",up,1,0.8829,,,,,,001,2025-03-10_16h52.29.087,SL_base,2021.2.3,Win32,59.88023952,,,105,0,105,0,1,,,,,,,,
,,"[""circle"",""green"",""hori"",""left"",[106,106],[150,0]]",circle,green,hori,left,"[106,106]","[150,0]",left,1,1.1027,,,,,,001,2025-03-10_16h52.29.087,SL_base,2021.2.3,Win32,59.88023952,,,106,0,106,0,1,,,,,,,,
,,"[""diamond"",""red"",""vert"",""up"",[106,-106],[0,150]]",diamond,red,vert,up,"[106,-106]","[0,150]",up,1,2.0299,,,,,,001,2025-03-10_16h52.29.087,SL_base,2021.2.3,Win32,59.88023952,,,107,0,107,0,1,,,,,,,,
,,"[""circle"",""red"",""vert"",""up"",[-150,0],[0,150]]",circle,red,vert,up,"[-150,0]","[0,150]",up,1,0.7433,,,,,,001,2025-03-10_16h52.29.087,SL_base,2021.2.3,Win32,59.88023952,,,108,0,108,0,1,,,,,,,,
,,"[""circle"",""green"",""hori"",""left"",[-106,106],[150,0]]",circle,green,hori,left,"[-106,106]","[150,0]",left,1,0.6397,,,,,,001,2025-03-10_16h52.29.087,SL_base,2021.2.3,Win32,59.88023952,,,109,0,109,0,1,,,,,,,,
,,"[""diamond"",""green"",""vert"",""up"",[0,-150],[-106,-106]]",diamond,green,vert,up,"[0,-150]","[-106,-106]",left,0,1.2031,,,,,,001,2025-03-10_16h52.29.087,SL_base,2021.2.3,Win32,59.88023952,,,110,0,110,0,1,,,,,,,,
,,"[""circle"",""no_dis"",""hori"",""left"",[99999,99999],[-106,106]]",circle,no_dis,hori,left,"[99999,99999]","[-106,106]",left,1,0.7272,,,,,,001,2025-03-10_16h52.29.087,SL_base,2021.2.3,Win32,59.88023952,,,111,0,111,0,1,,,,,,,,
,,"[""diamond"",""red"",""vert"",""up"",[150,0],[-106,-106]]",diamond,red,vert,up,"[150,0]","[-106,-106]",up,1,1.0747,,,,,,001,2025-03-10_16h52.29.087,SL_base,2021.2.3,Win32,59.88023952,,,112,0,112,0,1,,,,,,,,
,,"[""diamond"",""no_dis"",""vert"",""up"",[99999,99999],[150,0]]",diamond,no_dis,vert,up,"[99999,99999]","[150,0]",up,1,1.5742,,,,,,001,2025-03-10_16h52.29.087,SL_base,2021.2.3,Win32,59.88023952,,,113,0,113,0,1,,,,,,,,
,,"[""circle"",""red"",""vert"",""up"",[-106,106],[0,150]]",circle,red,vert,up,"[-106,106]","[0,150]",up,1,0.6535,,,,,,001,2025-03-10_16h52.29.087,SL_base,2021.2.3,Win32,59.88023952,,,114,0,114,0,1,,,,,,,,
,,"[""circle"",""red"",""vert"",""up"",[106,106],[106,-106]]",circle,red,vert,up,"[106,106]","[106,-106]",up,1,1.0846,,,,,,001,2025-03-10_16h52.29.087,SL_base,2021.2.3,Win32,59.88023952,,,115,0,115,0,1,,,,,,,,
,,"[""circle"",""no_dis"",""hori"",""left"",[99999,99999],[106,106]]",circle,no_dis,hori,left,"[99999,99999]","[106,106]",left,1,0.9759,,,,,,001,2025-03-10_16h52.29.087,SL_base,2021.2.3,Win32,59.88023952,,,116,0,116,0,1,,,,,,,,
,,"[""diamond"",""red"",""hori"",""left"",[0,150],[150,0]]",diamond,red,hori,left,"[0,150]","[150,0]",left,1,1.1203,,,,,,001,2025-03-10_16h52.29.087,SL_base,2021.2.3,Win32,59.88023952,,,117,0,117,0,1,,,,,,,,
,,"[""diamond"",""green"",""vert"",""up"",[150,0],[-106,106]]",diamond,green,vert,up,"[150,0]","[-106,106]",up,1,1.3666,,,,,,001,2025-03-10_16h52.29.087,SL_base,2021.2.3,Win32,59.88023952,,,118,0,118,0,1,,,,,,,,
,,"[""circle"",""no_dis"",""hori"",""left"",[99999,99999],[106,-106]]",circle,no_dis,hori,left,"[99999,99999]","[106,-106]",left,1,0.6899,,,,,,001,2025-03-10_16h52.29.087,SL_base,2021.2.3,Win32,59.88023952,,,119,0,119,0,1,,,,,,,,
,,,,,,,,,,,,,,,,,001,2025-03-10_16h52.29.087,SL_base,2021.2.3,Win32,59.88023952,,,,,,,,3,space,55.7522,2,0,2,0,1
,,"[""circle"",""red"",""hori"",""left"",[106,106],[106,-106]]",circle,red,hori,left,"[106,106]","[106,-106]",left,1,1.1606,,,,,,001,2025-03-10_16h52.29.087,SL_base,2021.2.3,Win32,59.88023952,,,0,0,0,0,1,,,,,,,,
,,"[""circle"",""green"",""hori"",""left"",[106,-106],[150,0]]",circle,green,hori,left,"[106,-106]","[150,0]",left,1,1.1262,,,,,,001,2025-03-10_16h52.29.087,SL_base,2021.2.3,Win32,59.88023952,,,1,0,1,0,1,,,,,,,,
,,"[""diamond"",""no_dis"",""vert"",""up"",[99999,99999],[150,0]]",diamond,no_dis,vert,up,"[99999,99999]","[150,0]",up,1,0.7606,,,,,,001,2025-03-10_16h52.29.087,SL_base,2021.2.3,Win32,59.88023952,,,2,0,2,0,1,,,,,,,,
,,"[""circle"",""green"",""hori"",""left"",[0,-150],[-106,-106]]",circle,green,hori,left,"[0,-150]","[-106,-106]",left,1,0.8208,,,,,,001,2025-03-10_16h52.29.087,SL_base,2021.2.3,Win32,59.88023952,,,3,0,3,0,1,,,,,,,,
,,"[""diamond"",""green"",""hori"",""left"",[-106,106],[-106,-106]]",diamond,green,hori,left,"[-106,106]","[-106,-106]",left,1,0.8338,,,,,,001,2025-03-10_16h52.29.087,SL_base,2021.2.3,Win32,59.88023952,,,4,0,4,0,1,,,,,,,,
,,"[""circle"",""no_dis"",""vert"",""up"",[99999,99999],[106,106]]",circle,no_dis,vert,up,"[99999,99999]","[106,106]",up,1,0.8597,,,,,,001,2025-03-10_16h52.29.087,SL_base,2021.2.3,Win32,59.88023952,,,5,0,5,0,1,,,,,,,,
,,"[""circle"",""no_dis"",""vert"",""up"",[99999,99999],[106,106]]",circle,no_dis,vert,up,"[99999,99999]","[106,106]",up,1,0.7001,,,,,,001,2025-03-10_16h52.29.087,SL_base,2021.2.3,Win32,59.88023952,,,6,0,6,0,1,,,,,,,,
,,"[""diamond"",""no_dis"",""vert"",""up"",[99999,99999],[-106,106]]",diamond,no_dis,vert,up,"[99999,99999]","[-106,106]",up,1,0.8344,,,,,,001,2025-03-10_16h52.29.087,SL_base,2021.2.3,Win32,59.88023952,,,7,0,7,0,1,,,,,,,,
,,"[""circle"",""green"",""hori"",""left"",[-106,106],[150,0]]",circle,green,hori,left,"[-106,106]","[150,0]",left,1,0.6787,,,,,,001,2025-03-10_16h52.29.087,SL_base,2021.2.3,Win32,59.88023952,,,8,0,8,0,1,,,,,,,,
,,"[""diamond"",""red"",""hori"",""left"",[0,-150],[-106,106]]",diamond,red,hori,left,"[0,-150]","[-106,106]",left,1,0.9567,,,,,,001,2025-03-10_16h52.29.087,SL_base,2021.2.3,Win32,59.88023952,,,9,0,9,0,1,,,,,,,,
,,"[""circle"",""red"",""vert"",""up"",[106,106],[106,-106]]",circle,red,vert,up,"[106,106]","[106,-106]",up,1,0.8031,,,,,,001,2025-03-10_16h52.29.087,SL_base,2021.2.3,Win32,59.88023952,,,10,0,10,0,1,,,,,,,,
,,"[""diamond"",""no_dis"",""vert"",""up"",[99999,99999],[106,-106]]",diamond,no_dis,vert,up,"[99999,99999]","[106,-106]",up,1,0.808,,,,,,001,2025-03-10_16h52.29.087,SL_base,2021.2.3,Win32,59.88023952,,,11,0,11,0,1,,,,,,,,
,,"[""diamond"",""green"",""vert"",""up"",[0,-150],[-106,-106]]",diamond,green,vert,up,"[0,-150]","[-106,-106]",up,1,1.3558,,,,,,001,2025-03-10_16h52.29.087,SL_base,2021.2.3,Win32,59.88023952,,,12,0,12,0,1,,,,,,,,
,,"[""diamond"",""red"",""vert"",""up"",[0,-150],[-106,106]]",diamond,red,vert,up,"[0,-150]","[-106,106]",up,1,0.796,,,,,,001,2025-03-10_16h52.29.087,SL_base,2021.2.3,Win32,59.88023952,,,13,0,13,0,1,,,,,,,,
,,"[""circle"",""no_dis"",""hori"",""left"",[99999,99999],[106,106]]",circle,no_dis,hori,left,"[99999,99999]","[106,106]",left,1,1.3337,,,,,,001,2025-03-10_16h52.29.087,SL_base,2021.2.3,Win32,59.88023952,,,14,0,14,0,1,,,,,,,,
,,"[""circle"",""red"",""hori"",""left"",[106,106],[-106,-106]]",circle,red,hori,left,"[106,106]","[-106,-106]",left,1,0.7397,,,,,,001,2025-03-10_16h52.29.087,SL_base,2021.2.3,Win32,59.88023952,,,15,0,15,0,1,,,,,,,,
,,"[""diamond"",""green"",""vert"",""up"",[150,0],[106,-106]]",diamond,green,vert,up,"[150,0]","[106,-106]",up,1,0.9168,,,,,,001,2025-03-10_16h52.29.087,SL_base,2021.2.3,Win32,59.88023952,,,16,0,16,0,1,,,,,,,,
,,"[""circle"",""red"",""hori"",""left"",[-106,-106],[0,150]]",circle,red,hori,left,"[-106,-106]","[0,150]",left,1,0.8508,,,,,,001,2025-03-10_16h52.29.087,SL_base,2021.2.3,Win32,59.88023952,,,17,0,17,0,1,,,,,,,,
,,"[""circle"",""no_dis"",""vert"",""up"",[99999,99999],[-106,-106]]",circle,no_dis,vert,up,"[99999,99999]","[-106,-106]",up,1,0.7467,,,,,,001,2025-03-10_16h52.29.087,SL_base,2021.2.3,Win32,59.88023952,,,18,0,18,0,1,,,,,,,,
,,"[""diamond"",""red"",""vert"",""up"",[150,0],[-106,-106]]",diamond,red,vert,up,"[150,0]","[-106,-106]",up,1,0.8668,,,,,,001,2025-03-10_16h52.29.087,SL_base,2021.2.3,Win32,59.88023952,,,19,0,19,0,1,,,,,,,,
,,"[""circle"",""green"",""vert"",""up"",[0,-150],[-106,-106]]",circle,green,vert,up,"[0,-150]","[-106,-106]",up,1,1.0667,,,,,,001,2025-03-10_16h52.29.087,SL_base,2021.2.3,Win32,59.88023952,,,20,0,20,0,1,,,,,,,,
,,"[""circle"",""red"",""hori"",""left"",[-106,-106],[-150,0]]",circle,red,hori,left,"[-106,-106]","[-150,0]",up,0,0.9672,,,,,,001,2025-03-10_16h52.29.087,SL_base,2021.2.3,Win32,59.88023952,,,21,0,21,0,1,,,,,,,,
,,"[""circle"",""no_dis"",""hori"",""left"",[99999,99999],[-150,0]]",circle,no_dis,hori,left,"[99999,99999]","[-150,0]",left,1,1.897,,,,,,001,2025-03-10_16h52.29.087,SL_base,2021.2.3,Win32,59.88023952,,,22,0,22,0,1,,,,,,,,
,,"[""circle"",""red"",""hori"",""left"",[-106,-106],[-150,0]]",circle,red,hori,left,"[-106,-106]","[-150,0]",left,1,2.1348,,,,,,001,2025-03-10_16h52.29.087,SL_base,2021.2.3,Win32,59.88023952,,,23,0,23,0,1,,,,,,,,
,,"[""circle"",""no_dis"",""vert"",""up"",[99999,99999],[0,150]]",circle,no_dis,vert,up,"[99999,99999]","[0,150]",up,1,0.85,,,,,,001,2025-03-10_16h52.29.087,SL_base,2021.2.3,Win32,59.88023952,,,24,0,24,0,1,,,,,,,,
,,"[""diamond"",""red"",""hori"",""left"",[0,150],[150,0]]",diamond,red,hori,left,"[0,150]","[150,0]",left,1,1.2506,,,,,,001,2025-03-10_16h52.29.087,SL_base,2021.2.3,Win32,59.88023952,,,25,0,25,0,1,,,,,,,,
,,"[""diamond"",""green"",""hori"",""left"",[0,150],[-106,106]]",diamond,green,hori,left,"[0,150]","[-106,106]",left,1,1.1335,,,,,,001,2025-03-10_16h52.29.087,SL_base,2021.2.3,Win32,59.88023952,,,26,0,26,0,1,,,,,,,,
,,"[""diamond"",""green"",""vert"",""up"",[150,0],[-106,106]]",diamond,green,vert,up,"[150,0]","[-106,106]",up,1,0.9275,,,,,,001,2025-03-10_16h52.29.087,SL_base,2021.2.3,Win32,59.88023952,,,27,0,27,0,1,,,,,,,,
,,"[""circle"",""green"",""vert"",""up"",[0,150],[150,0]]",circle,green,vert,up,"[0,150]","[150,0]",up,1,1.6333,,,,,,001,2025-03-10_16h52.29.087,SL_base,2021.2.3,Win32,59.88023952,,,28,0,28,0,1,,,,,,,,
,,"[""diamond"",""no_dis"",""hori"",""left"",[99999,99999],[-106,-106]]",diamond,no_dis,hori,left,"[99999,99999]","[-106,-106]",left,1,0.8385,,,,,,001,2025-03-10_16h52.29.087,SL_base,2021.2.3,Win32,59.88023952,,,29,0,29,0,1,,,,,,,,
,,"[""diamond"",""red"",""vert"",""up"",[106,-106],[0,-150]]",diamond,red,vert,up,"[106,-106]","[0,-150]",up,1,0.9499,,,,,,001,2025-03-10_16h52.29.087,SL_base,2021.2.3,Win32,59.88023952,,,30,0,30,0,1,,,,,,,,
,,"[""diamond"",""green"",""hori"",""left"",[0,-150],[-106,106]]",diamond,green,hori,left,"[0,-150]","[-106,106]",left,1,1.1572,,,,,,001,2025-03-10_16h52.29.087,SL_base,2021.2.3,Win32,59.88023952,,,31,0,31,0,1,,,,,,,,
,,"[""circle"",""green"",""vert"",""up"",[0,-150],[-106,-106]]",circle,green,vert,up,"[0,-150]","[-106,-106]",up,1,1.1835,,,,,,001,2025-03-10_16h52.29.087,SL_base,2021.2.3,Win32,59.88023952,,,32,0,32,0,1,,,,,,,,
,,"[""diamond"",""no_dis"",""vert"",""up"",[99999,99999],[106,106]]",diamond,no_dis,vert,up,"[99999,99999]","[106,106]",up,1,0.8498,,,,,,001,2025-03-10_16h52.29.087,SL_base,2021.2.3,Win32,59.88023952,,,33,0,33,0,1,,,,,,,,
,,"[""diamond"",""red"",""vert"",""up"",[-106,106],[150,0]]",diamond,red,vert,up,"[-106,106]","[150,0]",up,1,0.8071,,,,,,001,2025-03-10_16h52.29.087,SL_base,2021.2.3,Win32,59.88023952,,,34,0,34,0,1,,,,,,,,
,,"[""circle"",""red"",""vert"",""up"",[0,-150],[-106,106]]",circle,red,vert,up,"[0,-150]","[-106,106]",up,1,0.9003,,,,,,001,2025-03-10_16h52.29.087,SL_base,2021.2.3,Win32,59.88023952,,,35,0,35,0,1,,,,,,,,
,,"[""diamond"",""red"",""vert"",""up"",[106,-106],[0,150]]",diamond,red,vert,up,"[106,-106]","[0,150]",left,0,1.5502,,,,,,001,2025-03-10_16h52.29.087,SL_base,2021.2.3,Win32,59.88023952,,,36,0,36,0,1,,,,,,,,
,,"[""diamond"",""green"",""vert"",""up"",[0,-150],[106,106]]",diamond,green,vert,up,"[0,-150]","[106,106]",up,1,1.1353,,,,,,001,2025-03-10_16h52.29.087,SL_base,2021.2.3,Win32,59.88023952,,,37,0,37,0,1,,,,,,,,
,,"[""diamond"",""green"",""vert"",""up"",[0,-150],[106,106]]",diamond,green,vert,up,"[0,-150]","[106,106]",up,1,0.8024,,,,,,001,2025-03-10_16h52.29.087,SL_base,2021.2.3,Win32,59.88023952,,,38,0,38,0,1,,,,,,,,
,,"[""diamond"",""red"",""hori"",""left"",[0,-150],[-106,106]]",diamond,red,hori,left,"[0,-150]","[-106,106]",left,1,0.7675,,,,,,001,2025-03-10_16h52.29.087,SL_base,2021.2.3,Win32,59.88023952,,,39,0,39,0,1,,,,,,,,
,,"[""diamond"",""no_dis"",""vert"",""up"",[99999,99999],[-150,0]]",diamond,no_dis,vert,up,"[99999,99999]","[-150,0]",up,1,0.7597,,,,,,001,2025-03-10_16h52.29.087,SL_base,2021.2.3,Win32,59.88023952,,,40,0,40,0,1,,,,,,,,
,,"[""circle"",""green"",""hori"",""left"",[0,150],[-106,106]]",circle,green,hori,left,"[0,150]","[-106,106]",left,1,1.0504,,,,,,001,2025-03-10_16h52.29.087,SL_base,2021.2.3,Win32,59.88023952,,,41,0,41,0,1,,,,,,,,
,,"[""circle"",""no_dis"",""vert"",""up"",[99999,99999],[-150,0]]",circle,no_dis,vert,up,"[99999,99999]","[-150,0]",up,1,0.8351,,,,,,001,2025-03-10_16h52.29.087,SL_base,2021.2.3,Win32,59.88023952,,,42,0,42,0,1,,,,,,,,
,,"[""diamond"",""red"",""vert"",""up"",[0,150],[106,106]]",diamond,red,vert,up,"[0,150]","[106,106]",up,1,0.8832,,,,,,001,2025-03-10_16h52.29.087,SL_base,2021.2.3,Win32,59.88023952,,,43,0,43,0,1,,,,,,,,
,,"[""diamond"",""no_dis"",""hori"",""left"",[99999,99999],[-150,0]]",diamond,no_dis,hori,left,"[99999,99999]","[-150,0]",left,1,0.75,,,,,,001,2025-03-10_16h52.29.087,SL_base,2021.2.3,Win32,59.88023952,,,44,0,44,0,1,,,,,,,,
,,"[""diamond"",""no_dis"",""vert"",""up"",[99999,99999],[0,150]]",diamond,no_dis,vert,up,"[99999,99999]","[0,150]",up,1,0.6335,,,,,,001,2025-03-10_16h52.29.087,SL_base,2021.2.3,Win32,59.88023952,,,45,0,45,0,1,,,,,,,,
,,"[""circle"",""red"",""vert"",""up"",[150,0],[0,-150]]",circle,red,vert,up,"[150,0]","[0,-150]",up,1,1.01,,,,,,001,2025-03-10_16h52.29.087,SL_base,2021.2.3,Win32,59.88023952,,,46,0,46,0,1,,,,,,,,
,,"[""diamond"",""no_dis"",""hori"",""left"",[99999,99999],[0,-150]]",diamond,no_dis,hori,left,"[99999,99999]","[0,-150]",left,1,0.867,,,,,,001,2025-03-10_16h52.29.087,SL_base,2021.2.3,Win32,59.88023952,,,47,0,47,0,1,,,,,,,,
,,"[""diamond"",""green"",""vert"",""up"",[0,-150],[150,0]]",diamond,green,vert,up,"[0,-150]","[150,0]",up,1,0.6121,,,,,,001,2025-03-10_16h52.29.087,SL_base,2021.2.3,Win32,59.88023952,,,48,0,48,0,1,,,,,,,,
,,"[""diamond"",""red"",""hori"",""left"",[-106,106],[0,-150]]",diamond,red,hori,left,"[-106,106]","[0,-150]",left,1,0.71,,,,,,001,2025-03-10_16h52.29.087,SL_base,2021.2.3,Win32,59.88023952,,,49,0,49,0,1,,,,,,,,
,,"[""circle"",""no_dis"",""hori"",""left"",[99999,99999],[106,-106]]",circle,no_dis,hori,left,"[99999,99999]","[106,-106]",left,1,0.6837,,,,,,001,2025-03-10_16h52.29.087,SL_base,2021.2.3,Win32,59.88023952,,,50,0,50,0,1,,,,,,,,
,,"[""circle"",""green"",""hori"",""left"",[0,-150],[-150,0]]",circle,green,hori,left,"[0,-150]","[-150,0]",left,1,0.7669,,,,,,001,2025-03-10_16h52.29.087,SL_base,2021.2.3,Win32,59.88023952,,,51,0,51,0,1,,,,,,,,
,,"[""circle"",""red"",""vert"",""up"",[0,150],[-106,-106]]",circle,red,vert,up,"[0,150]","[-106,-106]",up,1,0.8774,,,,,,001,2025-03-10_16h52.29.087,SL_base,2021.2.3,Win32,59.88023952,,,52,0,52,0,1,,,,,,,,
,,"[""diamond"",""green"",""hori"",""left"",[-150,0],[0,-150]]",diamond,green,hori,left,"[-150,0]","[0,-150]",left,1,1.3975,,,,,,001,2025-03-10_16h52.29.087,SL_base,2021.2.3,Win32,59.88023952,,,53,0,53,0,1,,,,,,,,
,,"[""circle"",""no_dis"",""vert"",""up"",[99999,99999],[0,-150]]",circle,no_dis,vert,up,"[99999,99999]","[0,-150]",up,1,1.6497,,,,,,001,2025-03-10_16h52.29.087,SL_base,2021.2.3,Win32,59.88023952,,,54,0,54,0,1,,,,,,,,
,,"[""circle"",""green"",""vert"",""up"",[106,-106],[-106,106]]",circle,green,vert,up,"[106,-106]","[-106,106]",up,1,1.023,,,,,,001,2025-03-10_16h52.29.087,SL_base,2021.2.3,Win32,59.88023952,,,55,0,55,0,1,,,,,,,,
,,"[""circle"",""no_dis"",""hori"",""left"",[99999,99999],[150,0]]",circle,no_dis,hori,left,"[99999,99999]","[150,0]",left,1,0.6911,,,,,,001,2025-03-10_16h52.29.087,SL_base,2021.2.3,Win32,59.88023952,,,56,0,56,0,1,,,,,,,,
,,"[""diamond"",""green"",""hori"",""left"",[106,106],[-106,106]]",diamond,green,hori,left,"[106,106]","[-106,106]",left,1,1.0278,,,,,,001,2025-03-10_16h52.29.087,SL_base,2021.2.3,Win32,59.88023952,,,57,0,57,0,1,,,,,,,,
,,"[""diamond"",""no_dis"",""hori"",""left"",[99999,99999],[150,0]]",diamond,no_dis,hori,left,"[99999,99999]","[150,0]",left,1,0.6837,,,,,,001,2025-03-10_16h52.29.087,SL_base,2021.2.3,Win32,59.88023952,,,58,0,58,0,1,,,,,,,,
,,"[""circle"",""green"",""vert"",""up"",[-106,106],[-150,0]]",circle,green,vert,up,"[-106,106]","[-150,0]",up,1,1.6024,,,,,,001,2025-03-10_16h52.29.087,SL_base,2021.2.3,Win32,59.88023952,,,59,0,59,0,1,,,,,,,,
,,"[""circle"",""red"",""hori"",""left"",[0,-150],[106,106]]",circle,red,hori,left,"[0,-150]","[106,106]",left,1,2.056,,,,,,001,2025-03-10_16h52.29.087,SL_base,2021.2.3,Win32,59.88023952,,,60,0,60,0,1,,,,,,,,
,,"[""circle"",""red"",""hori"",""left"",[106,106],[106,-106]]",circle,red,hori,left,"[106,106]","[106,-106]",left,1,1.1306,,,,,,001,2025-03-10_16h52.29.087,SL_base,2021.2.3,Win32,59.88023952,,,61,0,61,0,1,,,,,,,,
,,"[""circle"",""red"",""hori"",""left"",[0,-150],[106,106]]",circle,red,hori,left,"[0,-150]","[106,106]",left,1,1.8339,,,,,,001,2025-03-10_16h52.29.087,SL_base,2021.2.3,Win32,59.88023952,,,62,0,62,0,1,,,,,,,,
,,"[""circle"",""green"",""vert"",""up"",[-106,-106],[-150,0]]",circle,green,vert,up,"[-106,-106]","[-150,0]",up,1,1.0304,,,,,,001,2025-03-10_16h52.29.087,SL_base,2021.2.3,Win32,59.88023952,,,63,0,63,0,1,,,,,,,,
,,"[""circle"",""red"",""vert"",""up"",[-150,0],[0,150]]",circle,red,vert,up,"[-150,0]","[0,150]",up,1,0.9379,,,,,,001,2025-03-10_16h52.29.087,SL_base,2021.2.3,Win32,59.88023952,,,64,0,64,0,1,,,,,,,,
,,"[""diamond"",""no_dis"",""vert"",""up"",[99999,99999],[150,0]]",diamond,no_dis,vert,up,"[99999,99999]","[150,0]",up,1,1.0708,,,,,,001,2025-03-10_16h52.29.087,SL_base,2021.2.3,Win32,59.88023952,,,65,0,65,0,1,,,,,,,,
,,"[""circle"",""no_dis"",""vert"",""up"",[99999,99999],[-106,106]]",circle,no_dis,vert,up,"[99999,99999]","[-106,106]",up,1,0.9335,,,,,,001,2025-03-10_16h52.29.087,SL_base,2021.2.3,Win32,59.88023952,,,66,0,66,0,1,,,,,,,,
,,"[""circle"",""no_dis"",""vert"",""up"",[99999,99999],[0,-150]]",circle,no_dis,vert,up,"[99999,99999]","[0,-150]",up,1,1.25,,,,,,001,2025-03-10_16h52.29.087,SL_base,2021.2.3,Win32,59.88023952,,,67,0,67,0,1,,,,,,,,
,,"[""diamond"",""no_dis"",""vert"",""up"",[99999,99999],[-106,106]]",diamond,no_dis,vert,up,"[99999,99999]","[-106,106]",up,1,1.0211,,,,,,001,2025-03-10_16h52.29.087,SL_base,2021.2.3,Win32,59.88023952,,,68,0,68,0,1,,,,,,,,
,,"[""circle"",""no_dis"",""vert"",""up"",[99999,99999],[-106,-106]]",circle,no_dis,vert,up,"[99999,99999]","[-106,-106]",up,1,1.9937,,,,,,001,2025-03-10_16h52.29.087,SL_base,2021.2.3,Win32,59.88023952,,,69,0,69,0,1,,,,,,,,
,,"[""diamond"",""no_dis"",""vert"",""up"",[99999,99999],[0,150]]",diamond,no_dis,vert,up,"[99999,99999]","[0,150]",up,1,1.063,,,,,,001,2025-03-10_16h52.29.087,SL_base,2021.2.3,Win32,59.88023952,,,70,0,70,0,1,,,,,,,,
,,"[""diamond"",""green"",""hori"",""left"",[0,-150],[-150,0]]",diamond,green,hori,left,"[0,-150]","[-150,0]",left,1,1.9171,,,,,,001,2025-03-10_16h52.29.087,SL_base,2021.2.3,Win32,59.88023952,,,71,0,71,0,1,,,,,,,,
,,"[""diamond"",""green"",""vert"",""up"",[-150,0],[0,150]]",diamond,green,vert,up,"[-150,0]","[0,150]",up,1,0.9644,,,,,,001,2025-03-10_16h52.29.087,SL_base,2021.2.3,Win32,59.88023952,,,72,0,72,0,1,,,,,,,,
,,"[""circle"",""no_dis"",""vert"",""up"",[99999,99999],[-106,106]]",circle,no_dis,vert,up,"[99999,99999]","[-106,106]",up,1,1.1017,,,,,,001,2025-03-10_16h52.29.087,SL_base,2021.2.3,Win32,59.88023952,,,73,0,73,0,1,,,,,,,,
,,"[""circle"",""no_dis"",""hori"",""left"",[99999,99999],[106,-106]]",circle,no_dis,hori,left,"[99999,99999]","[106,-106]",left,1,1.0344,,,,,,001,2025-03-10_16h52.29.087,SL_base,2021.2.3,Win32,59.88023952,,,74,0,74,0,1,,,,,,,,
,,"[""diamond"",""no_dis"",""vert"",""up"",[99999,99999],[150,0]]",diamond,no_dis,vert,up,"[99999,99999]","[150,0]",up,1,0.9171,,,,,,001,2025-03-10_16h52.29.087,SL_base,2021.2.3,Win32,59.88023952,,,75,0,75,0,1,,,,,,,,
,,"[""circle"",""green"",""hori"",""left"",[150,0],[-106,106]]",circle,green,hori,left,"[150,0]","[-106,106]",left,1,0.9669,,,,,,001,2025-03-10_16h52.29.087,SL_base,2021.2.3,Win32,59.88023952,,,76,0,76,0,1,,,,,,,,
,,"[""diamond"",""no_dis"",""hori"",""left"",[99999,99999],[106,-106]]",diamond,no_dis,hori,left,"[99999,99999]","[106,-106]",left,1,1.1503,,,,,,001,2025-03-10_16h52.29.087,SL_base,2021.2.3,Win32,59.88023952,,,77,0,77,0,1,,,,,,,,
,,"[""circle"",""red"",""hori"",""left"",[0,-150],[0,150]]",circle,red,hori,left,"[0,-150]","[0,150]",left,1,1.8124,,,,,,001,2025-03-10_16h52.29.087,SL_base,2021.2.3,Win32,59.88023952,,,78,0,78,0,1,,,,,,,,
,,"[""diamond"",""red"",""hori"",""left"",[106,-106],[-106,-106]]",diamond,red,hori,left,"[106,-106]","[-106,-106]",left,1,1.417,,,,,,001,2025-03-10_16h52.29.087,SL_base,2021.2.3,Win32,59.88023952,,,79,0,79,0,1,,,,,,,,
,,"[""circle"",""green"",""vert"",""up"",[106,-106],[-106,-106]]",circle,green,vert,up,"[106,-106]","[-106,-106]",left,0,0.7839,,,,,,001,2025-03-10_16h52.29.087,SL_base,2021.2.3,Win32,59.88023952,,,80,0,80,0,1,,,,,,,,
,,"[""diamond"",""no_dis"",""hori"",""left"",[99999,99999],[0,-150]]",diamond,no_dis,hori,left,"[99999,99999]","[0,-150]",left,1,0.7024,,,,,,001,2025-03-10_16h52.29.087,SL_base,2021.2.3,Win32,59.88023952,,,81,0,81,0,1,,,,,,,,
,,"[""circle"",""no_dis"",""hori"",""left"",[99999,99999],[0,150]]",circle,no_dis,hori,left,"[99999,99999]","[0,150]",left,1,1.5002,,,,,,001,2025-03-10_16h52.29.087,SL_base,2021.2.3,Win32,59.88023952,,,82,0,82,0,1,,,,,,,,
,,"[""circle"",""red"",""vert"",""up"",[106,106],[106,-106]]",circle,red,vert,up,"[106,106]","[106,-106]",up,1,1.2916,,,,,,001,2025-03-10_16h52.29.087,SL_base,2021.2.3,Win32,59.88023952,,,83,0,83,0,1,,,,,,,,
,,"[""diamond"",""no_dis"",""hori"",""left"",[99999,99999],[-150,0]]",diamond,no_dis,hori,left,"[99999,99999]","[-150,0]",left,1,0.7085,,,,,,001,2025-03-10_16h52.29.087,SL_base,2021.2.3,Win32,59.88023952,,,84,0,84,0,1,,,,,,,,
,,"[""diamond"",""green"",""hori"",""left"",[-150,0],[150,0]]",diamond,green,hori,left,"[-150,0]","[150,0]",left,1,0.8619,,,,,,001,2025-03-10_16h52.29.087,SL_base,2021.2.3,Win32,59.88023952,,,85,0,85,0,1,,,,,,,,
,,"[""diamond"",""red"",""vert"",""up"",[150,0],[0,-150]]",diamond,red,vert,up,"[150,0]","[0,-150]",up,1,0.9001,,,,,,001,2025-03-10_16h52.29.087,SL_base,2021.2.3,Win32,59.88023952,,,86,0,86,0,1,,,,,,,,
,,"[""circle"",""red"",""vert"",""up"",[150,0],[0,150]]",circle,red,vert,up,"[150,0]","[0,150]",up,1,0.8501,,,,,,001,2025-03-10_16h52.29.087,SL_base,2021.2.3,Win32,59.88023952,,,87,0,87,0,1,,,,,,,,
,,"[""diamond"",""red"",""hori"",""left"",[-150,0],[0,150]]",diamond,red,hori,left,"[-150,0]","[0,150]",left,1,0.8357,,,,,,001,2025-03-10_16h52.29.087,SL_base,2021.2.3,Win32,59.88023952,,,88,0,88,0,1,,,,,,,,
,,"[""diamond"",""green"",""hori"",""left"",[0,150],[0,-150]]",diamond,green,hori,left,"[0,150]","[0,-150]",left,1,0.7506,,,,,,001,2025-03-10_16h52.29.087,SL_base,2021.2.3,Win32,59.88023952,,,89,0,89,0,1,,,,,,,,
