﻿key_resp.keys,key_resp.rt,trial_para,tar_shape,dis_color_condi,tar_line,cor_resp,dis_loc,tar_loc,resp.keys,resp.corr,trials.thisRepN,trials.thisTrialN,trials.thisN,trials.thisIndex,trials.ran,participant,date,expName,psychopyVersion,OS,frameRate,resp.rt,key_resp_2.keys,key_resp_2.rt,trials_2.thisRepN,trials_2.thisTrialN,trials_2.thisN,trials_2.thisIndex,trials_2.ran,block_num,key_resp_3.keys,key_resp_3.rt,trials_3.thisRepN,trials_3.thisTrialN,trials_3.thisN,trials_3.thisIndex,trials_3.ran
space,44.916,"[""circle"",""no_dis"",""hori"",""left"",[99999,99999],[0,-150]]",circle,no_dis,hori,left,"[99999,99999]","[0,-150]",,0,0,0,0,0,1,001,2025-03-17_14h58.18.021,SL_base,2021.2.3,Win32,60.32454606,,,,,,,,,,,,,,,,
,,"[""diamond"",""no_dis"",""vert"",""up"",[99999,99999],[150,0]]",diamond,no_dis,vert,up,"[99999,99999]","[150,0]",up,1,1,0,1,0,1,001,2025-03-17_14h58.18.021,SL_base,2021.2.3,Win32,60.32454606,2.1171,,,,,,,,,,,,,,,
,,"[""diamond"",""red"",""hori"",""left"",[-150,0],[106,-106]]",diamond,red,hori,left,"[-150,0]","[106,-106]",left,1,2,0,2,0,1,001,2025-03-17_14h58.18.021,SL_base,2021.2.3,Win32,60.32454606,1.4753,,,,,,,,,,,,,,,
,,"[""circle"",""green"",""vert"",""up"",[106,106],[-150,0]]",circle,green,vert,up,"[106,106]","[-150,0]",up,1,3,0,3,0,1,001,2025-03-17_14h58.18.021,SL_base,2021.2.3,Win32,60.32454606,2.2924,,,,,,,,,,,,,,,
,,"[""circle"",""green"",""hori"",""left"",[0,150],[106,-106]]",circle,green,hori,left,"[0,150]","[106,-106]",left,1,4,0,4,0,1,001,2025-03-17_14h58.18.021,SL_base,2021.2.3,Win32,60.32454606,1.6689,,,,,,,,,,,,,,,
,,"[""diamond"",""red"",""vert"",""up"",[106,106],[0,150]]",diamond,red,vert,up,"[106,106]","[0,150]",up,1,5,0,5,0,1,001,2025-03-17_14h58.18.021,SL_base,2021.2.3,Win32,60.32454606,1.5015,,,,,,,,,,,,,,,
,,"[""diamond"",""green"",""vert"",""up"",[106,106],[-106,-106]]",diamond,green,vert,up,"[106,106]","[-106,-106]",up,1,6,0,6,0,1,001,2025-03-17_14h58.18.021,SL_base,2021.2.3,Win32,60.32454606,2.2286,,,,,,,,,,,,,,,
,,"[""circle"",""red"",""vert"",""up"",[-106,106],[106,106]]",circle,red,vert,up,"[-106,106]","[106,106]",up,1,7,0,7,0,1,001,2025-03-17_14h58.18.021,SL_base,2021.2.3,Win32,60.32454606,2.0311,,,,,,,,,,,,,,,
,,"[""circle"",""no_dis"",""hori"",""left"",[99999,99999],[106,-106]]",circle,no_dis,hori,left,"[99999,99999]","[106,-106]",left,1,8,0,8,0,1,001,2025-03-17_14h58.18.021,SL_base,2021.2.3,Win32,60.32454606,1.1811,,,,,,,,,,,,,,,
,,"[""diamond"",""green"",""hori"",""left"",[-150,0],[-106,106]]",diamond,green,hori,left,"[-150,0]","[-106,106]",left,1,9,0,9,0,1,001,2025-03-17_14h58.18.021,SL_base,2021.2.3,Win32,60.32454606,2.4313,,,,,,,,,,,,,,,
,,"[""circle"",""no_dis"",""hori"",""left"",[99999,99999],[0,-150]]",circle,no_dis,hori,left,"[99999,99999]","[0,-150]",left,1,,,,,,001,2025-03-17_14h58.18.021,SL_base,2021.2.3,Win32,60.32454606,1.8495,space,5.1403,0,0,0,0,1,,,,,,,,
,,"[""diamond"",""no_dis"",""vert"",""up"",[99999,99999],[150,0]]",diamond,no_dis,vert,up,"[99999,99999]","[150,0]",up,1,,,,,,001,2025-03-17_14h58.18.021,SL_base,2021.2.3,Win32,60.32454606,1.744,,,1,0,1,0,1,,,,,,,,
,,"[""diamond"",""red"",""hori"",""left"",[-150,0],[106,-106]]",diamond,red,hori,left,"[-150,0]","[106,-106]",left,1,,,,,,001,2025-03-17_14h58.18.021,SL_base,2021.2.3,Win32,60.32454606,2.0665,,,2,0,2,0,1,,,,,,,,
,,"[""circle"",""green"",""vert"",""up"",[106,106],[-150,0]]",circle,green,vert,up,"[106,106]","[-150,0]",up,1,,,,,,001,2025-03-17_14h58.18.021,SL_base,2021.2.3,Win32,60.32454606,1.5683,,,3,0,3,0,1,,,,,,,,
,,"[""circle"",""green"",""hori"",""left"",[0,150],[106,-106]]",circle,green,hori,left,"[0,150]","[106,-106]",left,1,,,,,,001,2025-03-17_14h58.18.021,SL_base,2021.2.3,Win32,60.32454606,1.6395,,,4,0,4,0,1,,,,,,,,
,,"[""diamond"",""red"",""vert"",""up"",[106,106],[0,150]]",diamond,red,vert,up,"[106,106]","[0,150]",up,1,,,,,,001,2025-03-17_14h58.18.021,SL_base,2021.2.3,Win32,60.32454606,1.2981,,,5,0,5,0,1,,,,,,,,
,,"[""diamond"",""green"",""vert"",""up"",[106,106],[-106,-106]]",diamond,green,vert,up,"[106,106]","[-106,-106]",up,1,,,,,,001,2025-03-17_14h58.18.021,SL_base,2021.2.3,Win32,60.32454606,1.6137,,,6,0,6,0,1,,,,,,,,
,,"[""circle"",""red"",""vert"",""up"",[-106,106],[106,106]]",circle,red,vert,up,"[-106,106]","[106,106]",up,1,,,,,,001,2025-03-17_14h58.18.021,SL_base,2021.2.3,Win32,60.32454606,1.8734,,,7,0,7,0,1,,,,,,,,
,,"[""circle"",""no_dis"",""hori"",""left"",[99999,99999],[106,-106]]",circle,no_dis,hori,left,"[99999,99999]","[106,-106]",left,1,,,,,,001,2025-03-17_14h58.18.021,SL_base,2021.2.3,Win32,60.32454606,1.7549,,,8,0,8,0,1,,,,,,,,
,,"[""diamond"",""green"",""hori"",""left"",[-150,0],[-106,106]]",diamond,green,hori,left,"[-150,0]","[-106,106]",left,1,,,,,,001,2025-03-17_14h58.18.021,SL_base,2021.2.3,Win32,60.32454606,2.387,,,9,0,9,0,1,,,,,,,,
,,"[""circle"",""no_dis"",""hori"",""left"",[99999,99999],[0,150]]",circle,no_dis,hori,left,"[99999,99999]","[0,150]",left,1,,,,,,001,2025-03-17_14h58.18.021,SL_base,2021.2.3,Win32,60.32454606,1.7644,,,10,0,10,0,1,,,,,,,,
,,"[""diamond"",""no_dis"",""vert"",""up"",[99999,99999],[-106,-106]]",diamond,no_dis,vert,up,"[99999,99999]","[-106,-106]",up,1,,,,,,001,2025-03-17_14h58.18.021,SL_base,2021.2.3,Win32,60.32454606,1.9943,,,11,0,11,0,1,,,,,,,,
,,"[""circle"",""no_dis"",""vert"",""up"",[99999,99999],[106,106]]",circle,no_dis,vert,up,"[99999,99999]","[106,106]",up,1,,,,,,001,2025-03-17_14h58.18.021,SL_base,2021.2.3,Win32,60.32454606,1.7676,,,12,0,12,0,1,,,,,,,,
,,"[""circle"",""green"",""vert"",""up"",[106,106],[150,0]]",circle,green,vert,up,"[106,106]","[150,0]",up,1,,,,,,001,2025-03-17_14h58.18.021,SL_base,2021.2.3,Win32,60.32454606,2.0173,,,13,0,13,0,1,,,,,,,,
,,"[""diamond"",""red"",""hori"",""left"",[106,106],[-106,-106]]",diamond,red,hori,left,"[106,106]","[-106,-106]",left,1,,,,,,001,2025-03-17_14h58.18.021,SL_base,2021.2.3,Win32,60.32454606,1.8775,,,14,0,14,0,1,,,,,,,,
,,"[""diamond"",""green"",""vert"",""up"",[-106,-106],[150,0]]",diamond,green,vert,up,"[-106,-106]","[150,0]",up,1,,,,,,001,2025-03-17_14h58.18.021,SL_base,2021.2.3,Win32,60.32454606,1.9946,,,15,0,15,0,1,,,,,,,,
,,"[""diamond"",""green"",""hori"",""left"",[106,-106],[0,-150]]",diamond,green,hori,left,"[106,-106]","[0,-150]",left,1,,,,,,001,2025-03-17_14h58.18.021,SL_base,2021.2.3,Win32,60.32454606,1.6578,,,16,0,16,0,1,,,,,,,,
,,"[""circle"",""green"",""hori"",""left"",[-150,0],[106,-106]]",circle,green,hori,left,"[-150,0]","[106,-106]",left,1,,,,,,001,2025-03-17_14h58.18.021,SL_base,2021.2.3,Win32,60.32454606,2.2299,,,17,0,17,0,1,,,,,,,,
,,"[""circle"",""no_dis"",""hori"",""left"",[99999,99999],[0,-150]]",circle,no_dis,hori,left,"[99999,99999]","[0,-150]",,0,,,,,,001,2025-03-17_14h58.18.021,SL_base,2021.2.3,Win32,60.32454606,,,,18,0,18,0,1,,,,,,,,
,,"[""circle"",""green"",""vert"",""up"",[0,150],[0,-150]]",circle,green,vert,up,"[0,150]","[0,-150]",,0,,,,,,001,2025-03-17_14h58.18.021,SL_base,2021.2.3,Win32,60.32454606,,,,19,0,19,0,1,,,,,,,,
,,"[""circle"",""green"",""hori"",""left"",[-106,106],[-150,0]]",circle,green,hori,left,"[-106,106]","[-150,0]",,0,,,,,,001,2025-03-17_14h58.18.021,SL_base,2021.2.3,Win32,60.32454606,,,,20,0,20,0,1,,,,,,,,
,,"[""diamond"",""green"",""hori"",""left"",[0,150],[-106,-106]]",diamond,green,hori,left,"[0,150]","[-106,-106]",up,0,,,,,,001,2025-03-17_14h58.18.021,SL_base,2021.2.3,Win32,60.32454606,2.3601,,,21,0,21,0,1,,,,,,,,
,,"[""circle"",""no_dis"",""vert"",""up"",[99999,99999],[-150,0]]",circle,no_dis,vert,up,"[99999,99999]","[-150,0]",up,1,,,,,,001,2025-03-17_14h58.18.021,SL_base,2021.2.3,Win32,60.32454606,1.5296,,,22,0,22,0,1,,,,,,,,
,,"[""circle"",""green"",""hori"",""left"",[0,-150],[-106,-106]]",circle,green,hori,left,"[0,-150]","[-106,-106]",left,1,,,,,,001,2025-03-17_14h58.18.021,SL_base,2021.2.3,Win32,60.32454606,1.5822,,,23,0,23,0,1,,,,,,,,
,,"[""circle"",""red"",""vert"",""up"",[106,106],[0,150]]",circle,red,vert,up,"[106,106]","[0,150]",left,0,,,,,,001,2025-03-17_14h58.18.021,SL_base,2021.2.3,Win32,60.32454606,2.332,,,24,0,24,0,1,,,,,,,,
,,"[""circle"",""green"",""vert"",""up"",[106,106],[-150,0]]",circle,green,vert,up,"[106,106]","[-150,0]",up,1,,,,,,001,2025-03-17_14h58.18.021,SL_base,2021.2.3,Win32,60.32454606,1.8896,,,25,0,25,0,1,,,,,,,,
,,"[""diamond"",""red"",""hori"",""left"",[0,-150],[0,150]]",diamond,red,hori,left,"[0,-150]","[0,150]",left,1,,,,,,001,2025-03-17_14h58.18.021,SL_base,2021.2.3,Win32,60.32454606,2.338,,,26,0,26,0,1,,,,,,,,
,,"[""diamond"",""green"",""hori"",""left"",[106,106],[-150,0]]",diamond,green,hori,left,"[106,106]","[-150,0]",left,1,,,,,,001,2025-03-17_14h58.18.021,SL_base,2021.2.3,Win32,60.32454606,1.5698,,,27,0,27,0,1,,,,,,,,
,,"[""diamond"",""green"",""vert"",""up"",[-106,106],[106,-106]]",diamond,green,vert,up,"[-106,106]","[106,-106]",up,1,,,,,,001,2025-03-17_14h58.18.021,SL_base,2021.2.3,Win32,60.32454606,1.2994,,,28,0,28,0,1,,,,,,,,
,,"[""circle"",""no_dis"",""vert"",""up"",[99999,99999],[150,0]]",circle,no_dis,vert,up,"[99999,99999]","[150,0]",up,1,,,,,,001,2025-03-17_14h58.18.021,SL_base,2021.2.3,Win32,60.32454606,1.5299,,,29,0,29,0,1,,,,,,,,
,,"[""diamond"",""green"",""vert"",""up"",[106,106],[-106,106]]",diamond,green,vert,up,"[106,106]","[-106,106]",up,1,,,,,,001,2025-03-17_14h58.18.021,SL_base,2021.2.3,Win32,60.32454606,1.5163,,,30,0,30,0,1,,,,,,,,
,,"[""circle"",""red"",""hori"",""left"",[106,106],[-150,0]]",circle,red,hori,left,"[106,106]","[-150,0]",left,1,,,,,,001,2025-03-17_14h58.18.021,SL_base,2021.2.3,Win32,60.32454606,1.1531,,,31,0,31,0,1,,,,,,,,
,,"[""circle"",""green"",""vert"",""up"",[106,106],[0,150]]",circle,green,vert,up,"[106,106]","[0,150]",up,1,,,,,,001,2025-03-17_14h58.18.021,SL_base,2021.2.3,Win32,60.32454606,2.1089,,,32,0,32,0,1,,,,,,,,
,,"[""diamond"",""red"",""hori"",""left"",[106,106],[0,150]]",diamond,red,hori,left,"[106,106]","[0,150]",up,0,,,,,,001,2025-03-17_14h58.18.021,SL_base,2021.2.3,Win32,60.32454606,1.9829,,,33,0,33,0,1,,,,,,,,
,,"[""circle"",""red"",""vert"",""up"",[0,-150],[106,-106]]",circle,red,vert,up,"[0,-150]","[106,-106]",up,1,,,,,,001,2025-03-17_14h58.18.021,SL_base,2021.2.3,Win32,60.32454606,2.8378,,,34,0,34,0,1,,,,,,,,
,,"[""diamond"",""red"",""vert"",""up"",[0,-150],[-106,106]]",diamond,red,vert,up,"[0,-150]","[-106,106]",up,1,,,,,,001,2025-03-17_14h58.18.021,SL_base,2021.2.3,Win32,60.32454606,1.9643,,,35,0,35,0,1,,,,,,,,
,,"[""circle"",""green"",""vert"",""up"",[-106,106],[0,-150]]",circle,green,vert,up,"[-106,106]","[0,-150]",left,0,,,,,,001,2025-03-17_14h58.18.021,SL_base,2021.2.3,Win32,60.32454606,2.8301,,,36,0,36,0,1,,,,,,,,
,,"[""circle"",""no_dis"",""hori"",""left"",[99999,99999],[0,150]]",circle,no_dis,hori,left,"[99999,99999]","[0,150]",left,1,,,,,,001,2025-03-17_14h58.18.021,SL_base,2021.2.3,Win32,60.32454606,1.9523,,,37,0,37,0,1,,,,,,,,
,,"[""circle"",""green"",""hori"",""left"",[-106,-106],[106,-106]]",circle,green,hori,left,"[-106,-106]","[106,-106]",left,1,,,,,,001,2025-03-17_14h58.18.021,SL_base,2021.2.3,Win32,60.32454606,2.3312,,,38,0,38,0,1,,,,,,,,
,,"[""circle"",""red"",""hori"",""left"",[106,106],[-106,106]]",circle,red,hori,left,"[106,106]","[-106,106]",left,1,,,,,,001,2025-03-17_14h58.18.021,SL_base,2021.2.3,Win32,60.32454606,2.729,,,39,0,39,0,1,,,,,,,,
,,"[""circle"",""red"",""hori"",""left"",[106,106],[0,150]]",circle,red,hori,left,"[106,106]","[0,150]",left,1,,,,,,001,2025-03-17_14h58.18.021,SL_base,2021.2.3,Win32,60.32454606,2.01,,,40,0,40,0,1,,,,,,,,
,,"[""diamond"",""red"",""hori"",""left"",[-150,0],[0,150]]",diamond,red,hori,left,"[-150,0]","[0,150]",left,1,,,,,,001,2025-03-17_14h58.18.021,SL_base,2021.2.3,Win32,60.32454606,2.1304,,,41,0,41,0,1,,,,,,,,
,,"[""circle"",""red"",""vert"",""up"",[150,0],[0,-150]]",circle,red,vert,up,"[150,0]","[0,-150]",up,1,,,,,,001,2025-03-17_14h58.18.021,SL_base,2021.2.3,Win32,60.32454606,2.3501,,,42,0,42,0,1,,,,,,,,
,,"[""circle"",""no_dis"",""vert"",""up"",[99999,99999],[-106,106]]",circle,no_dis,vert,up,"[99999,99999]","[-106,106]",up,1,,,,,,001,2025-03-17_14h58.18.021,SL_base,2021.2.3,Win32,60.32454606,1.3672,,,43,0,43,0,1,,,,,,,,
,,"[""circle"",""green"",""hori"",""left"",[106,106],[-150,0]]",circle,green,hori,left,"[106,106]","[-150,0]",left,1,,,,,,001,2025-03-17_14h58.18.021,SL_base,2021.2.3,Win32,60.32454606,1.2689,,,44,0,44,0,1,,,,,,,,
,,"[""circle"",""no_dis"",""hori"",""left"",[99999,99999],[150,0]]",circle,no_dis,hori,left,"[99999,99999]","[150,0]",left,1,,,,,,001,2025-03-17_14h58.18.021,SL_base,2021.2.3,Win32,60.32454606,1.2751,,,45,0,45,0,1,,,,,,,,
,,"[""diamond"",""green"",""vert"",""up"",[0,150],[-106,106]]",diamond,green,vert,up,"[0,150]","[-106,106]",up,1,,,,,,001,2025-03-17_14h58.18.021,SL_base,2021.2.3,Win32,60.32454606,1.9133,,,46,0,46,0,1,,,,,,,,
,,"[""circle"",""no_dis"",""vert"",""up"",[99999,99999],[-106,106]]",circle,no_dis,vert,up,"[99999,99999]","[-106,106]",up,1,,,,,,001,2025-03-17_14h58.18.021,SL_base,2021.2.3,Win32,60.32454606,2.8294,,,47,0,47,0,1,,,,,,,,
,,"[""diamond"",""no_dis"",""hori"",""left"",[99999,99999],[106,106]]",diamond,no_dis,hori,left,"[99999,99999]","[106,106]",left,1,,,,,,001,2025-03-17_14h58.18.021,SL_base,2021.2.3,Win32,60.32454606,1.799,,,48,0,48,0,1,,,,,,,,
,,"[""circle"",""green"",""hori"",""left"",[106,-106],[0,150]]",circle,green,hori,left,"[106,-106]","[0,150]",left,1,,,,,,001,2025-03-17_14h58.18.021,SL_base,2021.2.3,Win32,60.32454606,1.8653,,,49,0,49,0,1,,,,,,,,
,,"[""diamond"",""green"",""hori"",""left"",[-150,0],[106,-106]]",diamond,green,hori,left,"[-150,0]","[106,-106]",left,1,,,,,,001,2025-03-17_14h58.18.021,SL_base,2021.2.3,Win32,60.32454606,1.7487,,,50,0,50,0,1,,,,,,,,
,,"[""circle"",""red"",""hori"",""left"",[0,150],[0,-150]]",circle,red,hori,left,"[0,150]","[0,-150]",left,1,,,,,,001,2025-03-17_14h58.18.021,SL_base,2021.2.3,Win32,60.32454606,2.0808,,,51,0,51,0,1,,,,,,,,
,,"[""circle"",""red"",""hori"",""left"",[150,0],[-106,106]]",circle,red,hori,left,"[150,0]","[-106,106]",left,1,,,,,,001,2025-03-17_14h58.18.021,SL_base,2021.2.3,Win32,60.32454606,1.702,,,52,0,52,0,1,,,,,,,,
,,"[""diamond"",""green"",""vert"",""up"",[106,-106],[0,-150]]",diamond,green,vert,up,"[106,-106]","[0,-150]",up,1,,,,,,001,2025-03-17_14h58.18.021,SL_base,2021.2.3,Win32,60.32454606,1.4002,,,53,0,53,0,1,,,,,,,,
,,"[""diamond"",""no_dis"",""hori"",""left"",[99999,99999],[-150,0]]",diamond,no_dis,hori,left,"[99999,99999]","[-150,0]",left,1,,,,,,001,2025-03-17_14h58.18.021,SL_base,2021.2.3,Win32,60.32454606,1.499,,,54,0,54,0,1,,,,,,,,
,,"[""diamond"",""no_dis"",""vert"",""up"",[99999,99999],[0,-150]]",diamond,no_dis,vert,up,"[99999,99999]","[0,-150]",up,1,,,,,,001,2025-03-17_14h58.18.021,SL_base,2021.2.3,Win32,60.32454606,1.2185,,,55,0,55,0,1,,,,,,,,
,,"[""diamond"",""red"",""vert"",""up"",[-106,-106],[106,-106]]",diamond,red,vert,up,"[-106,-106]","[106,-106]",up,1,,,,,,001,2025-03-17_14h58.18.021,SL_base,2021.2.3,Win32,60.32454606,2.1047,,,56,0,56,0,1,,,,,,,,
,,"[""diamond"",""green"",""hori"",""left"",[-106,-106],[0,-150]]",diamond,green,hori,left,"[-106,-106]","[0,-150]",left,1,,,,,,001,2025-03-17_14h58.18.021,SL_base,2021.2.3,Win32,60.32454606,2.1992,,,57,0,57,0,1,,,,,,,,
,,"[""circle"",""red"",""vert"",""up"",[150,0],[0,150]]",circle,red,vert,up,"[150,0]","[0,150]",up,1,,,,,,001,2025-03-17_14h58.18.021,SL_base,2021.2.3,Win32,60.32454606,2.258,,,58,0,58,0,1,,,,,,,,
,,"[""diamond"",""no_dis"",""vert"",""up"",[99999,99999],[-150,0]]",diamond,no_dis,vert,up,"[99999,99999]","[-150,0]",up,1,,,,,,001,2025-03-17_14h58.18.021,SL_base,2021.2.3,Win32,60.32454606,2.0487,,,59,0,59,0,1,,,,,,,,
,,"[""diamond"",""no_dis"",""vert"",""up"",[99999,99999],[106,106]]",diamond,no_dis,vert,up,"[99999,99999]","[106,106]",up,1,,,,,,001,2025-03-17_14h58.18.021,SL_base,2021.2.3,Win32,60.32454606,1.2158,,,60,0,60,0,1,,,,,,,,
,,"[""diamond"",""green"",""vert"",""up"",[150,0],[-150,0]]",diamond,green,vert,up,"[150,0]","[-150,0]",up,1,,,,,,001,2025-03-17_14h58.18.021,SL_base,2021.2.3,Win32,60.32454606,1.2976,,,61,0,61,0,1,,,,,,,,
,,"[""diamond"",""no_dis"",""hori"",""left"",[99999,99999],[0,-150]]",diamond,no_dis,hori,left,"[99999,99999]","[0,-150]",left,1,,,,,,001,2025-03-17_14h58.18.021,SL_base,2021.2.3,Win32,60.32454606,1.1321,,,62,0,62,0,1,,,,,,,,
,,"[""diamond"",""no_dis"",""hori"",""left"",[99999,99999],[0,150]]",diamond,no_dis,hori,left,"[99999,99999]","[0,150]",left,1,,,,,,001,2025-03-17_14h58.18.021,SL_base,2021.2.3,Win32,60.32454606,1.9493,,,63,0,63,0,1,,,,,,,,
,,"[""circle"",""green"",""vert"",""up"",[150,0],[-150,0]]",circle,green,vert,up,"[150,0]","[-150,0]",up,1,,,,,,001,2025-03-17_14h58.18.021,SL_base,2021.2.3,Win32,60.32454606,2.2502,,,64,0,64,0,1,,,,,,,,
,,"[""diamond"",""red"",""vert"",""up"",[0,-150],[0,150]]",diamond,red,vert,up,"[0,-150]","[0,150]",up,1,,,,,,001,2025-03-17_14h58.18.021,SL_base,2021.2.3,Win32,60.32454606,1.8237,,,65,0,65,0,1,,,,,,,,
,,"[""diamond"",""green"",""vert"",""up"",[0,-150],[-106,106]]",diamond,green,vert,up,"[0,-150]","[-106,106]",up,1,,,,,,001,2025-03-17_14h58.18.021,SL_base,2021.2.3,Win32,60.32454606,2.064,,,66,0,66,0,1,,,,,,,,
,,"[""diamond"",""green"",""hori"",""left"",[106,-106],[-150,0]]",diamond,green,hori,left,"[106,-106]","[-150,0]",left,1,,,,,,001,2025-03-17_14h58.18.021,SL_base,2021.2.3,Win32,60.32454606,2.3644,,,67,0,67,0,1,,,,,,,,
,,"[""circle"",""red"",""vert"",""up"",[106,106],[0,-150]]",circle,red,vert,up,"[106,106]","[0,-150]",up,1,,,,,,001,2025-03-17_14h58.18.021,SL_base,2021.2.3,Win32,60.32454606,2.1156,,,68,0,68,0,1,,,,,,,,
,,"[""diamond"",""no_dis"",""vert"",""up"",[99999,99999],[106,-106]]",diamond,no_dis,vert,up,"[99999,99999]","[106,-106]",up,1,,,,,,001,2025-03-17_14h58.18.021,SL_base,2021.2.3,Win32,60.32454606,2.0408,,,69,0,69,0,1,,,,,,,,
,,"[""circle"",""green"",""hori"",""left"",[-106,-106],[106,106]]",circle,green,hori,left,"[-106,-106]","[106,106]",left,1,,,,,,001,2025-03-17_14h58.18.021,SL_base,2021.2.3,Win32,60.32454606,2.3484,,,70,0,70,0,1,,,,,,,,
,,"[""diamond"",""no_dis"",""vert"",""up"",[99999,99999],[106,106]]",diamond,no_dis,vert,up,"[99999,99999]","[106,106]",up,1,,,,,,001,2025-03-17_14h58.18.021,SL_base,2021.2.3,Win32,60.32454606,1.1139,,,71,0,71,0,1,,,,,,,,
,,"[""diamond"",""red"",""vert"",""up"",[150,0],[-106,106]]",diamond,red,vert,up,"[150,0]","[-106,106]",up,1,,,,,,001,2025-03-17_14h58.18.021,SL_base,2021.2.3,Win32,60.32454606,1.9646,,,72,0,72,0,1,,,,,,,,
,,"[""circle"",""green"",""hori"",""left"",[106,-106],[-106,106]]",circle,green,hori,left,"[106,-106]","[-106,106]",left,1,,,,,,001,2025-03-17_14h58.18.021,SL_base,2021.2.3,Win32,60.32454606,1.6103,,,73,0,73,0,1,,,,,,,,
,,"[""circle"",""red"",""vert"",""up"",[106,106],[106,-106]]",circle,red,vert,up,"[106,106]","[106,-106]",,0,,,,,,001,2025-03-17_14h58.18.021,SL_base,2021.2.3,Win32,60.32454606,,,,74,0,74,0,1,,,,,,,,
,,"[""circle"",""red"",""vert"",""up"",[-150,0],[-106,106]]",circle,red,vert,up,"[-150,0]","[-106,106]",up,1,,,,,,001,2025-03-17_14h58.18.021,SL_base,2021.2.3,Win32,60.32454606,2.8302,,,75,0,75,0,1,,,,,,,,
,,"[""circle"",""no_dis"",""vert"",""up"",[99999,99999],[150,0]]",circle,no_dis,vert,up,"[99999,99999]","[150,0]",up,1,,,,,,001,2025-03-17_14h58.18.021,SL_base,2021.2.3,Win32,60.32454606,1.5975,,,76,0,76,0,1,,,,,,,,
,,"[""circle"",""green"",""vert"",""up"",[106,106],[0,150]]",circle,green,vert,up,"[106,106]","[0,150]",up,1,,,,,,001,2025-03-17_14h58.18.021,SL_base,2021.2.3,Win32,60.32454606,1.4467,,,77,0,77,0,1,,,,,,,,
,,"[""circle"",""green"",""vert"",""up"",[106,106],[-150,0]]",circle,green,vert,up,"[106,106]","[-150,0]",up,1,,,,,,001,2025-03-17_14h58.18.021,SL_base,2021.2.3,Win32,60.32454606,2.2892,,,78,0,78,0,1,,,,,,,,
,,"[""diamond"",""green"",""vert"",""up"",[-106,106],[-106,-106]]",diamond,green,vert,up,"[-106,106]","[-106,-106]",up,1,,,,,,001,2025-03-17_14h58.18.021,SL_base,2021.2.3,Win32,60.32454606,1.2496,,,79,0,79,0,1,,,,,,,,
,,"[""circle"",""no_dis"",""vert"",""up"",[99999,99999],[-106,-106]]",circle,no_dis,vert,up,"[99999,99999]","[-106,-106]",up,1,,,,,,001,2025-03-17_14h58.18.021,SL_base,2021.2.3,Win32,60.32454606,1.2189,,,80,0,80,0,1,,,,,,,,
,,"[""diamond"",""red"",""hori"",""left"",[0,150],[106,-106]]",diamond,red,hori,left,"[0,150]","[106,-106]",left,1,,,,,,001,2025-03-17_14h58.18.021,SL_base,2021.2.3,Win32,60.32454606,2.2306,,,81,0,81,0,1,,,,,,,,
,,"[""circle"",""red"",""hori"",""left"",[-150,0],[0,150]]",circle,red,hori,left,"[-150,0]","[0,150]",left,1,,,,,,001,2025-03-17_14h58.18.021,SL_base,2021.2.3,Win32,60.32454606,2.2721,,,82,0,82,0,1,,,,,,,,
,,"[""diamond"",""red"",""vert"",""up"",[106,106],[106,-106]]",diamond,red,vert,up,"[106,106]","[106,-106]",up,1,,,,,,001,2025-03-17_14h58.18.021,SL_base,2021.2.3,Win32,60.32454606,1.3979,,,83,0,83,0,1,,,,,,,,
,,"[""diamond"",""no_dis"",""hori"",""left"",[99999,99999],[106,-106]]",diamond,no_dis,hori,left,"[99999,99999]","[106,-106]",left,1,,,,,,001,2025-03-17_14h58.18.021,SL_base,2021.2.3,Win32,60.32454606,1.6842,,,84,0,84,0,1,,,,,,,,
,,"[""diamond"",""red"",""hori"",""left"",[0,-150],[-150,0]]",diamond,red,hori,left,"[0,-150]","[-150,0]",left,1,,,,,,001,2025-03-17_14h58.18.021,SL_base,2021.2.3,Win32,60.32454606,1.3514,,,85,0,85,0,1,,,,,,,,
,,"[""circle"",""no_dis"",""vert"",""up"",[99999,99999],[150,0]]",circle,no_dis,vert,up,"[99999,99999]","[150,0]",up,1,,,,,,001,2025-03-17_14h58.18.021,SL_base,2021.2.3,Win32,60.32454606,2.0813,,,86,0,86,0,1,,,,,,,,
,,"[""circle"",""red"",""hori"",""left"",[0,-150],[106,106]]",circle,red,hori,left,"[0,-150]","[106,106]",up,0,,,,,,001,2025-03-17_14h58.18.021,SL_base,2021.2.3,Win32,60.32454606,2.0653,,,87,0,87,0,1,,,,,,,,
,,"[""diamond"",""no_dis"",""hori"",""left"",[99999,99999],[-106,106]]",diamond,no_dis,hori,left,"[99999,99999]","[-106,106]",left,1,,,,,,001,2025-03-17_14h58.18.021,SL_base,2021.2.3,Win32,60.32454606,2.3137,,,88,0,88,0,1,,,,,,,,
,,"[""circle"",""no_dis"",""vert"",""up"",[99999,99999],[-106,106]]",circle,no_dis,vert,up,"[99999,99999]","[-106,106]",up,1,,,,,,001,2025-03-17_14h58.18.021,SL_base,2021.2.3,Win32,60.32454606,1.2488,,,89,0,89,0,1,,,,,,,,
,,"[""circle"",""no_dis"",""hori"",""left"",[99999,99999],[-150,0]]",circle,no_dis,hori,left,"[99999,99999]","[-150,0]",left,1,,,,,,001,2025-03-17_14h58.18.021,SL_base,2021.2.3,Win32,60.32454606,1.0925,,,90,0,90,0,1,,,,,,,,
,,"[""diamond"",""green"",""hori"",""left"",[106,106],[-106,106]]",diamond,green,hori,left,"[106,106]","[-106,106]",left,1,,,,,,001,2025-03-17_14h58.18.021,SL_base,2021.2.3,Win32,60.32454606,1.5159,,,91,0,91,0,1,,,,,,,,
,,"[""diamond"",""no_dis"",""hori"",""left"",[99999,99999],[-150,0]]",diamond,no_dis,hori,left,"[99999,99999]","[-150,0]",left,1,,,,,,001,2025-03-17_14h58.18.021,SL_base,2021.2.3,Win32,60.32454606,1.0316,,,92,0,92,0,1,,,,,,,,
,,"[""circle"",""no_dis"",""vert"",""up"",[99999,99999],[106,106]]",circle,no_dis,vert,up,"[99999,99999]","[106,106]",up,1,,,,,,001,2025-03-17_14h58.18.021,SL_base,2021.2.3,Win32,60.32454606,1.8892,,,93,0,93,0,1,,,,,,,,
,,"[""diamond"",""no_dis"",""hori"",""left"",[99999,99999],[-106,-106]]",diamond,no_dis,hori,left,"[99999,99999]","[-106,-106]",left,1,,,,,,001,2025-03-17_14h58.18.021,SL_base,2021.2.3,Win32,60.32454606,1.2479,,,94,0,94,0,1,,,,,,,,
,,"[""diamond"",""green"",""vert"",""up"",[106,106],[106,-106]]",diamond,green,vert,up,"[106,106]","[106,-106]",up,1,,,,,,001,2025-03-17_14h58.18.021,SL_base,2021.2.3,Win32,60.32454606,1.7808,,,95,0,95,0,1,,,,,,,,
,,"[""diamond"",""red"",""vert"",""up"",[150,0],[0,150]]",diamond,red,vert,up,"[150,0]","[0,150]",up,1,,,,,,001,2025-03-17_14h58.18.021,SL_base,2021.2.3,Win32,60.32454606,1.2478,,,96,0,96,0,1,,,,,,,,
,,"[""circle"",""red"",""vert"",""up"",[-106,106],[-150,0]]",circle,red,vert,up,"[-106,106]","[-150,0]",up,1,,,,,,001,2025-03-17_14h58.18.021,SL_base,2021.2.3,Win32,60.32454606,1.4818,,,97,0,97,0,1,,,,,,,,
,,"[""circle"",""red"",""vert"",""up"",[-106,-106],[106,-106]]",circle,red,vert,up,"[-106,-106]","[106,-106]",up,1,,,,,,001,2025-03-17_14h58.18.021,SL_base,2021.2.3,Win32,60.32454606,1.8308,,,98,0,98,0,1,,,,,,,,
,,"[""diamond"",""red"",""vert"",""up"",[0,150],[-150,0]]",diamond,red,vert,up,"[0,150]","[-150,0]",up,1,,,,,,001,2025-03-17_14h58.18.021,SL_base,2021.2.3,Win32,60.32454606,1.1406,,,99,0,99,0,1,,,,,,,,
,,"[""diamond"",""red"",""hori"",""left"",[106,106],[-106,106]]",diamond,red,hori,left,"[106,106]","[-106,106]",left,1,,,,,,001,2025-03-17_14h58.18.021,SL_base,2021.2.3,Win32,60.32454606,1.8304,,,100,0,100,0,1,,,,,,,,
,,"[""diamond"",""no_dis"",""hori"",""left"",[99999,99999],[-106,-106]]",diamond,no_dis,hori,left,"[99999,99999]","[-106,-106]",left,1,,,,,,001,2025-03-17_14h58.18.021,SL_base,2021.2.3,Win32,60.32454606,2.3573,,,101,0,101,0,1,,,,,,,,
,,"[""circle"",""red"",""hori"",""left"",[-106,106],[0,-150]]",circle,red,hori,left,"[-106,106]","[0,-150]",left,1,,,,,,001,2025-03-17_14h58.18.021,SL_base,2021.2.3,Win32,60.32454606,1.4183,,,102,0,102,0,1,,,,,,,,
,,"[""diamond"",""no_dis"",""vert"",""up"",[99999,99999],[0,150]]",diamond,no_dis,vert,up,"[99999,99999]","[0,150]",up,1,,,,,,001,2025-03-17_14h58.18.021,SL_base,2021.2.3,Win32,60.32454606,1.6552,,,103,0,103,0,1,,,,,,,,
,,"[""circle"",""no_dis"",""hori"",""left"",[99999,99999],[-106,106]]",circle,no_dis,hori,left,"[99999,99999]","[-106,106]",left,1,,,,,,001,2025-03-17_14h58.18.021,SL_base,2021.2.3,Win32,60.32454606,1.4832,,,104,0,104,0,1,,,,,,,,
,,"[""circle"",""green"",""vert"",""up"",[-150,0],[-106,106]]",circle,green,vert,up,"[-150,0]","[-106,106]",up,1,,,,,,001,2025-03-17_14h58.18.021,SL_base,2021.2.3,Win32,60.32454606,1.4509,,,105,0,105,0,1,,,,,,,,
,,"[""diamond"",""green"",""hori"",""left"",[-106,-106],[-106,106]]",diamond,green,hori,left,"[-106,-106]","[-106,106]",left,1,,,,,,001,2025-03-17_14h58.18.021,SL_base,2021.2.3,Win32,60.32454606,1.8471,,,106,0,106,0,1,,,,,,,,
,,"[""circle"",""no_dis"",""hori"",""left"",[99999,99999],[106,-106]]",circle,no_dis,hori,left,"[99999,99999]","[106,-106]",left,1,,,,,,001,2025-03-17_14h58.18.021,SL_base,2021.2.3,Win32,60.32454606,1.2488,,,107,0,107,0,1,,,,,,,,
,,"[""diamond"",""red"",""vert"",""up"",[106,-106],[0,150]]",diamond,red,vert,up,"[106,-106]","[0,150]",up,1,,,,,,001,2025-03-17_14h58.18.021,SL_base,2021.2.3,Win32,60.32454606,1.417,,,108,0,108,0,1,,,,,,,,
,,"[""diamond"",""red"",""hori"",""left"",[-106,-106],[106,-106]]",diamond,red,hori,left,"[-106,-106]","[106,-106]",left,1,,,,,,001,2025-03-17_14h58.18.021,SL_base,2021.2.3,Win32,60.32454606,2.3639,,,109,0,109,0,1,,,,,,,,
,,"[""diamond"",""red"",""vert"",""up"",[0,150],[0,-150]]",diamond,red,vert,up,"[0,150]","[0,-150]",up,1,,,,,,001,2025-03-17_14h58.18.021,SL_base,2021.2.3,Win32,60.32454606,1.3638,,,110,0,110,0,1,,,,,,,,
,,"[""circle"",""no_dis"",""hori"",""left"",[99999,99999],[0,150]]",circle,no_dis,hori,left,"[99999,99999]","[0,150]",left,1,,,,,,001,2025-03-17_14h58.18.021,SL_base,2021.2.3,Win32,60.32454606,1.8497,,,111,0,111,0,1,,,,,,,,
,,"[""diamond"",""green"",""hori"",""left"",[150,0],[106,106]]",diamond,green,hori,left,"[150,0]","[106,106]",left,1,,,,,,001,2025-03-17_14h58.18.021,SL_base,2021.2.3,Win32,60.32454606,1.5159,,,112,0,112,0,1,,,,,,,,
,,"[""diamond"",""no_dis"",""vert"",""up"",[99999,99999],[0,-150]]",diamond,no_dis,vert,up,"[99999,99999]","[0,-150]",up,1,,,,,,001,2025-03-17_14h58.18.021,SL_base,2021.2.3,Win32,60.32454606,1.566,,,113,0,113,0,1,,,,,,,,
,,"[""circle"",""red"",""hori"",""left"",[106,-106],[0,150]]",circle,red,hori,left,"[106,-106]","[0,150]",left,1,,,,,,001,2025-03-17_14h58.18.021,SL_base,2021.2.3,Win32,60.32454606,1.6636,,,114,0,114,0,1,,,,,,,,
,,"[""diamond"",""no_dis"",""hori"",""left"",[99999,99999],[106,-106]]",diamond,no_dis,hori,left,"[99999,99999]","[106,-106]",left,1,,,,,,001,2025-03-17_14h58.18.021,SL_base,2021.2.3,Win32,60.32454606,1.0152,,,115,0,115,0,1,,,,,,,,
,,"[""diamond"",""red"",""hori"",""left"",[106,-106],[-150,0]]",diamond,red,hori,left,"[106,-106]","[-150,0]",left,1,,,,,,001,2025-03-17_14h58.18.021,SL_base,2021.2.3,Win32,60.32454606,1.1114,,,116,0,116,0,1,,,,,,,,
,,"[""circle"",""red"",""hori"",""left"",[106,106],[-150,0]]",circle,red,hori,left,"[106,106]","[-150,0]",left,1,,,,,,001,2025-03-17_14h58.18.021,SL_base,2021.2.3,Win32,60.32454606,1.2475,,,117,0,117,0,1,,,,,,,,
,,"[""circle"",""green"",""hori"",""left"",[-106,106],[-106,-106]]",circle,green,hori,left,"[-106,106]","[-106,-106]",left,1,,,,,,001,2025-03-17_14h58.18.021,SL_base,2021.2.3,Win32,60.32454606,1.0979,,,118,0,118,0,1,,,,,,,,
,,"[""diamond"",""no_dis"",""vert"",""up"",[99999,99999],[-106,-106]]",diamond,no_dis,vert,up,"[99999,99999]","[-106,-106]",up,1,,,,,,001,2025-03-17_14h58.18.021,SL_base,2021.2.3,Win32,60.32454606,1.1331,,,119,0,119,0,1,,,,,,,,
,,,,,,,,,,,,,,,,001,2025-03-17_14h58.18.021,SL_base,2021.2.3,Win32,60.32454606,,,,,,,,,1,space,179.639,0,0,0,0,1
,,"[""circle"",""no_dis"",""hori"",""left"",[99999,99999],[0,150]]",circle,no_dis,hori,left,"[99999,99999]","[0,150]",left,1,,,,,,001,2025-03-17_14h58.18.021,SL_base,2021.2.3,Win32,60.32454606,1.3149,,,0,0,0,0,1,,,,,,,,
,,"[""circle"",""green"",""hori"",""left"",[-150,0],[106,-106]]",circle,green,hori,left,"[-150,0]","[106,-106]",left,1,,,,,,001,2025-03-17_14h58.18.021,SL_base,2021.2.3,Win32,60.32454606,1.37,,,1,0,1,0,1,,,,,,,,
,,"[""circle"",""no_dis"",""vert"",""up"",[99999,99999],[106,106]]",circle,no_dis,vert,up,"[99999,99999]","[106,106]",up,1,,,,,,001,2025-03-17_14h58.18.021,SL_base,2021.2.3,Win32,60.32454606,1.1525,,,2,0,2,0,1,,,,,,,,
,,"[""circle"",""no_dis"",""vert"",""up"",[99999,99999],[-106,106]]",circle,no_dis,vert,up,"[99999,99999]","[-106,106]",up,1,,,,,,001,2025-03-17_14h58.18.021,SL_base,2021.2.3,Win32,60.32454606,1.2488,,,3,0,3,0,1,,,,,,,,
,,"[""diamond"",""red"",""vert"",""up"",[106,106],[0,150]]",diamond,red,vert,up,"[106,106]","[0,150]",up,1,,,,,,001,2025-03-17_14h58.18.021,SL_base,2021.2.3,Win32,60.32454606,1.3831,,,4,0,4,0,1,,,,,,,,
,,"[""diamond"",""green"",""hori"",""left"",[106,106],[-106,106]]",diamond,green,hori,left,"[106,106]","[-106,106]",left,1,,,,,,001,2025-03-17_14h58.18.021,SL_base,2021.2.3,Win32,60.32454606,1.7635,,,5,0,5,0,1,,,,,,,,
,,"[""diamond"",""green"",""hori"",""left"",[106,106],[-150,0]]",diamond,green,hori,left,"[106,106]","[-150,0]",left,1,,,,,,001,2025-03-17_14h58.18.021,SL_base,2021.2.3,Win32,60.32454606,1.3504,,,6,0,6,0,1,,,,,,,,
,,"[""diamond"",""no_dis"",""vert"",""up"",[99999,99999],[106,106]]",diamond,no_dis,vert,up,"[99999,99999]","[106,106]",up,1,,,,,,001,2025-03-17_14h58.18.021,SL_base,2021.2.3,Win32,60.32454606,1.1142,,,7,0,7,0,1,,,,,,,,
,,"[""circle"",""green"",""vert"",""up"",[106,106],[0,150]]",circle,green,vert,up,"[106,106]","[0,150]",up,1,,,,,,001,2025-03-17_14h58.18.021,SL_base,2021.2.3,Win32,60.32454606,0.8607,,,8,0,8,0,1,,,,,,,,
,,"[""circle"",""green"",""hori"",""left"",[106,-106],[-106,106]]",circle,green,hori,left,"[106,-106]","[-106,106]",left,1,,,,,,001,2025-03-17_14h58.18.021,SL_base,2021.2.3,Win32,60.32454606,1.409,,,9,0,9,0,1,,,,,,,,
,,"[""diamond"",""no_dis"",""hori"",""left"",[99999,99999],[106,106]]",diamond,no_dis,hori,left,"[99999,99999]","[106,106]",left,1,,,,,,001,2025-03-17_14h58.18.021,SL_base,2021.2.3,Win32,60.32454606,0.9994,,,10,0,10,0,1,,,,,,,,
,,"[""circle"",""green"",""hori"",""left"",[106,-106],[0,150]]",circle,green,hori,left,"[106,-106]","[0,150]",left,1,,,,,,001,2025-03-17_14h58.18.021,SL_base,2021.2.3,Win32,60.32454606,1.8492,,,11,0,11,0,1,,,,,,,,
,,"[""circle"",""green"",""hori"",""left"",[-106,106],[-106,-106]]",circle,green,hori,left,"[-106,106]","[-106,-106]",left,1,,,,,,001,2025-03-17_14h58.18.021,SL_base,2021.2.3,Win32,60.32454606,1.0342,,,12,0,12,0,1,,,,,,,,
,,"[""circle"",""no_dis"",""hori"",""left"",[99999,99999],[-150,0]]",circle,no_dis,hori,left,"[99999,99999]","[-150,0]",left,1,,,,,,001,2025-03-17_14h58.18.021,SL_base,2021.2.3,Win32,60.32454606,0.8967,,,13,0,13,0,1,,,,,,,,
,,"[""diamond"",""green"",""vert"",""up"",[106,-106],[0,-150]]",diamond,green,vert,up,"[106,-106]","[0,-150]",up,1,,,,,,001,2025-03-17_14h58.18.021,SL_base,2021.2.3,Win32,60.32454606,1.1809,,,14,0,14,0,1,,,,,,,,
,,"[""diamond"",""no_dis"",""vert"",""up"",[99999,99999],[0,150]]",diamond,no_dis,vert,up,"[99999,99999]","[0,150]",up,1,,,,,,001,2025-03-17_14h58.18.021,SL_base,2021.2.3,Win32,60.32454606,1.2523,,,15,0,15,0,1,,,,,,,,
,,"[""diamond"",""no_dis"",""vert"",""up"",[99999,99999],[106,-106]]",diamond,no_dis,vert,up,"[99999,99999]","[106,-106]",up,1,,,,,,001,2025-03-17_14h58.18.021,SL_base,2021.2.3,Win32,60.32454606,0.8845,,,16,0,16,0,1,,,,,,,,
,,"[""circle"",""red"",""hori"",""left"",[106,106],[-106,106]]",circle,red,hori,left,"[106,106]","[-106,106]",left,1,,,,,,001,2025-03-17_14h58.18.021,SL_base,2021.2.3,Win32,60.32454606,1.2637,,,17,0,17,0,1,,,,,,,,
,,"[""diamond"",""red"",""vert"",""up"",[150,0],[-106,106]]",diamond,red,vert,up,"[150,0]","[-106,106]",up,1,,,,,,001,2025-03-17_14h58.18.021,SL_base,2021.2.3,Win32,60.32454606,1.6475,,,18,0,18,0,1,,,,,,,,
,,"[""circle"",""red"",""hori"",""left"",[0,150],[0,-150]]",circle,red,hori,left,"[0,150]","[0,-150]",left,1,,,,,,001,2025-03-17_14h58.18.021,SL_base,2021.2.3,Win32,60.32454606,1.2143,,,19,0,19,0,1,,,,,,,,
,,"[""circle"",""no_dis"",""vert"",""up"",[99999,99999],[-106,-106]]",circle,no_dis,vert,up,"[99999,99999]","[-106,-106]",left,0,,,,,,001,2025-03-17_14h58.18.021,SL_base,2021.2.3,Win32,60.32454606,1.0484,,,20,0,20,0,1,,,,,,,,
,,"[""circle"",""no_dis"",""vert"",""up"",[99999,99999],[-150,0]]",circle,no_dis,vert,up,"[99999,99999]","[-150,0]",up,1,,,,,,001,2025-03-17_14h58.18.021,SL_base,2021.2.3,Win32,60.32454606,2.0146,,,21,0,21,0,1,,,,,,,,
,,"[""circle"",""red"",""vert"",""up"",[106,106],[0,150]]",circle,red,vert,up,"[106,106]","[0,150]",up,1,,,,,,001,2025-03-17_14h58.18.021,SL_base,2021.2.3,Win32,60.32454606,1.8307,,,22,0,22,0,1,,,,,,,,
,,"[""circle"",""red"",""hori"",""left"",[106,106],[-150,0]]",circle,red,hori,left,"[106,106]","[-150,0]",left,1,,,,,,001,2025-03-17_14h58.18.021,SL_base,2021.2.3,Win32,60.32454606,0.8157,,,23,0,23,0,1,,,,,,,,
,,"[""circle"",""red"",""vert"",""up"",[106,106],[0,-150]]",circle,red,vert,up,"[106,106]","[0,-150]",up,1,,,,,,001,2025-03-17_14h58.18.021,SL_base,2021.2.3,Win32,60.32454606,1.266,,,24,0,24,0,1,,,,,,,,
,,"[""circle"",""green"",""hori"",""left"",[-106,106],[-150,0]]",circle,green,hori,left,"[-106,106]","[-150,0]",left,1,,,,,,001,2025-03-17_14h58.18.021,SL_base,2021.2.3,Win32,60.32454606,0.8166,,,25,0,25,0,1,,,,,,,,
,,"[""diamond"",""no_dis"",""hori"",""left"",[99999,99999],[-106,106]]",diamond,no_dis,hori,left,"[99999,99999]","[-106,106]",left,1,,,,,,001,2025-03-17_14h58.18.021,SL_base,2021.2.3,Win32,60.32454606,1.7556,,,26,0,26,0,1,,,,,,,,
,,"[""diamond"",""no_dis"",""hori"",""left"",[99999,99999],[0,150]]",diamond,no_dis,hori,left,"[99999,99999]","[0,150]",left,1,,,,,,001,2025-03-17_14h58.18.021,SL_base,2021.2.3,Win32,60.32454606,1.9081,,,27,0,27,0,1,,,,,,,,
,,"[""circle"",""red"",""vert"",""up"",[106,106],[106,-106]]",circle,red,vert,up,"[106,106]","[106,-106]",up,1,,,,,,001,2025-03-17_14h58.18.021,SL_base,2021.2.3,Win32,60.32454606,1.316,,,28,0,28,0,1,,,,,,,,
,,"[""circle"",""green"",""hori"",""left"",[-106,-106],[106,106]]",circle,green,hori,left,"[-106,-106]","[106,106]",left,1,,,,,,001,2025-03-17_14h58.18.021,SL_base,2021.2.3,Win32,60.32454606,1.5303,,,29,0,29,0,1,,,,,,,,
,,"[""circle"",""red"",""hori"",""left"",[0,-150],[106,106]]",circle,red,hori,left,"[0,-150]","[106,106]",left,1,,,,,,001,2025-03-17_14h58.18.021,SL_base,2021.2.3,Win32,60.32454606,1.2069,,,30,0,30,0,1,,,,,,,,
,,"[""circle"",""no_dis"",""vert"",""up"",[99999,99999],[-106,106]]",circle,no_dis,vert,up,"[99999,99999]","[-106,106]",up,1,,,,,,001,2025-03-17_14h58.18.021,SL_base,2021.2.3,Win32,60.32454606,1.8799,,,31,0,31,0,1,,,,,,,,
,,"[""diamond"",""green"",""vert"",""up"",[-106,106],[106,-106]]",diamond,green,vert,up,"[-106,106]","[106,-106]",up,1,,,,,,001,2025-03-17_14h58.18.021,SL_base,2021.2.3,Win32,60.32454606,1.1993,,,32,0,32,0,1,,,,,,,,
,,"[""circle"",""red"",""vert"",""up"",[-150,0],[-106,106]]",circle,red,vert,up,"[-150,0]","[-106,106]",up,1,,,,,,001,2025-03-17_14h58.18.021,SL_base,2021.2.3,Win32,60.32454606,2.7469,,,33,0,33,0,1,,,,,,,,
,,"[""diamond"",""red"",""hori"",""left"",[-106,-106],[106,-106]]",diamond,red,hori,left,"[-106,-106]","[106,-106]",left,1,,,,,,001,2025-03-17_14h58.18.021,SL_base,2021.2.3,Win32,60.32454606,1.6161,,,34,0,34,0,1,,,,,,,,
,,"[""diamond"",""no_dis"",""hori"",""left"",[99999,99999],[-150,0]]",diamond,no_dis,hori,left,"[99999,99999]","[-150,0]",left,1,,,,,,001,2025-03-17_14h58.18.021,SL_base,2021.2.3,Win32,60.32454606,0.8983,,,35,0,35,0,1,,,,,,,,
,,"[""circle"",""no_dis"",""hori"",""left"",[99999,99999],[106,-106]]",circle,no_dis,hori,left,"[99999,99999]","[106,-106]",left,1,,,,,,001,2025-03-17_14h58.18.021,SL_base,2021.2.3,Win32,60.32454606,1.0996,,,36,0,36,0,1,,,,,,,,
,,"[""diamond"",""red"",""vert"",""up"",[0,150],[0,-150]]",diamond,red,vert,up,"[0,150]","[0,-150]",up,1,,,,,,001,2025-03-17_14h58.18.021,SL_base,2021.2.3,Win32,60.32454606,0.9668,,,37,0,37,0,1,,,,,,,,
,,"[""circle"",""no_dis"",""vert"",""up"",[99999,99999],[150,0]]",circle,no_dis,vert,up,"[99999,99999]","[150,0]",up,1,,,,,,001,2025-03-17_14h58.18.021,SL_base,2021.2.3,Win32,60.32454606,1.7304,,,38,0,38,0,1,,,,,,,,
,,"[""diamond"",""no_dis"",""hori"",""left"",[99999,99999],[106,-106]]",diamond,no_dis,hori,left,"[99999,99999]","[106,-106]",left,1,,,,,,001,2025-03-17_14h58.18.021,SL_base,2021.2.3,Win32,60.32454606,0.9161,,,39,0,39,0,1,,,,,,,,
,,"[""circle"",""green"",""vert"",""up"",[106,106],[-150,0]]",circle,green,vert,up,"[106,106]","[-150,0]",up,1,,,,,,001,2025-03-17_14h58.18.021,SL_base,2021.2.3,Win32,60.32454606,0.938,,,40,0,40,0,1,,,,,,,,
,,"[""diamond"",""red"",""vert"",""up"",[0,-150],[-106,106]]",diamond,red,vert,up,"[0,-150]","[-106,106]",up,1,,,,,,001,2025-03-17_14h58.18.021,SL_base,2021.2.3,Win32,60.32454606,1.2146,,,41,0,41,0,1,,,,,,,,
,,"[""diamond"",""green"",""hori"",""left"",[106,-106],[-150,0]]",diamond,green,hori,left,"[106,-106]","[-150,0]",left,1,,,,,,001,2025-03-17_14h58.18.021,SL_base,2021.2.3,Win32,60.32454606,0.97,,,42,0,42,0,1,,,,,,,,
,,"[""circle"",""red"",""hori"",""left"",[-150,0],[0,150]]",circle,red,hori,left,"[-150,0]","[0,150]",left,1,,,,,,001,2025-03-17_14h58.18.021,SL_base,2021.2.3,Win32,60.32454606,2.0824,,,43,0,43,0,1,,,,,,,,
,,"[""circle"",""red"",""vert"",""up"",[0,-150],[106,-106]]",circle,red,vert,up,"[0,-150]","[106,-106]",up,1,,,,,,001,2025-03-17_14h58.18.021,SL_base,2021.2.3,Win32,60.32454606,1.9774,,,44,0,44,0,1,,,,,,,,
,,"[""diamond"",""no_dis"",""vert"",""up"",[99999,99999],[-150,0]]",diamond,no_dis,vert,up,"[99999,99999]","[-150,0]",up,1,,,,,,001,2025-03-17_14h58.18.021,SL_base,2021.2.3,Win32,60.32454606,1.1478,,,45,0,45,0,1,,,,,,,,
,,"[""diamond"",""red"",""vert"",""up"",[-106,-106],[106,-106]]",diamond,red,vert,up,"[-106,-106]","[106,-106]",up,1,,,,,,001,2025-03-17_14h58.18.021,SL_base,2021.2.3,Win32,60.32454606,1.6147,,,46,0,46,0,1,,,,,,,,
,,"[""circle"",""green"",""vert"",""up"",[-150,0],[-106,106]]",circle,green,vert,up,"[-150,0]","[-106,106]",up,1,,,,,,001,2025-03-17_14h58.18.021,SL_base,2021.2.3,Win32,60.32454606,1.4977,,,47,0,47,0,1,,,,,,,,
,,"[""diamond"",""red"",""hori"",""left"",[0,150],[106,-106]]",diamond,red,hori,left,"[0,150]","[106,-106]",left,1,,,,,,001,2025-03-17_14h58.18.021,SL_base,2021.2.3,Win32,60.32454606,1.333,,,48,0,48,0,1,,,,,,,,
,,"[""circle"",""no_dis"",""hori"",""left"",[99999,99999],[0,-150]]",circle,no_dis,hori,left,"[99999,99999]","[0,-150]",left,1,,,,,,001,2025-03-17_14h58.18.021,SL_base,2021.2.3,Win32,60.32454606,1.0714,,,49,0,49,0,1,,,,,,,,
,,"[""diamond"",""no_dis"",""vert"",""up"",[99999,99999],[106,106]]",diamond,no_dis,vert,up,"[99999,99999]","[106,106]",up,1,,,,,,001,2025-03-17_14h58.18.021,SL_base,2021.2.3,Win32,60.32454606,1.5822,,,50,0,50,0,1,,,,,,,,
,,"[""circle"",""red"",""hori"",""left"",[106,106],[-150,0]]",circle,red,hori,left,"[106,106]","[-150,0]",left,1,,,,,,001,2025-03-17_14h58.18.021,SL_base,2021.2.3,Win32,60.32454606,1.0973,,,51,0,51,0,1,,,,,,,,
,,"[""diamond"",""red"",""vert"",""up"",[106,-106],[0,150]]",diamond,red,vert,up,"[106,-106]","[0,150]",up,1,,,,,,001,2025-03-17_14h58.18.021,SL_base,2021.2.3,Win32,60.32454606,1.749,,,52,0,52,0,1,,,,,,,,
,,"[""circle"",""green"",""hori"",""left"",[106,106],[-150,0]]",circle,green,hori,left,"[106,106]","[-150,0]",left,1,,,,,,001,2025-03-17_14h58.18.021,SL_base,2021.2.3,Win32,60.32454606,1.5361,,,53,0,53,0,1,,,,,,,,
,,"[""diamond"",""no_dis"",""hori"",""left"",[99999,99999],[106,-106]]",diamond,no_dis,hori,left,"[99999,99999]","[106,-106]",left,1,,,,,,001,2025-03-17_14h58.18.021,SL_base,2021.2.3,Win32,60.32454606,1.9027,,,54,0,54,0,1,,,,,,,,
,,"[""circle"",""no_dis"",""hori"",""left"",[99999,99999],[0,-150]]",circle,no_dis,hori,left,"[99999,99999]","[0,-150]",left,1,,,,,,001,2025-03-17_14h58.18.021,SL_base,2021.2.3,Win32,60.32454606,1.131,,,55,0,55,0,1,,,,,,,,
,,"[""diamond"",""green"",""vert"",""up"",[106,106],[106,-106]]",diamond,green,vert,up,"[106,106]","[106,-106]",up,1,,,,,,001,2025-03-17_14h58.18.021,SL_base,2021.2.3,Win32,60.32454606,1.252,,,56,0,56,0,1,,,,,,,,
,,"[""diamond"",""red"",""vert"",""up"",[150,0],[0,150]]",diamond,red,vert,up,"[150,0]","[0,150]",up,1,,,,,,001,2025-03-17_14h58.18.021,SL_base,2021.2.3,Win32,60.32454606,1.1142,,,57,0,57,0,1,,,,,,,,
,,"[""circle"",""red"",""vert"",""up"",[-106,-106],[106,-106]]",circle,red,vert,up,"[-106,-106]","[106,-106]",up,1,,,,,,001,2025-03-17_14h58.18.021,SL_base,2021.2.3,Win32,60.32454606,1.0432,,,58,0,58,0,1,,,,,,,,
,,"[""circle"",""no_dis"",""vert"",""up"",[99999,99999],[150,0]]",circle,no_dis,vert,up,"[99999,99999]","[150,0]",up,1,,,,,,001,2025-03-17_14h58.18.021,SL_base,2021.2.3,Win32,60.32454606,1.1489,,,59,0,59,0,1,,,,,,,,
,,"[""diamond"",""green"",""hori"",""left"",[150,0],[106,106]]",diamond,green,hori,left,"[150,0]","[106,106]",left,1,,,,,,001,2025-03-17_14h58.18.021,SL_base,2021.2.3,Win32,60.32454606,1.6652,,,60,0,60,0,1,,,,,,,,
,,"[""circle"",""red"",""hori"",""left"",[106,106],[0,150]]",circle,red,hori,left,"[106,106]","[0,150]",left,1,,,,,,001,2025-03-17_14h58.18.021,SL_base,2021.2.3,Win32,60.32454606,1.2315,,,61,0,61,0,1,,,,,,,,
,,"[""diamond"",""red"",""hori"",""left"",[-150,0],[0,150]]",diamond,red,hori,left,"[-150,0]","[0,150]",left,1,,,,,,001,2025-03-17_14h58.18.021,SL_base,2021.2.3,Win32,60.32454606,1.1997,,,62,0,62,0,1,,,,,,,,
,,"[""diamond"",""no_dis"",""vert"",""up"",[99999,99999],[0,-150]]",diamond,no_dis,vert,up,"[99999,99999]","[0,-150]",up,1,,,,,,001,2025-03-17_14h58.18.021,SL_base,2021.2.3,Win32,60.32454606,1.2467,,,63,0,63,0,1,,,,,,,,
,,"[""diamond"",""green"",""hori"",""left"",[-150,0],[106,-106]]",diamond,green,hori,left,"[-150,0]","[106,-106]",left,1,,,,,,001,2025-03-17_14h58.18.021,SL_base,2021.2.3,Win32,60.32454606,0.9822,,,64,0,64,0,1,,,,,,,,
,,"[""circle"",""green"",""vert"",""up"",[150,0],[-150,0]]",circle,green,vert,up,"[150,0]","[-150,0]",up,1,,,,,,001,2025-03-17_14h58.18.021,SL_base,2021.2.3,Win32,60.32454606,1.5308,,,65,0,65,0,1,,,,,,,,
,,"[""circle"",""green"",""vert"",""up"",[-106,106],[0,-150]]",circle,green,vert,up,"[-106,106]","[0,-150]",up,1,,,,,,001,2025-03-17_14h58.18.021,SL_base,2021.2.3,Win32,60.32454606,1.5635,,,66,0,66,0,1,,,,,,,,
,,"[""diamond"",""red"",""hori"",""left"",[106,106],[0,150]]",diamond,red,hori,left,"[106,106]","[0,150]",left,1,,,,,,001,2025-03-17_14h58.18.021,SL_base,2021.2.3,Win32,60.32454606,1.0164,,,67,0,67,0,1,,,,,,,,
,,"[""diamond"",""no_dis"",""vert"",""up"",[99999,99999],[-106,-106]]",diamond,no_dis,vert,up,"[99999,99999]","[-106,-106]",up,1,,,,,,001,2025-03-17_14h58.18.021,SL_base,2021.2.3,Win32,60.32454606,0.999,,,68,0,68,0,1,,,,,,,,
,,"[""circle"",""no_dis"",""hori"",""left"",[99999,99999],[106,-106]]",circle,no_dis,hori,left,"[99999,99999]","[106,-106]",left,1,,,,,,001,2025-03-17_14h58.18.021,SL_base,2021.2.3,Win32,60.32454606,1.3666,,,69,0,69,0,1,,,,,,,,
,,"[""circle"",""no_dis"",""vert"",""up"",[99999,99999],[106,106]]",circle,no_dis,vert,up,"[99999,99999]","[106,106]",up,1,,,,,,001,2025-03-17_14h58.18.021,SL_base,2021.2.3,Win32,60.32454606,1.4557,,,70,0,70,0,1,,,,,,,,
,,"[""diamond"",""red"",""vert"",""up"",[106,106],[106,-106]]",diamond,red,vert,up,"[106,106]","[106,-106]",up,1,,,,,,001,2025-03-17_14h58.18.021,SL_base,2021.2.3,Win32,60.32454606,1.1981,,,71,0,71,0,1,,,,,,,,
,,"[""circle"",""red"",""vert"",""up"",[150,0],[0,150]]",circle,red,vert,up,"[150,0]","[0,150]",up,1,,,,,,001,2025-03-17_14h58.18.021,SL_base,2021.2.3,Win32,60.32454606,1.4093,,,72,0,72,0,1,,,,,,,,
,,"[""circle"",""green"",""hori"",""left"",[0,-150],[-106,-106]]",circle,green,hori,left,"[0,-150]","[-106,-106]",left,1,,,,,,001,2025-03-17_14h58.18.021,SL_base,2021.2.3,Win32,60.32454606,1.1979,,,73,0,73,0,1,,,,,,,,
,,"[""diamond"",""green"",""vert"",""up"",[106,106],[-106,-106]]",diamond,green,vert,up,"[106,106]","[-106,-106]",up,1,,,,,,001,2025-03-17_14h58.18.021,SL_base,2021.2.3,Win32,60.32454606,1.1927,,,74,0,74,0,1,,,,,,,,
,,"[""diamond"",""red"",""hori"",""left"",[0,-150],[-150,0]]",diamond,red,hori,left,"[0,-150]","[-150,0]",left,1,,,,,,001,2025-03-17_14h58.18.021,SL_base,2021.2.3,Win32,60.32454606,1.3961,,,75,0,75,0,1,,,,,,,,
,,"[""circle"",""red"",""vert"",""up"",[150,0],[0,-150]]",circle,red,vert,up,"[150,0]","[0,-150]",up,1,,,,,,001,2025-03-17_14h58.18.021,SL_base,2021.2.3,Win32,60.32454606,1.1064,,,76,0,76,0,1,,,,,,,,
,,"[""circle"",""no_dis"",""hori"",""left"",[99999,99999],[-106,106]]",circle,no_dis,hori,left,"[99999,99999]","[-106,106]",left,1,,,,,,001,2025-03-17_14h58.18.021,SL_base,2021.2.3,Win32,60.32454606,1.2651,,,77,0,77,0,1,,,,,,,,
,,"[""circle"",""no_dis"",""hori"",""left"",[99999,99999],[150,0]]",circle,no_dis,hori,left,"[99999,99999]","[150,0]",left,1,,,,,,001,2025-03-17_14h58.18.021,SL_base,2021.2.3,Win32,60.32454606,1.767,,,78,0,78,0,1,,,,,,,,
,,"[""diamond"",""green"",""hori"",""left"",[-150,0],[-106,106]]",diamond,green,hori,left,"[-150,0]","[-106,106]",left,1,,,,,,001,2025-03-17_14h58.18.021,SL_base,2021.2.3,Win32,60.32454606,1.1652,,,79,0,79,0,1,,,,,,,,
,,"[""diamond"",""green"",""hori"",""left"",[0,150],[-106,-106]]",diamond,green,hori,left,"[0,150]","[-106,-106]",left,1,,,,,,001,2025-03-17_14h58.18.021,SL_base,2021.2.3,Win32,60.32454606,1.2803,,,80,0,80,0,1,,,,,,,,
,,"[""circle"",""no_dis"",""hori"",""left"",[99999,99999],[0,150]]",circle,no_dis,hori,left,"[99999,99999]","[0,150]",left,1,,,,,,001,2025-03-17_14h58.18.021,SL_base,2021.2.3,Win32,60.32454606,1.5415,,,81,0,81,0,1,,,,,,,,
,,"[""circle"",""no_dis"",""vert"",""up"",[99999,99999],[150,0]]",circle,no_dis,vert,up,"[99999,99999]","[150,0]",up,1,,,,,,001,2025-03-17_14h58.18.021,SL_base,2021.2.3,Win32,60.32454606,1.379,,,82,0,82,0,1,,,,,,,,
,,"[""circle"",""no_dis"",""vert"",""up"",[99999,99999],[-106,106]]",circle,no_dis,vert,up,"[99999,99999]","[-106,106]",up,1,,,,,,001,2025-03-17_14h58.18.021,SL_base,2021.2.3,Win32,60.32454606,1.0173,,,83,0,83,0,1,,,,,,,,
,,"[""diamond"",""green"",""vert"",""up"",[0,-150],[-106,106]]",diamond,green,vert,up,"[0,-150]","[-106,106]",up,1,,,,,,001,2025-03-17_14h58.18.021,SL_base,2021.2.3,Win32,60.32454606,1.1826,,,84,0,84,0,1,,,,,,,,
,,"[""diamond"",""red"",""vert"",""up"",[0,-150],[0,150]]",diamond,red,vert,up,"[0,-150]","[0,150]",up,1,,,,,,001,2025-03-17_14h58.18.021,SL_base,2021.2.3,Win32,60.32454606,1.7646,,,85,0,85,0,1,,,,,,,,
,,"[""diamond"",""no_dis"",""vert"",""up"",[99999,99999],[-106,-106]]",diamond,no_dis,vert,up,"[99999,99999]","[-106,-106]",up,1,,,,,,001,2025-03-17_14h58.18.021,SL_base,2021.2.3,Win32,60.32454606,1.3984,,,86,0,86,0,1,,,,,,,,
,,"[""circle"",""red"",""hori"",""left"",[150,0],[-106,106]]",circle,red,hori,left,"[150,0]","[-106,106]",left,1,,,,,,001,2025-03-17_14h58.18.021,SL_base,2021.2.3,Win32,60.32454606,1.8796,,,87,0,87,0,1,,,,,,,,
,,"[""diamond"",""green"",""hori"",""left"",[106,-106],[0,-150]]",diamond,green,hori,left,"[106,-106]","[0,-150]",left,1,,,,,,001,2025-03-17_14h58.18.021,SL_base,2021.2.3,Win32,60.32454606,1.4149,,,88,0,88,0,1,,,,,,,,
,,"[""diamond"",""red"",""hori"",""left"",[106,106],[-106,-106]]",diamond,red,hori,left,"[106,106]","[-106,-106]",left,1,,,,,,001,2025-03-17_14h58.18.021,SL_base,2021.2.3,Win32,60.32454606,1.1482,,,89,0,89,0,1,,,,,,,,
,,"[""circle"",""green"",""vert"",""up"",[106,106],[-150,0]]",circle,green,vert,up,"[106,106]","[-150,0]",up,1,,,,,,001,2025-03-17_14h58.18.021,SL_base,2021.2.3,Win32,60.32454606,1.7804,,,90,0,90,0,1,,,,,,,,
,,"[""diamond"",""green"",""vert"",""up"",[0,150],[-106,106]]",diamond,green,vert,up,"[0,150]","[-106,106]",up,1,,,,,,001,2025-03-17_14h58.18.021,SL_base,2021.2.3,Win32,60.32454606,1.3675,,,91,0,91,0,1,,,,,,,,
,,"[""circle"",""green"",""vert"",""up"",[106,106],[-150,0]]",circle,green,vert,up,"[106,106]","[-150,0]",up,1,,,,,,001,2025-03-17_14h58.18.021,SL_base,2021.2.3,Win32,60.32454606,0.9326,,,92,0,92,0,1,,,,,,,,
,,"[""diamond"",""no_dis"",""hori"",""left"",[99999,99999],[-106,-106]]",diamond,no_dis,hori,left,"[99999,99999]","[-106,-106]",left,1,,,,,,001,2025-03-17_14h58.18.021,SL_base,2021.2.3,Win32,60.32454606,1.3825,,,93,0,93,0,1,,,,,,,,
,,"[""diamond"",""no_dis"",""vert"",""up"",[99999,99999],[150,0]]",diamond,no_dis,vert,up,"[99999,99999]","[150,0]",up,1,,,,,,001,2025-03-17_14h58.18.021,SL_base,2021.2.3,Win32,60.32454606,1.2093,,,94,0,94,0,1,,,,,,,,
,,"[""diamond"",""green"",""vert"",""up"",[106,106],[-106,106]]",diamond,green,vert,up,"[106,106]","[-106,106]",up,1,,,,,,001,2025-03-17_14h58.18.021,SL_base,2021.2.3,Win32,60.32454606,1.1153,,,95,0,95,0,1,,,,,,,,
,,"[""circle"",""red"",""hori"",""left"",[106,-106],[0,150]]",circle,red,hori,left,"[106,-106]","[0,150]",left,1,,,,,,001,2025-03-17_14h58.18.021,SL_base,2021.2.3,Win32,60.32454606,1.6649,,,96,0,96,0,1,,,,,,,,
,,"[""diamond"",""no_dis"",""hori"",""left"",[99999,99999],[0,-150]]",diamond,no_dis,hori,left,"[99999,99999]","[0,-150]",left,1,,,,,,001,2025-03-17_14h58.18.021,SL_base,2021.2.3,Win32,60.32454606,1.531,,,97,0,97,0,1,,,,,,,,
,,"[""diamond"",""no_dis"",""hori"",""left"",[99999,99999],[-106,-106]]",diamond,no_dis,hori,left,"[99999,99999]","[-106,-106]",left,1,,,,,,001,2025-03-17_14h58.18.021,SL_base,2021.2.3,Win32,60.32454606,1.5734,,,98,0,98,0,1,,,,,,,,
,,"[""diamond"",""green"",""hori"",""left"",[-106,-106],[0,-150]]",diamond,green,hori,left,"[-106,-106]","[0,-150]",left,1,,,,,,001,2025-03-17_14h58.18.021,SL_base,2021.2.3,Win32,60.32454606,2.6333,,,99,0,99,0,1,,,,,,,,
,,"[""diamond"",""green"",""vert"",""up"",[150,0],[-150,0]]",diamond,green,vert,up,"[150,0]","[-150,0]",up,1,,,,,,001,2025-03-17_14h58.18.021,SL_base,2021.2.3,Win32,60.32454606,0.8814,,,100,0,100,0,1,,,,,,,,
,,"[""circle"",""no_dis"",""hori"",""left"",[99999,99999],[0,150]]",circle,no_dis,hori,left,"[99999,99999]","[0,150]",left,1,,,,,,001,2025-03-17_14h58.18.021,SL_base,2021.2.3,Win32,60.32454606,1.548,,,101,0,101,0,1,,,,,,,,
,,"[""circle"",""green"",""hori"",""left"",[0,150],[106,-106]]",circle,green,hori,left,"[0,150]","[106,-106]",left,1,,,,,,001,2025-03-17_14h58.18.021,SL_base,2021.2.3,Win32,60.32454606,2.7707,,,102,0,102,0,1,,,,,,,,
,,"[""diamond"",""green"",""vert"",""up"",[-106,106],[-106,-106]]",diamond,green,vert,up,"[-106,106]","[-106,-106]",up,1,,,,,,001,2025-03-17_14h58.18.021,SL_base,2021.2.3,Win32,60.32454606,1.0194,,,103,0,103,0,1,,,,,,,,
,,"[""diamond"",""green"",""hori"",""left"",[-106,-106],[-106,106]]",diamond,green,hori,left,"[-106,-106]","[-106,106]",left,1,,,,,,001,2025-03-17_14h58.18.021,SL_base,2021.2.3,Win32,60.32454606,1.049,,,104,0,104,0,1,,,,,,,,
,,"[""circle"",""green"",""hori"",""left"",[-106,-106],[106,-106]]",circle,green,hori,left,"[-106,-106]","[106,-106]",left,1,,,,,,001,2025-03-17_14h58.18.021,SL_base,2021.2.3,Win32,60.32454606,1.4493,,,105,0,105,0,1,,,,,,,,
,,"[""circle"",""red"",""vert"",""up"",[-106,106],[-150,0]]",circle,red,vert,up,"[-106,106]","[-150,0]",up,1,,,,,,001,2025-03-17_14h58.18.021,SL_base,2021.2.3,Win32,60.32454606,1.1641,,,106,0,106,0,1,,,,,,,,
,,"[""diamond"",""green"",""vert"",""up"",[-106,-106],[150,0]]",diamond,green,vert,up,"[-106,-106]","[150,0]",up,1,,,,,,001,2025-03-17_14h58.18.021,SL_base,2021.2.3,Win32,60.32454606,1.0484,,,107,0,107,0,1,,,,,,,,
,,"[""circle"",""green"",""vert"",""up"",[106,106],[0,150]]",circle,green,vert,up,"[106,106]","[0,150]",up,1,,,,,,001,2025-03-17_14h58.18.021,SL_base,2021.2.3,Win32,60.32454606,1.4134,,,108,0,108,0,1,,,,,,,,
,,"[""diamond"",""red"",""hori"",""left"",[0,-150],[0,150]]",diamond,red,hori,left,"[0,-150]","[0,150]",left,1,,,,,,001,2025-03-17_14h58.18.021,SL_base,2021.2.3,Win32,60.32454606,2.5166,,,109,0,109,0,1,,,,,,,,
,,"[""circle"",""red"",""vert"",""up"",[-106,106],[106,106]]",circle,red,vert,up,"[-106,106]","[106,106]",up,1,,,,,,001,2025-03-17_14h58.18.021,SL_base,2021.2.3,Win32,60.32454606,1.1751,,,110,0,110,0,1,,,,,,,,
,,"[""diamond"",""red"",""vert"",""up"",[0,150],[-150,0]]",diamond,red,vert,up,"[0,150]","[-150,0]",up,1,,,,,,001,2025-03-17_14h58.18.021,SL_base,2021.2.3,Win32,60.32454606,2.0327,,,111,0,111,0,1,,,,,,,,
,,"[""diamond"",""no_dis"",""hori"",""left"",[99999,99999],[-150,0]]",diamond,no_dis,hori,left,"[99999,99999]","[-150,0]",left,1,,,,,,001,2025-03-17_14h58.18.021,SL_base,2021.2.3,Win32,60.32454606,1.1818,,,112,0,112,0,1,,,,,,,,
,,"[""diamond"",""red"",""hori"",""left"",[106,-106],[-150,0]]",diamond,red,hori,left,"[106,-106]","[-150,0]",left,1,,,,,,001,2025-03-17_14h58.18.021,SL_base,2021.2.3,Win32,60.32454606,1.2526,,,113,0,113,0,1,,,,,,,,
,,"[""diamond"",""red"",""hori"",""left"",[-150,0],[106,-106]]",diamond,red,hori,left,"[-150,0]","[106,-106]",left,1,,,,,,001,2025-03-17_14h58.18.021,SL_base,2021.2.3,Win32,60.32454606,1.3498,,,114,0,114,0,1,,,,,,,,
,,"[""diamond"",""no_dis"",""vert"",""up"",[99999,99999],[0,-150]]",diamond,no_dis,vert,up,"[99999,99999]","[0,-150]",up,1,,,,,,001,2025-03-17_14h58.18.021,SL_base,2021.2.3,Win32,60.32454606,1.1722,,,115,0,115,0,1,,,,,,,,
,,"[""circle"",""green"",""vert"",""up"",[106,106],[150,0]]",circle,green,vert,up,"[106,106]","[150,0]",up,1,,,,,,001,2025-03-17_14h58.18.021,SL_base,2021.2.3,Win32,60.32454606,1.0962,,,116,0,116,0,1,,,,,,,,
,,"[""diamond"",""red"",""hori"",""left"",[106,106],[-106,106]]",diamond,red,hori,left,"[106,106]","[-106,106]",left,1,,,,,,001,2025-03-17_14h58.18.021,SL_base,2021.2.3,Win32,60.32454606,2.0835,,,117,0,117,0,1,,,,,,,,
,,"[""circle"",""red"",""hori"",""left"",[-106,106],[0,-150]]",circle,red,hori,left,"[-106,106]","[0,-150]",left,1,,,,,,001,2025-03-17_14h58.18.021,SL_base,2021.2.3,Win32,60.32454606,1.7266,,,118,0,118,0,1,,,,,,,,
,,"[""circle"",""green"",""vert"",""up"",[0,150],[0,-150]]",circle,green,vert,up,"[0,150]","[0,-150]",up,1,,,,,,001,2025-03-17_14h58.18.021,SL_base,2021.2.3,Win32,60.32454606,0.9259,,,119,0,119,0,1,,,,,,,,
,,,,,,,,,,,,,,,,001,2025-03-17_14h58.18.021,SL_base,2021.2.3,Win32,60.32454606,,,,,,,,,2,space,58.6941,1,0,1,0,1
,,"[""circle"",""no_dis"",""vert"",""up"",[99999,99999],[106,106]]",circle,no_dis,vert,up,"[99999,99999]","[106,106]",up,1,,,,,,001,2025-03-17_14h58.18.021,SL_base,2021.2.3,Win32,60.32454606,1.7644,,,0,0,0,0,1,,,,,,,,
,,"[""diamond"",""green"",""hori"",""left"",[-106,-106],[0,-150]]",diamond,green,hori,left,"[-106,-106]","[0,-150]",left,1,,,,,,001,2025-03-17_14h58.18.021,SL_base,2021.2.3,Win32,60.32454606,0.999,,,1,0,1,0,1,,,,,,,,
,,"[""circle"",""red"",""vert"",""up"",[-106,-106],[106,-106]]",circle,red,vert,up,"[-106,-106]","[106,-106]",up,1,,,,,,001,2025-03-17_14h58.18.021,SL_base,2021.2.3,Win32,60.32454606,1.4737,,,2,0,2,0,1,,,,,,,,
,,"[""circle"",""green"",""hori"",""left"",[-106,-106],[106,106]]",circle,green,hori,left,"[-106,-106]","[106,106]",left,1,,,,,,001,2025-03-17_14h58.18.021,SL_base,2021.2.3,Win32,60.32454606,1.749,,,3,0,3,0,1,,,,,,,,
,,"[""circle"",""no_dis"",""vert"",""up"",[99999,99999],[150,0]]",circle,no_dis,vert,up,"[99999,99999]","[150,0]",up,1,,,,,,001,2025-03-17_14h58.18.021,SL_base,2021.2.3,Win32,60.32454606,1.1552,,,4,0,4,0,1,,,,,,,,
,,"[""circle"",""red"",""vert"",""up"",[-106,106],[106,106]]",circle,red,vert,up,"[-106,106]","[106,106]",up,1,,,,,,001,2025-03-17_14h58.18.021,SL_base,2021.2.3,Win32,60.32454606,2.3649,,,5,0,5,0,1,,,,,,,,
,,"[""diamond"",""green"",""hori"",""left"",[106,-106],[0,-150]]",diamond,green,hori,left,"[106,-106]","[0,-150]",left,1,,,,,,001,2025-03-17_14h58.18.021,SL_base,2021.2.3,Win32,60.32454606,1.2096,,,6,0,6,0,1,,,,,,,,
,,"[""circle"",""no_dis"",""hori"",""left"",[99999,99999],[0,150]]",circle,no_dis,hori,left,"[99999,99999]","[0,150]",left,1,,,,,,001,2025-03-17_14h58.18.021,SL_base,2021.2.3,Win32,60.32454606,0.9194,,,7,0,7,0,1,,,,,,,,
,,"[""circle"",""red"",""vert"",""up"",[-150,0],[-106,106]]",circle,red,vert,up,"[-150,0]","[-106,106]",up,1,,,,,,001,2025-03-17_14h58.18.021,SL_base,2021.2.3,Win32,60.32454606,1.9872,,,8,0,8,0,1,,,,,,,,
,,"[""circle"",""green"",""hori"",""left"",[0,-150],[-106,-106]]",circle,green,hori,left,"[0,-150]","[-106,-106]",left,1,,,,,,001,2025-03-17_14h58.18.021,SL_base,2021.2.3,Win32,60.32454606,1.4493,,,9,0,9,0,1,,,,,,,,
,,"[""diamond"",""green"",""hori"",""left"",[106,106],[-106,106]]",diamond,green,hori,left,"[106,106]","[-106,106]",left,1,,,,,,001,2025-03-17_14h58.18.021,SL_base,2021.2.3,Win32,60.32454606,2.0465,,,10,0,10,0,1,,,,,,,,
,,"[""diamond"",""red"",""vert"",""up"",[150,0],[0,150]]",diamond,red,vert,up,"[150,0]","[0,150]",up,1,,,,,,001,2025-03-17_14h58.18.021,SL_base,2021.2.3,Win32,60.32454606,2.2473,,,11,0,11,0,1,,,,,,,,
,,"[""diamond"",""no_dis"",""hori"",""left"",[99999,99999],[-106,106]]",diamond,no_dis,hori,left,"[99999,99999]","[-106,106]",left,1,,,,,,001,2025-03-17_14h58.18.021,SL_base,2021.2.3,Win32,60.32454606,1.4708,,,12,0,12,0,1,,,,,,,,
,,"[""circle"",""no_dis"",""hori"",""left"",[99999,99999],[150,0]]",circle,no_dis,hori,left,"[99999,99999]","[150,0]",left,1,,,,,,001,2025-03-17_14h58.18.021,SL_base,2021.2.3,Win32,60.32454606,1.664,,,13,0,13,0,1,,,,,,,,
,,"[""diamond"",""no_dis"",""hori"",""left"",[99999,99999],[106,-106]]",diamond,no_dis,hori,left,"[99999,99999]","[106,-106]",left,1,,,,,,001,2025-03-17_14h58.18.021,SL_base,2021.2.3,Win32,60.32454606,1.2482,,,14,0,14,0,1,,,,,,,,
,,"[""circle"",""red"",""vert"",""up"",[150,0],[0,150]]",circle,red,vert,up,"[150,0]","[0,150]",up,1,,,,,,001,2025-03-17_14h58.18.021,SL_base,2021.2.3,Win32,60.32454606,1.9168,,,15,0,15,0,1,,,,,,,,
,,"[""diamond"",""green"",""vert"",""up"",[-106,-106],[150,0]]",diamond,green,vert,up,"[-106,-106]","[150,0]",up,1,,,,,,001,2025-03-17_14h58.18.021,SL_base,2021.2.3,Win32,60.32454606,1.3986,,,16,0,16,0,1,,,,,,,,
,,"[""diamond"",""no_dis"",""vert"",""up"",[99999,99999],[0,150]]",diamond,no_dis,vert,up,"[99999,99999]","[0,150]",up,1,,,,,,001,2025-03-17_14h58.18.021,SL_base,2021.2.3,Win32,60.32454606,1.866,,,17,0,17,0,1,,,,,,,,
,,"[""diamond"",""no_dis"",""vert"",""up"",[99999,99999],[0,-150]]",diamond,no_dis,vert,up,"[99999,99999]","[0,-150]",up,1,,,,,,001,2025-03-17_14h58.18.021,SL_base,2021.2.3,Win32,60.32454606,1.5471,,,18,0,18,0,1,,,,,,,,
,,"[""circle"",""no_dis"",""hori"",""left"",[99999,99999],[106,-106]]",circle,no_dis,hori,left,"[99999,99999]","[106,-106]",left,1,,,,,,001,2025-03-17_14h58.18.021,SL_base,2021.2.3,Win32,60.32454606,1.4168,,,19,0,19,0,1,,,,,,,,
,,"[""diamond"",""red"",""hori"",""left"",[-106,-106],[106,-106]]",diamond,red,hori,left,"[-106,-106]","[106,-106]",left,1,,,,,,001,2025-03-17_14h58.18.021,SL_base,2021.2.3,Win32,60.32454606,1.4651,,,20,0,20,0,1,,,,,,,,
,,"[""diamond"",""red"",""hori"",""left"",[106,106],[0,150]]",diamond,red,hori,left,"[106,106]","[0,150]",left,1,,,,,,001,2025-03-17_14h58.18.021,SL_base,2021.2.3,Win32,60.32454606,1.8665,,,21,0,21,0,1,,,,,,,,
,,"[""diamond"",""red"",""vert"",""up"",[150,0],[-106,106]]",diamond,red,vert,up,"[150,0]","[-106,106]",up,1,,,,,,001,2025-03-17_14h58.18.021,SL_base,2021.2.3,Win32,60.32454606,1.8098,,,22,0,22,0,1,,,,,,,,
,,"[""circle"",""green"",""hori"",""left"",[106,-106],[0,150]]",circle,green,hori,left,"[106,-106]","[0,150]",left,1,,,,,,001,2025-03-17_14h58.18.021,SL_base,2021.2.3,Win32,60.32454606,1.5271,,,23,0,23,0,1,,,,,,,,
,,"[""circle"",""red"",""hori"",""left"",[-106,106],[0,-150]]",circle,red,hori,left,"[-106,106]","[0,-150]",left,1,,,,,,001,2025-03-17_14h58.18.021,SL_base,2021.2.3,Win32,60.32454606,1.2809,,,24,0,24,0,1,,,,,,,,
,,"[""circle"",""red"",""vert"",""up"",[150,0],[0,-150]]",circle,red,vert,up,"[150,0]","[0,-150]",up,1,,,,,,001,2025-03-17_14h58.18.021,SL_base,2021.2.3,Win32,60.32454606,1.3302,,,25,0,25,0,1,,,,,,,,
,,"[""circle"",""no_dis"",""vert"",""up"",[99999,99999],[150,0]]",circle,no_dis,vert,up,"[99999,99999]","[150,0]",up,1,,,,,,001,2025-03-17_14h58.18.021,SL_base,2021.2.3,Win32,60.32454606,1.0141,,,26,0,26,0,1,,,,,,,,
,,"[""circle"",""no_dis"",""hori"",""left"",[99999,99999],[0,150]]",circle,no_dis,hori,left,"[99999,99999]","[0,150]",left,1,,,,,,001,2025-03-17_14h58.18.021,SL_base,2021.2.3,Win32,60.32454606,1.9642,,,27,0,27,0,1,,,,,,,,
,,"[""diamond"",""no_dis"",""hori"",""left"",[99999,99999],[106,-106]]",diamond,no_dis,hori,left,"[99999,99999]","[106,-106]",left,1,,,,,,001,2025-03-17_14h58.18.021,SL_base,2021.2.3,Win32,60.32454606,1.4894,,,28,0,28,0,1,,,,,,,,
,,"[""diamond"",""no_dis"",""hori"",""left"",[99999,99999],[-106,-106]]",diamond,no_dis,hori,left,"[99999,99999]","[-106,-106]",left,1,,,,,,001,2025-03-17_14h58.18.021,SL_base,2021.2.3,Win32,60.32454606,1.1481,,,29,0,29,0,1,,,,,,,,
,,"[""diamond"",""no_dis"",""hori"",""left"",[99999,99999],[0,-150]]",diamond,no_dis,hori,left,"[99999,99999]","[0,-150]",left,1,,,,,,001,2025-03-17_14h58.18.021,SL_base,2021.2.3,Win32,60.32454606,1.093,,,30,0,30,0,1,,,,,,,,
,,"[""circle"",""no_dis"",""hori"",""left"",[99999,99999],[0,-150]]",circle,no_dis,hori,left,"[99999,99999]","[0,-150]",left,1,,,,,,001,2025-03-17_14h58.18.021,SL_base,2021.2.3,Win32,60.32454606,0.9955,,,31,0,31,0,1,,,,,,,,
,,"[""circle"",""red"",""hori"",""left"",[150,0],[-106,106]]",circle,red,hori,left,"[150,0]","[-106,106]",left,1,,,,,,001,2025-03-17_14h58.18.021,SL_base,2021.2.3,Win32,60.32454606,1.4331,,,32,0,32,0,1,,,,,,,,
,,"[""diamond"",""green"",""vert"",""up"",[106,106],[-106,106]]",diamond,green,vert,up,"[106,106]","[-106,106]",up,1,,,,,,001,2025-03-17_14h58.18.021,SL_base,2021.2.3,Win32,60.32454606,1.5032,,,33,0,33,0,1,,,,,,,,
,,"[""diamond"",""red"",""hori"",""left"",[106,106],[-106,106]]",diamond,red,hori,left,"[106,106]","[-106,106]",left,1,,,,,,001,2025-03-17_14h58.18.021,SL_base,2021.2.3,Win32,60.32454606,1.9326,,,34,0,34,0,1,,,,,,,,
,,"[""diamond"",""no_dis"",""vert"",""up"",[99999,99999],[0,-150]]",diamond,no_dis,vert,up,"[99999,99999]","[0,-150]",up,1,,,,,,001,2025-03-17_14h58.18.021,SL_base,2021.2.3,Win32,60.32454606,1.5023,,,35,0,35,0,1,,,,,,,,
,,"[""diamond"",""green"",""vert"",""up"",[150,0],[-150,0]]",diamond,green,vert,up,"[150,0]","[-150,0]",up,1,,,,,,001,2025-03-17_14h58.18.021,SL_base,2021.2.3,Win32,60.32454606,1.4487,,,36,0,36,0,1,,,,,,,,
,,"[""circle"",""red"",""vert"",""up"",[106,106],[0,-150]]",circle,red,vert,up,"[106,106]","[0,-150]",up,1,,,,,,001,2025-03-17_14h58.18.021,SL_base,2021.2.3,Win32,60.32454606,1.7636,,,37,0,37,0,1,,,,,,,,
,,"[""diamond"",""red"",""vert"",""up"",[106,106],[106,-106]]",diamond,red,vert,up,"[106,106]","[106,-106]",up,1,,,,,,001,2025-03-17_14h58.18.021,SL_base,2021.2.3,Win32,60.32454606,1.3054,,,38,0,38,0,1,,,,,,,,
,,"[""circle"",""green"",""hori"",""left"",[-106,106],[-150,0]]",circle,green,hori,left,"[-106,106]","[-150,0]",left,1,,,,,,001,2025-03-17_14h58.18.021,SL_base,2021.2.3,Win32,60.32454606,1.2523,,,39,0,39,0,1,,,,,,,,
,,"[""diamond"",""no_dis"",""hori"",""left"",[99999,99999],[0,150]]",diamond,no_dis,hori,left,"[99999,99999]","[0,150]",left,1,,,,,,001,2025-03-17_14h58.18.021,SL_base,2021.2.3,Win32,60.32454606,2.5746,,,40,0,40,0,1,,,,,,,,
,,"[""circle"",""green"",""vert"",""up"",[106,106],[0,150]]",circle,green,vert,up,"[106,106]","[0,150]",up,1,,,,,,001,2025-03-17_14h58.18.021,SL_base,2021.2.3,Win32,60.32454606,2.1689,,,41,0,41,0,1,,,,,,,,
,,"[""circle"",""no_dis"",""hori"",""left"",[99999,99999],[0,150]]",circle,no_dis,hori,left,"[99999,99999]","[0,150]",left,1,,,,,,001,2025-03-17_14h58.18.021,SL_base,2021.2.3,Win32,60.32454606,1.6217,,,42,0,42,0,1,,,,,,,,
,,"[""circle"",""green"",""vert"",""up"",[106,106],[150,0]]",circle,green,vert,up,"[106,106]","[150,0]",up,1,,,,,,001,2025-03-17_14h58.18.021,SL_base,2021.2.3,Win32,60.32454606,1.0663,,,43,0,43,0,1,,,,,,,,
,,"[""circle"",""no_dis"",""vert"",""up"",[99999,99999],[-106,-106]]",circle,no_dis,vert,up,"[99999,99999]","[-106,-106]",up,1,,,,,,001,2025-03-17_14h58.18.021,SL_base,2021.2.3,Win32,60.32454606,1.6984,,,44,0,44,0,1,,,,,,,,
,,"[""circle"",""red"",""hori"",""left"",[106,106],[0,150]]",circle,red,hori,left,"[106,106]","[0,150]",left,1,,,,,,001,2025-03-17_14h58.18.021,SL_base,2021.2.3,Win32,60.32454606,2.2147,,,45,0,45,0,1,,,,,,,,
,,"[""circle"",""no_dis"",""vert"",""up"",[99999,99999],[-106,106]]",circle,no_dis,vert,up,"[99999,99999]","[-106,106]",up,1,,,,,,001,2025-03-17_14h58.18.021,SL_base,2021.2.3,Win32,60.32454606,2.7643,,,46,0,46,0,1,,,,,,,,
,,"[""circle"",""no_dis"",""hori"",""left"",[99999,99999],[-150,0]]",circle,no_dis,hori,left,"[99999,99999]","[-150,0]",left,1,,,,,,001,2025-03-17_14h58.18.021,SL_base,2021.2.3,Win32,60.32454606,1.1327,,,47,0,47,0,1,,,,,,,,
,,"[""circle"",""red"",""vert"",""up"",[106,106],[106,-106]]",circle,red,vert,up,"[106,106]","[106,-106]",up,1,,,,,,001,2025-03-17_14h58.18.021,SL_base,2021.2.3,Win32,60.32454606,1.6315,,,48,0,48,0,1,,,,,,,,
,,"[""circle"",""green"",""hori"",""left"",[-106,106],[-106,-106]]",circle,green,hori,left,"[-106,106]","[-106,-106]",left,1,,,,,,001,2025-03-17_14h58.18.021,SL_base,2021.2.3,Win32,60.32454606,1.0658,,,49,0,49,0,1,,,,,,,,
,,"[""circle"",""green"",""vert"",""up"",[0,150],[0,-150]]",circle,green,vert,up,"[0,150]","[0,-150]",up,1,,,,,,001,2025-03-17_14h58.18.021,SL_base,2021.2.3,Win32,60.32454606,1.2846,,,50,0,50,0,1,,,,,,,,
,,"[""diamond"",""green"",""hori"",""left"",[-150,0],[-106,106]]",diamond,green,hori,left,"[-150,0]","[-106,106]",left,1,,,,,,001,2025-03-17_14h58.18.021,SL_base,2021.2.3,Win32,60.32454606,2.0039,,,51,0,51,0,1,,,,,,,,
,,"[""circle"",""no_dis"",""hori"",""left"",[99999,99999],[0,-150]]",circle,no_dis,hori,left,"[99999,99999]","[0,-150]",left,1,,,,,,001,2025-03-17_14h58.18.021,SL_base,2021.2.3,Win32,60.32454606,1.3466,,,52,0,52,0,1,,,,,,,,
,,"[""circle"",""red"",""vert"",""up"",[106,106],[0,150]]",circle,red,vert,up,"[106,106]","[0,150]",up,1,,,,,,001,2025-03-17_14h58.18.021,SL_base,2021.2.3,Win32,60.32454606,1.6151,,,53,0,53,0,1,,,,,,,,
,,"[""circle"",""no_dis"",""hori"",""left"",[99999,99999],[106,-106]]",circle,no_dis,hori,left,"[99999,99999]","[106,-106]",left,1,,,,,,001,2025-03-17_14h58.18.021,SL_base,2021.2.3,Win32,60.32454606,1.0394,,,54,0,54,0,1,,,,,,,,
,,"[""diamond"",""green"",""hori"",""left"",[106,106],[-150,0]]",diamond,green,hori,left,"[106,106]","[-150,0]",left,1,,,,,,001,2025-03-17_14h58.18.021,SL_base,2021.2.3,Win32,60.32454606,2.2652,,,55,0,55,0,1,,,,,,,,
,,"[""diamond"",""green"",""vert"",""up"",[106,-106],[0,-150]]",diamond,green,vert,up,"[106,-106]","[0,-150]",left,0,,,,,,001,2025-03-17_14h58.18.021,SL_base,2021.2.3,Win32,60.32454606,1.9984,,,56,0,56,0,1,,,,,,,,
,,"[""diamond"",""green"",""vert"",""up"",[0,150],[-106,106]]",diamond,green,vert,up,"[0,150]","[-106,106]",up,1,,,,,,001,2025-03-17_14h58.18.021,SL_base,2021.2.3,Win32,60.32454606,2.656,,,57,0,57,0,1,,,,,,,,
,,"[""circle"",""no_dis"",""vert"",""up"",[99999,99999],[-106,106]]",circle,no_dis,vert,up,"[99999,99999]","[-106,106]",up,1,,,,,,001,2025-03-17_14h58.18.021,SL_base,2021.2.3,Win32,60.32454606,1.9131,,,58,0,58,0,1,,,,,,,,
,,"[""diamond"",""green"",""vert"",""up"",[0,-150],[-106,106]]",diamond,green,vert,up,"[0,-150]","[-106,106]",up,1,,,,,,001,2025-03-17_14h58.18.021,SL_base,2021.2.3,Win32,60.32454606,1.5685,,,59,0,59,0,1,,,,,,,,
,,"[""diamond"",""green"",""hori"",""left"",[0,150],[-106,-106]]",diamond,green,hori,left,"[0,150]","[-106,-106]",left,1,,,,,,001,2025-03-17_14h58.18.021,SL_base,2021.2.3,Win32,60.32454606,1.6328,,,60,0,60,0,1,,,,,,,,
,,"[""diamond"",""red"",""vert"",""up"",[0,150],[0,-150]]",diamond,red,vert,up,"[0,150]","[0,-150]",up,1,,,,,,001,2025-03-17_14h58.18.021,SL_base,2021.2.3,Win32,60.32454606,1.3825,,,61,0,61,0,1,,,,,,,,
,,"[""circle"",""green"",""vert"",""up"",[106,106],[0,150]]",circle,green,vert,up,"[106,106]","[0,150]",up,1,,,,,,001,2025-03-17_14h58.18.021,SL_base,2021.2.3,Win32,60.32454606,1.2987,,,62,0,62,0,1,,,,,,,,
,,"[""circle"",""green"",""vert"",""up"",[-106,106],[0,-150]]",circle,green,vert,up,"[-106,106]","[0,-150]",up,1,,,,,,001,2025-03-17_14h58.18.021,SL_base,2021.2.3,Win32,60.32454606,2.2817,,,63,0,63,0,1,,,,,,,,
,,"[""diamond"",""red"",""hori"",""left"",[106,106],[-106,-106]]",diamond,red,hori,left,"[106,106]","[-106,-106]",left,1,,,,,,001,2025-03-17_14h58.18.021,SL_base,2021.2.3,Win32,60.32454606,1.2329,,,64,0,64,0,1,,,,,,,,
,,"[""circle"",""red"",""hori"",""left"",[0,-150],[106,106]]",circle,red,hori,left,"[0,-150]","[106,106]",left,1,,,,,,001,2025-03-17_14h58.18.021,SL_base,2021.2.3,Win32,60.32454606,1.2989,,,65,0,65,0,1,,,,,,,,
,,"[""diamond"",""no_dis"",""vert"",""up"",[99999,99999],[-150,0]]",diamond,no_dis,vert,up,"[99999,99999]","[-150,0]",up,1,,,,,,001,2025-03-17_14h58.18.021,SL_base,2021.2.3,Win32,60.32454606,1.2164,,,66,0,66,0,1,,,,,,,,
,,"[""diamond"",""no_dis"",""vert"",""up"",[99999,99999],[106,106]]",diamond,no_dis,vert,up,"[99999,99999]","[106,106]",up,1,,,,,,001,2025-03-17_14h58.18.021,SL_base,2021.2.3,Win32,60.32454606,0.9216,,,67,0,67,0,1,,,,,,,,
,,"[""diamond"",""no_dis"",""vert"",""up"",[99999,99999],[-106,-106]]",diamond,no_dis,vert,up,"[99999,99999]","[-106,-106]",up,1,,,,,,001,2025-03-17_14h58.18.021,SL_base,2021.2.3,Win32,60.32454606,1.149,,,68,0,68,0,1,,,,,,,,
,,"[""circle"",""red"",""hori"",""left"",[106,106],[-106,106]]",circle,red,hori,left,"[106,106]","[-106,106]",left,1,,,,,,001,2025-03-17_14h58.18.021,SL_base,2021.2.3,Win32,60.32454606,1.3317,,,69,0,69,0,1,,,,,,,,
,,"[""diamond"",""green"",""hori"",""left"",[-106,-106],[-106,106]]",diamond,green,hori,left,"[-106,-106]","[-106,106]",left,1,,,,,,001,2025-03-17_14h58.18.021,SL_base,2021.2.3,Win32,60.32454606,1.7644,,,70,0,70,0,1,,,,,,,,
,,"[""diamond"",""red"",""vert"",""up"",[0,-150],[0,150]]",diamond,red,vert,up,"[0,-150]","[0,150]",up,1,,,,,,001,2025-03-17_14h58.18.021,SL_base,2021.2.3,Win32,60.32454606,2.2493,,,71,0,71,0,1,,,,,,,,
,,"[""circle"",""no_dis"",""hori"",""left"",[99999,99999],[-106,106]]",circle,no_dis,hori,left,"[99999,99999]","[-106,106]",left,1,,,,,,001,2025-03-17_14h58.18.021,SL_base,2021.2.3,Win32,60.32454606,1.0162,,,72,0,72,0,1,,,,,,,,
,,"[""diamond"",""green"",""hori"",""left"",[106,-106],[-150,0]]",diamond,green,hori,left,"[106,-106]","[-150,0]",left,1,,,,,,001,2025-03-17_14h58.18.021,SL_base,2021.2.3,Win32,60.32454606,0.9985,,,73,0,73,0,1,,,,,,,,
,,"[""circle"",""red"",""vert"",""up"",[0,-150],[106,-106]]",circle,red,vert,up,"[0,-150]","[106,-106]",up,1,,,,,,001,2025-03-17_14h58.18.021,SL_base,2021.2.3,Win32,60.32454606,1.2471,,,74,0,74,0,1,,,,,,,,
,,"[""diamond"",""no_dis"",""vert"",""up"",[99999,99999],[150,0]]",diamond,no_dis,vert,up,"[99999,99999]","[150,0]",up,1,,,,,,001,2025-03-17_14h58.18.021,SL_base,2021.2.3,Win32,60.32454606,1.415,,,75,0,75,0,1,,,,,,,,
,,"[""diamond"",""green"",""vert"",""up"",[-106,106],[106,-106]]",diamond,green,vert,up,"[-106,106]","[106,-106]",up,1,,,,,,001,2025-03-17_14h58.18.021,SL_base,2021.2.3,Win32,60.32454606,0.9484,,,76,0,76,0,1,,,,,,,,
,,"[""circle"",""red"",""hori"",""left"",[-150,0],[0,150]]",circle,red,hori,left,"[-150,0]","[0,150]",left,1,,,,,,001,2025-03-17_14h58.18.021,SL_base,2021.2.3,Win32,60.32454606,1.0548,,,77,0,77,0,1,,,,,,,,
,,"[""diamond"",""no_dis"",""vert"",""up"",[99999,99999],[106,106]]",diamond,no_dis,vert,up,"[99999,99999]","[106,106]",up,1,,,,,,001,2025-03-17_14h58.18.021,SL_base,2021.2.3,Win32,60.32454606,1.3213,,,78,0,78,0,1,,,,,,,,
,,"[""circle"",""green"",""hori"",""left"",[0,150],[106,-106]]",circle,green,hori,left,"[0,150]","[106,-106]",left,1,,,,,,001,2025-03-17_14h58.18.021,SL_base,2021.2.3,Win32,60.32454606,1.3661,,,79,0,79,0,1,,,,,,,,
,,"[""diamond"",""no_dis"",""hori"",""left"",[99999,99999],[-106,-106]]",diamond,no_dis,hori,left,"[99999,99999]","[-106,-106]",left,1,,,,,,001,2025-03-17_14h58.18.021,SL_base,2021.2.3,Win32,60.32454606,1.8207,,,80,0,80,0,1,,,,,,,,
,,"[""circle"",""green"",""vert"",""up"",[106,106],[-150,0]]",circle,green,vert,up,"[106,106]","[-150,0]",up,1,,,,,,001,2025-03-17_14h58.18.021,SL_base,2021.2.3,Win32,60.32454606,2.114,,,81,0,81,0,1,,,,,,,,
,,"[""circle"",""green"",""hori"",""left"",[106,106],[-150,0]]",circle,green,hori,left,"[106,106]","[-150,0]",left,1,,,,,,001,2025-03-17_14h58.18.021,SL_base,2021.2.3,Win32,60.32454606,1.5766,,,82,0,82,0,1,,,,,,,,
,,"[""circle"",""green"",""vert"",""up"",[106,106],[-150,0]]",circle,green,vert,up,"[106,106]","[-150,0]",up,1,,,,,,001,2025-03-17_14h58.18.021,SL_base,2021.2.3,Win32,60.32454606,0.9966,,,83,0,83,0,1,,,,,,,,
,,"[""circle"",""green"",""hori"",""left"",[-106,-106],[106,-106]]",circle,green,hori,left,"[-106,-106]","[106,-106]",left,1,,,,,,001,2025-03-17_14h58.18.021,SL_base,2021.2.3,Win32,60.32454606,1.0989,,,84,0,84,0,1,,,,,,,,
,,"[""circle"",""red"",""hori"",""left"",[106,-106],[0,150]]",circle,red,hori,left,"[106,-106]","[0,150]",left,1,,,,,,001,2025-03-17_14h58.18.021,SL_base,2021.2.3,Win32,60.32454606,1.1489,,,85,0,85,0,1,,,,,,,,
,,"[""diamond"",""red"",""hori"",""left"",[0,150],[106,-106]]",diamond,red,hori,left,"[0,150]","[106,-106]",left,1,,,,,,001,2025-03-17_14h58.18.021,SL_base,2021.2.3,Win32,60.32454606,2.1302,,,86,0,86,0,1,,,,,,,,
,,"[""diamond"",""no_dis"",""hori"",""left"",[99999,99999],[-150,0]]",diamond,no_dis,hori,left,"[99999,99999]","[-150,0]",left,1,,,,,,001,2025-03-17_14h58.18.021,SL_base,2021.2.3,Win32,60.32454606,1.4987,,,87,0,87,0,1,,,,,,,,
,,"[""diamond"",""red"",""vert"",""up"",[106,106],[0,150]]",diamond,red,vert,up,"[106,106]","[0,150]",up,1,,,,,,001,2025-03-17_14h58.18.021,SL_base,2021.2.3,Win32,60.32454606,1.7987,,,88,0,88,0,1,,,,,,,,
,,"[""diamond"",""red"",""vert"",""up"",[0,-150],[-106,106]]",diamond,red,vert,up,"[0,-150]","[-106,106]",up,1,,,,,,001,2025-03-17_14h58.18.021,SL_base,2021.2.3,Win32,60.32454606,1.1814,,,89,0,89,0,1,,,,,,,,
,,"[""circle"",""red"",""hori"",""left"",[0,150],[0,-150]]",circle,red,hori,left,"[0,150]","[0,-150]",left,1,,,,,,001,2025-03-17_14h58.18.021,SL_base,2021.2.3,Win32,60.32454606,1.8229,,,90,0,90,0,1,,,,,,,,
,,"[""diamond"",""green"",""hori"",""left"",[-150,0],[106,-106]]",diamond,green,hori,left,"[-150,0]","[106,-106]",left,1,,,,,,001,2025-03-17_14h58.18.021,SL_base,2021.2.3,Win32,60.32454606,1.4824,,,91,0,91,0,1,,,,,,,,
,,"[""diamond"",""red"",""vert"",""up"",[-106,-106],[106,-106]]",diamond,red,vert,up,"[-106,-106]","[106,-106]",up,1,,,,,,001,2025-03-17_14h58.18.021,SL_base,2021.2.3,Win32,60.32454606,1.4313,,,92,0,92,0,1,,,,,,,,
,,"[""diamond"",""red"",""hori"",""left"",[0,-150],[-150,0]]",diamond,red,hori,left,"[0,-150]","[-150,0]",left,1,,,,,,001,2025-03-17_14h58.18.021,SL_base,2021.2.3,Win32,60.32454606,1.2974,,,93,0,93,0,1,,,,,,,,
,,"[""diamond"",""red"",""hori"",""left"",[0,-150],[0,150]]",diamond,red,hori,left,"[0,-150]","[0,150]",left,1,,,,,,001,2025-03-17_14h58.18.021,SL_base,2021.2.3,Win32,60.32454606,1.5384,,,94,0,94,0,1,,,,,,,,
,,"[""circle"",""green"",""vert"",""up"",[-150,0],[-106,106]]",circle,green,vert,up,"[-150,0]","[-106,106]",up,1,,,,,,001,2025-03-17_14h58.18.021,SL_base,2021.2.3,Win32,60.32454606,1.5829,,,95,0,95,0,1,,,,,,,,
,,"[""diamond"",""no_dis"",""hori"",""left"",[99999,99999],[-150,0]]",diamond,no_dis,hori,left,"[99999,99999]","[-150,0]",left,1,,,,,,001,2025-03-17_14h58.18.021,SL_base,2021.2.3,Win32,60.32454606,1.9815,,,96,0,96,0,1,,,,,,,,
,,"[""diamond"",""no_dis"",""hori"",""left"",[99999,99999],[106,106]]",diamond,no_dis,hori,left,"[99999,99999]","[106,106]",left,1,,,,,,001,2025-03-17_14h58.18.021,SL_base,2021.2.3,Win32,60.32454606,2.2461,,,97,0,97,0,1,,,,,,,,
,,"[""diamond"",""green"",""vert"",""up"",[-106,106],[-106,-106]]",diamond,green,vert,up,"[-106,106]","[-106,-106]",up,1,,,,,,001,2025-03-17_14h58.18.021,SL_base,2021.2.3,Win32,60.32454606,1.2979,,,98,0,98,0,1,,,,,,,,
,,"[""diamond"",""green"",""vert"",""up"",[106,106],[-106,-106]]",diamond,green,vert,up,"[106,106]","[-106,-106]",up,1,,,,,,001,2025-03-17_14h58.18.021,SL_base,2021.2.3,Win32,60.32454606,1.2328,,,99,0,99,0,1,,,,,,,,
,,"[""diamond"",""no_dis"",""vert"",""up"",[99999,99999],[-106,-106]]",diamond,no_dis,vert,up,"[99999,99999]","[-106,-106]",up,1,,,,,,001,2025-03-17_14h58.18.021,SL_base,2021.2.3,Win32,60.32454606,1.0323,,,100,0,100,0,1,,,,,,,,
,,"[""circle"",""green"",""vert"",""up"",[150,0],[-150,0]]",circle,green,vert,up,"[150,0]","[-150,0]",up,1,,,,,,001,2025-03-17_14h58.18.021,SL_base,2021.2.3,Win32,60.32454606,1.2739,,,101,0,101,0,1,,,,,,,,
,,"[""circle"",""red"",""hori"",""left"",[106,106],[-150,0]]",circle,red,hori,left,"[106,106]","[-150,0]",left,1,,,,,,001,2025-03-17_14h58.18.021,SL_base,2021.2.3,Win32,60.32454606,1.181,,,102,0,102,0,1,,,,,,,,
,,"[""diamond"",""green"",""hori"",""left"",[150,0],[106,106]]",diamond,green,hori,left,"[150,0]","[106,106]",left,1,,,,,,001,2025-03-17_14h58.18.021,SL_base,2021.2.3,Win32,60.32454606,0.9769,,,103,0,103,0,1,,,,,,,,
,,"[""diamond"",""red"",""vert"",""up"",[0,150],[-150,0]]",diamond,red,vert,up,"[0,150]","[-150,0]",up,1,,,,,,001,2025-03-17_14h58.18.021,SL_base,2021.2.3,Win32,60.32454606,1.6407,,,104,0,104,0,1,,,,,,,,
,,"[""diamond"",""red"",""vert"",""up"",[106,-106],[0,150]]",diamond,red,vert,up,"[106,-106]","[0,150]",up,1,,,,,,001,2025-03-17_14h58.18.021,SL_base,2021.2.3,Win32,60.32454606,1.3157,,,105,0,105,0,1,,,,,,,,
,,"[""circle"",""green"",""hori"",""left"",[106,-106],[-106,106]]",circle,green,hori,left,"[106,-106]","[-106,106]",left,1,,,,,,001,2025-03-17_14h58.18.021,SL_base,2021.2.3,Win32,60.32454606,1.6148,,,106,0,106,0,1,,,,,,,,
,,"[""circle"",""red"",""vert"",""up"",[-106,106],[-150,0]]",circle,red,vert,up,"[-106,106]","[-150,0]",up,1,,,,,,001,2025-03-17_14h58.18.021,SL_base,2021.2.3,Win32,60.32454606,2.2634,,,107,0,107,0,1,,,,,,,,
,,"[""circle"",""no_dis"",""vert"",""up"",[99999,99999],[106,106]]",circle,no_dis,vert,up,"[99999,99999]","[106,106]",up,1,,,,,,001,2025-03-17_14h58.18.021,SL_base,2021.2.3,Win32,60.32454606,1.2149,,,108,0,108,0,1,,,,,,,,
,,"[""circle"",""green"",""vert"",""up"",[106,106],[-150,0]]",circle,green,vert,up,"[106,106]","[-150,0]",up,1,,,,,,001,2025-03-17_14h58.18.021,SL_base,2021.2.3,Win32,60.32454606,1.2939,,,109,0,109,0,1,,,,,,,,
,,"[""diamond"",""red"",""hori"",""left"",[106,-106],[-150,0]]",diamond,red,hori,left,"[106,-106]","[-150,0]",left,1,,,,,,001,2025-03-17_14h58.18.021,SL_base,2021.2.3,Win32,60.32454606,2.5145,,,110,0,110,0,1,,,,,,,,
,,"[""circle"",""no_dis"",""vert"",""up"",[99999,99999],[-150,0]]",circle,no_dis,vert,up,"[99999,99999]","[-150,0]",up,1,,,,,,001,2025-03-17_14h58.18.021,SL_base,2021.2.3,Win32,60.32454606,2.7341,,,111,0,111,0,1,,,,,,,,
,,"[""diamond"",""no_dis"",""vert"",""up"",[99999,99999],[106,-106]]",diamond,no_dis,vert,up,"[99999,99999]","[106,-106]",up,1,,,,,,001,2025-03-17_14h58.18.021,SL_base,2021.2.3,Win32,60.32454606,2.3297,,,112,0,112,0,1,,,,,,,,
,,"[""diamond"",""red"",""hori"",""left"",[-150,0],[0,150]]",diamond,red,hori,left,"[-150,0]","[0,150]",left,1,,,,,,001,2025-03-17_14h58.18.021,SL_base,2021.2.3,Win32,60.32454606,1.2014,,,113,0,113,0,1,,,,,,,,
,,"[""circle"",""no_dis"",""vert"",""up"",[99999,99999],[150,0]]",circle,no_dis,vert,up,"[99999,99999]","[150,0]",up,1,,,,,,001,2025-03-17_14h58.18.021,SL_base,2021.2.3,Win32,60.32454606,1.6498,,,114,0,114,0,1,,,,,,,,
,,"[""diamond"",""red"",""hori"",""left"",[-150,0],[106,-106]]",diamond,red,hori,left,"[-150,0]","[106,-106]",left,1,,,,,,001,2025-03-17_14h58.18.021,SL_base,2021.2.3,Win32,60.32454606,2.0654,,,115,0,115,0,1,,,,,,,,
,,"[""circle"",""green"",""hori"",""left"",[-150,0],[106,-106]]",circle,green,hori,left,"[-150,0]","[106,-106]",left,1,,,,,,001,2025-03-17_14h58.18.021,SL_base,2021.2.3,Win32,60.32454606,1.998,,,116,0,116,0,1,,,,,,,,
,,"[""circle"",""no_dis"",""vert"",""up"",[99999,99999],[-106,106]]",circle,no_dis,vert,up,"[99999,99999]","[-106,106]",up,1,,,,,,001,2025-03-17_14h58.18.021,SL_base,2021.2.3,Win32,60.32454606,1.4316,,,117,0,117,0,1,,,,,,,,
,,"[""circle"",""red"",""hori"",""left"",[106,106],[-150,0]]",circle,red,hori,left,"[106,106]","[-150,0]",left,1,,,,,,001,2025-03-17_14h58.18.021,SL_base,2021.2.3,Win32,60.32454606,1.2482,,,118,0,118,0,1,,,,,,,,
,,"[""diamond"",""green"",""vert"",""up"",[106,106],[106,-106]]",diamond,green,vert,up,"[106,106]","[106,-106]",up,1,,,,,,001,2025-03-17_14h58.18.021,SL_base,2021.2.3,Win32,60.32454606,1.3812,,,119,0,119,0,1,,,,,,,,
,,,,,,,,,,,,,,,,001,2025-03-17_14h58.18.021,SL_base,2021.2.3,Win32,60.32454606,,,,,,,,,3,space,69.664,2,0,2,0,1
,,"[""diamond"",""no_dis"",""vert"",""up"",[99999,99999],[150,0]]",diamond,no_dis,vert,up,"[99999,99999]","[150,0]",up,1,,,,,,001,2025-03-17_14h58.18.021,SL_base,2021.2.3,Win32,60.32454606,1.0159,,,0,0,0,0,1,,,,,,,,
,,"[""diamond"",""no_dis"",""vert"",""up"",[99999,99999],[-150,0]]",diamond,no_dis,vert,up,"[99999,99999]","[-150,0]",up,1,,,,,,001,2025-03-17_14h58.18.021,SL_base,2021.2.3,Win32,60.32454606,0.7494,,,1,0,1,0,1,,,,,,,,
,,"[""diamond"",""red"",""vert"",""up"",[106,106],[0,150]]",diamond,red,vert,up,"[106,106]","[0,150]",up,1,,,,,,001,2025-03-17_14h58.18.021,SL_base,2021.2.3,Win32,60.32454606,2.4465,,,2,0,2,0,1,,,,,,,,
,,"[""circle"",""red"",""vert"",""up"",[-106,106],[-150,0]]",circle,red,vert,up,"[-106,106]","[-150,0]",up,1,,,,,,001,2025-03-17_14h58.18.021,SL_base,2021.2.3,Win32,60.32454606,1.2154,,,3,0,3,0,1,,,,,,,,
,,"[""circle"",""green"",""vert"",""up"",[106,106],[0,150]]",circle,green,vert,up,"[106,106]","[0,150]",up,1,,,,,,001,2025-03-17_14h58.18.021,SL_base,2021.2.3,Win32,60.32454606,1.3304,,,4,0,4,0,1,,,,,,,,
,,"[""circle"",""no_dis"",""hori"",""left"",[99999,99999],[0,150]]",circle,no_dis,hori,left,"[99999,99999]","[0,150]",left,1,,,,,,001,2025-03-17_14h58.18.021,SL_base,2021.2.3,Win32,60.32454606,1.6658,,,5,0,5,0,1,,,,,,,,
,,"[""diamond"",""red"",""hori"",""left"",[106,-106],[-150,0]]",diamond,red,hori,left,"[106,-106]","[-150,0]",left,1,,,,,,001,2025-03-17_14h58.18.021,SL_base,2021.2.3,Win32,60.32454606,1.0668,,,6,0,6,0,1,,,,,,,,
,,"[""diamond"",""green"",""vert"",""up"",[150,0],[-150,0]]",diamond,green,vert,up,"[150,0]","[-150,0]",up,1,,,,,,001,2025-03-17_14h58.18.021,SL_base,2021.2.3,Win32,60.32454606,1.0331,,,7,0,7,0,1,,,,,,,,
,,"[""circle"",""no_dis"",""hori"",""left"",[99999,99999],[-150,0]]",circle,no_dis,hori,left,"[99999,99999]","[-150,0]",left,1,,,,,,001,2025-03-17_14h58.18.021,SL_base,2021.2.3,Win32,60.32454606,0.7532,,,8,0,8,0,1,,,,,,,,
,,"[""diamond"",""no_dis"",""hori"",""left"",[99999,99999],[-150,0]]",diamond,no_dis,hori,left,"[99999,99999]","[-150,0]",left,1,,,,,,001,2025-03-17_14h58.18.021,SL_base,2021.2.3,Win32,60.32454606,0.6815,,,9,0,9,0,1,,,,,,,,
,,"[""diamond"",""green"",""vert"",""up"",[0,150],[-106,106]]",diamond,green,vert,up,"[0,150]","[-106,106]",up,1,,,,,,001,2025-03-17_14h58.18.021,SL_base,2021.2.3,Win32,60.32454606,1.2641,,,10,0,10,0,1,,,,,,,,
,,"[""circle"",""no_dis"",""vert"",""up"",[99999,99999],[-106,106]]",circle,no_dis,vert,up,"[99999,99999]","[-106,106]",up,1,,,,,,001,2025-03-17_14h58.18.021,SL_base,2021.2.3,Win32,60.32454606,1.299,,,11,0,11,0,1,,,,,,,,
,,"[""diamond"",""red"",""vert"",""up"",[0,150],[0,-150]]",diamond,red,vert,up,"[0,150]","[0,-150]",up,1,,,,,,001,2025-03-17_14h58.18.021,SL_base,2021.2.3,Win32,60.32454606,1.1675,,,12,0,12,0,1,,,,,,,,
,,"[""circle"",""red"",""vert"",""up"",[150,0],[0,-150]]",circle,red,vert,up,"[150,0]","[0,-150]",up,1,,,,,,001,2025-03-17_14h58.18.021,SL_base,2021.2.3,Win32,60.32454606,1.6344,,,13,0,13,0,1,,,,,,,,
,,"[""diamond"",""no_dis"",""vert"",""up"",[99999,99999],[106,106]]",diamond,no_dis,vert,up,"[99999,99999]","[106,106]",up,1,,,,,,001,2025-03-17_14h58.18.021,SL_base,2021.2.3,Win32,60.32454606,1.2137,,,14,0,14,0,1,,,,,,,,
,,"[""circle"",""red"",""vert"",""up"",[106,106],[106,-106]]",circle,red,vert,up,"[106,106]","[106,-106]",up,1,,,,,,001,2025-03-17_14h58.18.021,SL_base,2021.2.3,Win32,60.32454606,1.266,,,15,0,15,0,1,,,,,,,,
,,"[""diamond"",""green"",""vert"",""up"",[-106,106],[-106,-106]]",diamond,green,vert,up,"[-106,106]","[-106,-106]",up,1,,,,,,001,2025-03-17_14h58.18.021,SL_base,2021.2.3,Win32,60.32454606,0.959,,,16,0,16,0,1,,,,,,,,
,,"[""circle"",""green"",""vert"",""up"",[-150,0],[-106,106]]",circle,green,vert,up,"[-150,0]","[-106,106]",up,1,,,,,,001,2025-03-17_14h58.18.021,SL_base,2021.2.3,Win32,60.32454606,1.757,,,17,0,17,0,1,,,,,,,,
,,"[""diamond"",""red"",""hori"",""left"",[106,106],[-106,106]]",diamond,red,hori,left,"[106,106]","[-106,106]",left,1,,,,,,001,2025-03-17_14h58.18.021,SL_base,2021.2.3,Win32,60.32454606,1.4311,,,18,0,18,0,1,,,,,,,,
,,"[""circle"",""no_dis"",""hori"",""left"",[99999,99999],[0,-150]]",circle,no_dis,hori,left,"[99999,99999]","[0,-150]",left,1,,,,,,001,2025-03-17_14h58.18.021,SL_base,2021.2.3,Win32,60.32454606,1.3807,,,19,0,19,0,1,,,,,,,,
,,"[""circle"",""no_dis"",""hori"",""left"",[99999,99999],[0,-150]]",circle,no_dis,hori,left,"[99999,99999]","[0,-150]",left,1,,,,,,001,2025-03-17_14h58.18.021,SL_base,2021.2.3,Win32,60.32454606,0.9144,,,20,0,20,0,1,,,,,,,,
,,"[""diamond"",""red"",""hori"",""left"",[0,150],[106,-106]]",diamond,red,hori,left,"[0,150]","[106,-106]",left,1,,,,,,001,2025-03-17_14h58.18.021,SL_base,2021.2.3,Win32,60.32454606,1.4008,,,21,0,21,0,1,,,,,,,,
,,"[""diamond"",""red"",""hori"",""left"",[106,106],[-106,-106]]",diamond,red,hori,left,"[106,106]","[-106,-106]",left,1,,,,,,001,2025-03-17_14h58.18.021,SL_base,2021.2.3,Win32,60.32454606,1.0822,,,22,0,22,0,1,,,,,,,,
,,"[""circle"",""red"",""hori"",""left"",[106,106],[-106,106]]",circle,red,hori,left,"[106,106]","[-106,106]",left,1,,,,,,001,2025-03-17_14h58.18.021,SL_base,2021.2.3,Win32,60.32454606,1.7165,,,23,0,23,0,1,,,,,,,,
,,"[""diamond"",""green"",""hori"",""left"",[-106,-106],[-106,106]]",diamond,green,hori,left,"[-106,-106]","[-106,106]",left,1,,,,,,001,2025-03-17_14h58.18.021,SL_base,2021.2.3,Win32,60.32454606,1.0985,,,24,0,24,0,1,,,,,,,,
,,"[""circle"",""red"",""vert"",""up"",[106,106],[0,-150]]",circle,red,vert,up,"[106,106]","[0,-150]",up,1,,,,,,001,2025-03-17_14h58.18.021,SL_base,2021.2.3,Win32,60.32454606,1.0971,,,25,0,25,0,1,,,,,,,,
,,"[""diamond"",""no_dis"",""hori"",""left"",[99999,99999],[106,-106]]",diamond,no_dis,hori,left,"[99999,99999]","[106,-106]",left,1,,,,,,001,2025-03-17_14h58.18.021,SL_base,2021.2.3,Win32,60.32454606,1.1589,,,26,0,26,0,1,,,,,,,,
,,"[""circle"",""green"",""hori"",""left"",[106,106],[-150,0]]",circle,green,hori,left,"[106,106]","[-150,0]",left,1,,,,,,001,2025-03-17_14h58.18.021,SL_base,2021.2.3,Win32,60.32454606,0.6981,,,27,0,27,0,1,,,,,,,,
,,"[""circle"",""red"",""hori"",""left"",[-150,0],[0,150]]",circle,red,hori,left,"[-150,0]","[0,150]",left,1,,,,,,001,2025-03-17_14h58.18.021,SL_base,2021.2.3,Win32,60.32454606,1.5079,,,28,0,28,0,1,,,,,,,,
,,"[""diamond"",""green"",""vert"",""up"",[-106,-106],[150,0]]",diamond,green,vert,up,"[-106,-106]","[150,0]",up,1,,,,,,001,2025-03-17_14h58.18.021,SL_base,2021.2.3,Win32,60.32454606,0.8816,,,29,0,29,0,1,,,,,,,,
,,"[""diamond"",""green"",""hori"",""left"",[106,106],[-150,0]]",diamond,green,hori,left,"[106,106]","[-150,0]",left,1,,,,,,001,2025-03-17_14h58.18.021,SL_base,2021.2.3,Win32,60.32454606,0.8174,,,30,0,30,0,1,,,,,,,,
,,"[""circle"",""no_dis"",""hori"",""left"",[99999,99999],[150,0]]",circle,no_dis,hori,left,"[99999,99999]","[150,0]",left,1,,,,,,001,2025-03-17_14h58.18.021,SL_base,2021.2.3,Win32,60.32454606,1.0159,,,31,0,31,0,1,,,,,,,,
,,"[""diamond"",""red"",""hori"",""left"",[-106,-106],[106,-106]]",diamond,red,hori,left,"[-106,-106]","[106,-106]",left,1,,,,,,001,2025-03-17_14h58.18.021,SL_base,2021.2.3,Win32,60.32454606,1.5643,,,32,0,32,0,1,,,,,,,,
,,"[""circle"",""red"",""vert"",""up"",[-150,0],[-106,106]]",circle,red,vert,up,"[-150,0]","[-106,106]",up,1,,,,,,001,2025-03-17_14h58.18.021,SL_base,2021.2.3,Win32,60.32454606,1.7813,,,33,0,33,0,1,,,,,,,,
,,"[""diamond"",""green"",""hori"",""left"",[106,106],[-106,106]]",diamond,green,hori,left,"[106,106]","[-106,106]",left,1,,,,,,001,2025-03-17_14h58.18.021,SL_base,2021.2.3,Win32,60.32454606,1.4642,,,34,0,34,0,1,,,,,,,,
,,"[""circle"",""green"",""vert"",""up"",[-106,106],[0,-150]]",circle,green,vert,up,"[-106,106]","[0,-150]",up,1,,,,,,001,2025-03-17_14h58.18.021,SL_base,2021.2.3,Win32,60.32454606,0.8653,,,35,0,35,0,1,,,,,,,,
,,"[""circle"",""no_dis"",""vert"",""up"",[99999,99999],[-106,-106]]",circle,no_dis,vert,up,"[99999,99999]","[-106,-106]",up,1,,,,,,001,2025-03-17_14h58.18.021,SL_base,2021.2.3,Win32,60.32454606,1.017,,,36,0,36,0,1,,,,,,,,
,,"[""diamond"",""no_dis"",""vert"",""up"",[99999,99999],[0,-150]]",diamond,no_dis,vert,up,"[99999,99999]","[0,-150]",up,1,,,,,,001,2025-03-17_14h58.18.021,SL_base,2021.2.3,Win32,60.32454606,0.8158,,,37,0,37,0,1,,,,,,,,
,,"[""circle"",""red"",""hori"",""left"",[106,-106],[0,150]]",circle,red,hori,left,"[106,-106]","[0,150]",left,1,,,,,,001,2025-03-17_14h58.18.021,SL_base,2021.2.3,Win32,60.32454606,1.6306,,,38,0,38,0,1,,,,,,,,
,,"[""circle"",""no_dis"",""hori"",""left"",[99999,99999],[0,150]]",circle,no_dis,hori,left,"[99999,99999]","[0,150]",left,1,,,,,,001,2025-03-17_14h58.18.021,SL_base,2021.2.3,Win32,60.32454606,1.3988,,,39,0,39,0,1,,,,,,,,
,,"[""circle"",""red"",""hori"",""left"",[106,106],[-150,0]]",circle,red,hori,left,"[106,106]","[-150,0]",left,1,,,,,,001,2025-03-17_14h58.18.021,SL_base,2021.2.3,Win32,60.32454606,1.299,,,40,0,40,0,1,,,,,,,,
,,"[""circle"",""red"",""hori"",""left"",[106,106],[0,150]]",circle,red,hori,left,"[106,106]","[0,150]",left,1,,,,,,001,2025-03-17_14h58.18.021,SL_base,2021.2.3,Win32,60.32454606,1.2689,,,41,0,41,0,1,,,,,,,,
,,"[""diamond"",""red"",""hori"",""left"",[106,106],[0,150]]",diamond,red,hori,left,"[106,106]","[0,150]",left,1,,,,,,001,2025-03-17_14h58.18.021,SL_base,2021.2.3,Win32,60.32454606,1.972,,,42,0,42,0,1,,,,,,,,
,,"[""diamond"",""green"",""vert"",""up"",[106,106],[106,-106]]",diamond,green,vert,up,"[106,106]","[106,-106]",up,1,,,,,,001,2025-03-17_14h58.18.021,SL_base,2021.2.3,Win32,60.32454606,1.1319,,,43,0,43,0,1,,,,,,,,
,,"[""diamond"",""red"",""vert"",""up"",[0,-150],[-106,106]]",diamond,red,vert,up,"[0,-150]","[-106,106]",up,1,,,,,,001,2025-03-17_14h58.18.021,SL_base,2021.2.3,Win32,60.32454606,1.6311,,,44,0,44,0,1,,,,,,,,
,,"[""diamond"",""red"",""vert"",""up"",[150,0],[0,150]]",diamond,red,vert,up,"[150,0]","[0,150]",up,1,,,,,,001,2025-03-17_14h58.18.021,SL_base,2021.2.3,Win32,60.32454606,1.4311,,,45,0,45,0,1,,,,,,,,
,,"[""diamond"",""green"",""vert"",""up"",[0,-150],[-106,106]]",diamond,green,vert,up,"[0,-150]","[-106,106]",up,1,,,,,,001,2025-03-17_14h58.18.021,SL_base,2021.2.3,Win32,60.32454606,0.8762,,,46,0,46,0,1,,,,,,,,
,,"[""circle"",""green"",""vert"",""up"",[106,106],[-150,0]]",circle,green,vert,up,"[106,106]","[-150,0]",up,1,,,,,,001,2025-03-17_14h58.18.021,SL_base,2021.2.3,Win32,60.32454606,0.9995,,,47,0,47,0,1,,,,,,,,
,,"[""circle"",""red"",""hori"",""left"",[0,150],[0,-150]]",circle,red,hori,left,"[0,150]","[0,-150]",left,1,,,,,,001,2025-03-17_14h58.18.021,SL_base,2021.2.3,Win32,60.32454606,1.1881,,,48,0,48,0,1,,,,,,,,
,,"[""circle"",""green"",""hori"",""left"",[-106,-106],[106,106]]",circle,green,hori,left,"[-106,-106]","[106,106]",left,1,,,,,,001,2025-03-17_14h58.18.021,SL_base,2021.2.3,Win32,60.32454606,1.502,,,49,0,49,0,1,,,,,,,,
,,"[""diamond"",""red"",""vert"",""up"",[106,106],[106,-106]]",diamond,red,vert,up,"[106,106]","[106,-106]",up,1,,,,,,001,2025-03-17_14h58.18.021,SL_base,2021.2.3,Win32,60.32454606,1.4858,,,50,0,50,0,1,,,,,,,,
,,"[""diamond"",""no_dis"",""hori"",""left"",[99999,99999],[-106,106]]",diamond,no_dis,hori,left,"[99999,99999]","[-106,106]",left,1,,,,,,001,2025-03-17_14h58.18.021,SL_base,2021.2.3,Win32,60.32454606,0.8817,,,51,0,51,0,1,,,,,,,,
,,"[""diamond"",""no_dis"",""hori"",""left"",[99999,99999],[-150,0]]",diamond,no_dis,hori,left,"[99999,99999]","[-150,0]",left,1,,,,,,001,2025-03-17_14h58.18.021,SL_base,2021.2.3,Win32,60.32454606,1.081,,,52,0,52,0,1,,,,,,,,
,,"[""circle"",""red"",""hori"",""left"",[106,106],[-150,0]]",circle,red,hori,left,"[106,106]","[-150,0]",left,1,,,,,,001,2025-03-17_14h58.18.021,SL_base,2021.2.3,Win32,60.32454606,0.9317,,,53,0,53,0,1,,,,,,,,
,,"[""diamond"",""no_dis"",""vert"",""up"",[99999,99999],[-106,-106]]",diamond,no_dis,vert,up,"[99999,99999]","[-106,-106]",up,1,,,,,,001,2025-03-17_14h58.18.021,SL_base,2021.2.3,Win32,60.32454606,1.1632,,,54,0,54,0,1,,,,,,,,
,,"[""circle"",""no_dis"",""hori"",""left"",[99999,99999],[106,-106]]",circle,no_dis,hori,left,"[99999,99999]","[106,-106]",left,1,,,,,,001,2025-03-17_14h58.18.021,SL_base,2021.2.3,Win32,60.32454606,1.0519,,,55,0,55,0,1,,,,,,,,
,,"[""circle"",""green"",""vert"",""up"",[106,106],[150,0]]",circle,green,vert,up,"[106,106]","[150,0]",up,1,,,,,,001,2025-03-17_14h58.18.021,SL_base,2021.2.3,Win32,60.32454606,1.0824,,,56,0,56,0,1,,,,,,,,
,,"[""diamond"",""no_dis"",""vert"",""up"",[99999,99999],[106,-106]]",diamond,no_dis,vert,up,"[99999,99999]","[106,-106]",up,1,,,,,,001,2025-03-17_14h58.18.021,SL_base,2021.2.3,Win32,60.32454606,1.1154,,,57,0,57,0,1,,,,,,,,
,,"[""diamond"",""green"",""vert"",""up"",[106,106],[-106,106]]",diamond,green,vert,up,"[106,106]","[-106,106]",up,1,,,,,,001,2025-03-17_14h58.18.021,SL_base,2021.2.3,Win32,60.32454606,0.8647,,,58,0,58,0,1,,,,,,,,
,,"[""circle"",""no_dis"",""vert"",""up"",[99999,99999],[150,0]]",circle,no_dis,vert,up,"[99999,99999]","[150,0]",up,1,,,,,,001,2025-03-17_14h58.18.021,SL_base,2021.2.3,Win32,60.32454606,1.1806,,,59,0,59,0,1,,,,,,,,
,,"[""diamond"",""no_dis"",""hori"",""left"",[99999,99999],[-106,-106]]",diamond,no_dis,hori,left,"[99999,99999]","[-106,-106]",left,1,,,,,,001,2025-03-17_14h58.18.021,SL_base,2021.2.3,Win32,60.32454606,1.3146,,,60,0,60,0,1,,,,,,,,
,,"[""diamond"",""no_dis"",""vert"",""up"",[99999,99999],[-106,-106]]",diamond,no_dis,vert,up,"[99999,99999]","[-106,-106]",up,1,,,,,,001,2025-03-17_14h58.18.021,SL_base,2021.2.3,Win32,60.32454606,1.0149,,,61,0,61,0,1,,,,,,,,
,,"[""diamond"",""red"",""hori"",""left"",[0,-150],[0,150]]",diamond,red,hori,left,"[0,-150]","[0,150]",left,1,,,,,,001,2025-03-17_14h58.18.021,SL_base,2021.2.3,Win32,60.32454606,1.2851,,,62,0,62,0,1,,,,,,,,
,,"[""diamond"",""no_dis"",""vert"",""up"",[99999,99999],[106,106]]",diamond,no_dis,vert,up,"[99999,99999]","[106,106]",up,1,,,,,,001,2025-03-17_14h58.18.021,SL_base,2021.2.3,Win32,60.32454606,1.4793,,,63,0,63,0,1,,,,,,,,
,,"[""circle"",""green"",""hori"",""left"",[0,150],[106,-106]]",circle,green,hori,left,"[0,150]","[106,-106]",left,1,,,,,,001,2025-03-17_14h58.18.021,SL_base,2021.2.3,Win32,60.32454606,1.5477,,,64,0,64,0,1,,,,,,,,
,,"[""diamond"",""green"",""hori"",""left"",[106,-106],[0,-150]]",diamond,green,hori,left,"[106,-106]","[0,-150]",left,1,,,,,,001,2025-03-17_14h58.18.021,SL_base,2021.2.3,Win32,60.32454606,1.3986,,,65,0,65,0,1,,,,,,,,
,,"[""circle"",""no_dis"",""hori"",""left"",[99999,99999],[106,-106]]",circle,no_dis,hori,left,"[99999,99999]","[106,-106]",left,1,,,,,,001,2025-03-17_14h58.18.021,SL_base,2021.2.3,Win32,60.32454606,1.0217,,,66,0,66,0,1,,,,,,,,
,,"[""circle"",""red"",""vert"",""up"",[106,106],[0,150]]",circle,red,vert,up,"[106,106]","[0,150]",up,1,,,,,,001,2025-03-17_14h58.18.021,SL_base,2021.2.3,Win32,60.32454606,1.3906,,,67,0,67,0,1,,,,,,,,
,,"[""diamond"",""red"",""hori"",""left"",[-150,0],[0,150]]",diamond,red,hori,left,"[-150,0]","[0,150]",left,1,,,,,,001,2025-03-17_14h58.18.021,SL_base,2021.2.3,Win32,60.32454606,1.4791,,,68,0,68,0,1,,,,,,,,
,,"[""circle"",""green"",""hori"",""left"",[-106,106],[-150,0]]",circle,green,hori,left,"[-106,106]","[-150,0]",left,1,,,,,,001,2025-03-17_14h58.18.021,SL_base,2021.2.3,Win32,60.32454606,1.0326,,,69,0,69,0,1,,,,,,,,
,,"[""circle"",""green"",""vert"",""up"",[106,106],[-150,0]]",circle,green,vert,up,"[106,106]","[-150,0]",up,1,,,,,,001,2025-03-17_14h58.18.021,SL_base,2021.2.3,Win32,60.32454606,1.1807,,,70,0,70,0,1,,,,,,,,
,,"[""diamond"",""no_dis"",""hori"",""left"",[99999,99999],[0,150]]",diamond,no_dis,hori,left,"[99999,99999]","[0,150]",left,1,,,,,,001,2025-03-17_14h58.18.021,SL_base,2021.2.3,Win32,60.32454606,1.2827,,,71,0,71,0,1,,,,,,,,
,,"[""diamond"",""red"",""hori"",""left"",[0,-150],[-150,0]]",diamond,red,hori,left,"[0,-150]","[-150,0]",left,1,,,,,,001,2025-03-17_14h58.18.021,SL_base,2021.2.3,Win32,60.32454606,1.6491,,,72,0,72,0,1,,,,,,,,
,,"[""circle"",""red"",""vert"",""up"",[150,0],[0,150]]",circle,red,vert,up,"[150,0]","[0,150]",up,1,,,,,,001,2025-03-17_14h58.18.021,SL_base,2021.2.3,Win32,60.32454606,1.5542,,,73,0,73,0,1,,,,,,,,
,,"[""diamond"",""green"",""vert"",""up"",[106,-106],[0,-150]]",diamond,green,vert,up,"[106,-106]","[0,-150]",up,1,,,,,,001,2025-03-17_14h58.18.021,SL_base,2021.2.3,Win32,60.32454606,1.1503,,,74,0,74,0,1,,,,,,,,
,,"[""circle"",""green"",""hori"",""left"",[0,-150],[-106,-106]]",circle,green,hori,left,"[0,-150]","[-106,-106]",left,1,,,,,,001,2025-03-17_14h58.18.021,SL_base,2021.2.3,Win32,60.32454606,1.4909,,,75,0,75,0,1,,,,,,,,
,,"[""circle"",""no_dis"",""vert"",""up"",[99999,99999],[106,106]]",circle,no_dis,vert,up,"[99999,99999]","[106,106]",up,1,,,,,,001,2025-03-17_14h58.18.021,SL_base,2021.2.3,Win32,60.32454606,1.6483,,,76,0,76,0,1,,,,,,,,
,,"[""diamond"",""red"",""vert"",""up"",[150,0],[-106,106]]",diamond,red,vert,up,"[150,0]","[-106,106]",up,1,,,,,,001,2025-03-17_14h58.18.021,SL_base,2021.2.3,Win32,60.32454606,1.9649,,,77,0,77,0,1,,,,,,,,
,,"[""circle"",""red"",""vert"",""up"",[-106,106],[106,106]]",circle,red,vert,up,"[-106,106]","[106,106]",up,1,,,,,,001,2025-03-17_14h58.18.021,SL_base,2021.2.3,Win32,60.32454606,2.25,,,78,0,78,0,1,,,,,,,,
,,"[""diamond"",""green"",""hori"",""left"",[0,150],[-106,-106]]",diamond,green,hori,left,"[0,150]","[-106,-106]",left,1,,,,,,001,2025-03-17_14h58.18.021,SL_base,2021.2.3,Win32,60.32454606,1.1989,,,79,0,79,0,1,,,,,,,,
,,"[""circle"",""no_dis"",""vert"",""up"",[99999,99999],[-106,106]]",circle,no_dis,vert,up,"[99999,99999]","[-106,106]",up,1,,,,,,001,2025-03-17_14h58.18.021,SL_base,2021.2.3,Win32,60.32454606,1.3514,,,80,0,80,0,1,,,,,,,,
,,"[""circle"",""no_dis"",""vert"",""up"",[99999,99999],[106,106]]",circle,no_dis,vert,up,"[99999,99999]","[106,106]",up,1,,,,,,001,2025-03-17_14h58.18.021,SL_base,2021.2.3,Win32,60.32454606,0.9072,,,81,0,81,0,1,,,,,,,,
,,"[""diamond"",""green"",""hori"",""left"",[150,0],[106,106]]",diamond,green,hori,left,"[150,0]","[106,106]",left,1,,,,,,001,2025-03-17_14h58.18.021,SL_base,2021.2.3,Win32,60.32454606,1.4158,,,82,0,82,0,1,,,,,,,,
,,"[""circle"",""green"",""hori"",""left"",[-106,-106],[106,-106]]",circle,green,hori,left,"[-106,-106]","[106,-106]",left,1,,,,,,001,2025-03-17_14h58.18.021,SL_base,2021.2.3,Win32,60.32454606,1.2818,,,83,0,83,0,1,,,,,,,,
,,"[""diamond"",""red"",""vert"",""up"",[106,-106],[0,150]]",diamond,red,vert,up,"[106,-106]","[0,150]",up,1,,,,,,001,2025-03-17_14h58.18.021,SL_base,2021.2.3,Win32,60.32454606,1.2502,,,84,0,84,0,1,,,,,,,,
,,"[""circle"",""green"",""hori"",""left"",[-150,0],[106,-106]]",circle,green,hori,left,"[-150,0]","[106,-106]",left,1,,,,,,001,2025-03-17_14h58.18.021,SL_base,2021.2.3,Win32,60.32454606,1.1907,,,85,0,85,0,1,,,,,,,,
,,"[""diamond"",""green"",""hori"",""left"",[-150,0],[106,-106]]",diamond,green,hori,left,"[-150,0]","[106,-106]",left,1,,,,,,001,2025-03-17_14h58.18.021,SL_base,2021.2.3,Win32,60.32454606,0.9979,,,86,0,86,0,1,,,,,,,,
,,"[""circle"",""no_dis"",""vert"",""up"",[99999,99999],[-150,0]]",circle,no_dis,vert,up,"[99999,99999]","[-150,0]",up,1,,,,,,001,2025-03-17_14h58.18.021,SL_base,2021.2.3,Win32,60.32454606,1.2657,,,87,0,87,0,1,,,,,,,,
,,"[""circle"",""no_dis"",""vert"",""up"",[99999,99999],[150,0]]",circle,no_dis,vert,up,"[99999,99999]","[150,0]",up,1,,,,,,001,2025-03-17_14h58.18.021,SL_base,2021.2.3,Win32,60.32454606,1.0671,,,88,0,88,0,1,,,,,,,,
,,"[""circle"",""red"",""hori"",""left"",[-106,106],[0,-150]]",circle,red,hori,left,"[-106,106]","[0,-150]",left,1,,,,,,001,2025-03-17_14h58.18.021,SL_base,2021.2.3,Win32,60.32454606,1.2441,,,89,0,89,0,1,,,,,,,,
,,"[""circle"",""no_dis"",""vert"",""up"",[99999,99999],[150,0]]",circle,no_dis,vert,up,"[99999,99999]","[150,0]",up,1,,,,,,001,2025-03-17_14h58.18.021,SL_base,2021.2.3,Win32,60.32454606,1.303,,,90,0,90,0,1,,,,,,,,
