﻿key_resp.keys,key_resp.rt,trial_para,tar_shape,dis_color_condi,tar_line,cor_resp,dis_loc,tar_loc,resp.keys,resp.corr,resp.rt,trials.thisRepN,trials.thisTrialN,trials.thisN,trials.thisIndex,trials.ran,participant,date,expName,psychopyVersion,OS,frameRate,key_resp_2.keys,key_resp_2.rt,trials_2.thisRepN,trials_2.thisTrialN,trials_2.thisN,trials_2.thisIndex,trials_2.ran,block_num,key_resp_3.keys,key_resp_3.rt,trials_3.thisRepN,trials_3.thisTrialN,trials_3.thisN,trials_3.thisIndex,trials_3.ran
space,12.3231,"[""diamond"",""green"",""vert"",""up"",[106,106],[-106,106]]",diamond,green,vert,up,"[106,106]","[-106,106]",up,1,1.4297,0,0,0,0,1,001,2025-03-10_18h34.34.170,SL_base,2021.2.3,Win32,59.88023952,,,,,,,,,,,,,,,
,,"[""diamond"",""green"",""vert"",""up"",[-150,0],[-106,106]]",diamond,green,vert,up,"[-150,0]","[-106,106]",left,0,0.6505,1,0,1,0,1,001,2025-03-10_18h34.34.170,SL_base,2021.2.3,Win32,59.88023952,,,,,,,,,,,,,,,
,,"[""diamond"",""green"",""vert"",""up"",[-106,-106],[106,106]]",diamond,green,vert,up,"[-106,-106]","[106,106]",,0,,2,0,2,0,1,001,2025-03-10_18h34.34.170,SL_base,2021.2.3,Win32,59.88023952,,,,,,,,,,,,,,,
,,"[""circle"",""green"",""vert"",""up"",[-150,0],[0,150]]",circle,green,vert,up,"[-150,0]","[0,150]",up,1,0.7171,3,0,3,0,1,001,2025-03-10_18h34.34.170,SL_base,2021.2.3,Win32,59.88023952,,,,,,,,,,,,,,,
,,"[""circle"",""green"",""vert"",""up"",[-106,-106],[0,150]]",circle,green,vert,up,"[-106,-106]","[0,150]",left,0,1.567,4,0,4,0,1,001,2025-03-10_18h34.34.170,SL_base,2021.2.3,Win32,59.88023952,,,,,,,,,,,,,,,
,,"[""diamond"",""red"",""hori"",""left"",[150,0],[-150,0]]",diamond,red,hori,left,"[150,0]","[-150,0]",,0,,5,0,5,0,1,001,2025-03-10_18h34.34.170,SL_base,2021.2.3,Win32,59.88023952,,,,,,,,,,,,,,,
,,"[""diamond"",""green"",""hori"",""left"",[-106,-106],[106,106]]",diamond,green,hori,left,"[-106,-106]","[106,106]",up,0,1.0505,6,0,6,0,1,001,2025-03-10_18h34.34.170,SL_base,2021.2.3,Win32,59.88023952,,,,,,,,,,,,,,,
,,"[""diamond"",""green"",""vert"",""up"",[-150,0],[-106,-106]]",diamond,green,vert,up,"[-150,0]","[-106,-106]",left,0,1.0332,7,0,7,0,1,001,2025-03-10_18h34.34.170,SL_base,2021.2.3,Win32,59.88023952,,,,,,,,,,,,,,,
,,"[""diamond"",""no_dis"",""vert"",""up"",[99999,99999],[0,-150]]",diamond,no_dis,vert,up,"[99999,99999]","[0,-150]",,0,,8,0,8,0,1,001,2025-03-10_18h34.34.170,SL_base,2021.2.3,Win32,59.88023952,,,,,,,,,,,,,,,
,,"[""diamond"",""green"",""hori"",""left"",[0,150],[0,-150]]",diamond,green,hori,left,"[0,150]","[0,-150]",up,0,2.3329,9,0,9,0,1,001,2025-03-10_18h34.34.170,SL_base,2021.2.3,Win32,59.88023952,,,,,,,,,,,,,,,
,,"[""diamond"",""green"",""vert"",""up"",[106,106],[-106,106]]",diamond,green,vert,up,"[106,106]","[-106,106]",left,0,1.1078,,,,,,001,2025-03-10_18h34.34.170,SL_base,2021.2.3,Win32,59.88023952,space,8.7726,0,0,0,0,1,,,,,,,,
,,"[""diamond"",""green"",""vert"",""up"",[-150,0],[-106,106]]",diamond,green,vert,up,"[-150,0]","[-106,106]",up,1,1.8002,,,,,,001,2025-03-10_18h34.34.170,SL_base,2021.2.3,Win32,59.88023952,,,1,0,1,0,1,,,,,,,,
,,"[""diamond"",""green"",""vert"",""up"",[-106,-106],[106,106]]",diamond,green,vert,up,"[-106,-106]","[106,106]",up,1,1.1003,,,,,,001,2025-03-10_18h34.34.170,SL_base,2021.2.3,Win32,59.88023952,,,2,0,2,0,1,,,,,,,,
,,"[""circle"",""green"",""vert"",""up"",[-150,0],[0,150]]",circle,green,vert,up,"[-150,0]","[0,150]",left,0,0.7228,,,,,,001,2025-03-10_18h34.34.170,SL_base,2021.2.3,Win32,59.88023952,,,3,0,3,0,1,,,,,,,,
,,"[""circle"",""green"",""vert"",""up"",[-106,-106],[0,150]]",circle,green,vert,up,"[-106,-106]","[0,150]",up,1,2.0888,,,,,,001,2025-03-10_18h34.34.170,SL_base,2021.2.3,Win32,59.88023952,,,4,0,4,0,1,,,,,,,,
,,"[""diamond"",""red"",""hori"",""left"",[150,0],[-150,0]]",diamond,red,hori,left,"[150,0]","[-150,0]",up,0,1.3075,,,,,,001,2025-03-10_18h34.34.170,SL_base,2021.2.3,Win32,59.88023952,,,5,0,5,0,1,,,,,,,,
,,"[""diamond"",""green"",""hori"",""left"",[-106,-106],[106,106]]",diamond,green,hori,left,"[-106,-106]","[106,106]",left,1,1.1669,,,,,,001,2025-03-10_18h34.34.170,SL_base,2021.2.3,Win32,59.88023952,,,6,0,6,0,1,,,,,,,,
,,"[""diamond"",""green"",""vert"",""up"",[-150,0],[-106,-106]]",diamond,green,vert,up,"[-150,0]","[-106,-106]",up,1,0.9501,,,,,,001,2025-03-10_18h34.34.170,SL_base,2021.2.3,Win32,59.88023952,,,7,0,7,0,1,,,,,,,,
,,"[""diamond"",""no_dis"",""vert"",""up"",[99999,99999],[0,-150]]",diamond,no_dis,vert,up,"[99999,99999]","[0,-150]",up,1,1.55,,,,,,001,2025-03-10_18h34.34.170,SL_base,2021.2.3,Win32,59.88023952,,,8,0,8,0,1,,,,,,,,
,,"[""diamond"",""green"",""hori"",""left"",[0,150],[0,-150]]",diamond,green,hori,left,"[0,150]","[0,-150]",left,1,1.9665,,,,,,001,2025-03-10_18h34.34.170,SL_base,2021.2.3,Win32,59.88023952,,,9,0,9,0,1,,,,,,,,
,,"[""circle"",""no_dis"",""vert"",""up"",[99999,99999],[106,106]]",circle,no_dis,vert,up,"[99999,99999]","[106,106]",up,1,1.9329,,,,,,001,2025-03-10_18h34.34.170,SL_base,2021.2.3,Win32,59.88023952,,,10,0,10,0,1,,,,,,,,
,,"[""circle"",""no_dis"",""vert"",""up"",[99999,99999],[106,106]]",circle,no_dis,vert,up,"[99999,99999]","[106,106]",up,1,1.7,,,,,,001,2025-03-10_18h34.34.170,SL_base,2021.2.3,Win32,59.88023952,,,11,0,11,0,1,,,,,,,,
,,"[""circle"",""no_dis"",""hori"",""left"",[99999,99999],[150,0]]",circle,no_dis,hori,left,"[99999,99999]","[150,0]",left,1,1.37,,,,,,001,2025-03-10_18h34.34.170,SL_base,2021.2.3,Win32,59.88023952,,,12,0,12,0,1,,,,,,,,
,,"[""diamond"",""green"",""vert"",""up"",[0,150],[-150,0]]",diamond,green,vert,up,"[0,150]","[-150,0]",up,1,1.2669,,,,,,001,2025-03-10_18h34.34.170,SL_base,2021.2.3,Win32,59.88023952,,,13,0,13,0,1,,,,,,,,
,,"[""diamond"",""red"",""vert"",""up"",[106,106],[0,150]]",diamond,red,vert,up,"[106,106]","[0,150]",up,1,1.2668,,,,,,001,2025-03-10_18h34.34.170,SL_base,2021.2.3,Win32,59.88023952,,,14,0,14,0,1,,,,,,,,
,,"[""circle"",""green"",""hori"",""left"",[150,0],[0,150]]",circle,green,hori,left,"[150,0]","[0,150]",up,0,1.5405,,,,,,001,2025-03-10_18h34.34.170,SL_base,2021.2.3,Win32,59.88023952,,,15,0,15,0,1,,,,,,,,
,,"[""circle"",""no_dis"",""vert"",""up"",[99999,99999],[-106,106]]",circle,no_dis,vert,up,"[99999,99999]","[-106,106]",left,0,2.7831,,,,,,001,2025-03-10_18h34.34.170,SL_base,2021.2.3,Win32,59.88023952,,,16,0,16,0,1,,,,,,,,
,,"[""circle"",""no_dis"",""hori"",""left"",[99999,99999],[0,150]]",circle,no_dis,hori,left,"[99999,99999]","[0,150]",up,0,2.1847,,,,,,001,2025-03-10_18h34.34.170,SL_base,2021.2.3,Win32,59.88023952,,,17,0,17,0,1,,,,,,,,
,,"[""diamond"",""red"",""hori"",""left"",[0,-150],[-106,106]]",diamond,red,hori,left,"[0,-150]","[-106,106]",left,1,1.4336,,,,,,001,2025-03-10_18h34.34.170,SL_base,2021.2.3,Win32,59.88023952,,,18,0,18,0,1,,,,,,,,
,,"[""circle"",""green"",""vert"",""up"",[-106,106],[106,106]]",circle,green,vert,up,"[-106,106]","[106,106]",up,1,0.7835,,,,,,001,2025-03-10_18h34.34.170,SL_base,2021.2.3,Win32,59.88023952,,,19,0,19,0,1,,,,,,,,
,,"[""circle"",""red"",""vert"",""up"",[-106,-106],[106,106]]",circle,red,vert,up,"[-106,-106]","[106,106]",left,0,1.1995,,,,,,001,2025-03-10_18h34.34.170,SL_base,2021.2.3,Win32,59.88023952,,,20,0,20,0,1,,,,,,,,
,,"[""circle"",""red"",""hori"",""left"",[150,0],[106,106]]",circle,red,hori,left,"[150,0]","[106,106]",left,1,1.7834,,,,,,001,2025-03-10_18h34.34.170,SL_base,2021.2.3,Win32,59.88023952,,,21,0,21,0,1,,,,,,,,
,,"[""circle"",""no_dis"",""hori"",""left"",[99999,99999],[0,-150]]",circle,no_dis,hori,left,"[99999,99999]","[0,-150]",left,1,1.5004,,,,,,001,2025-03-10_18h34.34.170,SL_base,2021.2.3,Win32,59.88023952,,,22,0,22,0,1,,,,,,,,
,,"[""diamond"",""no_dis"",""vert"",""up"",[99999,99999],[0,150]]",diamond,no_dis,vert,up,"[99999,99999]","[0,150]",up,1,2.0497,,,,,,001,2025-03-10_18h34.34.170,SL_base,2021.2.3,Win32,59.88023952,,,23,0,23,0,1,,,,,,,,
,,"[""diamond"",""green"",""hori"",""left"",[-106,-106],[106,-106]]",diamond,green,hori,left,"[-106,-106]","[106,-106]",left,1,1.55,,,,,,001,2025-03-10_18h34.34.170,SL_base,2021.2.3,Win32,59.88023952,,,24,0,24,0,1,,,,,,,,
,,"[""circle"",""green"",""hori"",""left"",[106,-106],[0,150]]",circle,green,hori,left,"[106,-106]","[0,150]",left,1,2.2859,,,,,,001,2025-03-10_18h34.34.170,SL_base,2021.2.3,Win32,59.88023952,,,25,0,25,0,1,,,,,,,,
,,"[""circle"",""green"",""hori"",""left"",[0,150],[106,-106]]",circle,green,hori,left,"[0,150]","[106,-106]",up,0,0.9497,,,,,,001,2025-03-10_18h34.34.170,SL_base,2021.2.3,Win32,59.88023952,,,26,0,26,0,1,,,,,,,,
,,"[""circle"",""red"",""hori"",""left"",[-106,106],[0,150]]",circle,red,hori,left,"[-106,106]","[0,150]",left,1,1.2707,,,,,,001,2025-03-10_18h34.34.170,SL_base,2021.2.3,Win32,59.88023952,,,27,0,27,0,1,,,,,,,,
,,"[""circle"",""green"",""hori"",""left"",[-106,-106],[106,106]]",circle,green,hori,left,"[-106,-106]","[106,106]",left,1,0.7041,,,,,,001,2025-03-10_18h34.34.170,SL_base,2021.2.3,Win32,59.88023952,,,28,0,28,0,1,,,,,,,,
,,"[""circle"",""no_dis"",""hori"",""left"",[99999,99999],[106,-106]]",circle,no_dis,hori,left,"[99999,99999]","[106,-106]",up,0,2.3173,,,,,,001,2025-03-10_18h34.34.170,SL_base,2021.2.3,Win32,59.88023952,,,29,0,29,0,1,,,,,,,,
,,"[""circle"",""green"",""vert"",""up"",[-106,106],[150,0]]",circle,green,vert,up,"[-106,106]","[150,0]",left,0,1.1086,,,,,,001,2025-03-10_18h34.34.170,SL_base,2021.2.3,Win32,59.88023952,,,30,0,30,0,1,,,,,,,,
,,"[""diamond"",""no_dis"",""hori"",""left"",[99999,99999],[0,-150]]",diamond,no_dis,hori,left,"[99999,99999]","[0,-150]",left,1,2.1904,,,,,,001,2025-03-10_18h34.34.170,SL_base,2021.2.3,Win32,59.88023952,,,31,0,31,0,1,,,,,,,,
,,"[""diamond"",""no_dis"",""hori"",""left"",[99999,99999],[-106,-106]]",diamond,no_dis,hori,left,"[99999,99999]","[-106,-106]",left,1,1.4999,,,,,,001,2025-03-10_18h34.34.170,SL_base,2021.2.3,Win32,59.88023952,,,32,0,32,0,1,,,,,,,,
,,"[""circle"",""no_dis"",""vert"",""up"",[99999,99999],[-106,-106]]",circle,no_dis,vert,up,"[99999,99999]","[-106,-106]",left,0,1.3168,,,,,,001,2025-03-10_18h34.34.170,SL_base,2021.2.3,Win32,59.88023952,,,33,0,33,0,1,,,,,,,,
,,"[""circle"",""green"",""hori"",""left"",[-106,106],[0,150]]",circle,green,hori,left,"[-106,106]","[0,150]",left,1,1.4504,,,,,,001,2025-03-10_18h34.34.170,SL_base,2021.2.3,Win32,59.88023952,,,34,0,34,0,1,,,,,,,,
,,"[""circle"",""red"",""vert"",""up"",[0,150],[0,-150]]",circle,red,vert,up,"[0,150]","[0,-150]",up,1,1.6609,,,,,,001,2025-03-10_18h34.34.170,SL_base,2021.2.3,Win32,59.88023952,,,35,0,35,0,1,,,,,,,,
,,"[""diamond"",""red"",""vert"",""up"",[-106,106],[150,0]]",diamond,red,vert,up,"[-106,106]","[150,0]",up,1,1.4,,,,,,001,2025-03-10_18h34.34.170,SL_base,2021.2.3,Win32,59.88023952,,,36,0,36,0,1,,,,,,,,
,,"[""circle"",""red"",""vert"",""up"",[-106,-106],[0,150]]",circle,red,vert,up,"[-106,-106]","[0,150]",left,0,1.0588,,,,,,001,2025-03-10_18h34.34.170,SL_base,2021.2.3,Win32,59.88023952,,,37,0,37,0,1,,,,,,,,
,,"[""diamond"",""green"",""vert"",""up"",[0,-150],[-106,106]]",diamond,green,vert,up,"[0,-150]","[-106,106]",up,1,0.7725,,,,,,001,2025-03-10_18h34.34.170,SL_base,2021.2.3,Win32,59.88023952,,,38,0,38,0,1,,,,,,,,
,,"[""circle"",""green"",""vert"",""up"",[-106,-106],[106,106]]",circle,green,vert,up,"[-106,-106]","[106,106]",up,1,0.9588,,,,,,001,2025-03-10_18h34.34.170,SL_base,2021.2.3,Win32,59.88023952,,,39,0,39,0,1,,,,,,,,
,,"[""circle"",""green"",""vert"",""up"",[150,0],[106,106]]",circle,green,vert,up,"[150,0]","[106,106]",up,1,1.0952,,,,,,001,2025-03-10_18h34.34.170,SL_base,2021.2.3,Win32,59.88023952,,,40,0,40,0,1,,,,,,,,
,,"[""diamond"",""green"",""hori"",""left"",[150,0],[-150,0]]",diamond,green,hori,left,"[150,0]","[-150,0]",left,1,2.236,,,,,,001,2025-03-10_18h34.34.170,SL_base,2021.2.3,Win32,59.88023952,,,41,0,41,0,1,,,,,,,,
,,"[""diamond"",""no_dis"",""vert"",""up"",[99999,99999],[-106,-106]]",diamond,no_dis,vert,up,"[99999,99999]","[-106,-106]",up,1,1.9666,,,,,,001,2025-03-10_18h34.34.170,SL_base,2021.2.3,Win32,59.88023952,,,42,0,42,0,1,,,,,,,,
,,"[""diamond"",""red"",""hori"",""left"",[106,-106],[-150,0]]",diamond,red,hori,left,"[106,-106]","[-150,0]",left,1,1.4999,,,,,,001,2025-03-10_18h34.34.170,SL_base,2021.2.3,Win32,59.88023952,,,43,0,43,0,1,,,,,,,,
,,"[""circle"",""no_dis"",""hori"",""left"",[99999,99999],[106,-106]]",circle,no_dis,hori,left,"[99999,99999]","[106,-106]",up,0,2.1339,,,,,,001,2025-03-10_18h34.34.170,SL_base,2021.2.3,Win32,59.88023952,,,44,0,44,0,1,,,,,,,,
,,"[""diamond"",""no_dis"",""vert"",""up"",[99999,99999],[0,150]]",diamond,no_dis,vert,up,"[99999,99999]","[0,150]",up,1,1.8166,,,,,,001,2025-03-10_18h34.34.170,SL_base,2021.2.3,Win32,59.88023952,,,45,0,45,0,1,,,,,,,,
,,"[""diamond"",""no_dis"",""vert"",""up"",[99999,99999],[0,-150]]",diamond,no_dis,vert,up,"[99999,99999]","[0,-150]",up,1,0.9549,,,,,,001,2025-03-10_18h34.34.170,SL_base,2021.2.3,Win32,59.88023952,,,46,0,46,0,1,,,,,,,,
,,"[""diamond"",""red"",""hori"",""left"",[106,-106],[106,106]]",diamond,red,hori,left,"[106,-106]","[106,106]",up,0,1.1863,,,,,,001,2025-03-10_18h34.34.170,SL_base,2021.2.3,Win32,59.88023952,,,47,0,47,0,1,,,,,,,,
,,"[""circle"",""red"",""hori"",""left"",[-150,0],[0,-150]]",circle,red,hori,left,"[-150,0]","[0,-150]",left,1,1.45,,,,,,001,2025-03-10_18h34.34.170,SL_base,2021.2.3,Win32,59.88023952,,,48,0,48,0,1,,,,,,,,
,,"[""diamond"",""green"",""hori"",""left"",[0,150],[-106,-106]]",diamond,green,hori,left,"[0,150]","[-106,-106]",left,1,1.2914,,,,,,001,2025-03-10_18h34.34.170,SL_base,2021.2.3,Win32,59.88023952,,,49,0,49,0,1,,,,,,,,
,,"[""circle"",""no_dis"",""vert"",""up"",[99999,99999],[-150,0]]",circle,no_dis,vert,up,"[99999,99999]","[-150,0]",up,1,1.3664,,,,,,001,2025-03-10_18h34.34.170,SL_base,2021.2.3,Win32,59.88023952,,,50,0,50,0,1,,,,,,,,
,,"[""diamond"",""red"",""vert"",""up"",[-106,-106],[0,-150]]",diamond,red,vert,up,"[-106,-106]","[0,-150]",up,1,1.8498,,,,,,001,2025-03-10_18h34.34.170,SL_base,2021.2.3,Win32,59.88023952,,,51,0,51,0,1,,,,,,,,
,,"[""circle"",""green"",""hori"",""left"",[106,106],[0,150]]",circle,green,hori,left,"[106,106]","[0,150]",left,1,1.7928,,,,,,001,2025-03-10_18h34.34.170,SL_base,2021.2.3,Win32,59.88023952,,,52,0,52,0,1,,,,,,,,
,,"[""diamond"",""no_dis"",""hori"",""left"",[99999,99999],[106,-106]]",diamond,no_dis,hori,left,"[99999,99999]","[106,-106]",left,1,1.6542,,,,,,001,2025-03-10_18h34.34.170,SL_base,2021.2.3,Win32,59.88023952,,,53,0,53,0,1,,,,,,,,
,,"[""circle"",""red"",""vert"",""up"",[-150,0],[-106,-106]]",circle,red,vert,up,"[-150,0]","[-106,-106]",,0,,,,,,,001,2025-03-10_18h34.34.170,SL_base,2021.2.3,Win32,59.88023952,,,54,0,54,0,1,,,,,,,,
,,"[""diamond"",""no_dis"",""hori"",""left"",[99999,99999],[0,-150]]",diamond,no_dis,hori,left,"[99999,99999]","[0,-150]",left,1,1.1326,,,,,,001,2025-03-10_18h34.34.170,SL_base,2021.2.3,Win32,59.88023952,,,55,0,55,0,1,,,,,,,,
,,"[""circle"",""red"",""vert"",""up"",[-150,0],[0,-150]]",circle,red,vert,up,"[-150,0]","[0,-150]",up,1,1.8701,,,,,,001,2025-03-10_18h34.34.170,SL_base,2021.2.3,Win32,59.88023952,,,56,0,56,0,1,,,,,,,,
,,"[""circle"",""red"",""hori"",""left"",[150,0],[-106,-106]]",circle,red,hori,left,"[150,0]","[-106,-106]",left,1,1.4392,,,,,,001,2025-03-10_18h34.34.170,SL_base,2021.2.3,Win32,59.88023952,,,57,0,57,0,1,,,,,,,,
,,"[""circle"",""no_dis"",""vert"",""up"",[99999,99999],[0,150]]",circle,no_dis,vert,up,"[99999,99999]","[0,150]",up,1,1.7839,,,,,,001,2025-03-10_18h34.34.170,SL_base,2021.2.3,Win32,59.88023952,,,58,0,58,0,1,,,,,,,,
,,"[""diamond"",""no_dis"",""hori"",""left"",[99999,99999],[-106,106]]",diamond,no_dis,hori,left,"[99999,99999]","[-106,106]",left,1,1.5666,,,,,,001,2025-03-10_18h34.34.170,SL_base,2021.2.3,Win32,59.88023952,,,59,0,59,0,1,,,,,,,,
,,"[""circle"",""red"",""vert"",""up"",[106,106],[0,150]]",circle,red,vert,up,"[106,106]","[0,150]",up,1,1.7863,,,,,,001,2025-03-10_18h34.34.170,SL_base,2021.2.3,Win32,59.88023952,,,60,0,60,0,1,,,,,,,,
,,"[""circle"",""red"",""hori"",""left"",[-106,-106],[0,150]]",circle,red,hori,left,"[-106,-106]","[0,150]",left,1,0.7996,,,,,,001,2025-03-10_18h34.34.170,SL_base,2021.2.3,Win32,59.88023952,,,61,0,61,0,1,,,,,,,,
,,"[""circle"",""green"",""vert"",""up"",[-106,-106],[0,150]]",circle,green,vert,up,"[-106,-106]","[0,150]",up,1,1.267,,,,,,001,2025-03-10_18h34.34.170,SL_base,2021.2.3,Win32,59.88023952,,,62,0,62,0,1,,,,,,,,
,,"[""circle"",""no_dis"",""vert"",""up"",[99999,99999],[-150,0]]",circle,no_dis,vert,up,"[99999,99999]","[-150,0]",up,1,0.8331,,,,,,001,2025-03-10_18h34.34.170,SL_base,2021.2.3,Win32,59.88023952,,,63,0,63,0,1,,,,,,,,
,,"[""diamond"",""no_dis"",""hori"",""left"",[99999,99999],[150,0]]",diamond,no_dis,hori,left,"[99999,99999]","[150,0]",left,1,1.4072,,,,,,001,2025-03-10_18h34.34.170,SL_base,2021.2.3,Win32,59.88023952,,,64,0,64,0,1,,,,,,,,
,,"[""diamond"",""no_dis"",""vert"",""up"",[99999,99999],[-106,106]]",diamond,no_dis,vert,up,"[99999,99999]","[-106,106]",up,1,1.1368,,,,,,001,2025-03-10_18h34.34.170,SL_base,2021.2.3,Win32,59.88023952,,,65,0,65,0,1,,,,,,,,
,,"[""diamond"",""no_dis"",""hori"",""left"",[99999,99999],[150,0]]",diamond,no_dis,hori,left,"[99999,99999]","[150,0]",left,1,1.0583,,,,,,001,2025-03-10_18h34.34.170,SL_base,2021.2.3,Win32,59.88023952,,,66,0,66,0,1,,,,,,,,
,,"[""circle"",""no_dis"",""hori"",""left"",[99999,99999],[106,-106]]",circle,no_dis,hori,left,"[99999,99999]","[106,-106]",left,1,2.5668,,,,,,001,2025-03-10_18h34.34.170,SL_base,2021.2.3,Win32,59.88023952,,,67,0,67,0,1,,,,,,,,
,,"[""diamond"",""red"",""vert"",""up"",[-106,-106],[150,0]]",diamond,red,vert,up,"[-106,-106]","[150,0]",up,1,1.6835,,,,,,001,2025-03-10_18h34.34.170,SL_base,2021.2.3,Win32,59.88023952,,,68,0,68,0,1,,,,,,,,
,,"[""circle"",""red"",""vert"",""up"",[-150,0],[0,-150]]",circle,red,vert,up,"[-150,0]","[0,-150]",up,1,1.2671,,,,,,001,2025-03-10_18h34.34.170,SL_base,2021.2.3,Win32,59.88023952,,,69,0,69,0,1,,,,,,,,
,,"[""circle"",""red"",""hori"",""left"",[106,-106],[0,150]]",circle,red,hori,left,"[106,-106]","[0,150]",left,1,1.6166,,,,,,001,2025-03-10_18h34.34.170,SL_base,2021.2.3,Win32,59.88023952,,,70,0,70,0,1,,,,,,,,
,,"[""diamond"",""no_dis"",""hori"",""left"",[99999,99999],[-106,-106]]",diamond,no_dis,hori,left,"[99999,99999]","[-106,-106]",left,1,1.317,,,,,,001,2025-03-10_18h34.34.170,SL_base,2021.2.3,Win32,59.88023952,,,71,0,71,0,1,,,,,,,,
,,"[""circle"",""green"",""hori"",""left"",[0,-150],[-106,106]]",circle,green,hori,left,"[0,-150]","[-106,106]",left,1,1.2199,,,,,,001,2025-03-10_18h34.34.170,SL_base,2021.2.3,Win32,59.88023952,,,72,0,72,0,1,,,,,,,,
,,"[""diamond"",""green"",""hori"",""left"",[-106,-106],[0,150]]",diamond,green,hori,left,"[-106,-106]","[0,150]",left,1,1.0743,,,,,,001,2025-03-10_18h34.34.170,SL_base,2021.2.3,Win32,59.88023952,,,73,0,73,0,1,,,,,,,,
,,"[""circle"",""green"",""vert"",""up"",[-106,106],[-106,-106]]",circle,green,vert,up,"[-106,106]","[-106,-106]",up,1,1.3337,,,,,,001,2025-03-10_18h34.34.170,SL_base,2021.2.3,Win32,59.88023952,,,74,0,74,0,1,,,,,,,,
,,"[""circle"",""green"",""vert"",""up"",[106,-106],[0,-150]]",circle,green,vert,up,"[106,-106]","[0,-150]",up,1,1.0671,,,,,,001,2025-03-10_18h34.34.170,SL_base,2021.2.3,Win32,59.88023952,,,75,0,75,0,1,,,,,,,,
,,"[""circle"",""no_dis"",""vert"",""up"",[99999,99999],[106,-106]]",circle,no_dis,vert,up,"[99999,99999]","[106,-106]",up,1,0.8931,,,,,,001,2025-03-10_18h34.34.170,SL_base,2021.2.3,Win32,59.88023952,,,76,0,76,0,1,,,,,,,,
,,"[""circle"",""no_dis"",""hori"",""left"",[99999,99999],[-150,0]]",circle,no_dis,hori,left,"[99999,99999]","[-150,0]",left,1,1.0445,,,,,,001,2025-03-10_18h34.34.170,SL_base,2021.2.3,Win32,59.88023952,,,77,0,77,0,1,,,,,,,,
,,"[""diamond"",""red"",""hori"",""left"",[-106,-106],[0,-150]]",diamond,red,hori,left,"[-106,-106]","[0,-150]",left,1,1.4502,,,,,,001,2025-03-10_18h34.34.170,SL_base,2021.2.3,Win32,59.88023952,,,78,0,78,0,1,,,,,,,,
,,"[""diamond"",""red"",""vert"",""up"",[0,-150],[-150,0]]",diamond,red,vert,up,"[0,-150]","[-150,0]",up,1,1.0052,,,,,,001,2025-03-10_18h34.34.170,SL_base,2021.2.3,Win32,59.88023952,,,79,0,79,0,1,,,,,,,,
,,"[""circle"",""no_dis"",""hori"",""left"",[99999,99999],[150,0]]",circle,no_dis,hori,left,"[99999,99999]","[150,0]",left,1,1.6996,,,,,,001,2025-03-10_18h34.34.170,SL_base,2021.2.3,Win32,59.88023952,,,80,0,80,0,1,,,,,,,,
,,"[""diamond"",""red"",""vert"",""up"",[-150,0],[150,0]]",diamond,red,vert,up,"[-150,0]","[150,0]",up,1,1.0166,,,,,,001,2025-03-10_18h34.34.170,SL_base,2021.2.3,Win32,59.88023952,,,81,0,81,0,1,,,,,,,,
,,"[""circle"",""no_dis"",""vert"",""up"",[99999,99999],[150,0]]",circle,no_dis,vert,up,"[99999,99999]","[150,0]",left,0,1.8511,,,,,,001,2025-03-10_18h34.34.170,SL_base,2021.2.3,Win32,59.88023952,,,82,0,82,0,1,,,,,,,,
,,"[""circle"",""red"",""vert"",""up"",[0,-150],[-106,-106]]",circle,red,vert,up,"[0,-150]","[-106,-106]",up,1,1.0703,,,,,,001,2025-03-10_18h34.34.170,SL_base,2021.2.3,Win32,59.88023952,,,83,0,83,0,1,,,,,,,,
,,"[""diamond"",""red"",""vert"",""up"",[-106,-106],[106,106]]",diamond,red,vert,up,"[-106,-106]","[106,106]",up,1,1.0503,,,,,,001,2025-03-10_18h34.34.170,SL_base,2021.2.3,Win32,59.88023952,,,84,0,84,0,1,,,,,,,,
,,"[""diamond"",""green"",""vert"",""up"",[0,-150],[0,150]]",diamond,green,vert,up,"[0,-150]","[0,150]",up,1,1.1502,,,,,,001,2025-03-10_18h34.34.170,SL_base,2021.2.3,Win32,59.88023952,,,85,0,85,0,1,,,,,,,,
,,"[""diamond"",""red"",""hori"",""left"",[106,106],[-106,106]]",diamond,red,hori,left,"[106,106]","[-106,106]",left,1,0.805,,,,,,001,2025-03-10_18h34.34.170,SL_base,2021.2.3,Win32,59.88023952,,,86,0,86,0,1,,,,,,,,
,,"[""diamond"",""green"",""hori"",""left"",[-106,-106],[-150,0]]",diamond,green,hori,left,"[-106,-106]","[-150,0]",left,1,0.9668,,,,,,001,2025-03-10_18h34.34.170,SL_base,2021.2.3,Win32,59.88023952,,,87,0,87,0,1,,,,,,,,
,,"[""diamond"",""no_dis"",""vert"",""up"",[99999,99999],[106,106]]",diamond,no_dis,vert,up,"[99999,99999]","[106,106]",up,1,0.8163,,,,,,001,2025-03-10_18h34.34.170,SL_base,2021.2.3,Win32,59.88023952,,,88,0,88,0,1,,,,,,,,
,,"[""diamond"",""green"",""hori"",""left"",[-106,-106],[-106,106]]",diamond,green,hori,left,"[-106,-106]","[-106,106]",left,1,0.9168,,,,,,001,2025-03-10_18h34.34.170,SL_base,2021.2.3,Win32,59.88023952,,,89,0,89,0,1,,,,,,,,
,,"[""circle"",""green"",""hori"",""left"",[106,106],[0,150]]",circle,green,hori,left,"[106,106]","[0,150]",left,1,1.3663,,,,,,001,2025-03-10_18h34.34.170,SL_base,2021.2.3,Win32,59.88023952,,,90,0,90,0,1,,,,,,,,
,,"[""diamond"",""green"",""hori"",""left"",[106,-106],[-106,106]]",diamond,green,hori,left,"[106,-106]","[-106,106]",left,1,1.3578,,,,,,001,2025-03-10_18h34.34.170,SL_base,2021.2.3,Win32,59.88023952,,,91,0,91,0,1,,,,,,,,
,,"[""diamond"",""green"",""vert"",""up"",[-106,-106],[106,106]]",diamond,green,vert,up,"[-106,-106]","[106,106]",up,1,0.677,,,,,,001,2025-03-10_18h34.34.170,SL_base,2021.2.3,Win32,59.88023952,,,92,0,92,0,1,,,,,,,,
,,"[""diamond"",""no_dis"",""hori"",""left"",[99999,99999],[-106,-106]]",diamond,no_dis,hori,left,"[99999,99999]","[-106,-106]",left,1,0.7899,,,,,,001,2025-03-10_18h34.34.170,SL_base,2021.2.3,Win32,59.88023952,,,93,0,93,0,1,,,,,,,,
,,"[""circle"",""green"",""hori"",""left"",[106,-106],[-106,106]]",circle,green,hori,left,"[106,-106]","[-106,106]",left,1,1.1832,,,,,,001,2025-03-10_18h34.34.170,SL_base,2021.2.3,Win32,59.88023952,,,94,0,94,0,1,,,,,,,,
,,"[""diamond"",""no_dis"",""vert"",""up"",[99999,99999],[-150,0]]",diamond,no_dis,vert,up,"[99999,99999]","[-150,0]",up,1,1.1173,,,,,,001,2025-03-10_18h34.34.170,SL_base,2021.2.3,Win32,59.88023952,,,95,0,95,0,1,,,,,,,,
,,"[""circle"",""green"",""vert"",""up"",[-106,-106],[0,-150]]",circle,green,vert,up,"[-106,-106]","[0,-150]",up,1,0.9501,,,,,,001,2025-03-10_18h34.34.170,SL_base,2021.2.3,Win32,59.88023952,,,96,0,96,0,1,,,,,,,,
,,"[""circle"",""no_dis"",""hori"",""left"",[99999,99999],[0,150]]",circle,no_dis,hori,left,"[99999,99999]","[0,150]",left,1,0.6671,,,,,,001,2025-03-10_18h34.34.170,SL_base,2021.2.3,Win32,59.88023952,,,97,0,97,0,1,,,,,,,,
,,"[""diamond"",""no_dis"",""vert"",""up"",[99999,99999],[106,106]]",diamond,no_dis,vert,up,"[99999,99999]","[106,106]",up,1,0.8252,,,,,,001,2025-03-10_18h34.34.170,SL_base,2021.2.3,Win32,59.88023952,,,98,0,98,0,1,,,,,,,,
,,"[""diamond"",""no_dis"",""hori"",""left"",[99999,99999],[106,106]]",diamond,no_dis,hori,left,"[99999,99999]","[106,106]",left,1,0.7183,,,,,,001,2025-03-10_18h34.34.170,SL_base,2021.2.3,Win32,59.88023952,,,99,0,99,0,1,,,,,,,,
,,"[""circle"",""green"",""hori"",""left"",[150,0],[-150,0]]",circle,green,hori,left,"[150,0]","[-150,0]",left,1,1.3664,,,,,,001,2025-03-10_18h34.34.170,SL_base,2021.2.3,Win32,59.88023952,,,100,0,100,0,1,,,,,,,,
,,"[""circle"",""red"",""vert"",""up"",[-106,-106],[0,-150]]",circle,red,vert,up,"[-106,-106]","[0,-150]",up,1,0.885,,,,,,001,2025-03-10_18h34.34.170,SL_base,2021.2.3,Win32,59.88023952,,,101,0,101,0,1,,,,,,,,
,,"[""diamond"",""red"",""hori"",""left"",[-106,106],[150,0]]",diamond,red,hori,left,"[-106,106]","[150,0]",left,1,0.9998,,,,,,001,2025-03-10_18h34.34.170,SL_base,2021.2.3,Win32,59.88023952,,,102,0,102,0,1,,,,,,,,
,,"[""circle"",""red"",""hori"",""left"",[-106,-106],[106,-106]]",circle,red,hori,left,"[-106,-106]","[106,-106]",left,1,1.6508,,,,,,001,2025-03-10_18h34.34.170,SL_base,2021.2.3,Win32,59.88023952,,,103,0,103,0,1,,,,,,,,
,,"[""circle"",""red"",""vert"",""up"",[0,-150],[0,150]]",circle,red,vert,up,"[0,-150]","[0,150]",up,1,1.4502,,,,,,001,2025-03-10_18h34.34.170,SL_base,2021.2.3,Win32,59.88023952,,,104,0,104,0,1,,,,,,,,
,,"[""circle"",""red"",""hori"",""left"",[150,0],[-106,106]]",circle,red,hori,left,"[150,0]","[-106,106]",left,1,0.7502,,,,,,001,2025-03-10_18h34.34.170,SL_base,2021.2.3,Win32,59.88023952,,,105,0,105,0,1,,,,,,,,
,,"[""diamond"",""green"",""hori"",""left"",[0,-150],[150,0]]",diamond,green,hori,left,"[0,-150]","[150,0]",left,1,1.0569,,,,,,001,2025-03-10_18h34.34.170,SL_base,2021.2.3,Win32,59.88023952,,,106,0,106,0,1,,,,,,,,
,,"[""circle"",""red"",""hori"",""left"",[-106,106],[-150,0]]",circle,red,hori,left,"[-106,106]","[-150,0]",left,1,2.0839,,,,,,001,2025-03-10_18h34.34.170,SL_base,2021.2.3,Win32,59.88023952,,,107,0,107,0,1,,,,,,,,
,,"[""circle"",""no_dis"",""vert"",""up"",[99999,99999],[-150,0]]",circle,no_dis,vert,up,"[99999,99999]","[-150,0]",up,1,0.9173,,,,,,001,2025-03-10_18h34.34.170,SL_base,2021.2.3,Win32,59.88023952,,,108,0,108,0,1,,,,,,,,
,,"[""diamond"",""red"",""vert"",""up"",[0,150],[-106,-106]]",diamond,red,vert,up,"[0,150]","[-106,-106]",left,0,1.933,,,,,,001,2025-03-10_18h34.34.170,SL_base,2021.2.3,Win32,59.88023952,,,109,0,109,0,1,,,,,,,,
,,"[""circle"",""red"",""hori"",""left"",[106,-106],[106,106]]",circle,red,hori,left,"[106,-106]","[106,106]",left,1,1.2526,,,,,,001,2025-03-10_18h34.34.170,SL_base,2021.2.3,Win32,59.88023952,,,110,0,110,0,1,,,,,,,,
,,"[""diamond"",""green"",""vert"",""up"",[-106,-106],[106,-106]]",diamond,green,vert,up,"[-106,-106]","[106,-106]",up,1,1.217,,,,,,001,2025-03-10_18h34.34.170,SL_base,2021.2.3,Win32,59.88023952,,,111,0,111,0,1,,,,,,,,
,,"[""diamond"",""red"",""hori"",""left"",[-106,-106],[-106,106]]",diamond,red,hori,left,"[-106,-106]","[-106,106]",left,1,0.8838,,,,,,001,2025-03-10_18h34.34.170,SL_base,2021.2.3,Win32,59.88023952,,,112,0,112,0,1,,,,,,,,
,,"[""circle"",""no_dis"",""hori"",""left"",[99999,99999],[-106,106]]",circle,no_dis,hori,left,"[99999,99999]","[-106,106]",left,1,1.4596,,,,,,001,2025-03-10_18h34.34.170,SL_base,2021.2.3,Win32,59.88023952,,,113,0,113,0,1,,,,,,,,
,,"[""diamond"",""no_dis"",""vert"",""up"",[99999,99999],[-106,106]]",diamond,no_dis,vert,up,"[99999,99999]","[-106,106]",up,1,1.7669,,,,,,001,2025-03-10_18h34.34.170,SL_base,2021.2.3,Win32,59.88023952,,,114,0,114,0,1,,,,,,,,
,,"[""diamond"",""green"",""vert"",""up"",[0,150],[150,0]]",diamond,green,vert,up,"[0,150]","[150,0]",up,1,1.1704,,,,,,001,2025-03-10_18h34.34.170,SL_base,2021.2.3,Win32,59.88023952,,,115,0,115,0,1,,,,,,,,
,,"[""diamond"",""red"",""hori"",""left"",[0,150],[0,-150]]",diamond,red,hori,left,"[0,150]","[0,-150]",left,1,1.2379,,,,,,001,2025-03-10_18h34.34.170,SL_base,2021.2.3,Win32,59.88023952,,,116,0,116,0,1,,,,,,,,
,,"[""diamond"",""red"",""vert"",""up"",[106,106],[0,150]]",diamond,red,vert,up,"[106,106]","[0,150]",up,1,1.0562,,,,,,001,2025-03-10_18h34.34.170,SL_base,2021.2.3,Win32,59.88023952,,,117,0,117,0,1,,,,,,,,
,,"[""diamond"",""red"",""hori"",""left"",[-106,-106],[106,106]]",diamond,red,hori,left,"[-106,-106]","[106,106]",left,1,0.8174,,,,,,001,2025-03-10_18h34.34.170,SL_base,2021.2.3,Win32,59.88023952,,,118,0,118,0,1,,,,,,,,
,,"[""diamond"",""red"",""vert"",""up"",[106,106],[-150,0]]",diamond,red,vert,up,"[106,106]","[-150,0]",up,1,1.1668,,,,,,001,2025-03-10_18h34.34.170,SL_base,2021.2.3,Win32,59.88023952,,,119,0,119,0,1,,,,,,,,
,,,,,,,,,,,,,,,,,001,2025-03-10_18h34.34.170,SL_base,2021.2.3,Win32,59.88023952,,,,,,,,1,space,9.9173,0,0,0,0,1
,,"[""circle"",""red"",""vert"",""up"",[-150,0],[-106,-106]]",circle,red,vert,up,"[-150,0]","[-106,-106]",up,1,1.033,,,,,,001,2025-03-10_18h34.34.170,SL_base,2021.2.3,Win32,59.88023952,,,0,0,0,0,1,,,,,,,,
,,"[""diamond"",""green"",""vert"",""up"",[-106,-106],[106,-106]]",diamond,green,vert,up,"[-106,-106]","[106,-106]",up,1,1.0002,,,,,,001,2025-03-10_18h34.34.170,SL_base,2021.2.3,Win32,59.88023952,,,1,0,1,0,1,,,,,,,,
,,"[""diamond"",""red"",""vert"",""up"",[0,150],[-106,-106]]",diamond,red,vert,up,"[0,150]","[-106,-106]",up,1,0.6835,,,,,,001,2025-03-10_18h34.34.170,SL_base,2021.2.3,Win32,59.88023952,,,2,0,2,0,1,,,,,,,,
,,"[""circle"",""red"",""vert"",""up"",[106,106],[0,150]]",circle,red,vert,up,"[106,106]","[0,150]",up,1,1.3556,,,,,,001,2025-03-10_18h34.34.170,SL_base,2021.2.3,Win32,59.88023952,,,3,0,3,0,1,,,,,,,,
,,"[""diamond"",""no_dis"",""vert"",""up"",[99999,99999],[-106,106]]",diamond,no_dis,vert,up,"[99999,99999]","[-106,106]",up,1,0.6841,,,,,,001,2025-03-10_18h34.34.170,SL_base,2021.2.3,Win32,59.88023952,,,4,0,4,0,1,,,,,,,,
,,"[""diamond"",""no_dis"",""vert"",""up"",[99999,99999],[106,106]]",diamond,no_dis,vert,up,"[99999,99999]","[106,106]",up,1,0.6584,,,,,,001,2025-03-10_18h34.34.170,SL_base,2021.2.3,Win32,59.88023952,,,5,0,5,0,1,,,,,,,,
,,"[""diamond"",""no_dis"",""hori"",""left"",[99999,99999],[106,106]]",diamond,no_dis,hori,left,"[99999,99999]","[106,106]",left,1,0.8334,,,,,,001,2025-03-10_18h34.34.170,SL_base,2021.2.3,Win32,59.88023952,,,6,0,6,0,1,,,,,,,,
,,"[""circle"",""no_dis"",""vert"",""up"",[99999,99999],[-150,0]]",circle,no_dis,vert,up,"[99999,99999]","[-150,0]",up,1,0.7834,,,,,,001,2025-03-10_18h34.34.170,SL_base,2021.2.3,Win32,59.88023952,,,7,0,7,0,1,,,,,,,,
,,"[""circle"",""green"",""hori"",""left"",[0,-150],[-106,106]]",circle,green,hori,left,"[0,-150]","[-106,106]",left,1,0.8254,,,,,,001,2025-03-10_18h34.34.170,SL_base,2021.2.3,Win32,59.88023952,,,8,0,8,0,1,,,,,,,,
,,"[""diamond"",""no_dis"",""vert"",""up"",[99999,99999],[-106,-106]]",diamond,no_dis,vert,up,"[99999,99999]","[-106,-106]",up,1,1.0836,,,,,,001,2025-03-10_18h34.34.170,SL_base,2021.2.3,Win32,59.88023952,,,9,0,9,0,1,,,,,,,,
,,"[""circle"",""green"",""vert"",""up"",[-106,-106],[0,150]]",circle,green,vert,up,"[-106,-106]","[0,150]",up,1,1.0068,,,,,,001,2025-03-10_18h34.34.170,SL_base,2021.2.3,Win32,59.88023952,,,10,0,10,0,1,,,,,,,,
,,"[""circle"",""red"",""vert"",""up"",[-106,-106],[106,106]]",circle,red,vert,up,"[-106,-106]","[106,106]",up,1,0.8362,,,,,,001,2025-03-10_18h34.34.170,SL_base,2021.2.3,Win32,59.88023952,,,11,0,11,0,1,,,,,,,,
,,"[""diamond"",""red"",""vert"",""up"",[106,106],[0,150]]",diamond,red,vert,up,"[106,106]","[0,150]",up,1,0.9837,,,,,,001,2025-03-10_18h34.34.170,SL_base,2021.2.3,Win32,59.88023952,,,12,0,12,0,1,,,,,,,,
,,"[""circle"",""red"",""vert"",""up"",[0,-150],[0,150]]",circle,red,vert,up,"[0,-150]","[0,150]",up,1,0.788,,,,,,001,2025-03-10_18h34.34.170,SL_base,2021.2.3,Win32,59.88023952,,,13,0,13,0,1,,,,,,,,
,,"[""diamond"",""red"",""hori"",""left"",[106,106],[-106,106]]",diamond,red,hori,left,"[106,106]","[-106,106]",left,1,1.0071,,,,,,001,2025-03-10_18h34.34.170,SL_base,2021.2.3,Win32,59.88023952,,,14,0,14,0,1,,,,,,,,
,,"[""diamond"",""green"",""hori"",""left"",[-106,-106],[-150,0]]",diamond,green,hori,left,"[-106,-106]","[-150,0]",left,1,0.923,,,,,,001,2025-03-10_18h34.34.170,SL_base,2021.2.3,Win32,59.88023952,,,15,0,15,0,1,,,,,,,,
,,"[""circle"",""no_dis"",""hori"",""left"",[99999,99999],[106,-106]]",circle,no_dis,hori,left,"[99999,99999]","[106,-106]",left,1,1.8001,,,,,,001,2025-03-10_18h34.34.170,SL_base,2021.2.3,Win32,59.88023952,,,16,0,16,0,1,,,,,,,,
,,"[""circle"",""green"",""vert"",""up"",[150,0],[106,106]]",circle,green,vert,up,"[150,0]","[106,106]",up,1,1.4273,,,,,,001,2025-03-10_18h34.34.170,SL_base,2021.2.3,Win32,59.88023952,,,17,0,17,0,1,,,,,,,,
,,"[""diamond"",""no_dis"",""hori"",""left"",[99999,99999],[0,-150]]",diamond,no_dis,hori,left,"[99999,99999]","[0,-150]",left,1,1.4865,,,,,,001,2025-03-10_18h34.34.170,SL_base,2021.2.3,Win32,59.88023952,,,18,0,18,0,1,,,,,,,,
,,"[""circle"",""red"",""hori"",""left"",[150,0],[-106,-106]]",circle,red,hori,left,"[150,0]","[-106,-106]",left,1,0.9029,,,,,,001,2025-03-10_18h34.34.170,SL_base,2021.2.3,Win32,59.88023952,,,19,0,19,0,1,,,,,,,,
,,"[""diamond"",""no_dis"",""vert"",""up"",[99999,99999],[106,106]]",diamond,no_dis,vert,up,"[99999,99999]","[106,106]",up,1,1.0501,,,,,,001,2025-03-10_18h34.34.170,SL_base,2021.2.3,Win32,59.88023952,,,20,0,20,0,1,,,,,,,,
,,"[""circle"",""red"",""vert"",""up"",[0,150],[0,-150]]",circle,red,vert,up,"[0,150]","[0,-150]",up,1,1.5353,,,,,,001,2025-03-10_18h34.34.170,SL_base,2021.2.3,Win32,59.88023952,,,21,0,21,0,1,,,,,,,,
,,"[""diamond"",""green"",""vert"",""up"",[0,150],[-150,0]]",diamond,green,vert,up,"[0,150]","[-150,0]",up,1,0.8002,,,,,,001,2025-03-10_18h34.34.170,SL_base,2021.2.3,Win32,59.88023952,,,22,0,22,0,1,,,,,,,,
,,"[""circle"",""red"",""hori"",""left"",[106,-106],[106,106]]",circle,red,hori,left,"[106,-106]","[106,106]",left,1,0.7838,,,,,,001,2025-03-10_18h34.34.170,SL_base,2021.2.3,Win32,59.88023952,,,23,0,23,0,1,,,,,,,,
,,"[""circle"",""red"",""hori"",""left"",[-150,0],[0,-150]]",circle,red,hori,left,"[-150,0]","[0,-150]",left,1,1.0717,,,,,,001,2025-03-10_18h34.34.170,SL_base,2021.2.3,Win32,59.88023952,,,24,0,24,0,1,,,,,,,,
,,"[""circle"",""red"",""vert"",""up"",[-150,0],[0,-150]]",circle,red,vert,up,"[-150,0]","[0,-150]",up,1,0.917,,,,,,001,2025-03-10_18h34.34.170,SL_base,2021.2.3,Win32,59.88023952,,,25,0,25,0,1,,,,,,,,
,,"[""diamond"",""red"",""vert"",""up"",[106,106],[-150,0]]",diamond,red,vert,up,"[106,106]","[-150,0]",up,1,0.8529,,,,,,001,2025-03-10_18h34.34.170,SL_base,2021.2.3,Win32,59.88023952,,,26,0,26,0,1,,,,,,,,
,,"[""diamond"",""no_dis"",""hori"",""left"",[99999,99999],[-106,106]]",diamond,no_dis,hori,left,"[99999,99999]","[-106,106]",left,1,0.8168,,,,,,001,2025-03-10_18h34.34.170,SL_base,2021.2.3,Win32,59.88023952,,,27,0,27,0,1,,,,,,,,
,,"[""diamond"",""green"",""vert"",""up"",[0,-150],[0,150]]",diamond,green,vert,up,"[0,-150]","[0,150]",up,1,0.9837,,,,,,001,2025-03-10_18h34.34.170,SL_base,2021.2.3,Win32,59.88023952,,,28,0,28,0,1,,,,,,,,
,,"[""diamond"",""green"",""hori"",""left"",[106,-106],[-106,106]]",diamond,green,hori,left,"[106,-106]","[-106,106]",left,1,0.8835,,,,,,001,2025-03-10_18h34.34.170,SL_base,2021.2.3,Win32,59.88023952,,,29,0,29,0,1,,,,,,,,
,,"[""circle"",""no_dis"",""vert"",""up"",[99999,99999],[106,106]]",circle,no_dis,vert,up,"[99999,99999]","[106,106]",up,1,1.4188,,,,,,001,2025-03-10_18h34.34.170,SL_base,2021.2.3,Win32,59.88023952,,,30,0,30,0,1,,,,,,,,
,,"[""diamond"",""green"",""hori"",""left"",[-106,-106],[106,106]]",diamond,green,hori,left,"[-106,-106]","[106,106]",left,1,1.0836,,,,,,001,2025-03-10_18h34.34.170,SL_base,2021.2.3,Win32,59.88023952,,,31,0,31,0,1,,,,,,,,
,,"[""circle"",""no_dis"",""hori"",""left"",[99999,99999],[150,0]]",circle,no_dis,hori,left,"[99999,99999]","[150,0]",left,1,0.9945,,,,,,001,2025-03-10_18h34.34.170,SL_base,2021.2.3,Win32,59.88023952,,,32,0,32,0,1,,,,,,,,
,,"[""circle"",""red"",""hori"",""left"",[-106,-106],[0,150]]",circle,red,hori,left,"[-106,-106]","[0,150]",left,1,1.1767,,,,,,001,2025-03-10_18h34.34.170,SL_base,2021.2.3,Win32,59.88023952,,,33,0,33,0,1,,,,,,,,
,,"[""circle"",""green"",""hori"",""left"",[0,150],[106,-106]]",circle,green,hori,left,"[0,150]","[106,-106]",left,1,0.6738,,,,,,001,2025-03-10_18h34.34.170,SL_base,2021.2.3,Win32,59.88023952,,,34,0,34,0,1,,,,,,,,
,,"[""diamond"",""red"",""vert"",""up"",[-106,-106],[106,106]]",diamond,red,vert,up,"[-106,-106]","[106,106]",up,1,0.7507,,,,,,001,2025-03-10_18h34.34.170,SL_base,2021.2.3,Win32,59.88023952,,,35,0,35,0,1,,,,,,,,
,,"[""circle"",""green"",""vert"",""up"",[-106,-106],[0,-150]]",circle,green,vert,up,"[-106,-106]","[0,-150]",up,1,0.7864,,,,,,001,2025-03-10_18h34.34.170,SL_base,2021.2.3,Win32,59.88023952,,,36,0,36,0,1,,,,,,,,
,,"[""diamond"",""no_dis"",""vert"",""up"",[99999,99999],[0,150]]",diamond,no_dis,vert,up,"[99999,99999]","[0,150]",up,1,1.7164,,,,,,001,2025-03-10_18h34.34.170,SL_base,2021.2.3,Win32,59.88023952,,,37,0,37,0,1,,,,,,,,
,,"[""diamond"",""green"",""hori"",""left"",[-106,-106],[0,150]]",diamond,green,hori,left,"[-106,-106]","[0,150]",left,1,0.8503,,,,,,001,2025-03-10_18h34.34.170,SL_base,2021.2.3,Win32,59.88023952,,,38,0,38,0,1,,,,,,,,
,,"[""circle"",""no_dis"",""hori"",""left"",[99999,99999],[-150,0]]",circle,no_dis,hori,left,"[99999,99999]","[-150,0]",left,1,1.1002,,,,,,001,2025-03-10_18h34.34.170,SL_base,2021.2.3,Win32,59.88023952,,,39,0,39,0,1,,,,,,,,
,,"[""diamond"",""red"",""hori"",""left"",[106,-106],[-150,0]]",diamond,red,hori,left,"[106,-106]","[-150,0]",left,1,0.9169,,,,,,001,2025-03-10_18h34.34.170,SL_base,2021.2.3,Win32,59.88023952,,,40,0,40,0,1,,,,,,,,
,,"[""circle"",""no_dis"",""vert"",""up"",[99999,99999],[106,106]]",circle,no_dis,vert,up,"[99999,99999]","[106,106]",up,1,0.8333,,,,,,001,2025-03-10_18h34.34.170,SL_base,2021.2.3,Win32,59.88023952,,,41,0,41,0,1,,,,,,,,
,,"[""circle"",""red"",""hori"",""left"",[106,-106],[0,150]]",circle,red,hori,left,"[106,-106]","[0,150]",left,1,1.5525,,,,,,001,2025-03-10_18h34.34.170,SL_base,2021.2.3,Win32,59.88023952,,,42,0,42,0,1,,,,,,,,
,,"[""circle"",""red"",""hori"",""left"",[-106,106],[-150,0]]",circle,red,hori,left,"[-106,106]","[-150,0]",left,1,1.6665,,,,,,001,2025-03-10_18h34.34.170,SL_base,2021.2.3,Win32,59.88023952,,,43,0,43,0,1,,,,,,,,
,,"[""diamond"",""green"",""vert"",""up"",[-106,-106],[106,106]]",diamond,green,vert,up,"[-106,-106]","[106,106]",up,1,1.2663,,,,,,001,2025-03-10_18h34.34.170,SL_base,2021.2.3,Win32,59.88023952,,,44,0,44,0,1,,,,,,,,
,,"[""circle"",""red"",""vert"",""up"",[-106,-106],[0,150]]",circle,red,vert,up,"[-106,-106]","[0,150]",up,1,0.8222,,,,,,001,2025-03-10_18h34.34.170,SL_base,2021.2.3,Win32,59.88023952,,,45,0,45,0,1,,,,,,,,
,,"[""diamond"",""green"",""hori"",""left"",[0,150],[-106,-106]]",diamond,green,hori,left,"[0,150]","[-106,-106]",left,1,0.8338,,,,,,001,2025-03-10_18h34.34.170,SL_base,2021.2.3,Win32,59.88023952,,,46,0,46,0,1,,,,,,,,
,,"[""diamond"",""green"",""vert"",""up"",[0,-150],[-106,106]]",diamond,green,vert,up,"[0,-150]","[-106,106]",up,1,0.803,,,,,,001,2025-03-10_18h34.34.170,SL_base,2021.2.3,Win32,59.88023952,,,47,0,47,0,1,,,,,,,,
,,"[""circle"",""no_dis"",""hori"",""left"",[99999,99999],[0,-150]]",circle,no_dis,hori,left,"[99999,99999]","[0,-150]",left,1,1.3879,,,,,,001,2025-03-10_18h34.34.170,SL_base,2021.2.3,Win32,59.88023952,,,48,0,48,0,1,,,,,,,,
,,"[""diamond"",""red"",""hori"",""left"",[-106,106],[150,0]]",diamond,red,hori,left,"[-106,106]","[150,0]",left,1,1.1695,,,,,,001,2025-03-10_18h34.34.170,SL_base,2021.2.3,Win32,59.88023952,,,49,0,49,0,1,,,,,,,,
,,"[""circle"",""no_dis"",""hori"",""left"",[99999,99999],[0,150]]",circle,no_dis,hori,left,"[99999,99999]","[0,150]",left,1,1.4573,,,,,,001,2025-03-10_18h34.34.170,SL_base,2021.2.3,Win32,59.88023952,,,50,0,50,0,1,,,,,,,,
,,"[""circle"",""green"",""hori"",""left"",[106,106],[0,150]]",circle,green,hori,left,"[106,106]","[0,150]",left,1,0.8338,,,,,,001,2025-03-10_18h34.34.170,SL_base,2021.2.3,Win32,59.88023952,,,51,0,51,0,1,,,,,,,,
,,"[""diamond"",""no_dis"",""hori"",""left"",[99999,99999],[-106,-106]]",diamond,no_dis,hori,left,"[99999,99999]","[-106,-106]",left,1,0.9997,,,,,,001,2025-03-10_18h34.34.170,SL_base,2021.2.3,Win32,59.88023952,,,52,0,52,0,1,,,,,,,,
,,"[""diamond"",""green"",""vert"",""up"",[-150,0],[-106,106]]",diamond,green,vert,up,"[-150,0]","[-106,106]",up,1,1.271,,,,,,001,2025-03-10_18h34.34.170,SL_base,2021.2.3,Win32,59.88023952,,,53,0,53,0,1,,,,,,,,
,,"[""circle"",""green"",""vert"",""up"",[-106,-106],[0,150]]",circle,green,vert,up,"[-106,-106]","[0,150]",up,1,1.0668,,,,,,001,2025-03-10_18h34.34.170,SL_base,2021.2.3,Win32,59.88023952,,,54,0,54,0,1,,,,,,,,
,,"[""diamond"",""red"",""hori"",""left"",[106,-106],[106,106]]",diamond,red,hori,left,"[106,-106]","[106,106]",left,1,1.0335,,,,,,001,2025-03-10_18h34.34.170,SL_base,2021.2.3,Win32,59.88023952,,,55,0,55,0,1,,,,,,,,
,,"[""diamond"",""green"",""hori"",""left"",[-106,-106],[106,-106]]",diamond,green,hori,left,"[-106,-106]","[106,-106]",left,1,0.9601,,,,,,001,2025-03-10_18h34.34.170,SL_base,2021.2.3,Win32,59.88023952,,,56,0,56,0,1,,,,,,,,
,,"[""diamond"",""red"",""vert"",""up"",[0,-150],[-150,0]]",diamond,red,vert,up,"[0,-150]","[-150,0]",up,1,0.817,,,,,,001,2025-03-10_18h34.34.170,SL_base,2021.2.3,Win32,59.88023952,,,57,0,57,0,1,,,,,,,,
,,"[""diamond"",""no_dis"",""vert"",""up"",[99999,99999],[0,150]]",diamond,no_dis,vert,up,"[99999,99999]","[0,150]",up,1,0.7836,,,,,,001,2025-03-10_18h34.34.170,SL_base,2021.2.3,Win32,59.88023952,,,58,0,58,0,1,,,,,,,,
,,"[""circle"",""no_dis"",""vert"",""up"",[99999,99999],[106,-106]]",circle,no_dis,vert,up,"[99999,99999]","[106,-106]",up,1,1.7332,,,,,,001,2025-03-10_18h34.34.170,SL_base,2021.2.3,Win32,59.88023952,,,59,0,59,0,1,,,,,,,,
,,"[""diamond"",""red"",""hori"",""left"",[150,0],[-150,0]]",diamond,red,hori,left,"[150,0]","[-150,0]",left,1,0.7661,,,,,,001,2025-03-10_18h34.34.170,SL_base,2021.2.3,Win32,59.88023952,,,60,0,60,0,1,,,,,,,,
,,"[""diamond"",""no_dis"",""vert"",""up"",[99999,99999],[-106,106]]",diamond,no_dis,vert,up,"[99999,99999]","[-106,106]",up,1,0.5921,,,,,,001,2025-03-10_18h34.34.170,SL_base,2021.2.3,Win32,59.88023952,,,61,0,61,0,1,,,,,,,,
,,"[""diamond"",""no_dis"",""hori"",""left"",[99999,99999],[150,0]]",diamond,no_dis,hori,left,"[99999,99999]","[150,0]",left,1,1.0503,,,,,,001,2025-03-10_18h34.34.170,SL_base,2021.2.3,Win32,59.88023952,,,62,0,62,0,1,,,,,,,,
,,"[""circle"",""no_dis"",""vert"",""up"",[99999,99999],[-106,-106]]",circle,no_dis,vert,up,"[99999,99999]","[-106,-106]",up,1,1.6504,,,,,,001,2025-03-10_18h34.34.170,SL_base,2021.2.3,Win32,59.88023952,,,63,0,63,0,1,,,,,,,,
,,"[""circle"",""no_dis"",""vert"",""up"",[99999,99999],[0,150]]",circle,no_dis,vert,up,"[99999,99999]","[0,150]",up,1,1.6212,,,,,,001,2025-03-10_18h34.34.170,SL_base,2021.2.3,Win32,59.88023952,,,64,0,64,0,1,,,,,,,,
,,"[""diamond"",""green"",""vert"",""up"",[-106,-106],[106,106]]",diamond,green,vert,up,"[-106,-106]","[106,106]",left,0,1.2502,,,,,,001,2025-03-10_18h34.34.170,SL_base,2021.2.3,Win32,59.88023952,,,65,0,65,0,1,,,,,,,,
,,"[""circle"",""green"",""hori"",""left"",[106,106],[0,150]]",circle,green,hori,left,"[106,106]","[0,150]",left,1,1.6769,,,,,,001,2025-03-10_18h34.34.170,SL_base,2021.2.3,Win32,59.88023952,,,66,0,66,0,1,,,,,,,,
,,"[""circle"",""red"",""hori"",""left"",[-106,-106],[106,-106]]",circle,red,hori,left,"[-106,-106]","[106,-106]",left,1,0.8837,,,,,,001,2025-03-10_18h34.34.170,SL_base,2021.2.3,Win32,59.88023952,,,67,0,67,0,1,,,,,,,,
,,"[""diamond"",""green"",""hori"",""left"",[0,150],[0,-150]]",diamond,green,hori,left,"[0,150]","[0,-150]",left,1,0.9175,,,,,,001,2025-03-10_18h34.34.170,SL_base,2021.2.3,Win32,59.88023952,,,68,0,68,0,1,,,,,,,,
,,"[""diamond"",""green"",""hori"",""left"",[150,0],[-150,0]]",diamond,green,hori,left,"[150,0]","[-150,0]",left,1,0.7589,,,,,,001,2025-03-10_18h34.34.170,SL_base,2021.2.3,Win32,59.88023952,,,69,0,69,0,1,,,,,,,,
,,"[""diamond"",""no_dis"",""hori"",""left"",[99999,99999],[106,-106]]",diamond,no_dis,hori,left,"[99999,99999]","[106,-106]",left,1,0.7362,,,,,,001,2025-03-10_18h34.34.170,SL_base,2021.2.3,Win32,59.88023952,,,70,0,70,0,1,,,,,,,,
,,"[""circle"",""green"",""hori"",""left"",[106,-106],[0,150]]",circle,green,hori,left,"[106,-106]","[0,150]",left,1,1.1435,,,,,,001,2025-03-10_18h34.34.170,SL_base,2021.2.3,Win32,59.88023952,,,71,0,71,0,1,,,,,,,,
,,"[""diamond"",""red"",""vert"",""up"",[106,106],[0,150]]",diamond,red,vert,up,"[106,106]","[0,150]",up,1,0.9999,,,,,,001,2025-03-10_18h34.34.170,SL_base,2021.2.3,Win32,59.88023952,,,72,0,72,0,1,,,,,,,,
,,"[""diamond"",""no_dis"",""hori"",""left"",[99999,99999],[-106,-106]]",diamond,no_dis,hori,left,"[99999,99999]","[-106,-106]",left,1,0.817,,,,,,001,2025-03-10_18h34.34.170,SL_base,2021.2.3,Win32,59.88023952,,,73,0,73,0,1,,,,,,,,
,,"[""diamond"",""no_dis"",""hori"",""left"",[99999,99999],[0,-150]]",diamond,no_dis,hori,left,"[99999,99999]","[0,-150]",left,1,0.7779,,,,,,001,2025-03-10_18h34.34.170,SL_base,2021.2.3,Win32,59.88023952,,,74,0,74,0,1,,,,,,,,
,,"[""circle"",""green"",""hori"",""left"",[150,0],[0,150]]",circle,green,hori,left,"[150,0]","[0,150]",left,1,1.087,,,,,,001,2025-03-10_18h34.34.170,SL_base,2021.2.3,Win32,59.88023952,,,75,0,75,0,1,,,,,,,,
,,"[""diamond"",""red"",""hori"",""left"",[0,-150],[-106,106]]",diamond,red,hori,left,"[0,-150]","[-106,106]",left,1,1.0583,,,,,,001,2025-03-10_18h34.34.170,SL_base,2021.2.3,Win32,59.88023952,,,76,0,76,0,1,,,,,,,,
,,"[""circle"",""red"",""vert"",""up"",[-106,-106],[0,-150]]",circle,red,vert,up,"[-106,-106]","[0,-150]",up,1,1.0002,,,,,,001,2025-03-10_18h34.34.170,SL_base,2021.2.3,Win32,59.88023952,,,77,0,77,0,1,,,,,,,,
,,"[""diamond"",""green"",""vert"",""up"",[0,150],[150,0]]",diamond,green,vert,up,"[0,150]","[150,0]",up,1,1.0831,,,,,,001,2025-03-10_18h34.34.170,SL_base,2021.2.3,Win32,59.88023952,,,78,0,78,0,1,,,,,,,,
,,"[""diamond"",""no_dis"",""vert"",""up"",[99999,99999],[0,-150]]",diamond,no_dis,vert,up,"[99999,99999]","[0,-150]",up,1,0.6027,,,,,,001,2025-03-10_18h34.34.170,SL_base,2021.2.3,Win32,59.88023952,,,79,0,79,0,1,,,,,,,,
,,"[""diamond"",""green"",""vert"",""up"",[106,106],[-106,106]]",diamond,green,vert,up,"[106,106]","[-106,106]",up,1,1.3533,,,,,,001,2025-03-10_18h34.34.170,SL_base,2021.2.3,Win32,59.88023952,,,80,0,80,0,1,,,,,,,,
,,"[""diamond"",""red"",""vert"",""up"",[-106,-106],[150,0]]",diamond,red,vert,up,"[-106,-106]","[150,0]",up,1,0.8224,,,,,,001,2025-03-10_18h34.34.170,SL_base,2021.2.3,Win32,59.88023952,,,81,0,81,0,1,,,,,,,,
,,"[""circle"",""no_dis"",""hori"",""left"",[99999,99999],[0,150]]",circle,no_dis,hori,left,"[99999,99999]","[0,150]",left,1,1.1841,,,,,,001,2025-03-10_18h34.34.170,SL_base,2021.2.3,Win32,59.88023952,,,82,0,82,0,1,,,,,,,,
,,"[""diamond"",""red"",""vert"",""up"",[-106,106],[150,0]]",diamond,red,vert,up,"[-106,106]","[150,0]",up,1,0.8837,,,,,,001,2025-03-10_18h34.34.170,SL_base,2021.2.3,Win32,59.88023952,,,83,0,83,0,1,,,,,,,,
,,"[""diamond"",""red"",""vert"",""up"",[-106,-106],[0,-150]]",diamond,red,vert,up,"[-106,-106]","[0,-150]",up,1,0.972,,,,,,001,2025-03-10_18h34.34.170,SL_base,2021.2.3,Win32,59.88023952,,,84,0,84,0,1,,,,,,,,
,,"[""diamond"",""no_dis"",""vert"",""up"",[99999,99999],[-150,0]]",diamond,no_dis,vert,up,"[99999,99999]","[-150,0]",up,1,1.3835,,,,,,001,2025-03-10_18h34.34.170,SL_base,2021.2.3,Win32,59.88023952,,,85,0,85,0,1,,,,,,,,
,,"[""circle"",""no_dis"",""hori"",""left"",[99999,99999],[150,0]]",circle,no_dis,hori,left,"[99999,99999]","[150,0]",left,1,1.3382,,,,,,001,2025-03-10_18h34.34.170,SL_base,2021.2.3,Win32,59.88023952,,,86,0,86,0,1,,,,,,,,
,,"[""diamond"",""green"",""hori"",""left"",[-106,-106],[-106,106]]",diamond,green,hori,left,"[-106,-106]","[-106,106]",left,1,0.7853,,,,,,001,2025-03-10_18h34.34.170,SL_base,2021.2.3,Win32,59.88023952,,,87,0,87,0,1,,,,,,,,
,,"[""diamond"",""red"",""hori"",""left"",[-106,-106],[106,106]]",diamond,red,hori,left,"[-106,-106]","[106,106]",up,0,0.8663,,,,,,001,2025-03-10_18h34.34.170,SL_base,2021.2.3,Win32,59.88023952,,,88,0,88,0,1,,,,,,,,
,,"[""circle"",""green"",""vert"",""up"",[106,-106],[0,-150]]",circle,green,vert,up,"[106,-106]","[0,-150]",up,1,1.5672,,,,,,001,2025-03-10_18h34.34.170,SL_base,2021.2.3,Win32,59.88023952,,,89,0,89,0,1,,,,,,,,
,,"[""circle"",""green"",""vert"",""up"",[-106,106],[-106,-106]]",circle,green,vert,up,"[-106,106]","[-106,-106]",up,1,1.6068,,,,,,001,2025-03-10_18h34.34.170,SL_base,2021.2.3,Win32,59.88023952,,,90,0,90,0,1,,,,,,,,
,,"[""circle"",""red"",""vert"",""up"",[-150,0],[0,-150]]",circle,red,vert,up,"[-150,0]","[0,-150]",up,1,0.8848,,,,,,001,2025-03-10_18h34.34.170,SL_base,2021.2.3,Win32,59.88023952,,,91,0,91,0,1,,,,,,,,
,,"[""diamond"",""red"",""hori"",""left"",[-106,-106],[-106,106]]",diamond,red,hori,left,"[-106,-106]","[-106,106]",left,1,1.0754,,,,,,001,2025-03-10_18h34.34.170,SL_base,2021.2.3,Win32,59.88023952,,,92,0,92,0,1,,,,,,,,
,,"[""circle"",""no_dis"",""vert"",""up"",[99999,99999],[150,0]]",circle,no_dis,vert,up,"[99999,99999]","[150,0]",up,1,1.3198,,,,,,001,2025-03-10_18h34.34.170,SL_base,2021.2.3,Win32,59.88023952,,,93,0,93,0,1,,,,,,,,
,,"[""diamond"",""red"",""vert"",""up"",[-150,0],[150,0]]",diamond,red,vert,up,"[-150,0]","[150,0]",up,1,0.6004,,,,,,001,2025-03-10_18h34.34.170,SL_base,2021.2.3,Win32,59.88023952,,,94,0,94,0,1,,,,,,,,
,,"[""circle"",""green"",""hori"",""left"",[150,0],[-150,0]]",circle,green,hori,left,"[150,0]","[-150,0]",left,1,0.7409,,,,,,001,2025-03-10_18h34.34.170,SL_base,2021.2.3,Win32,59.88023952,,,95,0,95,0,1,,,,,,,,
,,"[""circle"",""green"",""hori"",""left"",[-106,-106],[106,106]]",circle,green,hori,left,"[-106,-106]","[106,106]",left,1,0.9339,,,,,,001,2025-03-10_18h34.34.170,SL_base,2021.2.3,Win32,59.88023952,,,96,0,96,0,1,,,,,,,,
,,"[""circle"",""green"",""vert"",""up"",[-106,106],[150,0]]",circle,green,vert,up,"[-106,106]","[150,0]",up,1,0.883,,,,,,001,2025-03-10_18h34.34.170,SL_base,2021.2.3,Win32,59.88023952,,,97,0,97,0,1,,,,,,,,
,,"[""circle"",""red"",""hori"",""left"",[150,0],[-106,106]]",circle,red,hori,left,"[150,0]","[-106,106]",left,1,1.0269,,,,,,001,2025-03-10_18h34.34.170,SL_base,2021.2.3,Win32,59.88023952,,,98,0,98,0,1,,,,,,,,
,,"[""diamond"",""no_dis"",""hori"",""left"",[99999,99999],[150,0]]",diamond,no_dis,hori,left,"[99999,99999]","[150,0]",left,1,0.8333,,,,,,001,2025-03-10_18h34.34.170,SL_base,2021.2.3,Win32,59.88023952,,,99,0,99,0,1,,,,,,,,
,,"[""circle"",""green"",""vert"",""up"",[-106,106],[106,106]]",circle,green,vert,up,"[-106,106]","[106,106]",up,1,1.117,,,,,,001,2025-03-10_18h34.34.170,SL_base,2021.2.3,Win32,59.88023952,,,100,0,100,0,1,,,,,,,,
,,"[""circle"",""no_dis"",""hori"",""left"",[99999,99999],[106,-106]]",circle,no_dis,hori,left,"[99999,99999]","[106,-106]",left,1,0.7669,,,,,,001,2025-03-10_18h34.34.170,SL_base,2021.2.3,Win32,59.88023952,,,101,0,101,0,1,,,,,,,,
,,"[""diamond"",""red"",""hori"",""left"",[0,150],[0,-150]]",diamond,red,hori,left,"[0,150]","[0,-150]",left,1,0.8501,,,,,,001,2025-03-10_18h34.34.170,SL_base,2021.2.3,Win32,59.88023952,,,102,0,102,0,1,,,,,,,,
,,"[""diamond"",""green"",""hori"",""left"",[0,-150],[150,0]]",diamond,green,hori,left,"[0,-150]","[150,0]",left,1,1.1058,,,,,,001,2025-03-10_18h34.34.170,SL_base,2021.2.3,Win32,59.88023952,,,103,0,103,0,1,,,,,,,,
,,"[""circle"",""no_dis"",""hori"",""left"",[99999,99999],[106,-106]]",circle,no_dis,hori,left,"[99999,99999]","[106,-106]",left,1,1.5608,,,,,,001,2025-03-10_18h34.34.170,SL_base,2021.2.3,Win32,59.88023952,,,104,0,104,0,1,,,,,,,,
,,"[""circle"",""green"",""hori"",""left"",[106,-106],[-106,106]]",circle,green,hori,left,"[106,-106]","[-106,106]",left,1,1.0559,,,,,,001,2025-03-10_18h34.34.170,SL_base,2021.2.3,Win32,59.88023952,,,105,0,105,0,1,,,,,,,,
,,"[""circle"",""no_dis"",""vert"",""up"",[99999,99999],[-106,106]]",circle,no_dis,vert,up,"[99999,99999]","[-106,106]",up,1,0.811,,,,,,001,2025-03-10_18h34.34.170,SL_base,2021.2.3,Win32,59.88023952,,,106,0,106,0,1,,,,,,,,
,,"[""circle"",""no_dis"",""hori"",""left"",[99999,99999],[-106,106]]",circle,no_dis,hori,left,"[99999,99999]","[-106,106]",left,1,0.6005,,,,,,001,2025-03-10_18h34.34.170,SL_base,2021.2.3,Win32,59.88023952,,,107,0,107,0,1,,,,,,,,
,,"[""circle"",""no_dis"",""vert"",""up"",[99999,99999],[-150,0]]",circle,no_dis,vert,up,"[99999,99999]","[-150,0]",up,1,0.7008,,,,,,001,2025-03-10_18h34.34.170,SL_base,2021.2.3,Win32,59.88023952,,,108,0,108,0,1,,,,,,,,
,,"[""diamond"",""no_dis"",""vert"",""up"",[99999,99999],[0,-150]]",diamond,no_dis,vert,up,"[99999,99999]","[0,-150]",up,1,0.5673,,,,,,001,2025-03-10_18h34.34.170,SL_base,2021.2.3,Win32,59.88023952,,,109,0,109,0,1,,,,,,,,
,,"[""circle"",""red"",""hori"",""left"",[-106,106],[0,150]]",circle,red,hori,left,"[-106,106]","[0,150]",left,1,1.1167,,,,,,001,2025-03-10_18h34.34.170,SL_base,2021.2.3,Win32,59.88023952,,,110,0,110,0,1,,,,,,,,
,,"[""circle"",""green"",""vert"",""up"",[-106,-106],[106,106]]",circle,green,vert,up,"[-106,-106]","[106,106]",up,1,0.7379,,,,,,001,2025-03-10_18h34.34.170,SL_base,2021.2.3,Win32,59.88023952,,,111,0,111,0,1,,,,,,,,
,,"[""circle"",""no_dis"",""vert"",""up"",[99999,99999],[-150,0]]",circle,no_dis,vert,up,"[99999,99999]","[-150,0]",up,1,0.7531,,,,,,001,2025-03-10_18h34.34.170,SL_base,2021.2.3,Win32,59.88023952,,,112,0,112,0,1,,,,,,,,
,,"[""circle"",""red"",""hori"",""left"",[150,0],[106,106]]",circle,red,hori,left,"[150,0]","[106,106]",left,1,0.9185,,,,,,001,2025-03-10_18h34.34.170,SL_base,2021.2.3,Win32,59.88023952,,,113,0,113,0,1,,,,,,,,
,,"[""circle"",""green"",""hori"",""left"",[-106,106],[0,150]]",circle,green,hori,left,"[-106,106]","[0,150]",left,1,1.7421,,,,,,001,2025-03-10_18h34.34.170,SL_base,2021.2.3,Win32,59.88023952,,,114,0,114,0,1,,,,,,,,
,,"[""circle"",""red"",""vert"",""up"",[0,-150],[-106,-106]]",circle,red,vert,up,"[0,-150]","[-106,-106]",left,0,1.0003,,,,,,001,2025-03-10_18h34.34.170,SL_base,2021.2.3,Win32,59.88023952,,,115,0,115,0,1,,,,,,,,
,,"[""diamond"",""green"",""vert"",""up"",[-150,0],[-106,-106]]",diamond,green,vert,up,"[-150,0]","[-106,-106]",up,1,1.3162,,,,,,001,2025-03-10_18h34.34.170,SL_base,2021.2.3,Win32,59.88023952,,,116,0,116,0,1,,,,,,,,
,,"[""diamond"",""no_dis"",""hori"",""left"",[99999,99999],[-106,-106]]",diamond,no_dis,hori,left,"[99999,99999]","[-106,-106]",left,1,1.2913,,,,,,001,2025-03-10_18h34.34.170,SL_base,2021.2.3,Win32,59.88023952,,,117,0,117,0,1,,,,,,,,
,,"[""circle"",""green"",""vert"",""up"",[-150,0],[0,150]]",circle,green,vert,up,"[-150,0]","[0,150]",up,1,1.0031,,,,,,001,2025-03-10_18h34.34.170,SL_base,2021.2.3,Win32,59.88023952,,,118,0,118,0,1,,,,,,,,
,,"[""diamond"",""red"",""hori"",""left"",[-106,-106],[0,-150]]",diamond,red,hori,left,"[-106,-106]","[0,-150]",left,1,1.2089,,,,,,001,2025-03-10_18h34.34.170,SL_base,2021.2.3,Win32,59.88023952,,,119,0,119,0,1,,,,,,,,
,,,,,,,,,,,,,,,,,001,2025-03-10_18h34.34.170,SL_base,2021.2.3,Win32,59.88023952,,,,,,,,2,space,30.3792,1,0,1,0,1
,,"[""diamond"",""red"",""hori"",""left"",[150,0],[-150,0]]",diamond,red,hori,left,"[150,0]","[-150,0]",left,1,0.7336,,,,,,001,2025-03-10_18h34.34.170,SL_base,2021.2.3,Win32,59.88023952,,,0,0,0,0,1,,,,,,,,
,,"[""diamond"",""no_dis"",""vert"",""up"",[99999,99999],[0,-150]]",diamond,no_dis,vert,up,"[99999,99999]","[0,-150]",up,1,0.7169,,,,,,001,2025-03-10_18h34.34.170,SL_base,2021.2.3,Win32,59.88023952,,,1,0,1,0,1,,,,,,,,
,,"[""circle"",""no_dis"",""hori"",""left"",[99999,99999],[-106,106]]",circle,no_dis,hori,left,"[99999,99999]","[-106,106]",left,1,1.3336,,,,,,001,2025-03-10_18h34.34.170,SL_base,2021.2.3,Win32,59.88023952,,,2,0,2,0,1,,,,,,,,
,,"[""diamond"",""no_dis"",""hori"",""left"",[99999,99999],[150,0]]",diamond,no_dis,hori,left,"[99999,99999]","[150,0]",left,1,0.8418,,,,,,001,2025-03-10_18h34.34.170,SL_base,2021.2.3,Win32,59.88023952,,,3,0,3,0,1,,,,,,,,
,,"[""diamond"",""green"",""vert"",""up"",[0,150],[150,0]]",diamond,green,vert,up,"[0,150]","[150,0]",up,1,1.2552,,,,,,001,2025-03-10_18h34.34.170,SL_base,2021.2.3,Win32,59.88023952,,,4,0,4,0,1,,,,,,,,
,,"[""circle"",""red"",""hori"",""left"",[-106,106],[0,150]]",circle,red,hori,left,"[-106,106]","[0,150]",up,0,1.6354,,,,,,001,2025-03-10_18h34.34.170,SL_base,2021.2.3,Win32,59.88023952,,,5,0,5,0,1,,,,,,,,
,,"[""circle"",""no_dis"",""vert"",""up"",[99999,99999],[-106,106]]",circle,no_dis,vert,up,"[99999,99999]","[-106,106]",up,1,1.8333,,,,,,001,2025-03-10_18h34.34.170,SL_base,2021.2.3,Win32,59.88023952,,,6,0,6,0,1,,,,,,,,
,,"[""circle"",""no_dis"",""hori"",""left"",[99999,99999],[150,0]]",circle,no_dis,hori,left,"[99999,99999]","[150,0]",left,1,1.4601,,,,,,001,2025-03-10_18h34.34.170,SL_base,2021.2.3,Win32,59.88023952,,,7,0,7,0,1,,,,,,,,
,,"[""diamond"",""no_dis"",""hori"",""left"",[99999,99999],[106,-106]]",diamond,no_dis,hori,left,"[99999,99999]","[106,-106]",left,1,0.9271,,,,,,001,2025-03-10_18h34.34.170,SL_base,2021.2.3,Win32,59.88023952,,,8,0,8,0,1,,,,,,,,
,,"[""circle"",""red"",""hori"",""left"",[-106,106],[-150,0]]",circle,red,hori,left,"[-106,106]","[-150,0]",left,1,1.1276,,,,,,001,2025-03-10_18h34.34.170,SL_base,2021.2.3,Win32,59.88023952,,,9,0,9,0,1,,,,,,,,
,,"[""circle"",""red"",""vert"",""up"",[0,-150],[0,150]]",circle,red,vert,up,"[0,-150]","[0,150]",up,1,1.2238,,,,,,001,2025-03-10_18h34.34.170,SL_base,2021.2.3,Win32,59.88023952,,,10,0,10,0,1,,,,,,,,
,,"[""diamond"",""no_dis"",""vert"",""up"",[99999,99999],[-150,0]]",diamond,no_dis,vert,up,"[99999,99999]","[-150,0]",up,1,1.5069,,,,,,001,2025-03-10_18h34.34.170,SL_base,2021.2.3,Win32,59.88023952,,,11,0,11,0,1,,,,,,,,
,,"[""circle"",""green"",""hori"",""left"",[150,0],[0,150]]",circle,green,hori,left,"[150,0]","[0,150]",left,1,1.9166,,,,,,001,2025-03-10_18h34.34.170,SL_base,2021.2.3,Win32,59.88023952,,,12,0,12,0,1,,,,,,,,
,,"[""circle"",""green"",""hori"",""left"",[150,0],[-150,0]]",circle,green,hori,left,"[150,0]","[-150,0]",left,1,0.8335,,,,,,001,2025-03-10_18h34.34.170,SL_base,2021.2.3,Win32,59.88023952,,,13,0,13,0,1,,,,,,,,
,,"[""diamond"",""no_dis"",""vert"",""up"",[99999,99999],[0,-150]]",diamond,no_dis,vert,up,"[99999,99999]","[0,-150]",up,1,1.0335,,,,,,001,2025-03-10_18h34.34.170,SL_base,2021.2.3,Win32,59.88023952,,,14,0,14,0,1,,,,,,,,
,,"[""circle"",""no_dis"",""hori"",""left"",[99999,99999],[0,-150]]",circle,no_dis,hori,left,"[99999,99999]","[0,-150]",left,1,0.767,,,,,,001,2025-03-10_18h34.34.170,SL_base,2021.2.3,Win32,59.88023952,,,15,0,15,0,1,,,,,,,,
,,"[""diamond"",""no_dis"",""hori"",""left"",[99999,99999],[0,-150]]",diamond,no_dis,hori,left,"[99999,99999]","[0,-150]",left,1,0.8504,,,,,,001,2025-03-10_18h34.34.170,SL_base,2021.2.3,Win32,59.88023952,,,16,0,16,0,1,,,,,,,,
,,"[""circle"",""green"",""hori"",""left"",[106,-106],[0,150]]",circle,green,hori,left,"[106,-106]","[0,150]",left,1,1.558,,,,,,001,2025-03-10_18h34.34.170,SL_base,2021.2.3,Win32,59.88023952,,,17,0,17,0,1,,,,,,,,
,,"[""diamond"",""green"",""vert"",""up"",[-106,-106],[106,106]]",diamond,green,vert,up,"[-106,-106]","[106,106]",up,1,2.083,,,,,,001,2025-03-10_18h34.34.170,SL_base,2021.2.3,Win32,59.88023952,,,18,0,18,0,1,,,,,,,,
,,"[""diamond"",""no_dis"",""hori"",""left"",[99999,99999],[-106,-106]]",diamond,no_dis,hori,left,"[99999,99999]","[-106,-106]",left,1,1.2693,,,,,,001,2025-03-10_18h34.34.170,SL_base,2021.2.3,Win32,59.88023952,,,19,0,19,0,1,,,,,,,,
,,"[""circle"",""no_dis"",""vert"",""up"",[99999,99999],[106,106]]",circle,no_dis,vert,up,"[99999,99999]","[106,106]",left,0,1.9835,,,,,,001,2025-03-10_18h34.34.170,SL_base,2021.2.3,Win32,59.88023952,,,20,0,20,0,1,,,,,,,,
,,"[""diamond"",""red"",""hori"",""left"",[0,-150],[-106,106]]",diamond,red,hori,left,"[0,-150]","[-106,106]",left,1,1.1497,,,,,,001,2025-03-10_18h34.34.170,SL_base,2021.2.3,Win32,59.88023952,,,21,0,21,0,1,,,,,,,,
,,"[""circle"",""red"",""vert"",""up"",[106,106],[0,150]]",circle,red,vert,up,"[106,106]","[0,150]",up,1,0.9608,,,,,,001,2025-03-10_18h34.34.170,SL_base,2021.2.3,Win32,59.88023952,,,22,0,22,0,1,,,,,,,,
,,"[""diamond"",""no_dis"",""vert"",""up"",[99999,99999],[106,106]]",diamond,no_dis,vert,up,"[99999,99999]","[106,106]",up,1,1.6337,,,,,,001,2025-03-10_18h34.34.170,SL_base,2021.2.3,Win32,59.88023952,,,23,0,23,0,1,,,,,,,,
,,"[""circle"",""no_dis"",""hori"",""left"",[99999,99999],[-150,0]]",circle,no_dis,hori,left,"[99999,99999]","[-150,0]",left,1,0.9171,,,,,,001,2025-03-10_18h34.34.170,SL_base,2021.2.3,Win32,59.88023952,,,24,0,24,0,1,,,,,,,,
,,"[""diamond"",""red"",""hori"",""left"",[-106,-106],[-106,106]]",diamond,red,hori,left,"[-106,-106]","[-106,106]",left,1,1.5742,,,,,,001,2025-03-10_18h34.34.170,SL_base,2021.2.3,Win32,59.88023952,,,25,0,25,0,1,,,,,,,,
,,"[""circle"",""no_dis"",""vert"",""up"",[99999,99999],[106,106]]",circle,no_dis,vert,up,"[99999,99999]","[106,106]",up,1,1.9501,,,,,,001,2025-03-10_18h34.34.170,SL_base,2021.2.3,Win32,59.88023952,,,26,0,26,0,1,,,,,,,,
,,"[""circle"",""green"",""vert"",""up"",[-106,106],[106,106]]",circle,green,vert,up,"[-106,106]","[106,106]",up,1,2.0588,,,,,,001,2025-03-10_18h34.34.170,SL_base,2021.2.3,Win32,59.88023952,,,27,0,27,0,1,,,,,,,,
,,"[""circle"",""no_dis"",""vert"",""up"",[99999,99999],[-106,-106]]",circle,no_dis,vert,up,"[99999,99999]","[-106,-106]",,0,,,,,,,001,2025-03-10_18h34.34.170,SL_base,2021.2.3,Win32,59.88023952,,,28,0,28,0,1,,,,,,,,
,,"[""diamond"",""green"",""vert"",""up"",[-150,0],[-106,-106]]",diamond,green,vert,up,"[-150,0]","[-106,-106]",up,1,1.4675,,,,,,001,2025-03-10_18h34.34.170,SL_base,2021.2.3,Win32,59.88023952,,,29,0,29,0,1,,,,,,,,
,,"[""circle"",""red"",""vert"",""up"",[-150,0],[-106,-106]]",circle,red,vert,up,"[-150,0]","[-106,-106]",up,1,0.9667,,,,,,001,2025-03-10_18h34.34.170,SL_base,2021.2.3,Win32,59.88023952,,,30,0,30,0,1,,,,,,,,
,,"[""diamond"",""red"",""vert"",""up"",[-106,106],[150,0]]",diamond,red,vert,up,"[-106,106]","[150,0]",up,1,1.267,,,,,,001,2025-03-10_18h34.34.170,SL_base,2021.2.3,Win32,59.88023952,,,31,0,31,0,1,,,,,,,,
,,"[""diamond"",""green"",""vert"",""up"",[106,106],[-106,106]]",diamond,green,vert,up,"[106,106]","[-106,106]",left,0,0.9558,,,,,,001,2025-03-10_18h34.34.170,SL_base,2021.2.3,Win32,59.88023952,,,32,0,32,0,1,,,,,,,,
,,"[""diamond"",""green"",""vert"",""up"",[0,-150],[-106,106]]",diamond,green,vert,up,"[0,-150]","[-106,106]",up,1,1.3335,,,,,,001,2025-03-10_18h34.34.170,SL_base,2021.2.3,Win32,59.88023952,,,33,0,33,0,1,,,,,,,,
,,"[""circle"",""red"",""vert"",""up"",[-150,0],[0,-150]]",circle,red,vert,up,"[-150,0]","[0,-150]",up,1,1.1203,,,,,,001,2025-03-10_18h34.34.170,SL_base,2021.2.3,Win32,59.88023952,,,34,0,34,0,1,,,,,,,,
,,"[""circle"",""red"",""hori"",""left"",[150,0],[106,106]]",circle,red,hori,left,"[150,0]","[106,106]",left,1,0.9002,,,,,,001,2025-03-10_18h34.34.170,SL_base,2021.2.3,Win32,59.88023952,,,35,0,35,0,1,,,,,,,,
,,"[""diamond"",""red"",""hori"",""left"",[-106,106],[150,0]]",diamond,red,hori,left,"[-106,106]","[150,0]",left,1,0.984,,,,,,001,2025-03-10_18h34.34.170,SL_base,2021.2.3,Win32,59.88023952,,,36,0,36,0,1,,,,,,,,
,,"[""circle"",""green"",""hori"",""left"",[-106,-106],[106,106]]",circle,green,hori,left,"[-106,-106]","[106,106]",left,1,0.8004,,,,,,001,2025-03-10_18h34.34.170,SL_base,2021.2.3,Win32,59.88023952,,,37,0,37,0,1,,,,,,,,
,,"[""diamond"",""green"",""hori"",""left"",[106,-106],[-106,106]]",diamond,green,hori,left,"[106,-106]","[-106,106]",left,1,0.9393,,,,,,001,2025-03-10_18h34.34.170,SL_base,2021.2.3,Win32,59.88023952,,,38,0,38,0,1,,,,,,,,
,,"[""circle"",""green"",""vert"",""up"",[-106,106],[-106,-106]]",circle,green,vert,up,"[-106,106]","[-106,-106]",up,1,1.1836,,,,,,001,2025-03-10_18h34.34.170,SL_base,2021.2.3,Win32,59.88023952,,,39,0,39,0,1,,,,,,,,
,,"[""diamond"",""red"",""vert"",""up"",[-106,-106],[106,106]]",diamond,red,vert,up,"[-106,-106]","[106,106]",up,1,0.8668,,,,,,001,2025-03-10_18h34.34.170,SL_base,2021.2.3,Win32,59.88023952,,,40,0,40,0,1,,,,,,,,
,,"[""circle"",""no_dis"",""vert"",""up"",[99999,99999],[106,-106]]",circle,no_dis,vert,up,"[99999,99999]","[106,-106]",up,1,0.8504,,,,,,001,2025-03-10_18h34.34.170,SL_base,2021.2.3,Win32,59.88023952,,,41,0,41,0,1,,,,,,,,
,,"[""diamond"",""red"",""vert"",""up"",[0,150],[-106,-106]]",diamond,red,vert,up,"[0,150]","[-106,-106]",up,1,1.0529,,,,,,001,2025-03-10_18h34.34.170,SL_base,2021.2.3,Win32,59.88023952,,,42,0,42,0,1,,,,,,,,
,,"[""diamond"",""green"",""hori"",""left"",[0,150],[-106,-106]]",diamond,green,hori,left,"[0,150]","[-106,-106]",left,1,0.9998,,,,,,001,2025-03-10_18h34.34.170,SL_base,2021.2.3,Win32,59.88023952,,,43,0,43,0,1,,,,,,,,
,,"[""circle"",""red"",""hori"",""left"",[-106,-106],[106,-106]]",circle,red,hori,left,"[-106,-106]","[106,-106]",left,1,0.9575,,,,,,001,2025-03-10_18h34.34.170,SL_base,2021.2.3,Win32,59.88023952,,,44,0,44,0,1,,,,,,,,
,,"[""diamond"",""red"",""vert"",""up"",[-150,0],[150,0]]",diamond,red,vert,up,"[-150,0]","[150,0]",up,1,0.7669,,,,,,001,2025-03-10_18h34.34.170,SL_base,2021.2.3,Win32,59.88023952,,,45,0,45,0,1,,,,,,,,
,,"[""circle"",""no_dis"",""hori"",""left"",[99999,99999],[0,150]]",circle,no_dis,hori,left,"[99999,99999]","[0,150]",up,0,1.4194,,,,,,001,2025-03-10_18h34.34.170,SL_base,2021.2.3,Win32,59.88023952,,,46,0,46,0,1,,,,,,,,
,,"[""diamond"",""red"",""hori"",""left"",[106,-106],[106,106]]",diamond,red,hori,left,"[106,-106]","[106,106]",up,0,1.2503,,,,,,001,2025-03-10_18h34.34.170,SL_base,2021.2.3,Win32,59.88023952,,,47,0,47,0,1,,,,,,,,
,,"[""diamond"",""no_dis"",""vert"",""up"",[99999,99999],[-106,106]]",diamond,no_dis,vert,up,"[99999,99999]","[-106,106]",up,1,0.7336,,,,,,001,2025-03-10_18h34.34.170,SL_base,2021.2.3,Win32,59.88023952,,,48,0,48,0,1,,,,,,,,
,,"[""diamond"",""green"",""hori"",""left"",[-106,-106],[106,106]]",diamond,green,hori,left,"[-106,-106]","[106,106]",left,1,0.8202,,,,,,001,2025-03-10_18h34.34.170,SL_base,2021.2.3,Win32,59.88023952,,,49,0,49,0,1,,,,,,,,
,,"[""circle"",""no_dis"",""vert"",""up"",[99999,99999],[-150,0]]",circle,no_dis,vert,up,"[99999,99999]","[-150,0]",up,1,1.1832,,,,,,001,2025-03-10_18h34.34.170,SL_base,2021.2.3,Win32,59.88023952,,,50,0,50,0,1,,,,,,,,
,,"[""diamond"",""red"",""hori"",""left"",[106,-106],[-150,0]]",diamond,red,hori,left,"[106,-106]","[-150,0]",left,1,0.6884,,,,,,001,2025-03-10_18h34.34.170,SL_base,2021.2.3,Win32,59.88023952,,,51,0,51,0,1,,,,,,,,
,,"[""diamond"",""green"",""hori"",""left"",[0,150],[0,-150]]",diamond,green,hori,left,"[0,150]","[0,-150]",left,1,1.1047,,,,,,001,2025-03-10_18h34.34.170,SL_base,2021.2.3,Win32,59.88023952,,,52,0,52,0,1,,,,,,,,
,,"[""diamond"",""red"",""vert"",""up"",[-106,-106],[0,-150]]",diamond,red,vert,up,"[-106,-106]","[0,-150]",up,1,1.1199,,,,,,001,2025-03-10_18h34.34.170,SL_base,2021.2.3,Win32,59.88023952,,,53,0,53,0,1,,,,,,,,
,,"[""diamond"",""no_dis"",""vert"",""up"",[99999,99999],[-106,-106]]",diamond,no_dis,vert,up,"[99999,99999]","[-106,-106]",up,1,0.7341,,,,,,001,2025-03-10_18h34.34.170,SL_base,2021.2.3,Win32,59.88023952,,,54,0,54,0,1,,,,,,,,
,,"[""circle"",""no_dis"",""vert"",""up"",[99999,99999],[-150,0]]",circle,no_dis,vert,up,"[99999,99999]","[-150,0]",up,1,1.0679,,,,,,001,2025-03-10_18h34.34.170,SL_base,2021.2.3,Win32,59.88023952,,,55,0,55,0,1,,,,,,,,
,,"[""circle"",""green"",""vert"",""up"",[-150,0],[0,150]]",circle,green,vert,up,"[-150,0]","[0,150]",up,1,1.1502,,,,,,001,2025-03-10_18h34.34.170,SL_base,2021.2.3,Win32,59.88023952,,,56,0,56,0,1,,,,,,,,
,,"[""circle"",""no_dis"",""hori"",""left"",[99999,99999],[106,-106]]",circle,no_dis,hori,left,"[99999,99999]","[106,-106]",left,1,1.1331,,,,,,001,2025-03-10_18h34.34.170,SL_base,2021.2.3,Win32,59.88023952,,,57,0,57,0,1,,,,,,,,
,,"[""circle"",""red"",""vert"",""up"",[-106,-106],[0,150]]",circle,red,vert,up,"[-106,-106]","[0,150]",up,1,1.2499,,,,,,001,2025-03-10_18h34.34.170,SL_base,2021.2.3,Win32,59.88023952,,,58,0,58,0,1,,,,,,,,
,,"[""circle"",""no_dis"",""vert"",""up"",[99999,99999],[0,150]]",circle,no_dis,vert,up,"[99999,99999]","[0,150]",up,1,1.158,,,,,,001,2025-03-10_18h34.34.170,SL_base,2021.2.3,Win32,59.88023952,,,59,0,59,0,1,,,,,,,,
,,"[""circle"",""red"",""vert"",""up"",[-106,-106],[0,-150]]",circle,red,vert,up,"[-106,-106]","[0,-150]",up,1,1.4854,,,,,,001,2025-03-10_18h34.34.170,SL_base,2021.2.3,Win32,59.88023952,,,60,0,60,0,1,,,,,,,,
,,"[""diamond"",""red"",""hori"",""left"",[-106,-106],[106,106]]",diamond,red,hori,left,"[-106,-106]","[106,106]",,0,,,,,,,001,2025-03-10_18h34.34.170,SL_base,2021.2.3,Win32,59.88023952,,,61,0,61,0,1,,,,,,,,
,,"[""circle"",""red"",""hori"",""left"",[-150,0],[0,-150]]",circle,red,hori,left,"[-150,0]","[0,-150]",left,1,1.8169,,,,,,001,2025-03-10_18h34.34.170,SL_base,2021.2.3,Win32,59.88023952,,,62,0,62,0,1,,,,,,,,
,,"[""diamond"",""red"",""vert"",""up"",[106,106],[0,150]]",diamond,red,vert,up,"[106,106]","[0,150]",left,0,0.6953,,,,,,001,2025-03-10_18h34.34.170,SL_base,2021.2.3,Win32,59.88023952,,,63,0,63,0,1,,,,,,,,
,,"[""diamond"",""green"",""hori"",""left"",[-106,-106],[0,150]]",diamond,green,hori,left,"[-106,-106]","[0,150]",left,1,1.3269,,,,,,001,2025-03-10_18h34.34.170,SL_base,2021.2.3,Win32,59.88023952,,,64,0,64,0,1,,,,,,,,
,,"[""diamond"",""green"",""vert"",""up"",[-106,-106],[106,-106]]",diamond,green,vert,up,"[-106,-106]","[106,-106]",up,1,0.9589,,,,,,001,2025-03-10_18h34.34.170,SL_base,2021.2.3,Win32,59.88023952,,,65,0,65,0,1,,,,,,,,
,,"[""diamond"",""red"",""hori"",""left"",[0,150],[0,-150]]",diamond,red,hori,left,"[0,150]","[0,-150]",left,1,0.7751,,,,,,001,2025-03-10_18h34.34.170,SL_base,2021.2.3,Win32,59.88023952,,,66,0,66,0,1,,,,,,,,
,,"[""circle"",""green"",""vert"",""up"",[150,0],[106,106]]",circle,green,vert,up,"[150,0]","[106,106]",left,0,1.5836,,,,,,001,2025-03-10_18h34.34.170,SL_base,2021.2.3,Win32,59.88023952,,,67,0,67,0,1,,,,,,,,
,,"[""circle"",""no_dis"",""hori"",""left"",[99999,99999],[106,-106]]",circle,no_dis,hori,left,"[99999,99999]","[106,-106]",left,1,2.227,,,,,,001,2025-03-10_18h34.34.170,SL_base,2021.2.3,Win32,59.88023952,,,68,0,68,0,1,,,,,,,,
,,"[""diamond"",""red"",""vert"",""up"",[106,106],[0,150]]",diamond,red,vert,up,"[106,106]","[0,150]",up,1,0.7363,,,,,,001,2025-03-10_18h34.34.170,SL_base,2021.2.3,Win32,59.88023952,,,69,0,69,0,1,,,,,,,,
,,"[""diamond"",""red"",""vert"",""up"",[0,-150],[-150,0]]",diamond,red,vert,up,"[0,-150]","[-150,0]",up,1,1.4158,,,,,,001,2025-03-10_18h34.34.170,SL_base,2021.2.3,Win32,59.88023952,,,70,0,70,0,1,,,,,,,,
,,"[""diamond"",""red"",""vert"",""up"",[-106,-106],[150,0]]",diamond,red,vert,up,"[-106,-106]","[150,0]",up,1,0.8837,,,,,,001,2025-03-10_18h34.34.170,SL_base,2021.2.3,Win32,59.88023952,,,71,0,71,0,1,,,,,,,,
,,"[""diamond"",""no_dis"",""hori"",""left"",[99999,99999],[106,106]]",diamond,no_dis,hori,left,"[99999,99999]","[106,106]",left,1,0.8336,,,,,,001,2025-03-10_18h34.34.170,SL_base,2021.2.3,Win32,59.88023952,,,72,0,72,0,1,,,,,,,,
,,"[""diamond"",""green"",""hori"",""left"",[-106,-106],[106,-106]]",diamond,green,hori,left,"[-106,-106]","[106,-106]",left,1,0.7665,,,,,,001,2025-03-10_18h34.34.170,SL_base,2021.2.3,Win32,59.88023952,,,73,0,73,0,1,,,,,,,,
,,"[""diamond"",""green"",""hori"",""left"",[-106,-106],[-106,106]]",diamond,green,hori,left,"[-106,-106]","[-106,106]",left,1,0.7831,,,,,,001,2025-03-10_18h34.34.170,SL_base,2021.2.3,Win32,59.88023952,,,74,0,74,0,1,,,,,,,,
,,"[""circle"",""green"",""hori"",""left"",[106,106],[0,150]]",circle,green,hori,left,"[106,106]","[0,150]",left,1,1.417,,,,,,001,2025-03-10_18h34.34.170,SL_base,2021.2.3,Win32,59.88023952,,,75,0,75,0,1,,,,,,,,
,,"[""diamond"",""no_dis"",""vert"",""up"",[99999,99999],[0,150]]",diamond,no_dis,vert,up,"[99999,99999]","[0,150]",up,1,0.6669,,,,,,001,2025-03-10_18h34.34.170,SL_base,2021.2.3,Win32,59.88023952,,,76,0,76,0,1,,,,,,,,
,,"[""circle"",""no_dis"",""vert"",""up"",[99999,99999],[-150,0]]",circle,no_dis,vert,up,"[99999,99999]","[-150,0]",up,1,1.0705,,,,,,001,2025-03-10_18h34.34.170,SL_base,2021.2.3,Win32,59.88023952,,,77,0,77,0,1,,,,,,,,
,,"[""circle"",""green"",""vert"",""up"",[106,-106],[0,-150]]",circle,green,vert,up,"[106,-106]","[0,-150]",up,1,1.0536,,,,,,001,2025-03-10_18h34.34.170,SL_base,2021.2.3,Win32,59.88023952,,,78,0,78,0,1,,,,,,,,
,,"[""circle"",""no_dis"",""hori"",""left"",[99999,99999],[0,150]]",circle,no_dis,hori,left,"[99999,99999]","[0,150]",left,1,0.8889,,,,,,001,2025-03-10_18h34.34.170,SL_base,2021.2.3,Win32,59.88023952,,,79,0,79,0,1,,,,,,,,
,,"[""diamond"",""no_dis"",""hori"",""left"",[99999,99999],[-106,-106]]",diamond,no_dis,hori,left,"[99999,99999]","[-106,-106]",left,1,0.8837,,,,,,001,2025-03-10_18h34.34.170,SL_base,2021.2.3,Win32,59.88023952,,,80,0,80,0,1,,,,,,,,
,,"[""circle"",""green"",""hori"",""left"",[0,-150],[-106,106]]",circle,green,hori,left,"[0,-150]","[-106,106]",up,0,0.817,,,,,,001,2025-03-10_18h34.34.170,SL_base,2021.2.3,Win32,59.88023952,,,81,0,81,0,1,,,,,,,,
,,"[""diamond"",""no_dis"",""hori"",""left"",[99999,99999],[-106,-106]]",diamond,no_dis,hori,left,"[99999,99999]","[-106,-106]",left,1,0.8503,,,,,,001,2025-03-10_18h34.34.170,SL_base,2021.2.3,Win32,59.88023952,,,82,0,82,0,1,,,,,,,,
,,"[""circle"",""red"",""vert"",""up"",[-106,-106],[106,106]]",circle,red,vert,up,"[-106,-106]","[106,106]",up,1,0.8369,,,,,,001,2025-03-10_18h34.34.170,SL_base,2021.2.3,Win32,59.88023952,,,83,0,83,0,1,,,,,,,,
,,"[""diamond"",""green"",""vert"",""up"",[-150,0],[-106,106]]",diamond,green,vert,up,"[-150,0]","[-106,106]",left,0,0.9505,,,,,,001,2025-03-10_18h34.34.170,SL_base,2021.2.3,Win32,59.88023952,,,84,0,84,0,1,,,,,,,,
,,"[""diamond"",""green"",""vert"",""up"",[-106,-106],[106,106]]",diamond,green,vert,up,"[-106,-106]","[106,106]",up,1,1.817,,,,,,001,2025-03-10_18h34.34.170,SL_base,2021.2.3,Win32,59.88023952,,,85,0,85,0,1,,,,,,,,
,,"[""circle"",""green"",""vert"",""up"",[-106,-106],[106,106]]",circle,green,vert,up,"[-106,-106]","[106,106]",up,1,1.0712,,,,,,001,2025-03-10_18h34.34.170,SL_base,2021.2.3,Win32,59.88023952,,,86,0,86,0,1,,,,,,,,
,,"[""circle"",""green"",""vert"",""up"",[-106,106],[150,0]]",circle,green,vert,up,"[-106,106]","[150,0]",up,1,0.8504,,,,,,001,2025-03-10_18h34.34.170,SL_base,2021.2.3,Win32,59.88023952,,,87,0,87,0,1,,,,,,,,
,,"[""circle"",""red"",""hori"",""left"",[150,0],[-106,106]]",circle,red,hori,left,"[150,0]","[-106,106]",left,1,0.8364,,,,,,001,2025-03-10_18h34.34.170,SL_base,2021.2.3,Win32,59.88023952,,,88,0,88,0,1,,,,,,,,
,,"[""circle"",""red"",""hori"",""left"",[106,-106],[106,106]]",circle,red,hori,left,"[106,-106]","[106,106]",left,1,1.0697,,,,,,001,2025-03-10_18h34.34.170,SL_base,2021.2.3,Win32,59.88023952,,,89,0,89,0,1,,,,,,,,
,,"[""circle"",""green"",""vert"",""up"",[-106,-106],[0,150]]",circle,green,vert,up,"[-106,-106]","[0,150]",up,1,1.1174,,,,,,001,2025-03-10_18h34.34.170,SL_base,2021.2.3,Win32,59.88023952,,,90,0,90,0,1,,,,,,,,
,,"[""circle"",""green"",""hori"",""left"",[-106,106],[0,150]]",circle,green,hori,left,"[-106,106]","[0,150]",left,1,1.7667,,,,,,001,2025-03-10_18h34.34.170,SL_base,2021.2.3,Win32,59.88023952,,,91,0,91,0,1,,,,,,,,
,,"[""circle"",""no_dis"",""hori"",""left"",[99999,99999],[106,-106]]",circle,no_dis,hori,left,"[99999,99999]","[106,-106]",left,1,1.6667,,,,,,001,2025-03-10_18h34.34.170,SL_base,2021.2.3,Win32,59.88023952,,,92,0,92,0,1,,,,,,,,
,,"[""diamond"",""green"",""hori"",""left"",[150,0],[-150,0]]",diamond,green,hori,left,"[150,0]","[-150,0]",left,1,1.9169,,,,,,001,2025-03-10_18h34.34.170,SL_base,2021.2.3,Win32,59.88023952,,,93,0,93,0,1,,,,,,,,
,,"[""circle"",""no_dis"",""hori"",""left"",[99999,99999],[150,0]]",circle,no_dis,hori,left,"[99999,99999]","[150,0]",left,1,1.3004,,,,,,001,2025-03-10_18h34.34.170,SL_base,2021.2.3,Win32,59.88023952,,,94,0,94,0,1,,,,,,,,
,,"[""circle"",""green"",""vert"",""up"",[-106,-106],[0,150]]",circle,green,vert,up,"[-106,-106]","[0,150]",up,1,1.2665,,,,,,001,2025-03-10_18h34.34.170,SL_base,2021.2.3,Win32,59.88023952,,,95,0,95,0,1,,,,,,,,
,,"[""diamond"",""red"",""hori"",""left"",[106,106],[-106,106]]",diamond,red,hori,left,"[106,106]","[-106,106]",left,1,0.8098,,,,,,001,2025-03-10_18h34.34.170,SL_base,2021.2.3,Win32,59.88023952,,,96,0,96,0,1,,,,,,,,
,,"[""diamond"",""no_dis"",""hori"",""left"",[99999,99999],[0,-150]]",diamond,no_dis,hori,left,"[99999,99999]","[0,-150]",left,1,0.9101,,,,,,001,2025-03-10_18h34.34.170,SL_base,2021.2.3,Win32,59.88023952,,,97,0,97,0,1,,,,,,,,
,,"[""circle"",""no_dis"",""vert"",""up"",[99999,99999],[150,0]]",circle,no_dis,vert,up,"[99999,99999]","[150,0]",up,1,0.7686,,,,,,001,2025-03-10_18h34.34.170,SL_base,2021.2.3,Win32,59.88023952,,,98,0,98,0,1,,,,,,,,
,,"[""circle"",""red"",""vert"",""up"",[-150,0],[0,-150]]",circle,red,vert,up,"[-150,0]","[0,-150]",up,1,0.7336,,,,,,001,2025-03-10_18h34.34.170,SL_base,2021.2.3,Win32,59.88023952,,,99,0,99,0,1,,,,,,,,
,,"[""circle"",""green"",""hori"",""left"",[106,-106],[-106,106]]",circle,green,hori,left,"[106,-106]","[-106,106]",left,1,1.2934,,,,,,001,2025-03-10_18h34.34.170,SL_base,2021.2.3,Win32,59.88023952,,,100,0,100,0,1,,,,,,,,
,,"[""circle"",""green"",""hori"",""left"",[106,106],[0,150]]",circle,green,hori,left,"[106,106]","[0,150]",left,1,1.3668,,,,,,001,2025-03-10_18h34.34.170,SL_base,2021.2.3,Win32,59.88023952,,,101,0,101,0,1,,,,,,,,
,,"[""diamond"",""no_dis"",""vert"",""up"",[99999,99999],[-106,106]]",diamond,no_dis,vert,up,"[99999,99999]","[-106,106]",up,1,1.5669,,,,,,001,2025-03-10_18h34.34.170,SL_base,2021.2.3,Win32,59.88023952,,,102,0,102,0,1,,,,,,,,
,,"[""diamond"",""green"",""hori"",""left"",[0,-150],[150,0]]",diamond,green,hori,left,"[0,-150]","[150,0]",left,1,1.3003,,,,,,001,2025-03-10_18h34.34.170,SL_base,2021.2.3,Win32,59.88023952,,,103,0,103,0,1,,,,,,,,
,,"[""diamond"",""no_dis"",""hori"",""left"",[99999,99999],[150,0]]",diamond,no_dis,hori,left,"[99999,99999]","[150,0]",left,1,0.7843,,,,,,001,2025-03-10_18h34.34.170,SL_base,2021.2.3,Win32,59.88023952,,,104,0,104,0,1,,,,,,,,
,,"[""circle"",""red"",""vert"",""up"",[0,-150],[-106,-106]]",circle,red,vert,up,"[0,-150]","[-106,-106]",up,1,0.9393,,,,,,001,2025-03-10_18h34.34.170,SL_base,2021.2.3,Win32,59.88023952,,,105,0,105,0,1,,,,,,,,
,,"[""diamond"",""no_dis"",""vert"",""up"",[99999,99999],[0,150]]",diamond,no_dis,vert,up,"[99999,99999]","[0,150]",up,1,0.9506,,,,,,001,2025-03-10_18h34.34.170,SL_base,2021.2.3,Win32,59.88023952,,,106,0,106,0,1,,,,,,,,
,,"[""diamond"",""red"",""hori"",""left"",[-106,-106],[0,-150]]",diamond,red,hori,left,"[-106,-106]","[0,-150]",left,1,0.7834,,,,,,001,2025-03-10_18h34.34.170,SL_base,2021.2.3,Win32,59.88023952,,,107,0,107,0,1,,,,,,,,
,,"[""circle"",""green"",""vert"",""up"",[-106,-106],[0,-150]]",circle,green,vert,up,"[-106,-106]","[0,-150]",up,1,0.9002,,,,,,001,2025-03-10_18h34.34.170,SL_base,2021.2.3,Win32,59.88023952,,,108,0,108,0,1,,,,,,,,
,,"[""diamond"",""green"",""vert"",""up"",[0,-150],[0,150]]",diamond,green,vert,up,"[0,-150]","[0,150]",up,1,0.9539,,,,,,001,2025-03-10_18h34.34.170,SL_base,2021.2.3,Win32,59.88023952,,,109,0,109,0,1,,,,,,,,
,,"[""diamond"",""red"",""vert"",""up"",[106,106],[-150,0]]",diamond,red,vert,up,"[106,106]","[-150,0]",up,1,0.6897,,,,,,001,2025-03-10_18h34.34.170,SL_base,2021.2.3,Win32,59.88023952,,,110,0,110,0,1,,,,,,,,
,,"[""diamond"",""no_dis"",""vert"",""up"",[99999,99999],[106,106]]",diamond,no_dis,vert,up,"[99999,99999]","[106,106]",up,1,0.908,,,,,,001,2025-03-10_18h34.34.170,SL_base,2021.2.3,Win32,59.88023952,,,111,0,111,0,1,,,,,,,,
,,"[""diamond"",""green"",""hori"",""left"",[-106,-106],[-150,0]]",diamond,green,hori,left,"[-106,-106]","[-150,0]",left,1,0.9003,,,,,,001,2025-03-10_18h34.34.170,SL_base,2021.2.3,Win32,59.88023952,,,112,0,112,0,1,,,,,,,,
,,"[""diamond"",""no_dis"",""hori"",""left"",[99999,99999],[-106,106]]",diamond,no_dis,hori,left,"[99999,99999]","[-106,106]",left,1,0.6388,,,,,,001,2025-03-10_18h34.34.170,SL_base,2021.2.3,Win32,59.88023952,,,113,0,113,0,1,,,,,,,,
,,"[""circle"",""green"",""hori"",""left"",[0,150],[106,-106]]",circle,green,hori,left,"[0,150]","[106,-106]",left,1,1.1834,,,,,,001,2025-03-10_18h34.34.170,SL_base,2021.2.3,Win32,59.88023952,,,114,0,114,0,1,,,,,,,,
,,"[""circle"",""red"",""hori"",""left"",[150,0],[-106,-106]]",circle,red,hori,left,"[150,0]","[-106,-106]",left,1,0.7032,,,,,,001,2025-03-10_18h34.34.170,SL_base,2021.2.3,Win32,59.88023952,,,115,0,115,0,1,,,,,,,,
,,"[""circle"",""red"",""hori"",""left"",[-106,-106],[0,150]]",circle,red,hori,left,"[-106,-106]","[0,150]",left,1,1.0703,,,,,,001,2025-03-10_18h34.34.170,SL_base,2021.2.3,Win32,59.88023952,,,116,0,116,0,1,,,,,,,,
,,"[""diamond"",""green"",""vert"",""up"",[0,150],[-150,0]]",diamond,green,vert,up,"[0,150]","[-150,0]",up,1,0.9845,,,,,,001,2025-03-10_18h34.34.170,SL_base,2021.2.3,Win32,59.88023952,,,117,0,117,0,1,,,,,,,,
,,"[""circle"",""red"",""vert"",""up"",[0,150],[0,-150]]",circle,red,vert,up,"[0,150]","[0,-150]",up,1,1.6834,,,,,,001,2025-03-10_18h34.34.170,SL_base,2021.2.3,Win32,59.88023952,,,118,0,118,0,1,,,,,,,,
,,"[""circle"",""red"",""hori"",""left"",[106,-106],[0,150]]",circle,red,hori,left,"[106,-106]","[0,150]",left,1,1.0004,,,,,,001,2025-03-10_18h34.34.170,SL_base,2021.2.3,Win32,59.88023952,,,119,0,119,0,1,,,,,,,,
,,,,,,,,,,,,,,,,,001,2025-03-10_18h34.34.170,SL_base,2021.2.3,Win32,59.88023952,,,,,,,,3,space,5.5995,2,0,2,0,1
,,"[""diamond"",""red"",""hori"",""left"",[106,106],[-106,106]]",diamond,red,hori,left,"[106,106]","[-106,106]",left,1,0.7004,,,,,,001,2025-03-10_18h34.34.170,SL_base,2021.2.3,Win32,59.88023952,,,0,0,0,0,1,,,,,,,,
,,"[""diamond"",""no_dis"",""hori"",""left"",[99999,99999],[106,106]]",diamond,no_dis,hori,left,"[99999,99999]","[106,106]",left,1,0.8831,,,,,,001,2025-03-10_18h34.34.170,SL_base,2021.2.3,Win32,59.88023952,,,1,0,1,0,1,,,,,,,,
,,"[""diamond"",""green"",""vert"",""up"",[-106,-106],[106,106]]",diamond,green,vert,up,"[-106,-106]","[106,106]",up,1,0.917,,,,,,001,2025-03-10_18h34.34.170,SL_base,2021.2.3,Win32,59.88023952,,,2,0,2,0,1,,,,,,,,
,,"[""diamond"",""no_dis"",""hori"",""left"",[99999,99999],[0,-150]]",diamond,no_dis,hori,left,"[99999,99999]","[0,-150]",left,1,0.8165,,,,,,001,2025-03-10_18h34.34.170,SL_base,2021.2.3,Win32,59.88023952,,,3,0,3,0,1,,,,,,,,
,,"[""circle"",""no_dis"",""hori"",""left"",[99999,99999],[-106,106]]",circle,no_dis,hori,left,"[99999,99999]","[-106,106]",left,1,1.3336,,,,,,001,2025-03-10_18h34.34.170,SL_base,2021.2.3,Win32,59.88023952,,,4,0,4,0,1,,,,,,,,
,,"[""circle"",""green"",""hori"",""left"",[0,-150],[-106,106]]",circle,green,hori,left,"[0,-150]","[-106,106]",left,1,0.8169,,,,,,001,2025-03-10_18h34.34.170,SL_base,2021.2.3,Win32,59.88023952,,,5,0,5,0,1,,,,,,,,
,,"[""circle"",""red"",""hori"",""left"",[150,0],[-106,-106]]",circle,red,hori,left,"[150,0]","[-106,-106]",left,1,0.7788,,,,,,001,2025-03-10_18h34.34.170,SL_base,2021.2.3,Win32,59.88023952,,,6,0,6,0,1,,,,,,,,
,,"[""circle"",""green"",""hori"",""left"",[0,150],[106,-106]]",circle,green,hori,left,"[0,150]","[106,-106]",left,1,0.7334,,,,,,001,2025-03-10_18h34.34.170,SL_base,2021.2.3,Win32,59.88023952,,,7,0,7,0,1,,,,,,,,
,,"[""circle"",""red"",""hori"",""left"",[106,-106],[106,106]]",circle,red,hori,left,"[106,-106]","[106,106]",left,1,0.6332,,,,,,001,2025-03-10_18h34.34.170,SL_base,2021.2.3,Win32,59.88023952,,,8,0,8,0,1,,,,,,,,
,,"[""circle"",""red"",""hori"",""left"",[-106,-106],[106,-106]]",circle,red,hori,left,"[-106,-106]","[106,-106]",left,1,0.6002,,,,,,001,2025-03-10_18h34.34.170,SL_base,2021.2.3,Win32,59.88023952,,,9,0,9,0,1,,,,,,,,
,,"[""diamond"",""green"",""hori"",""left"",[-106,-106],[0,150]]",diamond,green,hori,left,"[-106,-106]","[0,150]",left,1,1.1998,,,,,,001,2025-03-10_18h34.34.170,SL_base,2021.2.3,Win32,59.88023952,,,10,0,10,0,1,,,,,,,,
,,"[""circle"",""red"",""hori"",""left"",[150,0],[-106,106]]",circle,red,hori,left,"[150,0]","[-106,106]",left,1,1.2001,,,,,,001,2025-03-10_18h34.34.170,SL_base,2021.2.3,Win32,59.88023952,,,11,0,11,0,1,,,,,,,,
,,"[""circle"",""red"",""vert"",""up"",[-106,-106],[0,150]]",circle,red,vert,up,"[-106,-106]","[0,150]",up,1,0.7342,,,,,,001,2025-03-10_18h34.34.170,SL_base,2021.2.3,Win32,59.88023952,,,12,0,12,0,1,,,,,,,,
,,"[""circle"",""green"",""vert"",""up"",[-106,106],[106,106]]",circle,green,vert,up,"[-106,106]","[106,106]",left,0,1.4002,,,,,,001,2025-03-10_18h34.34.170,SL_base,2021.2.3,Win32,59.88023952,,,13,0,13,0,1,,,,,,,,
,,"[""diamond"",""no_dis"",""hori"",""left"",[99999,99999],[-106,106]]",diamond,no_dis,hori,left,"[99999,99999]","[-106,106]",left,1,1.1598,,,,,,001,2025-03-10_18h34.34.170,SL_base,2021.2.3,Win32,59.88023952,,,14,0,14,0,1,,,,,,,,
,,"[""circle"",""no_dis"",""vert"",""up"",[99999,99999],[106,-106]]",circle,no_dis,vert,up,"[99999,99999]","[106,-106]",up,1,1.3108,,,,,,001,2025-03-10_18h34.34.170,SL_base,2021.2.3,Win32,59.88023952,,,15,0,15,0,1,,,,,,,,
,,"[""diamond"",""red"",""hori"",""left"",[0,-150],[-106,106]]",diamond,red,hori,left,"[0,-150]","[-106,106]",left,1,1.2174,,,,,,001,2025-03-10_18h34.34.170,SL_base,2021.2.3,Win32,59.88023952,,,16,0,16,0,1,,,,,,,,
,,"[""circle"",""green"",""vert"",""up"",[-106,-106],[0,-150]]",circle,green,vert,up,"[-106,-106]","[0,-150]",up,1,0.817,,,,,,001,2025-03-10_18h34.34.170,SL_base,2021.2.3,Win32,59.88023952,,,17,0,17,0,1,,,,,,,,
,,"[""diamond"",""no_dis"",""hori"",""left"",[99999,99999],[150,0]]",diamond,no_dis,hori,left,"[99999,99999]","[150,0]",left,1,0.9835,,,,,,001,2025-03-10_18h34.34.170,SL_base,2021.2.3,Win32,59.88023952,,,18,0,18,0,1,,,,,,,,
,,"[""diamond"",""green"",""vert"",""up"",[106,106],[-106,106]]",diamond,green,vert,up,"[106,106]","[-106,106]",up,1,0.7171,,,,,,001,2025-03-10_18h34.34.170,SL_base,2021.2.3,Win32,59.88023952,,,19,0,19,0,1,,,,,,,,
,,"[""diamond"",""no_dis"",""vert"",""up"",[99999,99999],[0,-150]]",diamond,no_dis,vert,up,"[99999,99999]","[0,-150]",up,1,1.023,,,,,,001,2025-03-10_18h34.34.170,SL_base,2021.2.3,Win32,59.88023952,,,20,0,20,0,1,,,,,,,,
,,"[""circle"",""no_dis"",""vert"",""up"",[99999,99999],[-150,0]]",circle,no_dis,vert,up,"[99999,99999]","[-150,0]",left,0,2.086,,,,,,001,2025-03-10_18h34.34.170,SL_base,2021.2.3,Win32,59.88023952,,,21,0,21,0,1,,,,,,,,
,,"[""circle"",""green"",""hori"",""left"",[106,106],[0,150]]",circle,green,hori,left,"[106,106]","[0,150]",left,1,0.9666,,,,,,001,2025-03-10_18h34.34.170,SL_base,2021.2.3,Win32,59.88023952,,,22,0,22,0,1,,,,,,,,
,,"[""circle"",""green"",""vert"",""up"",[-150,0],[0,150]]",circle,green,vert,up,"[-150,0]","[0,150]",up,1,1.1858,,,,,,001,2025-03-10_18h34.34.170,SL_base,2021.2.3,Win32,59.88023952,,,23,0,23,0,1,,,,,,,,
,,"[""diamond"",""green"",""hori"",""left"",[150,0],[-150,0]]",diamond,green,hori,left,"[150,0]","[-150,0]",left,1,0.7169,,,,,,001,2025-03-10_18h34.34.170,SL_base,2021.2.3,Win32,59.88023952,,,24,0,24,0,1,,,,,,,,
,,"[""circle"",""red"",""vert"",""up"",[106,106],[0,150]]",circle,red,vert,up,"[106,106]","[0,150]",up,1,0.6337,,,,,,001,2025-03-10_18h34.34.170,SL_base,2021.2.3,Win32,59.88023952,,,25,0,25,0,1,,,,,,,,
,,"[""circle"",""red"",""vert"",""up"",[-106,-106],[106,106]]",circle,red,vert,up,"[-106,-106]","[106,106]",up,1,0.6555,,,,,,001,2025-03-10_18h34.34.170,SL_base,2021.2.3,Win32,59.88023952,,,26,0,26,0,1,,,,,,,,
,,"[""diamond"",""no_dis"",""vert"",""up"",[99999,99999],[106,106]]",diamond,no_dis,vert,up,"[99999,99999]","[106,106]",up,1,0.6195,,,,,,001,2025-03-10_18h34.34.170,SL_base,2021.2.3,Win32,59.88023952,,,27,0,27,0,1,,,,,,,,
,,"[""diamond"",""no_dis"",""vert"",""up"",[99999,99999],[106,106]]",diamond,no_dis,vert,up,"[99999,99999]","[106,106]",up,1,0.6531,,,,,,001,2025-03-10_18h34.34.170,SL_base,2021.2.3,Win32,59.88023952,,,28,0,28,0,1,,,,,,,,
,,"[""circle"",""green"",""vert"",""up"",[-106,-106],[106,106]]",circle,green,vert,up,"[-106,-106]","[106,106]",up,1,0.603,,,,,,001,2025-03-10_18h34.34.170,SL_base,2021.2.3,Win32,59.88023952,,,29,0,29,0,1,,,,,,,,
,,"[""diamond"",""no_dis"",""vert"",""up"",[99999,99999],[-106,106]]",diamond,no_dis,vert,up,"[99999,99999]","[-106,106]",up,1,0.6195,,,,,,001,2025-03-10_18h34.34.170,SL_base,2021.2.3,Win32,59.88023952,,,30,0,30,0,1,,,,,,,,
,,"[""diamond"",""no_dis"",""vert"",""up"",[99999,99999],[0,-150]]",diamond,no_dis,vert,up,"[99999,99999]","[0,-150]",up,1,0.8009,,,,,,001,2025-03-10_18h34.34.170,SL_base,2021.2.3,Win32,59.88023952,,,31,0,31,0,1,,,,,,,,
,,"[""circle"",""red"",""hori"",""left"",[-106,106],[-150,0]]",circle,red,hori,left,"[-106,106]","[-150,0]",left,1,1.3167,,,,,,001,2025-03-10_18h34.34.170,SL_base,2021.2.3,Win32,59.88023952,,,32,0,32,0,1,,,,,,,,
,,"[""circle"",""green"",""hori"",""left"",[-106,106],[0,150]]",circle,green,hori,left,"[-106,106]","[0,150]",left,1,2.4999,,,,,,001,2025-03-10_18h34.34.170,SL_base,2021.2.3,Win32,59.88023952,,,33,0,33,0,1,,,,,,,,
,,"[""circle"",""no_dis"",""hori"",""left"",[99999,99999],[150,0]]",circle,no_dis,hori,left,"[99999,99999]","[150,0]",left,1,0.9502,,,,,,001,2025-03-10_18h34.34.170,SL_base,2021.2.3,Win32,59.88023952,,,34,0,34,0,1,,,,,,,,
,,"[""diamond"",""green"",""vert"",""up"",[-150,0],[-106,106]]",diamond,green,vert,up,"[-150,0]","[-106,106]",up,1,1.3002,,,,,,001,2025-03-10_18h34.34.170,SL_base,2021.2.3,Win32,59.88023952,,,35,0,35,0,1,,,,,,,,
,,"[""diamond"",""green"",""vert"",""up"",[-106,-106],[106,106]]",diamond,green,vert,up,"[-106,-106]","[106,106]",up,1,0.6283,,,,,,001,2025-03-10_18h34.34.170,SL_base,2021.2.3,Win32,59.88023952,,,36,0,36,0,1,,,,,,,,
,,"[""diamond"",""green"",""vert"",""up"",[0,-150],[-106,106]]",diamond,green,vert,up,"[0,-150]","[-106,106]",up,1,0.7833,,,,,,001,2025-03-10_18h34.34.170,SL_base,2021.2.3,Win32,59.88023952,,,37,0,37,0,1,,,,,,,,
,,"[""circle"",""no_dis"",""vert"",""up"",[99999,99999],[106,106]]",circle,no_dis,vert,up,"[99999,99999]","[106,106]",up,1,1.8525,,,,,,001,2025-03-10_18h34.34.170,SL_base,2021.2.3,Win32,59.88023952,,,38,0,38,0,1,,,,,,,,
,,"[""diamond"",""green"",""hori"",""left"",[106,-106],[-106,106]]",diamond,green,hori,left,"[106,-106]","[-106,106]",left,1,0.8835,,,,,,001,2025-03-10_18h34.34.170,SL_base,2021.2.3,Win32,59.88023952,,,39,0,39,0,1,,,,,,,,
,,"[""diamond"",""red"",""vert"",""up"",[-106,106],[150,0]]",diamond,red,vert,up,"[-106,106]","[150,0]",up,1,1.0166,,,,,,001,2025-03-10_18h34.34.170,SL_base,2021.2.3,Win32,59.88023952,,,40,0,40,0,1,,,,,,,,
,,"[""circle"",""no_dis"",""hori"",""left"",[99999,99999],[106,-106]]",circle,no_dis,hori,left,"[99999,99999]","[106,-106]",left,1,1.9172,,,,,,001,2025-03-10_18h34.34.170,SL_base,2021.2.3,Win32,59.88023952,,,41,0,41,0,1,,,,,,,,
,,"[""circle"",""red"",""vert"",""up"",[-150,0],[0,-150]]",circle,red,vert,up,"[-150,0]","[0,-150]",up,1,1.4081,,,,,,001,2025-03-10_18h34.34.170,SL_base,2021.2.3,Win32,59.88023952,,,42,0,42,0,1,,,,,,,,
,,"[""circle"",""no_dis"",""vert"",""up"",[99999,99999],[150,0]]",circle,no_dis,vert,up,"[99999,99999]","[150,0]",up,1,0.7018,,,,,,001,2025-03-10_18h34.34.170,SL_base,2021.2.3,Win32,59.88023952,,,43,0,43,0,1,,,,,,,,
,,"[""circle"",""green"",""hori"",""left"",[-106,-106],[106,106]]",circle,green,hori,left,"[-106,-106]","[106,106]",left,1,1.0401,,,,,,001,2025-03-10_18h34.34.170,SL_base,2021.2.3,Win32,59.88023952,,,44,0,44,0,1,,,,,,,,
,,"[""diamond"",""red"",""hori"",""left"",[106,-106],[-150,0]]",diamond,red,hori,left,"[106,-106]","[-150,0]",left,1,0.7004,,,,,,001,2025-03-10_18h34.34.170,SL_base,2021.2.3,Win32,59.88023952,,,45,0,45,0,1,,,,,,,,
,,"[""circle"",""no_dis"",""vert"",""up"",[99999,99999],[-150,0]]",circle,no_dis,vert,up,"[99999,99999]","[-150,0]",up,1,1.4002,,,,,,001,2025-03-10_18h34.34.170,SL_base,2021.2.3,Win32,59.88023952,,,46,0,46,0,1,,,,,,,,
,,"[""diamond"",""green"",""hori"",""left"",[0,-150],[150,0]]",diamond,green,hori,left,"[0,-150]","[150,0]",left,1,1.0499,,,,,,001,2025-03-10_18h34.34.170,SL_base,2021.2.3,Win32,59.88023952,,,47,0,47,0,1,,,,,,,,
,,"[""diamond"",""red"",""vert"",""up"",[106,106],[0,150]]",diamond,red,vert,up,"[106,106]","[0,150]",up,1,0.6839,,,,,,001,2025-03-10_18h34.34.170,SL_base,2021.2.3,Win32,59.88023952,,,48,0,48,0,1,,,,,,,,
,,"[""diamond"",""no_dis"",""vert"",""up"",[99999,99999],[0,150]]",diamond,no_dis,vert,up,"[99999,99999]","[0,150]",up,1,0.7447,,,,,,001,2025-03-10_18h34.34.170,SL_base,2021.2.3,Win32,59.88023952,,,49,0,49,0,1,,,,,,,,
,,"[""diamond"",""no_dis"",""hori"",""left"",[99999,99999],[-106,-106]]",diamond,no_dis,hori,left,"[99999,99999]","[-106,-106]",left,1,1.0502,,,,,,001,2025-03-10_18h34.34.170,SL_base,2021.2.3,Win32,59.88023952,,,50,0,50,0,1,,,,,,,,
,,"[""circle"",""green"",""vert"",""up"",[-106,106],[150,0]]",circle,green,vert,up,"[-106,106]","[150,0]",up,1,1.1094,,,,,,001,2025-03-10_18h34.34.170,SL_base,2021.2.3,Win32,59.88023952,,,51,0,51,0,1,,,,,,,,
,,"[""circle"",""no_dis"",""hori"",""left"",[99999,99999],[0,150]]",circle,no_dis,hori,left,"[99999,99999]","[0,150]",left,1,1.6559,,,,,,001,2025-03-10_18h34.34.170,SL_base,2021.2.3,Win32,59.88023952,,,52,0,52,0,1,,,,,,,,
,,"[""diamond"",""red"",""vert"",""up"",[106,106],[-150,0]]",diamond,red,vert,up,"[106,106]","[-150,0]",up,1,0.7169,,,,,,001,2025-03-10_18h34.34.170,SL_base,2021.2.3,Win32,59.88023952,,,53,0,53,0,1,,,,,,,,
,,"[""circle"",""green"",""hori"",""left"",[106,-106],[-106,106]]",circle,green,hori,left,"[106,-106]","[-106,106]",left,1,1.6863,,,,,,001,2025-03-10_18h34.34.170,SL_base,2021.2.3,Win32,59.88023952,,,54,0,54,0,1,,,,,,,,
,,"[""diamond"",""red"",""vert"",""up"",[-106,-106],[150,0]]",diamond,red,vert,up,"[-106,-106]","[150,0]",up,1,0.9004,,,,,,001,2025-03-10_18h34.34.170,SL_base,2021.2.3,Win32,59.88023952,,,55,0,55,0,1,,,,,,,,
,,"[""diamond"",""green"",""hori"",""left"",[-106,-106],[106,106]]",diamond,green,hori,left,"[-106,-106]","[106,106]",left,1,0.9247,,,,,,001,2025-03-10_18h34.34.170,SL_base,2021.2.3,Win32,59.88023952,,,56,0,56,0,1,,,,,,,,
,,"[""diamond"",""no_dis"",""vert"",""up"",[99999,99999],[-150,0]]",diamond,no_dis,vert,up,"[99999,99999]","[-150,0]",up,1,1.8669,,,,,,001,2025-03-10_18h34.34.170,SL_base,2021.2.3,Win32,59.88023952,,,57,0,57,0,1,,,,,,,,
,,"[""diamond"",""red"",""vert"",""up"",[106,106],[0,150]]",diamond,red,vert,up,"[106,106]","[0,150]",up,1,1.1564,,,,,,001,2025-03-10_18h34.34.170,SL_base,2021.2.3,Win32,59.88023952,,,58,0,58,0,1,,,,,,,,
,,"[""diamond"",""green"",""hori"",""left"",[0,150],[0,-150]]",diamond,green,hori,left,"[0,150]","[0,-150]",left,1,1.6449,,,,,,001,2025-03-10_18h34.34.170,SL_base,2021.2.3,Win32,59.88023952,,,59,0,59,0,1,,,,,,,,
,,"[""circle"",""no_dis"",""hori"",""left"",[99999,99999],[150,0]]",circle,no_dis,hori,left,"[99999,99999]","[150,0]",left,1,1.3167,,,,,,001,2025-03-10_18h34.34.170,SL_base,2021.2.3,Win32,59.88023952,,,60,0,60,0,1,,,,,,,,
,,"[""circle"",""green"",""hori"",""left"",[150,0],[0,150]]",circle,green,hori,left,"[150,0]","[0,150]",left,1,1.8924,,,,,,001,2025-03-10_18h34.34.170,SL_base,2021.2.3,Win32,59.88023952,,,61,0,61,0,1,,,,,,,,
,,"[""diamond"",""red"",""vert"",""up"",[0,-150],[-150,0]]",diamond,red,vert,up,"[0,-150]","[-150,0]",up,1,0.902,,,,,,001,2025-03-10_18h34.34.170,SL_base,2021.2.3,Win32,59.88023952,,,62,0,62,0,1,,,,,,,,
,,"[""diamond"",""red"",""hori"",""left"",[-106,-106],[0,-150]]",diamond,red,hori,left,"[-106,-106]","[0,-150]",left,1,1.5361,,,,,,001,2025-03-10_18h34.34.170,SL_base,2021.2.3,Win32,59.88023952,,,63,0,63,0,1,,,,,,,,
,,"[""circle"",""green"",""vert"",""up"",[-106,106],[-106,-106]]",circle,green,vert,up,"[-106,106]","[-106,-106]",up,1,1.0501,,,,,,001,2025-03-10_18h34.34.170,SL_base,2021.2.3,Win32,59.88023952,,,64,0,64,0,1,,,,,,,,
,,"[""circle"",""red"",""vert"",""up"",[-150,0],[0,-150]]",circle,red,vert,up,"[-150,0]","[0,-150]",up,1,1.037,,,,,,001,2025-03-10_18h34.34.170,SL_base,2021.2.3,Win32,59.88023952,,,65,0,65,0,1,,,,,,,,
,,"[""diamond"",""red"",""vert"",""up"",[-106,-106],[0,-150]]",diamond,red,vert,up,"[-106,-106]","[0,-150]",up,1,1.9838,,,,,,001,2025-03-10_18h34.34.170,SL_base,2021.2.3,Win32,59.88023952,,,66,0,66,0,1,,,,,,,,
,,"[""diamond"",""green"",""vert"",""up"",[-150,0],[-106,-106]]",diamond,green,vert,up,"[-150,0]","[-106,-106]",up,1,0.9828,,,,,,001,2025-03-10_18h34.34.170,SL_base,2021.2.3,Win32,59.88023952,,,67,0,67,0,1,,,,,,,,
,,"[""diamond"",""no_dis"",""hori"",""left"",[99999,99999],[0,-150]]",diamond,no_dis,hori,left,"[99999,99999]","[0,-150]",up,0,1.5167,,,,,,001,2025-03-10_18h34.34.170,SL_base,2021.2.3,Win32,59.88023952,,,68,0,68,0,1,,,,,,,,
,,"[""circle"",""green"",""vert"",""up"",[-106,-106],[0,150]]",circle,green,vert,up,"[-106,-106]","[0,150]",up,1,0.9911,,,,,,001,2025-03-10_18h34.34.170,SL_base,2021.2.3,Win32,59.88023952,,,69,0,69,0,1,,,,,,,,
,,"[""circle"",""green"",""vert"",""up"",[106,-106],[0,-150]]",circle,green,vert,up,"[106,-106]","[0,-150]",up,1,1.0669,,,,,,001,2025-03-10_18h34.34.170,SL_base,2021.2.3,Win32,59.88023952,,,70,0,70,0,1,,,,,,,,
,,"[""diamond"",""red"",""hori"",""left"",[150,0],[-150,0]]",diamond,red,hori,left,"[150,0]","[-150,0]",left,1,0.6667,,,,,,001,2025-03-10_18h34.34.170,SL_base,2021.2.3,Win32,59.88023952,,,71,0,71,0,1,,,,,,,,
,,"[""circle"",""red"",""vert"",""up"",[-106,-106],[0,-150]]",circle,red,vert,up,"[-106,-106]","[0,-150]",up,1,0.7507,,,,,,001,2025-03-10_18h34.34.170,SL_base,2021.2.3,Win32,59.88023952,,,72,0,72,0,1,,,,,,,,
,,"[""diamond"",""green"",""vert"",""up"",[-106,-106],[106,-106]]",diamond,green,vert,up,"[-106,-106]","[106,-106]",up,1,1.062,,,,,,001,2025-03-10_18h34.34.170,SL_base,2021.2.3,Win32,59.88023952,,,73,0,73,0,1,,,,,,,,
,,"[""diamond"",""green"",""hori"",""left"",[-106,-106],[106,-106]]",diamond,green,hori,left,"[-106,-106]","[106,-106]",left,1,0.8554,,,,,,001,2025-03-10_18h34.34.170,SL_base,2021.2.3,Win32,59.88023952,,,74,0,74,0,1,,,,,,,,
,,"[""circle"",""red"",""hori"",""left"",[150,0],[106,106]]",circle,red,hori,left,"[150,0]","[106,106]",left,1,0.8566,,,,,,001,2025-03-10_18h34.34.170,SL_base,2021.2.3,Win32,59.88023952,,,75,0,75,0,1,,,,,,,,
,,"[""circle"",""no_dis"",""hori"",""left"",[99999,99999],[106,-106]]",circle,no_dis,hori,left,"[99999,99999]","[106,-106]",up,0,1.3172,,,,,,001,2025-03-10_18h34.34.170,SL_base,2021.2.3,Win32,59.88023952,,,76,0,76,0,1,,,,,,,,
,,"[""diamond"",""red"",""hori"",""left"",[-106,106],[150,0]]",diamond,red,hori,left,"[-106,106]","[150,0]",left,1,1.0592,,,,,,001,2025-03-10_18h34.34.170,SL_base,2021.2.3,Win32,59.88023952,,,77,0,77,0,1,,,,,,,,
,,"[""diamond"",""green"",""hori"",""left"",[-106,-106],[-150,0]]",diamond,green,hori,left,"[-106,-106]","[-150,0]",left,1,1.1169,,,,,,001,2025-03-10_18h34.34.170,SL_base,2021.2.3,Win32,59.88023952,,,78,0,78,0,1,,,,,,,,
,,"[""circle"",""no_dis"",""vert"",""up"",[99999,99999],[-106,106]]",circle,no_dis,vert,up,"[99999,99999]","[-106,106]",up,1,2.0335,,,,,,001,2025-03-10_18h34.34.170,SL_base,2021.2.3,Win32,59.88023952,,,79,0,79,0,1,,,,,,,,
,,"[""circle"",""no_dis"",""vert"",""up"",[99999,99999],[-106,-106]]",circle,no_dis,vert,up,"[99999,99999]","[-106,-106]",up,1,1.1504,,,,,,001,2025-03-10_18h34.34.170,SL_base,2021.2.3,Win32,59.88023952,,,80,0,80,0,1,,,,,,,,
,,"[""circle"",""green"",""vert"",""up"",[150,0],[106,106]]",circle,green,vert,up,"[150,0]","[106,106]",up,1,1.1669,,,,,,001,2025-03-10_18h34.34.170,SL_base,2021.2.3,Win32,59.88023952,,,81,0,81,0,1,,,,,,,,
,,"[""circle"",""green"",""hori"",""left"",[106,106],[0,150]]",circle,green,hori,left,"[106,106]","[0,150]",left,1,2.0232,,,,,,001,2025-03-10_18h34.34.170,SL_base,2021.2.3,Win32,59.88023952,,,82,0,82,0,1,,,,,,,,
,,"[""diamond"",""no_dis"",""hori"",""left"",[99999,99999],[-106,-106]]",diamond,no_dis,hori,left,"[99999,99999]","[-106,-106]",left,1,0.9782,,,,,,001,2025-03-10_18h34.34.170,SL_base,2021.2.3,Win32,59.88023952,,,83,0,83,0,1,,,,,,,,
,,"[""circle"",""red"",""vert"",""up"",[0,-150],[0,150]]",circle,red,vert,up,"[0,-150]","[0,150]",up,1,0.9217,,,,,,001,2025-03-10_18h34.34.170,SL_base,2021.2.3,Win32,59.88023952,,,84,0,84,0,1,,,,,,,,
,,"[""circle"",""green"",""hori"",""left"",[150,0],[-150,0]]",circle,green,hori,left,"[150,0]","[-150,0]",left,1,1.1332,,,,,,001,2025-03-10_18h34.34.170,SL_base,2021.2.3,Win32,59.88023952,,,85,0,85,0,1,,,,,,,,
,,"[""circle"",""red"",""vert"",""up"",[0,150],[0,-150]]",circle,red,vert,up,"[0,150]","[0,-150]",up,1,0.7209,,,,,,001,2025-03-10_18h34.34.170,SL_base,2021.2.3,Win32,59.88023952,,,86,0,86,0,1,,,,,,,,
,,"[""circle"",""no_dis"",""vert"",""up"",[99999,99999],[-150,0]]",circle,no_dis,vert,up,"[99999,99999]","[-150,0]",up,1,0.717,,,,,,001,2025-03-10_18h34.34.170,SL_base,2021.2.3,Win32,59.88023952,,,87,0,87,0,1,,,,,,,,
,,"[""circle"",""red"",""hori"",""left"",[-106,106],[0,150]]",circle,red,hori,left,"[-106,106]","[0,150]",left,1,0.7036,,,,,,001,2025-03-10_18h34.34.170,SL_base,2021.2.3,Win32,59.88023952,,,88,0,88,0,1,,,,,,,,
,,"[""diamond"",""red"",""vert"",""up"",[-150,0],[150,0]]",diamond,red,vert,up,"[-150,0]","[150,0]",up,1,1.9605,,,,,,001,2025-03-10_18h34.34.170,SL_base,2021.2.3,Win32,59.88023952,,,89,0,89,0,1,,,,,,,,
