﻿key_resp.keys,key_resp.rt,trial_para,tar_shape,dis_color_condi,tar_line,cor_resp,dis_loc,tar_loc,resp.keys,resp.corr,trials.thisRepN,trials.thisTrialN,trials.thisN,trials.thisIndex,trials.ran,participant,date,expName,psychopyVersion,OS,frameRate,resp.rt,key_resp_2.keys,key_resp_2.rt,trials_2.thisRepN,trials_2.thisTrialN,trials_2.thisN,trials_2.thisIndex,trials_2.ran,block_num,key_resp_3.keys,key_resp_3.rt,trials_3.thisRepN,trials_3.thisTrialN,trials_3.thisN,trials_3.thisIndex,trials_3.ran
space,21.5373,"[""diamond"",""red"",""vert"",""up"",[0,-150],[-106,106]]",diamond,red,vert,up,"[0,-150]","[-106,106]",,0,0,0,0,0,1,001,2025-03-10_19h19.36.389,SL_base,2021.2.3,Win32,59.88023952,,,,,,,,,,,,,,,,
,,"[""diamond"",""green"",""vert"",""up"",[0,150],[106,-106]]",diamond,green,vert,up,"[0,150]","[106,-106]",up,1,1,0,1,0,1,001,2025-03-10_19h19.36.389,SL_base,2021.2.3,Win32,59.88023952,1.6624,,,,,,,,,,,,,,,
,,"[""circle"",""red"",""vert"",""up"",[-106,106],[0,-150]]",circle,red,vert,up,"[-106,106]","[0,-150]",,0,2,0,2,0,1,001,2025-03-10_19h19.36.389,SL_base,2021.2.3,Win32,59.88023952,,,,,,,,,,,,,,,,
,,"[""diamond"",""no_dis"",""vert"",""up"",[99999,99999],[0,-150]]",diamond,no_dis,vert,up,"[99999,99999]","[0,-150]",up,1,3,0,3,0,1,001,2025-03-10_19h19.36.389,SL_base,2021.2.3,Win32,59.88023952,2.865,,,,,,,,,,,,,,,
,,"[""circle"",""red"",""vert"",""up"",[150,0],[106,-106]]",circle,red,vert,up,"[150,0]","[106,-106]",left,0,4,0,4,0,1,001,2025-03-10_19h19.36.389,SL_base,2021.2.3,Win32,59.88023952,1.5588,,,,,,,,,,,,,,,
,,"[""circle"",""no_dis"",""vert"",""up"",[99999,99999],[-150,0]]",circle,no_dis,vert,up,"[99999,99999]","[-150,0]",up,1,5,0,5,0,1,001,2025-03-10_19h19.36.389,SL_base,2021.2.3,Win32,59.88023952,0.9541,,,,,,,,,,,,,,,
,,"[""diamond"",""red"",""hori"",""left"",[-150,0],[-106,106]]",diamond,red,hori,left,"[-150,0]","[-106,106]",up,0,6,0,6,0,1,001,2025-03-10_19h19.36.389,SL_base,2021.2.3,Win32,59.88023952,2.1237,,,,,,,,,,,,,,,
,,"[""diamond"",""green"",""hori"",""left"",[106,106],[-150,0]]",diamond,green,hori,left,"[106,106]","[-150,0]",left,1,7,0,7,0,1,001,2025-03-10_19h19.36.389,SL_base,2021.2.3,Win32,59.88023952,1.5653,,,,,,,,,,,,,,,
,,"[""diamond"",""no_dis"",""vert"",""up"",[99999,99999],[-106,-106]]",diamond,no_dis,vert,up,"[99999,99999]","[-106,-106]",up,1,8,0,8,0,1,001,2025-03-10_19h19.36.389,SL_base,2021.2.3,Win32,59.88023952,1.3083,,,,,,,,,,,,,,,
,,"[""circle"",""red"",""hori"",""left"",[150,0],[106,106]]",circle,red,hori,left,"[150,0]","[106,106]",left,1,9,0,9,0,1,001,2025-03-10_19h19.36.389,SL_base,2021.2.3,Win32,59.88023952,1.6146,,,,,,,,,,,,,,,
,,"[""diamond"",""red"",""vert"",""up"",[0,-150],[-106,106]]",diamond,red,vert,up,"[0,-150]","[-106,106]",up,1,,,,,,001,2025-03-10_19h19.36.389,SL_base,2021.2.3,Win32,59.88023952,1.0709,space,4.274,0,0,0,0,1,,,,,,,,
,,"[""diamond"",""green"",""vert"",""up"",[0,150],[106,-106]]",diamond,green,vert,up,"[0,150]","[106,-106]",up,1,,,,,,001,2025-03-10_19h19.36.389,SL_base,2021.2.3,Win32,59.88023952,1.1337,,,1,0,1,0,1,,,,,,,,
,,"[""circle"",""red"",""vert"",""up"",[-106,106],[0,-150]]",circle,red,vert,up,"[-106,106]","[0,-150]",up,1,,,,,,001,2025-03-10_19h19.36.389,SL_base,2021.2.3,Win32,59.88023952,1.7837,,,2,0,2,0,1,,,,,,,,
,,"[""diamond"",""no_dis"",""vert"",""up"",[99999,99999],[0,-150]]",diamond,no_dis,vert,up,"[99999,99999]","[0,-150]",up,1,,,,,,001,2025-03-10_19h19.36.389,SL_base,2021.2.3,Win32,59.88023952,1.5334,,,3,0,3,0,1,,,,,,,,
,,"[""circle"",""red"",""vert"",""up"",[150,0],[106,-106]]",circle,red,vert,up,"[150,0]","[106,-106]",up,1,,,,,,001,2025-03-10_19h19.36.389,SL_base,2021.2.3,Win32,59.88023952,1.0835,,,4,0,4,0,1,,,,,,,,
,,"[""circle"",""no_dis"",""vert"",""up"",[99999,99999],[-150,0]]",circle,no_dis,vert,up,"[99999,99999]","[-150,0]",up,1,,,,,,001,2025-03-10_19h19.36.389,SL_base,2021.2.3,Win32,59.88023952,0.9405,,,5,0,5,0,1,,,,,,,,
,,"[""diamond"",""red"",""hori"",""left"",[-150,0],[-106,106]]",diamond,red,hori,left,"[-150,0]","[-106,106]",up,0,,,,,,001,2025-03-10_19h19.36.389,SL_base,2021.2.3,Win32,59.88023952,0.9601,,,6,0,6,0,1,,,,,,,,
,,"[""diamond"",""green"",""hori"",""left"",[106,106],[-150,0]]",diamond,green,hori,left,"[106,106]","[-150,0]",left,1,,,,,,001,2025-03-10_19h19.36.389,SL_base,2021.2.3,Win32,59.88023952,1.8,,,7,0,7,0,1,,,,,,,,
,,"[""diamond"",""no_dis"",""vert"",""up"",[99999,99999],[-106,-106]]",diamond,no_dis,vert,up,"[99999,99999]","[-106,-106]",up,1,,,,,,001,2025-03-10_19h19.36.389,SL_base,2021.2.3,Win32,59.88023952,1.6163,,,8,0,8,0,1,,,,,,,,
,,"[""circle"",""red"",""hori"",""left"",[150,0],[106,106]]",circle,red,hori,left,"[150,0]","[106,106]",left,1,,,,,,001,2025-03-10_19h19.36.389,SL_base,2021.2.3,Win32,59.88023952,2.202,,,9,0,9,0,1,,,,,,,,
,,"[""diamond"",""red"",""vert"",""up"",[150,0],[0,-150]]",diamond,red,vert,up,"[150,0]","[0,-150]",up,1,,,,,,001,2025-03-10_19h19.36.389,SL_base,2021.2.3,Win32,59.88023952,1.667,,,10,0,10,0,1,,,,,,,,
,,"[""circle"",""red"",""hori"",""left"",[-150,0],[-106,106]]",circle,red,hori,left,"[-150,0]","[-106,106]",left,1,,,,,,001,2025-03-10_19h19.36.389,SL_base,2021.2.3,Win32,59.88023952,2.2167,,,11,0,11,0,1,,,,,,,,
,,"[""circle"",""no_dis"",""hori"",""left"",[99999,99999],[-150,0]]",circle,no_dis,hori,left,"[99999,99999]","[-150,0]",left,1,,,,,,001,2025-03-10_19h19.36.389,SL_base,2021.2.3,Win32,59.88023952,0.9337,,,12,0,12,0,1,,,,,,,,
,,"[""circle"",""no_dis"",""hori"",""left"",[99999,99999],[106,106]]",circle,no_dis,hori,left,"[99999,99999]","[106,106]",left,1,,,,,,001,2025-03-10_19h19.36.389,SL_base,2021.2.3,Win32,59.88023952,1.3671,,,13,0,13,0,1,,,,,,,,
,,"[""circle"",""red"",""hori"",""left"",[106,-106],[0,-150]]",circle,red,hori,left,"[106,-106]","[0,-150]",left,1,,,,,,001,2025-03-10_19h19.36.389,SL_base,2021.2.3,Win32,59.88023952,1.2337,,,14,0,14,0,1,,,,,,,,
,,"[""circle"",""red"",""hori"",""left"",[150,0],[-150,0]]",circle,red,hori,left,"[150,0]","[-150,0]",left,1,,,,,,001,2025-03-10_19h19.36.389,SL_base,2021.2.3,Win32,59.88023952,0.9092,,,15,0,15,0,1,,,,,,,,
,,"[""circle"",""no_dis"",""hori"",""left"",[99999,99999],[106,106]]",circle,no_dis,hori,left,"[99999,99999]","[106,106]",left,1,,,,,,001,2025-03-10_19h19.36.389,SL_base,2021.2.3,Win32,59.88023952,1.4493,,,16,0,16,0,1,,,,,,,,
,,"[""diamond"",""no_dis"",""vert"",""up"",[99999,99999],[0,-150]]",diamond,no_dis,vert,up,"[99999,99999]","[0,-150]",up,1,,,,,,001,2025-03-10_19h19.36.389,SL_base,2021.2.3,Win32,59.88023952,1.199,,,17,0,17,0,1,,,,,,,,
,,"[""circle"",""red"",""vert"",""up"",[-106,106],[150,0]]",circle,red,vert,up,"[-106,106]","[150,0]",up,1,,,,,,001,2025-03-10_19h19.36.389,SL_base,2021.2.3,Win32,59.88023952,1.2778,,,18,0,18,0,1,,,,,,,,
,,"[""diamond"",""green"",""vert"",""up"",[0,150],[-150,0]]",diamond,green,vert,up,"[0,150]","[-150,0]",up,1,,,,,,001,2025-03-10_19h19.36.389,SL_base,2021.2.3,Win32,59.88023952,1.7212,,,19,0,19,0,1,,,,,,,,
,,"[""diamond"",""green"",""hori"",""left"",[106,106],[0,150]]",diamond,green,hori,left,"[106,106]","[0,150]",left,1,,,,,,001,2025-03-10_19h19.36.389,SL_base,2021.2.3,Win32,59.88023952,1.6865,,,20,0,20,0,1,,,,,,,,
,,"[""circle"",""no_dis"",""vert"",""up"",[99999,99999],[-106,-106]]",circle,no_dis,vert,up,"[99999,99999]","[-106,-106]",up,1,,,,,,001,2025-03-10_19h19.36.389,SL_base,2021.2.3,Win32,59.88023952,1.1061,,,21,0,21,0,1,,,,,,,,
,,"[""diamond"",""red"",""hori"",""left"",[-106,106],[-150,0]]",diamond,red,hori,left,"[-106,106]","[-150,0]",left,1,,,,,,001,2025-03-10_19h19.36.389,SL_base,2021.2.3,Win32,59.88023952,1.2998,,,22,0,22,0,1,,,,,,,,
,,"[""circle"",""no_dis"",""vert"",""up"",[99999,99999],[106,-106]]",circle,no_dis,vert,up,"[99999,99999]","[106,-106]",up,1,,,,,,001,2025-03-10_19h19.36.389,SL_base,2021.2.3,Win32,59.88023952,1.6165,,,23,0,23,0,1,,,,,,,,
,,"[""diamond"",""red"",""hori"",""left"",[150,0],[106,106]]",diamond,red,hori,left,"[150,0]","[106,106]",up,0,,,,,,001,2025-03-10_19h19.36.389,SL_base,2021.2.3,Win32,59.88023952,1.1742,,,24,0,24,0,1,,,,,,,,
,,"[""diamond"",""no_dis"",""vert"",""up"",[99999,99999],[-106,106]]",diamond,no_dis,vert,up,"[99999,99999]","[-106,106]",up,1,,,,,,001,2025-03-10_19h19.36.389,SL_base,2021.2.3,Win32,59.88023952,2.309,,,25,0,25,0,1,,,,,,,,
,,"[""diamond"",""no_dis"",""hori"",""left"",[99999,99999],[106,-106]]",diamond,no_dis,hori,left,"[99999,99999]","[106,-106]",left,1,,,,,,001,2025-03-10_19h19.36.389,SL_base,2021.2.3,Win32,59.88023952,1.0929,,,26,0,26,0,1,,,,,,,,
,,"[""circle"",""no_dis"",""hori"",""left"",[99999,99999],[0,-150]]",circle,no_dis,hori,left,"[99999,99999]","[0,-150]",left,1,,,,,,001,2025-03-10_19h19.36.389,SL_base,2021.2.3,Win32,59.88023952,1.4479,,,27,0,27,0,1,,,,,,,,
,,"[""circle"",""no_dis"",""hori"",""left"",[99999,99999],[150,0]]",circle,no_dis,hori,left,"[99999,99999]","[150,0]",left,1,,,,,,001,2025-03-10_19h19.36.389,SL_base,2021.2.3,Win32,59.88023952,1.0026,,,28,0,28,0,1,,,,,,,,
,,"[""circle"",""no_dis"",""vert"",""up"",[99999,99999],[106,106]]",circle,no_dis,vert,up,"[99999,99999]","[106,106]",up,1,,,,,,001,2025-03-10_19h19.36.389,SL_base,2021.2.3,Win32,59.88023952,0.9713,,,29,0,29,0,1,,,,,,,,
,,"[""circle"",""no_dis"",""vert"",""up"",[99999,99999],[-106,-106]]",circle,no_dis,vert,up,"[99999,99999]","[-106,-106]",up,1,,,,,,001,2025-03-10_19h19.36.389,SL_base,2021.2.3,Win32,59.88023952,0.8984,,,30,0,30,0,1,,,,,,,,
,,"[""diamond"",""no_dis"",""vert"",""up"",[99999,99999],[0,150]]",diamond,no_dis,vert,up,"[99999,99999]","[0,150]",up,1,,,,,,001,2025-03-10_19h19.36.389,SL_base,2021.2.3,Win32,59.88023952,1.3741,,,31,0,31,0,1,,,,,,,,
,,"[""circle"",""red"",""vert"",""up"",[106,106],[-106,-106]]",circle,red,vert,up,"[106,106]","[-106,-106]",up,1,,,,,,001,2025-03-10_19h19.36.389,SL_base,2021.2.3,Win32,59.88023952,1.2629,,,32,0,32,0,1,,,,,,,,
,,"[""circle"",""no_dis"",""hori"",""left"",[99999,99999],[106,-106]]",circle,no_dis,hori,left,"[99999,99999]","[106,-106]",left,1,,,,,,001,2025-03-10_19h19.36.389,SL_base,2021.2.3,Win32,59.88023952,0.9133,,,33,0,33,0,1,,,,,,,,
,,"[""circle"",""no_dis"",""vert"",""up"",[99999,99999],[106,-106]]",circle,no_dis,vert,up,"[99999,99999]","[106,-106]",up,1,,,,,,001,2025-03-10_19h19.36.389,SL_base,2021.2.3,Win32,59.88023952,2.1444,,,34,0,34,0,1,,,,,,,,
,,"[""circle"",""no_dis"",""hori"",""left"",[99999,99999],[0,150]]",circle,no_dis,hori,left,"[99999,99999]","[0,150]",left,1,,,,,,001,2025-03-10_19h19.36.389,SL_base,2021.2.3,Win32,59.88023952,0.8985,,,35,0,35,0,1,,,,,,,,
,,"[""diamond"",""red"",""hori"",""left"",[0,-150],[0,150]]",diamond,red,hori,left,"[0,-150]","[0,150]",up,0,,,,,,001,2025-03-10_19h19.36.389,SL_base,2021.2.3,Win32,59.88023952,1.3991,,,36,0,36,0,1,,,,,,,,
,,"[""circle"",""green"",""hori"",""left"",[-106,106],[-106,-106]]",circle,green,hori,left,"[-106,106]","[-106,-106]",left,1,,,,,,001,2025-03-10_19h19.36.389,SL_base,2021.2.3,Win32,59.88023952,1.4461,,,37,0,37,0,1,,,,,,,,
,,"[""circle"",""no_dis"",""vert"",""up"",[99999,99999],[-150,0]]",circle,no_dis,vert,up,"[99999,99999]","[-150,0]",up,1,,,,,,001,2025-03-10_19h19.36.389,SL_base,2021.2.3,Win32,59.88023952,1.0624,,,38,0,38,0,1,,,,,,,,
,,"[""diamond"",""no_dis"",""hori"",""left"",[99999,99999],[-106,106]]",diamond,no_dis,hori,left,"[99999,99999]","[-106,106]",left,1,,,,,,001,2025-03-10_19h19.36.389,SL_base,2021.2.3,Win32,59.88023952,1.9771,,,39,0,39,0,1,,,,,,,,
,,"[""circle"",""red"",""hori"",""left"",[150,0],[106,106]]",circle,red,hori,left,"[150,0]","[106,106]",left,1,,,,,,001,2025-03-10_19h19.36.389,SL_base,2021.2.3,Win32,59.88023952,2.081,,,40,0,40,0,1,,,,,,,,
,,"[""diamond"",""green"",""vert"",""up"",[-106,-106],[150,0]]",diamond,green,vert,up,"[-106,-106]","[150,0]",up,1,,,,,,001,2025-03-10_19h19.36.389,SL_base,2021.2.3,Win32,59.88023952,1.4157,,,41,0,41,0,1,,,,,,,,
,,"[""circle"",""green"",""hori"",""left"",[150,0],[106,106]]",circle,green,hori,left,"[150,0]","[106,106]",left,1,,,,,,001,2025-03-10_19h19.36.389,SL_base,2021.2.3,Win32,59.88023952,2.1057,,,42,0,42,0,1,,,,,,,,
,,"[""circle"",""red"",""hori"",""left"",[150,0],[-106,-106]]",circle,red,hori,left,"[150,0]","[-106,-106]",left,1,,,,,,001,2025-03-10_19h19.36.389,SL_base,2021.2.3,Win32,59.88023952,1.898,,,43,0,43,0,1,,,,,,,,
,,"[""circle"",""no_dis"",""hori"",""left"",[99999,99999],[150,0]]",circle,no_dis,hori,left,"[99999,99999]","[150,0]",left,1,,,,,,001,2025-03-10_19h19.36.389,SL_base,2021.2.3,Win32,59.88023952,1.6699,,,44,0,44,0,1,,,,,,,,
,,"[""circle"",""green"",""hori"",""left"",[150,0],[106,106]]",circle,green,hori,left,"[150,0]","[106,106]",left,1,,,,,,001,2025-03-10_19h19.36.389,SL_base,2021.2.3,Win32,59.88023952,1.8784,,,45,0,45,0,1,,,,,,,,
,,"[""diamond"",""green"",""hori"",""left"",[0,-150],[-150,0]]",diamond,green,hori,left,"[0,-150]","[-150,0]",left,1,,,,,,001,2025-03-10_19h19.36.389,SL_base,2021.2.3,Win32,59.88023952,1.4385,,,46,0,46,0,1,,,,,,,,
,,"[""circle"",""green"",""hori"",""left"",[106,-106],[106,106]]",circle,green,hori,left,"[106,-106]","[106,106]",up,0,,,,,,001,2025-03-10_19h19.36.389,SL_base,2021.2.3,Win32,59.88023952,1.3669,,,47,0,47,0,1,,,,,,,,
,,"[""circle"",""red"",""vert"",""up"",[150,0],[106,-106]]",circle,red,vert,up,"[150,0]","[106,-106]",up,1,,,,,,001,2025-03-10_19h19.36.389,SL_base,2021.2.3,Win32,59.88023952,1.7669,,,48,0,48,0,1,,,,,,,,
,,"[""diamond"",""red"",""vert"",""up"",[150,0],[106,-106]]",diamond,red,vert,up,"[150,0]","[106,-106]",up,1,,,,,,001,2025-03-10_19h19.36.389,SL_base,2021.2.3,Win32,59.88023952,1.2967,,,49,0,49,0,1,,,,,,,,
,,"[""circle"",""green"",""vert"",""up"",[0,-150],[106,-106]]",circle,green,vert,up,"[0,-150]","[106,-106]",up,1,,,,,,001,2025-03-10_19h19.36.389,SL_base,2021.2.3,Win32,59.88023952,1.5291,,,50,0,50,0,1,,,,,,,,
,,"[""circle"",""red"",""hori"",""left"",[106,-106],[-106,106]]",circle,red,hori,left,"[106,-106]","[-106,106]",left,1,,,,,,001,2025-03-10_19h19.36.389,SL_base,2021.2.3,Win32,59.88023952,1.0837,,,51,0,51,0,1,,,,,,,,
,,"[""diamond"",""green"",""vert"",""up"",[-106,-106],[106,-106]]",diamond,green,vert,up,"[-106,-106]","[106,-106]",up,1,,,,,,001,2025-03-10_19h19.36.389,SL_base,2021.2.3,Win32,59.88023952,1.3289,,,52,0,52,0,1,,,,,,,,
,,"[""diamond"",""green"",""hori"",""left"",[106,-106],[150,0]]",diamond,green,hori,left,"[106,-106]","[150,0]",left,1,,,,,,001,2025-03-10_19h19.36.389,SL_base,2021.2.3,Win32,59.88023952,1.1812,,,53,0,53,0,1,,,,,,,,
,,"[""circle"",""green"",""hori"",""left"",[0,-150],[-150,0]]",circle,green,hori,left,"[0,-150]","[-150,0]",left,1,,,,,,001,2025-03-10_19h19.36.389,SL_base,2021.2.3,Win32,59.88023952,1.0464,,,54,0,54,0,1,,,,,,,,
,,"[""diamond"",""green"",""hori"",""left"",[0,-150],[-106,-106]]",diamond,green,hori,left,"[0,-150]","[-106,-106]",up,0,,,,,,001,2025-03-10_19h19.36.389,SL_base,2021.2.3,Win32,59.88023952,2.3906,,,55,0,55,0,1,,,,,,,,
,,"[""circle"",""green"",""vert"",""up"",[106,106],[106,-106]]",circle,green,vert,up,"[106,106]","[106,-106]",up,1,,,,,,001,2025-03-10_19h19.36.389,SL_base,2021.2.3,Win32,59.88023952,2.2684,,,56,0,56,0,1,,,,,,,,
,,"[""circle"",""no_dis"",""vert"",""up"",[99999,99999],[0,-150]]",circle,no_dis,vert,up,"[99999,99999]","[0,-150]",up,1,,,,,,001,2025-03-10_19h19.36.389,SL_base,2021.2.3,Win32,59.88023952,2.034,,,57,0,57,0,1,,,,,,,,
,,"[""circle"",""red"",""vert"",""up"",[-106,-106],[106,-106]]",circle,red,vert,up,"[-106,-106]","[106,-106]",up,1,,,,,,001,2025-03-10_19h19.36.389,SL_base,2021.2.3,Win32,59.88023952,1.7958,,,58,0,58,0,1,,,,,,,,
,,"[""circle"",""red"",""vert"",""up"",[150,0],[106,106]]",circle,red,vert,up,"[150,0]","[106,106]",up,1,,,,,,001,2025-03-10_19h19.36.389,SL_base,2021.2.3,Win32,59.88023952,1.538,,,59,0,59,0,1,,,,,,,,
,,"[""diamond"",""red"",""hori"",""left"",[-106,106],[150,0]]",diamond,red,hori,left,"[-106,106]","[150,0]",left,1,,,,,,001,2025-03-10_19h19.36.389,SL_base,2021.2.3,Win32,59.88023952,1.202,,,60,0,60,0,1,,,,,,,,
,,"[""circle"",""green"",""vert"",""up"",[106,-106],[-106,106]]",circle,green,vert,up,"[106,-106]","[-106,106]",up,1,,,,,,001,2025-03-10_19h19.36.389,SL_base,2021.2.3,Win32,59.88023952,1.8313,,,61,0,61,0,1,,,,,,,,
,,"[""circle"",""red"",""vert"",""up"",[106,106],[0,-150]]",circle,red,vert,up,"[106,106]","[0,-150]",up,1,,,,,,001,2025-03-10_19h19.36.389,SL_base,2021.2.3,Win32,59.88023952,1.3563,,,62,0,62,0,1,,,,,,,,
,,"[""circle"",""green"",""hori"",""left"",[150,0],[0,-150]]",circle,green,hori,left,"[150,0]","[0,-150]",left,1,,,,,,001,2025-03-10_19h19.36.389,SL_base,2021.2.3,Win32,59.88023952,1.1671,,,63,0,63,0,1,,,,,,,,
,,"[""diamond"",""red"",""hori"",""left"",[-150,0],[106,106]]",diamond,red,hori,left,"[-150,0]","[106,106]",left,1,,,,,,001,2025-03-10_19h19.36.389,SL_base,2021.2.3,Win32,59.88023952,1.3627,,,64,0,64,0,1,,,,,,,,
,,"[""diamond"",""no_dis"",""hori"",""left"",[99999,99999],[-106,106]]",diamond,no_dis,hori,left,"[99999,99999]","[-106,106]",left,1,,,,,,001,2025-03-10_19h19.36.389,SL_base,2021.2.3,Win32,59.88023952,1.5249,,,65,0,65,0,1,,,,,,,,
,,"[""diamond"",""no_dis"",""hori"",""left"",[99999,99999],[0,-150]]",diamond,no_dis,hori,left,"[99999,99999]","[0,-150]",left,1,,,,,,001,2025-03-10_19h19.36.389,SL_base,2021.2.3,Win32,59.88023952,1.1964,,,66,0,66,0,1,,,,,,,,
,,"[""circle"",""red"",""hori"",""left"",[150,0],[-106,-106]]",circle,red,hori,left,"[150,0]","[-106,-106]",left,1,,,,,,001,2025-03-10_19h19.36.389,SL_base,2021.2.3,Win32,59.88023952,1.8236,,,67,0,67,0,1,,,,,,,,
,,"[""circle"",""red"",""hori"",""left"",[150,0],[0,150]]",circle,red,hori,left,"[150,0]","[0,150]",left,1,,,,,,001,2025-03-10_19h19.36.389,SL_base,2021.2.3,Win32,59.88023952,1.1302,,,68,0,68,0,1,,,,,,,,
,,"[""circle"",""green"",""hori"",""left"",[150,0],[-150,0]]",circle,green,hori,left,"[150,0]","[-150,0]",left,1,,,,,,001,2025-03-10_19h19.36.389,SL_base,2021.2.3,Win32,59.88023952,0.9967,,,69,0,69,0,1,,,,,,,,
,,"[""circle"",""green"",""vert"",""up"",[0,150],[-106,106]]",circle,green,vert,up,"[0,150]","[-106,106]",up,1,,,,,,001,2025-03-10_19h19.36.389,SL_base,2021.2.3,Win32,59.88023952,1.3815,,,70,0,70,0,1,,,,,,,,
,,"[""diamond"",""no_dis"",""hori"",""left"",[99999,99999],[106,106]]",diamond,no_dis,hori,left,"[99999,99999]","[106,106]",left,1,,,,,,001,2025-03-10_19h19.36.389,SL_base,2021.2.3,Win32,59.88023952,1.2468,,,71,0,71,0,1,,,,,,,,
,,"[""circle"",""no_dis"",""vert"",""up"",[99999,99999],[0,150]]",circle,no_dis,vert,up,"[99999,99999]","[0,150]",up,1,,,,,,001,2025-03-10_19h19.36.389,SL_base,2021.2.3,Win32,59.88023952,1.7292,,,72,0,72,0,1,,,,,,,,
,,"[""diamond"",""no_dis"",""hori"",""left"",[99999,99999],[106,-106]]",diamond,no_dis,hori,left,"[99999,99999]","[106,-106]",left,1,,,,,,001,2025-03-10_19h19.36.389,SL_base,2021.2.3,Win32,59.88023952,1.8341,,,73,0,73,0,1,,,,,,,,
,,"[""diamond"",""green"",""vert"",""up"",[150,0],[-150,0]]",diamond,green,vert,up,"[150,0]","[-150,0]",up,1,,,,,,001,2025-03-10_19h19.36.389,SL_base,2021.2.3,Win32,59.88023952,1.8625,,,74,0,74,0,1,,,,,,,,
,,"[""diamond"",""red"",""hori"",""left"",[106,106],[-150,0]]",diamond,red,hori,left,"[106,106]","[-150,0]",left,1,,,,,,001,2025-03-10_19h19.36.389,SL_base,2021.2.3,Win32,59.88023952,1.9977,,,75,0,75,0,1,,,,,,,,
,,"[""diamond"",""red"",""vert"",""up"",[0,150],[106,-106]]",diamond,red,vert,up,"[0,150]","[106,-106]",up,1,,,,,,001,2025-03-10_19h19.36.389,SL_base,2021.2.3,Win32,59.88023952,1.2452,,,76,0,76,0,1,,,,,,,,
,,"[""diamond"",""no_dis"",""vert"",""up"",[99999,99999],[106,106]]",diamond,no_dis,vert,up,"[99999,99999]","[106,106]",up,1,,,,,,001,2025-03-10_19h19.36.389,SL_base,2021.2.3,Win32,59.88023952,1.4031,,,77,0,77,0,1,,,,,,,,
,,"[""diamond"",""green"",""vert"",""up"",[106,-106],[-150,0]]",diamond,green,vert,up,"[106,-106]","[-150,0]",up,1,,,,,,001,2025-03-10_19h19.36.389,SL_base,2021.2.3,Win32,59.88023952,1.5931,,,78,0,78,0,1,,,,,,,,
,,"[""circle"",""no_dis"",""hori"",""left"",[99999,99999],[-150,0]]",circle,no_dis,hori,left,"[99999,99999]","[-150,0]",left,1,,,,,,001,2025-03-10_19h19.36.389,SL_base,2021.2.3,Win32,59.88023952,1.5971,,,79,0,79,0,1,,,,,,,,
,,"[""circle"",""red"",""hori"",""left"",[150,0],[-106,-106]]",circle,red,hori,left,"[150,0]","[-106,-106]",up,0,,,,,,001,2025-03-10_19h19.36.389,SL_base,2021.2.3,Win32,59.88023952,1.6624,,,80,0,80,0,1,,,,,,,,
,,"[""diamond"",""green"",""hori"",""left"",[150,0],[0,150]]",diamond,green,hori,left,"[150,0]","[0,150]",left,1,,,,,,001,2025-03-10_19h19.36.389,SL_base,2021.2.3,Win32,59.88023952,1.6594,,,81,0,81,0,1,,,,,,,,
,,"[""diamond"",""red"",""hori"",""left"",[-106,106],[106,106]]",diamond,red,hori,left,"[-106,106]","[106,106]",left,1,,,,,,001,2025-03-10_19h19.36.389,SL_base,2021.2.3,Win32,59.88023952,1.8592,,,82,0,82,0,1,,,,,,,,
,,"[""diamond"",""red"",""vert"",""up"",[-106,106],[-150,0]]",diamond,red,vert,up,"[-106,106]","[-150,0]",up,1,,,,,,001,2025-03-10_19h19.36.389,SL_base,2021.2.3,Win32,59.88023952,1.4601,,,83,0,83,0,1,,,,,,,,
,,"[""circle"",""green"",""hori"",""left"",[106,-106],[0,150]]",circle,green,hori,left,"[106,-106]","[0,150]",left,1,,,,,,001,2025-03-10_19h19.36.389,SL_base,2021.2.3,Win32,59.88023952,1.9101,,,84,0,84,0,1,,,,,,,,
,,"[""diamond"",""green"",""hori"",""left"",[-150,0],[106,-106]]",diamond,green,hori,left,"[-150,0]","[106,-106]",left,1,,,,,,001,2025-03-10_19h19.36.389,SL_base,2021.2.3,Win32,59.88023952,1.3949,,,85,0,85,0,1,,,,,,,,
,,"[""circle"",""green"",""vert"",""up"",[150,0],[-106,106]]",circle,green,vert,up,"[150,0]","[-106,106]",up,1,,,,,,001,2025-03-10_19h19.36.389,SL_base,2021.2.3,Win32,59.88023952,1.864,,,86,0,86,0,1,,,,,,,,
,,"[""diamond"",""red"",""vert"",""up"",[150,0],[-106,106]]",diamond,red,vert,up,"[150,0]","[-106,106]",up,1,,,,,,001,2025-03-10_19h19.36.389,SL_base,2021.2.3,Win32,59.88023952,1.6622,,,87,0,87,0,1,,,,,,,,
,,"[""circle"",""green"",""vert"",""up"",[150,0],[0,150]]",circle,green,vert,up,"[150,0]","[0,150]",up,1,,,,,,001,2025-03-10_19h19.36.389,SL_base,2021.2.3,Win32,59.88023952,1.4625,,,88,0,88,0,1,,,,,,,,
,,"[""diamond"",""no_dis"",""hori"",""left"",[99999,99999],[-106,106]]",diamond,no_dis,hori,left,"[99999,99999]","[-106,106]",left,1,,,,,,001,2025-03-10_19h19.36.389,SL_base,2021.2.3,Win32,59.88023952,1.5701,,,89,0,89,0,1,,,,,,,,
,,"[""circle"",""red"",""vert"",""up"",[0,-150],[106,106]]",circle,red,vert,up,"[0,-150]","[106,106]",up,1,,,,,,001,2025-03-10_19h19.36.389,SL_base,2021.2.3,Win32,59.88023952,1.947,,,90,0,90,0,1,,,,,,,,
,,"[""diamond"",""red"",""hori"",""left"",[-106,106],[-150,0]]",diamond,red,hori,left,"[-106,106]","[-150,0]",left,1,,,,,,001,2025-03-10_19h19.36.389,SL_base,2021.2.3,Win32,59.88023952,1.9437,,,91,0,91,0,1,,,,,,,,
,,"[""diamond"",""green"",""hori"",""left"",[150,0],[106,-106]]",diamond,green,hori,left,"[150,0]","[106,-106]",left,1,,,,,,001,2025-03-10_19h19.36.389,SL_base,2021.2.3,Win32,59.88023952,1.5935,,,92,0,92,0,1,,,,,,,,
,,"[""circle"",""green"",""vert"",""up"",[-150,0],[150,0]]",circle,green,vert,up,"[-150,0]","[150,0]",up,1,,,,,,001,2025-03-10_19h19.36.389,SL_base,2021.2.3,Win32,59.88023952,2.0631,,,93,0,93,0,1,,,,,,,,
,,"[""diamond"",""green"",""hori"",""left"",[106,-106],[150,0]]",diamond,green,hori,left,"[106,-106]","[150,0]",left,1,,,,,,001,2025-03-10_19h19.36.389,SL_base,2021.2.3,Win32,59.88023952,1.6959,,,94,0,94,0,1,,,,,,,,
,,"[""circle"",""red"",""vert"",""up"",[0,150],[-106,106]]",circle,red,vert,up,"[0,150]","[-106,106]",up,1,,,,,,001,2025-03-10_19h19.36.389,SL_base,2021.2.3,Win32,59.88023952,1.9064,,,95,0,95,0,1,,,,,,,,
,,"[""diamond"",""no_dis"",""vert"",""up"",[99999,99999],[-106,-106]]",diamond,no_dis,vert,up,"[99999,99999]","[-106,-106]",up,1,,,,,,001,2025-03-10_19h19.36.389,SL_base,2021.2.3,Win32,59.88023952,1.004,,,96,0,96,0,1,,,,,,,,
,,"[""diamond"",""green"",""vert"",""up"",[0,150],[106,-106]]",diamond,green,vert,up,"[0,150]","[106,-106]",up,1,,,,,,001,2025-03-10_19h19.36.389,SL_base,2021.2.3,Win32,59.88023952,1.0455,,,97,0,97,0,1,,,,,,,,
,,"[""circle"",""no_dis"",""vert"",""up"",[99999,99999],[150,0]]",circle,no_dis,vert,up,"[99999,99999]","[150,0]",up,1,,,,,,001,2025-03-10_19h19.36.389,SL_base,2021.2.3,Win32,59.88023952,0.8641,,,98,0,98,0,1,,,,,,,,
,,"[""circle"",""no_dis"",""hori"",""left"",[99999,99999],[0,150]]",circle,no_dis,hori,left,"[99999,99999]","[0,150]",left,1,,,,,,001,2025-03-10_19h19.36.389,SL_base,2021.2.3,Win32,59.88023952,1.0977,,,99,0,99,0,1,,,,,,,,
,,"[""circle"",""green"",""vert"",""up"",[-150,0],[-106,106]]",circle,green,vert,up,"[-150,0]","[-106,106]",up,1,,,,,,001,2025-03-10_19h19.36.389,SL_base,2021.2.3,Win32,59.88023952,1.3457,,,100,0,100,0,1,,,,,,,,
,,"[""diamond"",""no_dis"",""vert"",""up"",[99999,99999],[-106,106]]",diamond,no_dis,vert,up,"[99999,99999]","[-106,106]",up,1,,,,,,001,2025-03-10_19h19.36.389,SL_base,2021.2.3,Win32,59.88023952,2.2711,,,101,0,101,0,1,,,,,,,,
,,"[""circle"",""green"",""hori"",""left"",[0,-150],[-106,-106]]",circle,green,hori,left,"[0,-150]","[-106,-106]",left,1,,,,,,001,2025-03-10_19h19.36.389,SL_base,2021.2.3,Win32,59.88023952,1.0533,,,102,0,102,0,1,,,,,,,,
,,"[""diamond"",""red"",""hori"",""left"",[-106,-106],[-150,0]]",diamond,red,hori,left,"[-106,-106]","[-150,0]",left,1,,,,,,001,2025-03-10_19h19.36.389,SL_base,2021.2.3,Win32,59.88023952,2.6585,,,103,0,103,0,1,,,,,,,,
,,"[""diamond"",""no_dis"",""hori"",""left"",[99999,99999],[150,0]]",diamond,no_dis,hori,left,"[99999,99999]","[150,0]",left,1,,,,,,001,2025-03-10_19h19.36.389,SL_base,2021.2.3,Win32,59.88023952,1.0777,,,104,0,104,0,1,,,,,,,,
,,"[""diamond"",""green"",""hori"",""left"",[-106,-106],[150,0]]",diamond,green,hori,left,"[-106,-106]","[150,0]",left,1,,,,,,001,2025-03-10_19h19.36.389,SL_base,2021.2.3,Win32,59.88023952,0.9264,,,105,0,105,0,1,,,,,,,,
,,"[""circle"",""green"",""vert"",""up"",[-106,-106],[106,106]]",circle,green,vert,up,"[-106,-106]","[106,106]",up,1,,,,,,001,2025-03-10_19h19.36.389,SL_base,2021.2.3,Win32,59.88023952,2.1167,,,106,0,106,0,1,,,,,,,,
,,"[""diamond"",""red"",""vert"",""up"",[150,0],[106,106]]",diamond,red,vert,up,"[150,0]","[106,106]",up,1,,,,,,001,2025-03-10_19h19.36.389,SL_base,2021.2.3,Win32,59.88023952,1.8512,,,107,0,107,0,1,,,,,,,,
,,"[""circle"",""green"",""vert"",""up"",[106,106],[0,150]]",circle,green,vert,up,"[106,106]","[0,150]",up,1,,,,,,001,2025-03-10_19h19.36.389,SL_base,2021.2.3,Win32,59.88023952,1.6732,,,108,0,108,0,1,,,,,,,,
,,"[""diamond"",""green"",""vert"",""up"",[0,150],[-106,106]]",diamond,green,vert,up,"[0,150]","[-106,106]",up,1,,,,,,001,2025-03-10_19h19.36.389,SL_base,2021.2.3,Win32,59.88023952,1.9661,,,109,0,109,0,1,,,,,,,,
,,"[""diamond"",""no_dis"",""vert"",""up"",[99999,99999],[-150,0]]",diamond,no_dis,vert,up,"[99999,99999]","[-150,0]",up,1,,,,,,001,2025-03-10_19h19.36.389,SL_base,2021.2.3,Win32,59.88023952,1.0633,,,110,0,110,0,1,,,,,,,,
,,"[""diamond"",""no_dis"",""vert"",""up"",[99999,99999],[150,0]]",diamond,no_dis,vert,up,"[99999,99999]","[150,0]",up,1,,,,,,001,2025-03-10_19h19.36.389,SL_base,2021.2.3,Win32,59.88023952,1.0937,,,111,0,111,0,1,,,,,,,,
,,"[""circle"",""green"",""hori"",""left"",[-106,-106],[-150,0]]",circle,green,hori,left,"[-106,-106]","[-150,0]",left,1,,,,,,001,2025-03-10_19h19.36.389,SL_base,2021.2.3,Win32,59.88023952,1.5618,,,112,0,112,0,1,,,,,,,,
,,"[""diamond"",""no_dis"",""hori"",""left"",[99999,99999],[0,150]]",diamond,no_dis,hori,left,"[99999,99999]","[0,150]",left,1,,,,,,001,2025-03-10_19h19.36.389,SL_base,2021.2.3,Win32,59.88023952,1.2967,,,113,0,113,0,1,,,,,,,,
,,"[""diamond"",""green"",""vert"",""up"",[0,150],[0,-150]]",diamond,green,vert,up,"[0,150]","[0,-150]",up,1,,,,,,001,2025-03-10_19h19.36.389,SL_base,2021.2.3,Win32,59.88023952,1.3107,,,114,0,114,0,1,,,,,,,,
,,"[""diamond"",""red"",""vert"",""up"",[106,106],[-106,106]]",diamond,red,vert,up,"[106,106]","[-106,106]",up,1,,,,,,001,2025-03-10_19h19.36.389,SL_base,2021.2.3,Win32,59.88023952,1.6134,,,115,0,115,0,1,,,,,,,,
,,"[""diamond"",""red"",""vert"",""up"",[-150,0],[-106,-106]]",diamond,red,vert,up,"[-150,0]","[-106,-106]",up,1,,,,,,001,2025-03-10_19h19.36.389,SL_base,2021.2.3,Win32,59.88023952,1.996,,,116,0,116,0,1,,,,,,,,
,,"[""diamond"",""green"",""vert"",""up"",[-150,0],[-106,-106]]",diamond,green,vert,up,"[-150,0]","[-106,-106]",up,1,,,,,,001,2025-03-10_19h19.36.389,SL_base,2021.2.3,Win32,59.88023952,1.2573,,,117,0,117,0,1,,,,,,,,
,,"[""diamond"",""no_dis"",""hori"",""left"",[99999,99999],[-106,-106]]",diamond,no_dis,hori,left,"[99999,99999]","[-106,-106]",left,1,,,,,,001,2025-03-10_19h19.36.389,SL_base,2021.2.3,Win32,59.88023952,1.7669,,,118,0,118,0,1,,,,,,,,
,,"[""diamond"",""red"",""vert"",""up"",[-106,-106],[-150,0]]",diamond,red,vert,up,"[-106,-106]","[-150,0]",up,1,,,,,,001,2025-03-10_19h19.36.389,SL_base,2021.2.3,Win32,59.88023952,0.8999,,,119,0,119,0,1,,,,,,,,
,,,,,,,,,,,,,,,,001,2025-03-10_19h19.36.389,SL_base,2021.2.3,Win32,59.88023952,,,,,,,,,1,space,2.6332,0,0,0,0,1
,,"[""diamond"",""no_dis"",""vert"",""up"",[99999,99999],[0,-150]]",diamond,no_dis,vert,up,"[99999,99999]","[0,-150]",up,1,,,,,,001,2025-03-10_19h19.36.389,SL_base,2021.2.3,Win32,59.88023952,1.4835,,,0,0,0,0,1,,,,,,,,
,,"[""diamond"",""no_dis"",""vert"",""up"",[99999,99999],[-106,106]]",diamond,no_dis,vert,up,"[99999,99999]","[-106,106]",up,1,,,,,,001,2025-03-10_19h19.36.389,SL_base,2021.2.3,Win32,59.88023952,1.2832,,,1,0,1,0,1,,,,,,,,
,,"[""diamond"",""green"",""vert"",""up"",[0,150],[0,-150]]",diamond,green,vert,up,"[0,150]","[0,-150]",up,1,,,,,,001,2025-03-10_19h19.36.389,SL_base,2021.2.3,Win32,59.88023952,0.9501,,,2,0,2,0,1,,,,,,,,
,,"[""diamond"",""no_dis"",""vert"",""up"",[99999,99999],[106,106]]",diamond,no_dis,vert,up,"[99999,99999]","[106,106]",up,1,,,,,,001,2025-03-10_19h19.36.389,SL_base,2021.2.3,Win32,59.88023952,1.967,,,3,0,3,0,1,,,,,,,,
,,"[""circle"",""red"",""vert"",""up"",[0,150],[-106,106]]",circle,red,vert,up,"[0,150]","[-106,106]",up,1,,,,,,001,2025-03-10_19h19.36.389,SL_base,2021.2.3,Win32,59.88023952,1.9492,,,4,0,4,0,1,,,,,,,,
,,"[""diamond"",""red"",""hori"",""left"",[-106,106],[-150,0]]",diamond,red,hori,left,"[-106,106]","[-150,0]",left,1,,,,,,001,2025-03-10_19h19.36.389,SL_base,2021.2.3,Win32,59.88023952,2.117,,,5,0,5,0,1,,,,,,,,
,,"[""circle"",""no_dis"",""hori"",""left"",[99999,99999],[0,150]]",circle,no_dis,hori,left,"[99999,99999]","[0,150]",left,1,,,,,,001,2025-03-10_19h19.36.389,SL_base,2021.2.3,Win32,59.88023952,2.2002,,,6,0,6,0,1,,,,,,,,
,,"[""diamond"",""no_dis"",""vert"",""up"",[99999,99999],[0,-150]]",diamond,no_dis,vert,up,"[99999,99999]","[0,-150]",up,1,,,,,,001,2025-03-10_19h19.36.389,SL_base,2021.2.3,Win32,59.88023952,1.134,,,7,0,7,0,1,,,,,,,,
,,"[""diamond"",""no_dis"",""hori"",""left"",[99999,99999],[106,106]]",diamond,no_dis,hori,left,"[99999,99999]","[106,106]",left,1,,,,,,001,2025-03-10_19h19.36.389,SL_base,2021.2.3,Win32,59.88023952,1.2505,,,8,0,8,0,1,,,,,,,,
,,"[""circle"",""red"",""hori"",""left"",[150,0],[-106,-106]]",circle,red,hori,left,"[150,0]","[-106,-106]",left,1,,,,,,001,2025-03-10_19h19.36.389,SL_base,2021.2.3,Win32,59.88023952,1.7232,,,9,0,9,0,1,,,,,,,,
,,"[""circle"",""no_dis"",""hori"",""left"",[99999,99999],[150,0]]",circle,no_dis,hori,left,"[99999,99999]","[150,0]",left,1,,,,,,001,2025-03-10_19h19.36.389,SL_base,2021.2.3,Win32,59.88023952,1.4898,,,10,0,10,0,1,,,,,,,,
,,"[""diamond"",""green"",""hori"",""left"",[106,106],[-150,0]]",diamond,green,hori,left,"[106,106]","[-150,0]",left,1,,,,,,001,2025-03-10_19h19.36.389,SL_base,2021.2.3,Win32,59.88023952,1.6829,,,11,0,11,0,1,,,,,,,,
,,"[""diamond"",""no_dis"",""vert"",""up"",[99999,99999],[150,0]]",diamond,no_dis,vert,up,"[99999,99999]","[150,0]",up,1,,,,,,001,2025-03-10_19h19.36.389,SL_base,2021.2.3,Win32,59.88023952,0.9665,,,12,0,12,0,1,,,,,,,,
,,"[""circle"",""no_dis"",""hori"",""left"",[99999,99999],[-150,0]]",circle,no_dis,hori,left,"[99999,99999]","[-150,0]",left,1,,,,,,001,2025-03-10_19h19.36.389,SL_base,2021.2.3,Win32,59.88023952,1.0857,,,13,0,13,0,1,,,,,,,,
,,"[""circle"",""green"",""vert"",""up"",[150,0],[-106,106]]",circle,green,vert,up,"[150,0]","[-106,106]",up,1,,,,,,001,2025-03-10_19h19.36.389,SL_base,2021.2.3,Win32,59.88023952,1.3666,,,14,0,14,0,1,,,,,,,,
,,"[""circle"",""no_dis"",""hori"",""left"",[99999,99999],[106,-106]]",circle,no_dis,hori,left,"[99999,99999]","[106,-106]",left,1,,,,,,001,2025-03-10_19h19.36.389,SL_base,2021.2.3,Win32,59.88023952,0.9504,,,15,0,15,0,1,,,,,,,,
,,"[""circle"",""green"",""vert"",""up"",[0,-150],[106,-106]]",circle,green,vert,up,"[0,-150]","[106,-106]",up,1,,,,,,001,2025-03-10_19h19.36.389,SL_base,2021.2.3,Win32,59.88023952,2.3835,,,16,0,16,0,1,,,,,,,,
,,"[""diamond"",""red"",""vert"",""up"",[150,0],[106,-106]]",diamond,red,vert,up,"[150,0]","[106,-106]",up,1,,,,,,001,2025-03-10_19h19.36.389,SL_base,2021.2.3,Win32,59.88023952,1.4598,,,17,0,17,0,1,,,,,,,,
,,"[""circle"",""green"",""vert"",""up"",[106,106],[106,-106]]",circle,green,vert,up,"[106,106]","[106,-106]",up,1,,,,,,001,2025-03-10_19h19.36.389,SL_base,2021.2.3,Win32,59.88023952,1.0245,,,18,0,18,0,1,,,,,,,,
,,"[""diamond"",""green"",""hori"",""left"",[106,-106],[150,0]]",diamond,green,hori,left,"[106,-106]","[150,0]",left,1,,,,,,001,2025-03-10_19h19.36.389,SL_base,2021.2.3,Win32,59.88023952,1.3338,,,19,0,19,0,1,,,,,,,,
,,"[""circle"",""no_dis"",""vert"",""up"",[99999,99999],[106,-106]]",circle,no_dis,vert,up,"[99999,99999]","[106,-106]",up,1,,,,,,001,2025-03-10_19h19.36.389,SL_base,2021.2.3,Win32,59.88023952,1.1845,,,20,0,20,0,1,,,,,,,,
,,"[""diamond"",""green"",""hori"",""left"",[-106,-106],[150,0]]",diamond,green,hori,left,"[-106,-106]","[150,0]",left,1,,,,,,001,2025-03-10_19h19.36.389,SL_base,2021.2.3,Win32,59.88023952,1.2172,,,21,0,21,0,1,,,,,,,,
,,"[""circle"",""red"",""vert"",""up"",[-106,106],[0,-150]]",circle,red,vert,up,"[-106,106]","[0,-150]",up,1,,,,,,001,2025-03-10_19h19.36.389,SL_base,2021.2.3,Win32,59.88023952,1.201,,,22,0,22,0,1,,,,,,,,
,,"[""circle"",""no_dis"",""hori"",""left"",[99999,99999],[150,0]]",circle,no_dis,hori,left,"[99999,99999]","[150,0]",up,0,,,,,,001,2025-03-10_19h19.36.389,SL_base,2021.2.3,Win32,59.88023952,2.5164,,,23,0,23,0,1,,,,,,,,
,,"[""circle"",""red"",""hori"",""left"",[-150,0],[-106,106]]",circle,red,hori,left,"[-150,0]","[-106,106]",left,1,,,,,,001,2025-03-10_19h19.36.389,SL_base,2021.2.3,Win32,59.88023952,2.1006,,,24,0,24,0,1,,,,,,,,
,,"[""circle"",""no_dis"",""hori"",""left"",[99999,99999],[0,150]]",circle,no_dis,hori,left,"[99999,99999]","[0,150]",left,1,,,,,,001,2025-03-10_19h19.36.389,SL_base,2021.2.3,Win32,59.88023952,1.1848,,,25,0,25,0,1,,,,,,,,
,,"[""circle"",""green"",""vert"",""up"",[106,106],[0,150]]",circle,green,vert,up,"[106,106]","[0,150]",up,1,,,,,,001,2025-03-10_19h19.36.389,SL_base,2021.2.3,Win32,59.88023952,2.2999,,,26,0,26,0,1,,,,,,,,
,,"[""circle"",""red"",""vert"",""up"",[-106,-106],[106,-106]]",circle,red,vert,up,"[-106,-106]","[106,-106]",up,1,,,,,,001,2025-03-10_19h19.36.389,SL_base,2021.2.3,Win32,59.88023952,1.9668,,,27,0,27,0,1,,,,,,,,
,,"[""diamond"",""red"",""hori"",""left"",[150,0],[106,106]]",diamond,red,hori,left,"[150,0]","[106,106]",left,1,,,,,,001,2025-03-10_19h19.36.389,SL_base,2021.2.3,Win32,59.88023952,1.1667,,,28,0,28,0,1,,,,,,,,
,,"[""diamond"",""green"",""vert"",""up"",[-106,-106],[106,-106]]",diamond,green,vert,up,"[-106,-106]","[106,-106]",up,1,,,,,,001,2025-03-10_19h19.36.389,SL_base,2021.2.3,Win32,59.88023952,1.2617,,,29,0,29,0,1,,,,,,,,
,,"[""circle"",""green"",""vert"",""up"",[-150,0],[-106,106]]",circle,green,vert,up,"[-150,0]","[-106,106]",up,1,,,,,,001,2025-03-10_19h19.36.389,SL_base,2021.2.3,Win32,59.88023952,1.4508,,,30,0,30,0,1,,,,,,,,
,,"[""diamond"",""green"",""vert"",""up"",[0,150],[106,-106]]",diamond,green,vert,up,"[0,150]","[106,-106]",up,1,,,,,,001,2025-03-10_19h19.36.389,SL_base,2021.2.3,Win32,59.88023952,1.1666,,,31,0,31,0,1,,,,,,,,
,,"[""circle"",""red"",""vert"",""up"",[150,0],[106,-106]]",circle,red,vert,up,"[150,0]","[106,-106]",up,1,,,,,,001,2025-03-10_19h19.36.389,SL_base,2021.2.3,Win32,59.88023952,1.1833,,,32,0,32,0,1,,,,,,,,
,,"[""circle"",""no_dis"",""vert"",""up"",[99999,99999],[-150,0]]",circle,no_dis,vert,up,"[99999,99999]","[-150,0]",up,1,,,,,,001,2025-03-10_19h19.36.389,SL_base,2021.2.3,Win32,59.88023952,1.5676,,,33,0,33,0,1,,,,,,,,
,,"[""circle"",""red"",""vert"",""up"",[150,0],[106,-106]]",circle,red,vert,up,"[150,0]","[106,-106]",up,1,,,,,,001,2025-03-10_19h19.36.389,SL_base,2021.2.3,Win32,59.88023952,1.567,,,34,0,34,0,1,,,,,,,,
,,"[""diamond"",""red"",""hori"",""left"",[106,106],[-150,0]]",diamond,red,hori,left,"[106,106]","[-150,0]",left,1,,,,,,001,2025-03-10_19h19.36.389,SL_base,2021.2.3,Win32,59.88023952,1.151,,,35,0,35,0,1,,,,,,,,
,,"[""diamond"",""no_dis"",""vert"",""up"",[99999,99999],[-106,-106]]",diamond,no_dis,vert,up,"[99999,99999]","[-106,-106]",up,1,,,,,,001,2025-03-10_19h19.36.389,SL_base,2021.2.3,Win32,59.88023952,1.4499,,,36,0,36,0,1,,,,,,,,
,,"[""diamond"",""green"",""vert"",""up"",[106,-106],[-150,0]]",diamond,green,vert,up,"[106,-106]","[-150,0]",up,1,,,,,,001,2025-03-10_19h19.36.389,SL_base,2021.2.3,Win32,59.88023952,1.0214,,,37,0,37,0,1,,,,,,,,
,,"[""diamond"",""no_dis"",""hori"",""left"",[99999,99999],[106,-106]]",diamond,no_dis,hori,left,"[99999,99999]","[106,-106]",up,0,,,,,,001,2025-03-10_19h19.36.389,SL_base,2021.2.3,Win32,59.88023952,0.7837,,,38,0,38,0,1,,,,,,,,
,,"[""circle"",""green"",""vert"",""up"",[-150,0],[150,0]]",circle,green,vert,up,"[-150,0]","[150,0]",up,1,,,,,,001,2025-03-10_19h19.36.389,SL_base,2021.2.3,Win32,59.88023952,1.3673,,,39,0,39,0,1,,,,,,,,
,,"[""diamond"",""no_dis"",""vert"",""up"",[99999,99999],[0,150]]",diamond,no_dis,vert,up,"[99999,99999]","[0,150]",up,1,,,,,,001,2025-03-10_19h19.36.389,SL_base,2021.2.3,Win32,59.88023952,1.5009,,,40,0,40,0,1,,,,,,,,
,,"[""circle"",""no_dis"",""hori"",""left"",[99999,99999],[106,106]]",circle,no_dis,hori,left,"[99999,99999]","[106,106]",left,1,,,,,,001,2025-03-10_19h19.36.389,SL_base,2021.2.3,Win32,59.88023952,1,,,41,0,41,0,1,,,,,,,,
,,"[""diamond"",""green"",""hori"",""left"",[150,0],[106,-106]]",diamond,green,hori,left,"[150,0]","[106,-106]",left,1,,,,,,001,2025-03-10_19h19.36.389,SL_base,2021.2.3,Win32,59.88023952,1.2878,,,42,0,42,0,1,,,,,,,,
,,"[""diamond"",""red"",""hori"",""left"",[-106,106],[106,106]]",diamond,red,hori,left,"[-106,106]","[106,106]",left,1,,,,,,001,2025-03-10_19h19.36.389,SL_base,2021.2.3,Win32,59.88023952,1.7339,,,43,0,43,0,1,,,,,,,,
,,"[""circle"",""red"",""vert"",""up"",[106,106],[-106,-106]]",circle,red,vert,up,"[106,106]","[-106,-106]",up,1,,,,,,001,2025-03-10_19h19.36.389,SL_base,2021.2.3,Win32,59.88023952,1.9573,,,44,0,44,0,1,,,,,,,,
,,"[""diamond"",""red"",""hori"",""left"",[0,-150],[0,150]]",diamond,red,hori,left,"[0,-150]","[0,150]",left,1,,,,,,001,2025-03-10_19h19.36.389,SL_base,2021.2.3,Win32,59.88023952,1.1836,,,45,0,45,0,1,,,,,,,,
,,"[""diamond"",""no_dis"",""vert"",""up"",[99999,99999],[-106,106]]",diamond,no_dis,vert,up,"[99999,99999]","[-106,106]",up,1,,,,,,001,2025-03-10_19h19.36.389,SL_base,2021.2.3,Win32,59.88023952,0.9943,,,46,0,46,0,1,,,,,,,,
,,"[""circle"",""green"",""hori"",""left"",[0,-150],[-106,-106]]",circle,green,hori,left,"[0,-150]","[-106,-106]",left,1,,,,,,001,2025-03-10_19h19.36.389,SL_base,2021.2.3,Win32,59.88023952,1.1684,,,47,0,47,0,1,,,,,,,,
,,"[""diamond"",""red"",""hori"",""left"",[-106,-106],[-150,0]]",diamond,red,hori,left,"[-106,-106]","[-150,0]",left,1,,,,,,001,2025-03-10_19h19.36.389,SL_base,2021.2.3,Win32,59.88023952,2.2661,,,48,0,48,0,1,,,,,,,,
,,"[""circle"",""red"",""hori"",""left"",[150,0],[-150,0]]",circle,red,hori,left,"[150,0]","[-150,0]",left,1,,,,,,001,2025-03-10_19h19.36.389,SL_base,2021.2.3,Win32,59.88023952,1.634,,,49,0,49,0,1,,,,,,,,
,,"[""diamond"",""no_dis"",""vert"",""up"",[99999,99999],[-106,-106]]",diamond,no_dis,vert,up,"[99999,99999]","[-106,-106]",up,1,,,,,,001,2025-03-10_19h19.36.389,SL_base,2021.2.3,Win32,59.88023952,2.0333,,,50,0,50,0,1,,,,,,,,
,,"[""circle"",""red"",""vert"",""up"",[106,106],[0,-150]]",circle,red,vert,up,"[106,106]","[0,-150]",up,1,,,,,,001,2025-03-10_19h19.36.389,SL_base,2021.2.3,Win32,59.88023952,1.1787,,,51,0,51,0,1,,,,,,,,
,,"[""circle"",""no_dis"",""vert"",""up"",[99999,99999],[106,106]]",circle,no_dis,vert,up,"[99999,99999]","[106,106]",up,1,,,,,,001,2025-03-10_19h19.36.389,SL_base,2021.2.3,Win32,59.88023952,1.3382,,,52,0,52,0,1,,,,,,,,
,,"[""diamond"",""no_dis"",""hori"",""left"",[99999,99999],[0,150]]",diamond,no_dis,hori,left,"[99999,99999]","[0,150]",left,1,,,,,,001,2025-03-10_19h19.36.389,SL_base,2021.2.3,Win32,59.88023952,1.5832,,,53,0,53,0,1,,,,,,,,
,,"[""circle"",""no_dis"",""vert"",""up"",[99999,99999],[-106,-106]]",circle,no_dis,vert,up,"[99999,99999]","[-106,-106]",up,1,,,,,,001,2025-03-10_19h19.36.389,SL_base,2021.2.3,Win32,59.88023952,1.967,,,54,0,54,0,1,,,,,,,,
,,"[""diamond"",""red"",""vert"",""up"",[106,106],[-106,106]]",diamond,red,vert,up,"[106,106]","[-106,106]",up,1,,,,,,001,2025-03-10_19h19.36.389,SL_base,2021.2.3,Win32,59.88023952,1.9046,,,55,0,55,0,1,,,,,,,,
,,"[""circle"",""red"",""hori"",""left"",[150,0],[106,106]]",circle,red,hori,left,"[150,0]","[106,106]",left,1,,,,,,001,2025-03-10_19h19.36.389,SL_base,2021.2.3,Win32,59.88023952,2.0098,,,56,0,56,0,1,,,,,,,,
,,"[""circle"",""green"",""hori"",""left"",[150,0],[-150,0]]",circle,green,hori,left,"[150,0]","[-150,0]",left,1,,,,,,001,2025-03-10_19h19.36.389,SL_base,2021.2.3,Win32,59.88023952,1.3504,,,57,0,57,0,1,,,,,,,,
,,"[""circle"",""green"",""hori"",""left"",[-106,-106],[-150,0]]",circle,green,hori,left,"[-106,-106]","[-150,0]",left,1,,,,,,001,2025-03-10_19h19.36.389,SL_base,2021.2.3,Win32,59.88023952,1.0505,,,58,0,58,0,1,,,,,,,,
,,"[""circle"",""red"",""hori"",""left"",[150,0],[-106,-106]]",circle,red,hori,left,"[150,0]","[-106,-106]",left,1,,,,,,001,2025-03-10_19h19.36.389,SL_base,2021.2.3,Win32,59.88023952,1.2328,,,59,0,59,0,1,,,,,,,,
,,"[""diamond"",""green"",""vert"",""up"",[0,150],[-106,106]]",diamond,green,vert,up,"[0,150]","[-106,106]",up,1,,,,,,001,2025-03-10_19h19.36.389,SL_base,2021.2.3,Win32,59.88023952,2.7994,,,60,0,60,0,1,,,,,,,,
,,"[""circle"",""no_dis"",""vert"",""up"",[99999,99999],[-150,0]]",circle,no_dis,vert,up,"[99999,99999]","[-150,0]",up,1,,,,,,001,2025-03-10_19h19.36.389,SL_base,2021.2.3,Win32,59.88023952,1.4167,,,61,0,61,0,1,,,,,,,,
,,"[""diamond"",""green"",""vert"",""up"",[150,0],[-150,0]]",diamond,green,vert,up,"[150,0]","[-150,0]",up,1,,,,,,001,2025-03-10_19h19.36.389,SL_base,2021.2.3,Win32,59.88023952,1.6405,,,62,0,62,0,1,,,,,,,,
,,"[""circle"",""green"",""hori"",""left"",[150,0],[106,106]]",circle,green,hori,left,"[150,0]","[106,106]",left,1,,,,,,001,2025-03-10_19h19.36.389,SL_base,2021.2.3,Win32,59.88023952,1.6179,,,63,0,63,0,1,,,,,,,,
,,"[""circle"",""green"",""hori"",""left"",[106,-106],[0,150]]",circle,green,hori,left,"[106,-106]","[0,150]",left,1,,,,,,001,2025-03-10_19h19.36.389,SL_base,2021.2.3,Win32,59.88023952,1.1116,,,64,0,64,0,1,,,,,,,,
,,"[""circle"",""red"",""hori"",""left"",[150,0],[106,106]]",circle,red,hori,left,"[150,0]","[106,106]",left,1,,,,,,001,2025-03-10_19h19.36.389,SL_base,2021.2.3,Win32,59.88023952,0.9508,,,65,0,65,0,1,,,,,,,,
,,"[""diamond"",""red"",""vert"",""up"",[150,0],[106,106]]",diamond,red,vert,up,"[150,0]","[106,106]",up,1,,,,,,001,2025-03-10_19h19.36.389,SL_base,2021.2.3,Win32,59.88023952,1.9493,,,66,0,66,0,1,,,,,,,,
,,"[""circle"",""no_dis"",""hori"",""left"",[99999,99999],[-150,0]]",circle,no_dis,hori,left,"[99999,99999]","[-150,0]",left,1,,,,,,001,2025-03-10_19h19.36.389,SL_base,2021.2.3,Win32,59.88023952,1.163,,,67,0,67,0,1,,,,,,,,
,,"[""diamond"",""no_dis"",""hori"",""left"",[99999,99999],[-106,106]]",diamond,no_dis,hori,left,"[99999,99999]","[-106,106]",left,1,,,,,,001,2025-03-10_19h19.36.389,SL_base,2021.2.3,Win32,59.88023952,1.1778,,,68,0,68,0,1,,,,,,,,
,,"[""circle"",""red"",""vert"",""up"",[0,-150],[106,106]]",circle,red,vert,up,"[0,-150]","[106,106]",up,1,,,,,,001,2025-03-10_19h19.36.389,SL_base,2021.2.3,Win32,59.88023952,1.4597,,,69,0,69,0,1,,,,,,,,
,,"[""diamond"",""no_dis"",""hori"",""left"",[99999,99999],[0,-150]]",diamond,no_dis,hori,left,"[99999,99999]","[0,-150]",left,1,,,,,,001,2025-03-10_19h19.36.389,SL_base,2021.2.3,Win32,59.88023952,1.3077,,,70,0,70,0,1,,,,,,,,
,,"[""diamond"",""red"",""vert"",""up"",[0,150],[106,-106]]",diamond,red,vert,up,"[0,150]","[106,-106]",up,1,,,,,,001,2025-03-10_19h19.36.389,SL_base,2021.2.3,Win32,59.88023952,1.0169,,,71,0,71,0,1,,,,,,,,
,,"[""circle"",""red"",""hori"",""left"",[150,0],[-106,-106]]",circle,red,hori,left,"[150,0]","[-106,-106]",left,1,,,,,,001,2025-03-10_19h19.36.389,SL_base,2021.2.3,Win32,59.88023952,1.1513,,,72,0,72,0,1,,,,,,,,
,,"[""circle"",""no_dis"",""hori"",""left"",[99999,99999],[106,106]]",circle,no_dis,hori,left,"[99999,99999]","[106,106]",up,0,,,,,,001,2025-03-10_19h19.36.389,SL_base,2021.2.3,Win32,59.88023952,0.9331,,,73,0,73,0,1,,,,,,,,
,,"[""diamond"",""red"",""hori"",""left"",[-150,0],[-106,106]]",diamond,red,hori,left,"[-150,0]","[-106,106]",left,1,,,,,,001,2025-03-10_19h19.36.389,SL_base,2021.2.3,Win32,59.88023952,1.7673,,,74,0,74,0,1,,,,,,,,
,,"[""circle"",""green"",""hori"",""left"",[150,0],[106,106]]",circle,green,hori,left,"[150,0]","[106,106]",left,1,,,,,,001,2025-03-10_19h19.36.389,SL_base,2021.2.3,Win32,59.88023952,1.5832,,,75,0,75,0,1,,,,,,,,
,,"[""diamond"",""red"",""hori"",""left"",[-150,0],[106,106]]",diamond,red,hori,left,"[-150,0]","[106,106]",left,1,,,,,,001,2025-03-10_19h19.36.389,SL_base,2021.2.3,Win32,59.88023952,1.6373,,,76,0,76,0,1,,,,,,,,
,,"[""diamond"",""red"",""vert"",""up"",[150,0],[0,-150]]",diamond,red,vert,up,"[150,0]","[0,-150]",up,1,,,,,,001,2025-03-10_19h19.36.389,SL_base,2021.2.3,Win32,59.88023952,1.4675,,,77,0,77,0,1,,,,,,,,
,,"[""circle"",""green"",""vert"",""up"",[0,150],[-106,106]]",circle,green,vert,up,"[0,150]","[-106,106]",up,1,,,,,,001,2025-03-10_19h19.36.389,SL_base,2021.2.3,Win32,59.88023952,2.0879,,,78,0,78,0,1,,,,,,,,
,,"[""diamond"",""red"",""vert"",""up"",[150,0],[-106,106]]",diamond,red,vert,up,"[150,0]","[-106,106]",up,1,,,,,,001,2025-03-10_19h19.36.389,SL_base,2021.2.3,Win32,59.88023952,1.2669,,,79,0,79,0,1,,,,,,,,
,,"[""diamond"",""green"",""hori"",""left"",[0,-150],[-106,-106]]",diamond,green,hori,left,"[0,-150]","[-106,-106]",left,1,,,,,,001,2025-03-10_19h19.36.389,SL_base,2021.2.3,Win32,59.88023952,1.5669,,,80,0,80,0,1,,,,,,,,
,,"[""diamond"",""no_dis"",""hori"",""left"",[99999,99999],[-106,106]]",diamond,no_dis,hori,left,"[99999,99999]","[-106,106]",left,1,,,,,,001,2025-03-10_19h19.36.389,SL_base,2021.2.3,Win32,59.88023952,0.9667,,,81,0,81,0,1,,,,,,,,
,,"[""diamond"",""green"",""hori"",""left"",[150,0],[0,150]]",diamond,green,hori,left,"[150,0]","[0,150]",left,1,,,,,,001,2025-03-10_19h19.36.389,SL_base,2021.2.3,Win32,59.88023952,1.1168,,,82,0,82,0,1,,,,,,,,
,,"[""circle"",""no_dis"",""vert"",""up"",[99999,99999],[106,-106]]",circle,no_dis,vert,up,"[99999,99999]","[106,-106]",up,1,,,,,,001,2025-03-10_19h19.36.389,SL_base,2021.2.3,Win32,59.88023952,0.9665,,,83,0,83,0,1,,,,,,,,
,,"[""circle"",""no_dis"",""hori"",""left"",[99999,99999],[0,-150]]",circle,no_dis,hori,left,"[99999,99999]","[0,-150]",left,1,,,,,,001,2025-03-10_19h19.36.389,SL_base,2021.2.3,Win32,59.88023952,1.0673,,,84,0,84,0,1,,,,,,,,
,,"[""circle"",""green"",""vert"",""up"",[150,0],[0,150]]",circle,green,vert,up,"[150,0]","[0,150]",up,1,,,,,,001,2025-03-10_19h19.36.389,SL_base,2021.2.3,Win32,59.88023952,1.0883,,,85,0,85,0,1,,,,,,,,
,,"[""circle"",""green"",""hori"",""left"",[106,-106],[106,106]]",circle,green,hori,left,"[106,-106]","[106,106]",left,1,,,,,,001,2025-03-10_19h19.36.389,SL_base,2021.2.3,Win32,59.88023952,0.8775,,,86,0,86,0,1,,,,,,,,
,,"[""diamond"",""red"",""vert"",""up"",[-150,0],[-106,-106]]",diamond,red,vert,up,"[-150,0]","[-106,-106]",up,1,,,,,,001,2025-03-10_19h19.36.389,SL_base,2021.2.3,Win32,59.88023952,1.4336,,,87,0,87,0,1,,,,,,,,
,,"[""diamond"",""green"",""hori"",""left"",[0,-150],[-150,0]]",diamond,green,hori,left,"[0,-150]","[-150,0]",left,1,,,,,,001,2025-03-10_19h19.36.389,SL_base,2021.2.3,Win32,59.88023952,1.6003,,,88,0,88,0,1,,,,,,,,
,,"[""diamond"",""green"",""hori"",""left"",[-150,0],[106,-106]]",diamond,green,hori,left,"[-150,0]","[106,-106]",left,1,,,,,,001,2025-03-10_19h19.36.389,SL_base,2021.2.3,Win32,59.88023952,1.1232,,,89,0,89,0,1,,,,,,,,
,,"[""circle"",""green"",""hori"",""left"",[-106,106],[-106,-106]]",circle,green,hori,left,"[-106,106]","[-106,-106]",left,1,,,,,,001,2025-03-10_19h19.36.389,SL_base,2021.2.3,Win32,59.88023952,1.2676,,,90,0,90,0,1,,,,,,,,
,,"[""diamond"",""red"",""vert"",""up"",[-106,106],[-150,0]]",diamond,red,vert,up,"[-106,106]","[-150,0]",up,1,,,,,,001,2025-03-10_19h19.36.389,SL_base,2021.2.3,Win32,59.88023952,1.6036,,,91,0,91,0,1,,,,,,,,
,,"[""diamond"",""no_dis"",""hori"",""left"",[99999,99999],[106,-106]]",diamond,no_dis,hori,left,"[99999,99999]","[106,-106]",up,0,,,,,,001,2025-03-10_19h19.36.389,SL_base,2021.2.3,Win32,59.88023952,1.2504,,,92,0,92,0,1,,,,,,,,
,,"[""circle"",""no_dis"",""vert"",""up"",[99999,99999],[0,150]]",circle,no_dis,vert,up,"[99999,99999]","[0,150]",up,1,,,,,,001,2025-03-10_19h19.36.389,SL_base,2021.2.3,Win32,59.88023952,2.0334,,,93,0,93,0,1,,,,,,,,
,,"[""circle"",""red"",""hori"",""left"",[150,0],[0,150]]",circle,red,hori,left,"[150,0]","[0,150]",left,1,,,,,,001,2025-03-10_19h19.36.389,SL_base,2021.2.3,Win32,59.88023952,2.1003,,,94,0,94,0,1,,,,,,,,
,,"[""circle"",""green"",""vert"",""up"",[-106,-106],[106,106]]",circle,green,vert,up,"[-106,-106]","[106,106]",up,1,,,,,,001,2025-03-10_19h19.36.389,SL_base,2021.2.3,Win32,59.88023952,1.9171,,,95,0,95,0,1,,,,,,,,
,,"[""diamond"",""green"",""vert"",""up"",[-106,-106],[150,0]]",diamond,green,vert,up,"[-106,-106]","[150,0]",up,1,,,,,,001,2025-03-10_19h19.36.389,SL_base,2021.2.3,Win32,59.88023952,1.1339,,,96,0,96,0,1,,,,,,,,
,,"[""diamond"",""green"",""vert"",""up"",[0,150],[-150,0]]",diamond,green,vert,up,"[0,150]","[-150,0]",up,1,,,,,,001,2025-03-10_19h19.36.389,SL_base,2021.2.3,Win32,59.88023952,1.2379,,,97,0,97,0,1,,,,,,,,
,,"[""circle"",""green"",""vert"",""up"",[106,-106],[-106,106]]",circle,green,vert,up,"[106,-106]","[-106,106]",up,1,,,,,,001,2025-03-10_19h19.36.389,SL_base,2021.2.3,Win32,59.88023952,2.3168,,,98,0,98,0,1,,,,,,,,
,,"[""diamond"",""no_dis"",""vert"",""up"",[99999,99999],[-150,0]]",diamond,no_dis,vert,up,"[99999,99999]","[-150,0]",up,1,,,,,,001,2025-03-10_19h19.36.389,SL_base,2021.2.3,Win32,59.88023952,1.8167,,,99,0,99,0,1,,,,,,,,
,,"[""circle"",""no_dis"",""vert"",""up"",[99999,99999],[-106,-106]]",circle,no_dis,vert,up,"[99999,99999]","[-106,-106]",up,1,,,,,,001,2025-03-10_19h19.36.389,SL_base,2021.2.3,Win32,59.88023952,2.0173,,,100,0,100,0,1,,,,,,,,
,,"[""diamond"",""red"",""vert"",""up"",[-106,-106],[-150,0]]",diamond,red,vert,up,"[-106,-106]","[-150,0]",up,1,,,,,,001,2025-03-10_19h19.36.389,SL_base,2021.2.3,Win32,59.88023952,1.3663,,,101,0,101,0,1,,,,,,,,
,,"[""diamond"",""no_dis"",""hori"",""left"",[99999,99999],[-106,-106]]",diamond,no_dis,hori,left,"[99999,99999]","[-106,-106]",left,1,,,,,,001,2025-03-10_19h19.36.389,SL_base,2021.2.3,Win32,59.88023952,1.2838,,,102,0,102,0,1,,,,,,,,
,,"[""circle"",""green"",""hori"",""left"",[0,-150],[-150,0]]",circle,green,hori,left,"[0,-150]","[-150,0]",left,1,,,,,,001,2025-03-10_19h19.36.389,SL_base,2021.2.3,Win32,59.88023952,1.1057,,,103,0,103,0,1,,,,,,,,
,,"[""circle"",""red"",""hori"",""left"",[106,-106],[-106,106]]",circle,red,hori,left,"[106,-106]","[-106,106]",left,1,,,,,,001,2025-03-10_19h19.36.389,SL_base,2021.2.3,Win32,59.88023952,2.3835,,,104,0,104,0,1,,,,,,,,
,,"[""circle"",""no_dis"",""vert"",""up"",[99999,99999],[0,-150]]",circle,no_dis,vert,up,"[99999,99999]","[0,-150]",up,1,,,,,,001,2025-03-10_19h19.36.389,SL_base,2021.2.3,Win32,59.88023952,0.9839,,,105,0,105,0,1,,,,,,,,
,,"[""circle"",""green"",""hori"",""left"",[150,0],[0,-150]]",circle,green,hori,left,"[150,0]","[0,-150]",up,0,,,,,,001,2025-03-10_19h19.36.389,SL_base,2021.2.3,Win32,59.88023952,1.117,,,106,0,106,0,1,,,,,,,,
,,"[""diamond"",""no_dis"",""hori"",""left"",[99999,99999],[-106,106]]",diamond,no_dis,hori,left,"[99999,99999]","[-106,106]",left,1,,,,,,001,2025-03-10_19h19.36.389,SL_base,2021.2.3,Win32,59.88023952,2.1988,,,107,0,107,0,1,,,,,,,,
,,"[""diamond"",""red"",""vert"",""up"",[0,-150],[-106,106]]",diamond,red,vert,up,"[0,-150]","[-106,106]",up,1,,,,,,001,2025-03-10_19h19.36.389,SL_base,2021.2.3,Win32,59.88023952,1.1604,,,108,0,108,0,1,,,,,,,,
,,"[""diamond"",""red"",""hori"",""left"",[-106,106],[-150,0]]",diamond,red,hori,left,"[-106,106]","[-150,0]",left,1,,,,,,001,2025-03-10_19h19.36.389,SL_base,2021.2.3,Win32,59.88023952,1.559,,,109,0,109,0,1,,,,,,,,
,,"[""diamond"",""no_dis"",""hori"",""left"",[99999,99999],[150,0]]",diamond,no_dis,hori,left,"[99999,99999]","[150,0]",left,1,,,,,,001,2025-03-10_19h19.36.389,SL_base,2021.2.3,Win32,59.88023952,1.0287,,,110,0,110,0,1,,,,,,,,
,,"[""diamond"",""red"",""hori"",""left"",[-106,106],[150,0]]",diamond,red,hori,left,"[-106,106]","[150,0]",left,1,,,,,,001,2025-03-10_19h19.36.389,SL_base,2021.2.3,Win32,59.88023952,1.5156,,,111,0,111,0,1,,,,,,,,
,,"[""circle"",""red"",""vert"",""up"",[150,0],[106,106]]",circle,red,vert,up,"[150,0]","[106,106]",left,0,,,,,,001,2025-03-10_19h19.36.389,SL_base,2021.2.3,Win32,59.88023952,0.9887,,,112,0,112,0,1,,,,,,,,
,,"[""diamond"",""green"",""hori"",""left"",[106,-106],[150,0]]",diamond,green,hori,left,"[106,-106]","[150,0]",,0,,,,,,001,2025-03-10_19h19.36.389,SL_base,2021.2.3,Win32,59.88023952,,,,113,0,113,0,1,,,,,,,,
,,"[""circle"",""red"",""hori"",""left"",[106,-106],[0,-150]]",circle,red,hori,left,"[106,-106]","[0,-150]",left,1,,,,,,001,2025-03-10_19h19.36.389,SL_base,2021.2.3,Win32,59.88023952,1.3524,,,114,0,114,0,1,,,,,,,,
,,"[""circle"",""red"",""vert"",""up"",[-106,106],[150,0]]",circle,red,vert,up,"[-106,106]","[150,0]",up,1,,,,,,001,2025-03-10_19h19.36.389,SL_base,2021.2.3,Win32,59.88023952,2.0867,,,115,0,115,0,1,,,,,,,,
,,"[""diamond"",""green"",""vert"",""up"",[-150,0],[-106,-106]]",diamond,green,vert,up,"[-150,0]","[-106,-106]",up,1,,,,,,001,2025-03-10_19h19.36.389,SL_base,2021.2.3,Win32,59.88023952,2.2098,,,116,0,116,0,1,,,,,,,,
,,"[""diamond"",""green"",""vert"",""up"",[0,150],[106,-106]]",diamond,green,vert,up,"[0,150]","[106,-106]",up,1,,,,,,001,2025-03-10_19h19.36.389,SL_base,2021.2.3,Win32,59.88023952,1.2609,,,117,0,117,0,1,,,,,,,,
,,"[""diamond"",""green"",""hori"",""left"",[106,106],[0,150]]",diamond,green,hori,left,"[106,106]","[0,150]",left,1,,,,,,001,2025-03-10_19h19.36.389,SL_base,2021.2.3,Win32,59.88023952,2.0305,,,118,0,118,0,1,,,,,,,,
,,"[""circle"",""no_dis"",""vert"",""up"",[99999,99999],[150,0]]",circle,no_dis,vert,up,"[99999,99999]","[150,0]",up,1,,,,,,001,2025-03-10_19h19.36.389,SL_base,2021.2.3,Win32,59.88023952,1.2865,,,119,0,119,0,1,,,,,,,,
,,,,,,,,,,,,,,,,001,2025-03-10_19h19.36.389,SL_base,2021.2.3,Win32,59.88023952,,,,,,,,,2,space,136.6269,1,0,1,0,1
,,"[""diamond"",""red"",""vert"",""up"",[-106,-106],[-150,0]]",diamond,red,vert,up,"[-106,-106]","[-150,0]",up,1,,,,,,001,2025-03-10_19h19.36.389,SL_base,2021.2.3,Win32,59.88023952,2.2814,,,0,0,0,0,1,,,,,,,,
,,"[""diamond"",""no_dis"",""hori"",""left"",[99999,99999],[-106,106]]",diamond,no_dis,hori,left,"[99999,99999]","[-106,106]",left,1,,,,,,001,2025-03-10_19h19.36.389,SL_base,2021.2.3,Win32,59.88023952,2.269,,,1,0,1,0,1,,,,,,,,
,,"[""diamond"",""red"",""hori"",""left"",[-106,106],[150,0]]",diamond,red,hori,left,"[-106,106]","[150,0]",left,1,,,,,,001,2025-03-10_19h19.36.389,SL_base,2021.2.3,Win32,59.88023952,0.9875,,,2,0,2,0,1,,,,,,,,
,,"[""circle"",""green"",""vert"",""up"",[-150,0],[-106,106]]",circle,green,vert,up,"[-150,0]","[-106,106]",left,0,,,,,,001,2025-03-10_19h19.36.389,SL_base,2021.2.3,Win32,59.88023952,2.2184,,,3,0,3,0,1,,,,,,,,
,,"[""diamond"",""no_dis"",""vert"",""up"",[99999,99999],[-106,-106]]",diamond,no_dis,vert,up,"[99999,99999]","[-106,-106]",up,1,,,,,,001,2025-03-10_19h19.36.389,SL_base,2021.2.3,Win32,59.88023952,1.2658,,,4,0,4,0,1,,,,,,,,
,,"[""circle"",""green"",""hori"",""left"",[0,-150],[-106,-106]]",circle,green,hori,left,"[0,-150]","[-106,-106]",left,1,,,,,,001,2025-03-10_19h19.36.389,SL_base,2021.2.3,Win32,59.88023952,1.3828,,,5,0,5,0,1,,,,,,,,
,,"[""diamond"",""green"",""vert"",""up"",[0,150],[-106,106]]",diamond,green,vert,up,"[0,150]","[-106,106]",up,1,,,,,,001,2025-03-10_19h19.36.389,SL_base,2021.2.3,Win32,59.88023952,1.9976,,,6,0,6,0,1,,,,,,,,
,,"[""circle"",""green"",""hori"",""left"",[-106,-106],[-150,0]]",circle,green,hori,left,"[-106,-106]","[-150,0]",left,1,,,,,,001,2025-03-10_19h19.36.389,SL_base,2021.2.3,Win32,59.88023952,2.4122,,,7,0,7,0,1,,,,,,,,
,,"[""diamond"",""no_dis"",""hori"",""left"",[99999,99999],[106,106]]",diamond,no_dis,hori,left,"[99999,99999]","[106,106]",left,1,,,,,,001,2025-03-10_19h19.36.389,SL_base,2021.2.3,Win32,59.88023952,2.2381,,,8,0,8,0,1,,,,,,,,
,,"[""circle"",""no_dis"",""vert"",""up"",[99999,99999],[0,-150]]",circle,no_dis,vert,up,"[99999,99999]","[0,-150]",up,1,,,,,,001,2025-03-10_19h19.36.389,SL_base,2021.2.3,Win32,59.88023952,2.0468,,,9,0,9,0,1,,,,,,,,
,,"[""circle"",""no_dis"",""vert"",""up"",[99999,99999],[106,-106]]",circle,no_dis,vert,up,"[99999,99999]","[106,-106]",up,1,,,,,,001,2025-03-10_19h19.36.389,SL_base,2021.2.3,Win32,59.88023952,1.9384,,,10,0,10,0,1,,,,,,,,
,,"[""circle"",""green"",""vert"",""up"",[0,150],[-106,106]]",circle,green,vert,up,"[0,150]","[-106,106]",up,1,,,,,,001,2025-03-10_19h19.36.389,SL_base,2021.2.3,Win32,59.88023952,1.6826,,,11,0,11,0,1,,,,,,,,
,,"[""circle"",""green"",""hori"",""left"",[150,0],[0,-150]]",circle,green,hori,left,"[150,0]","[0,-150]",left,1,,,,,,001,2025-03-10_19h19.36.389,SL_base,2021.2.3,Win32,59.88023952,0.9566,,,12,0,12,0,1,,,,,,,,
,,"[""circle"",""red"",""vert"",""up"",[-106,-106],[106,-106]]",circle,red,vert,up,"[-106,-106]","[106,-106]",up,1,,,,,,001,2025-03-10_19h19.36.389,SL_base,2021.2.3,Win32,59.88023952,0.9983,,,13,0,13,0,1,,,,,,,,
,,"[""circle"",""red"",""vert"",""up"",[0,150],[-106,106]]",circle,red,vert,up,"[0,150]","[-106,106]",up,1,,,,,,001,2025-03-10_19h19.36.389,SL_base,2021.2.3,Win32,59.88023952,0.749,,,14,0,14,0,1,,,,,,,,
,,"[""circle"",""no_dis"",""vert"",""up"",[99999,99999],[106,-106]]",circle,no_dis,vert,up,"[99999,99999]","[106,-106]",up,1,,,,,,001,2025-03-10_19h19.36.389,SL_base,2021.2.3,Win32,59.88023952,0.7992,,,15,0,15,0,1,,,,,,,,
,,"[""diamond"",""no_dis"",""hori"",""left"",[99999,99999],[-106,-106]]",diamond,no_dis,hori,left,"[99999,99999]","[-106,-106]",left,1,,,,,,001,2025-03-10_19h19.36.389,SL_base,2021.2.3,Win32,59.88023952,1.5503,,,16,0,16,0,1,,,,,,,,
,,"[""circle"",""red"",""vert"",""up"",[150,0],[106,-106]]",circle,red,vert,up,"[150,0]","[106,-106]",up,1,,,,,,001,2025-03-10_19h19.36.389,SL_base,2021.2.3,Win32,59.88023952,1.4564,,,17,0,17,0,1,,,,,,,,
,,"[""diamond"",""red"",""hori"",""left"",[-106,-106],[-150,0]]",diamond,red,hori,left,"[-106,-106]","[-150,0]",left,1,,,,,,001,2025-03-10_19h19.36.389,SL_base,2021.2.3,Win32,59.88023952,1.7164,,,18,0,18,0,1,,,,,,,,
,,"[""diamond"",""green"",""vert"",""up"",[0,150],[106,-106]]",diamond,green,vert,up,"[0,150]","[106,-106]",up,1,,,,,,001,2025-03-10_19h19.36.389,SL_base,2021.2.3,Win32,59.88023952,1.0338,,,19,0,19,0,1,,,,,,,,
,,"[""diamond"",""no_dis"",""vert"",""up"",[99999,99999],[-106,-106]]",diamond,no_dis,vert,up,"[99999,99999]","[-106,-106]",up,1,,,,,,001,2025-03-10_19h19.36.389,SL_base,2021.2.3,Win32,59.88023952,1.3663,,,20,0,20,0,1,,,,,,,,
,,"[""diamond"",""red"",""hori"",""left"",[-150,0],[-106,106]]",diamond,red,hori,left,"[-150,0]","[-106,106]",left,1,,,,,,001,2025-03-10_19h19.36.389,SL_base,2021.2.3,Win32,59.88023952,1.6107,,,21,0,21,0,1,,,,,,,,
,,"[""circle"",""red"",""hori"",""left"",[106,-106],[-106,106]]",circle,red,hori,left,"[106,-106]","[-106,106]",left,1,,,,,,001,2025-03-10_19h19.36.389,SL_base,2021.2.3,Win32,59.88023952,1.5507,,,22,0,22,0,1,,,,,,,,
,,"[""diamond"",""red"",""vert"",""up"",[150,0],[106,106]]",diamond,red,vert,up,"[150,0]","[106,106]",up,1,,,,,,001,2025-03-10_19h19.36.389,SL_base,2021.2.3,Win32,59.88023952,1.6348,,,23,0,23,0,1,,,,,,,,
,,"[""diamond"",""no_dis"",""vert"",""up"",[99999,99999],[0,-150]]",diamond,no_dis,vert,up,"[99999,99999]","[0,-150]",up,1,,,,,,001,2025-03-10_19h19.36.389,SL_base,2021.2.3,Win32,59.88023952,1.3337,,,24,0,24,0,1,,,,,,,,
,,"[""circle"",""red"",""vert"",""up"",[106,106],[0,-150]]",circle,red,vert,up,"[106,106]","[0,-150]",up,1,,,,,,001,2025-03-10_19h19.36.389,SL_base,2021.2.3,Win32,59.88023952,1.5666,,,25,0,25,0,1,,,,,,,,
,,"[""diamond"",""green"",""hori"",""left"",[106,-106],[150,0]]",diamond,green,hori,left,"[106,-106]","[150,0]",left,1,,,,,,001,2025-03-10_19h19.36.389,SL_base,2021.2.3,Win32,59.88023952,2.0334,,,26,0,26,0,1,,,,,,,,
,,"[""diamond"",""red"",""hori"",""left"",[-106,106],[-150,0]]",diamond,red,hori,left,"[-106,106]","[-150,0]",left,1,,,,,,001,2025-03-10_19h19.36.389,SL_base,2021.2.3,Win32,59.88023952,1.2663,,,27,0,27,0,1,,,,,,,,
,,"[""diamond"",""green"",""hori"",""left"",[0,-150],[-150,0]]",diamond,green,hori,left,"[0,-150]","[-150,0]",left,1,,,,,,001,2025-03-10_19h19.36.389,SL_base,2021.2.3,Win32,59.88023952,0.9837,,,28,0,28,0,1,,,,,,,,
,,"[""diamond"",""red"",""vert"",""up"",[150,0],[106,-106]]",diamond,red,vert,up,"[150,0]","[106,-106]",up,1,,,,,,001,2025-03-10_19h19.36.389,SL_base,2021.2.3,Win32,59.88023952,1.2578,,,29,0,29,0,1,,,,,,,,
,,"[""circle"",""green"",""vert"",""up"",[0,-150],[106,-106]]",circle,green,vert,up,"[0,-150]","[106,-106]",up,1,,,,,,001,2025-03-10_19h19.36.389,SL_base,2021.2.3,Win32,59.88023952,1.3994,,,30,0,30,0,1,,,,,,,,
,,"[""diamond"",""green"",""vert"",""up"",[-106,-106],[150,0]]",diamond,green,vert,up,"[-106,-106]","[150,0]",up,1,,,,,,001,2025-03-10_19h19.36.389,SL_base,2021.2.3,Win32,59.88023952,1.0012,,,31,0,31,0,1,,,,,,,,
,,"[""diamond"",""no_dis"",""hori"",""left"",[99999,99999],[0,150]]",diamond,no_dis,hori,left,"[99999,99999]","[0,150]",up,0,,,,,,001,2025-03-10_19h19.36.389,SL_base,2021.2.3,Win32,59.88023952,1.0337,,,32,0,32,0,1,,,,,,,,
,,"[""circle"",""no_dis"",""vert"",""up"",[99999,99999],[0,150]]",circle,no_dis,vert,up,"[99999,99999]","[0,150]",up,1,,,,,,001,2025-03-10_19h19.36.389,SL_base,2021.2.3,Win32,59.88023952,1.8345,,,33,0,33,0,1,,,,,,,,
,,"[""circle"",""green"",""hori"",""left"",[106,-106],[0,150]]",circle,green,hori,left,"[106,-106]","[0,150]",left,1,,,,,,001,2025-03-10_19h19.36.389,SL_base,2021.2.3,Win32,59.88023952,1.6499,,,34,0,34,0,1,,,,,,,,
,,"[""circle"",""no_dis"",""hori"",""left"",[99999,99999],[106,-106]]",circle,no_dis,hori,left,"[99999,99999]","[106,-106]",left,1,,,,,,001,2025-03-10_19h19.36.389,SL_base,2021.2.3,Win32,59.88023952,0.834,,,35,0,35,0,1,,,,,,,,
,,"[""diamond"",""red"",""vert"",""up"",[150,0],[0,-150]]",diamond,red,vert,up,"[150,0]","[0,-150]",up,1,,,,,,001,2025-03-10_19h19.36.389,SL_base,2021.2.3,Win32,59.88023952,1.4331,,,36,0,36,0,1,,,,,,,,
,,"[""circle"",""green"",""hori"",""left"",[106,-106],[106,106]]",circle,green,hori,left,"[106,-106]","[106,106]",left,1,,,,,,001,2025-03-10_19h19.36.389,SL_base,2021.2.3,Win32,59.88023952,0.9211,,,37,0,37,0,1,,,,,,,,
,,"[""diamond"",""green"",""vert"",""up"",[-106,-106],[106,-106]]",diamond,green,vert,up,"[-106,-106]","[106,-106]",up,1,,,,,,001,2025-03-10_19h19.36.389,SL_base,2021.2.3,Win32,59.88023952,1.1196,,,38,0,38,0,1,,,,,,,,
,,"[""circle"",""red"",""hori"",""left"",[150,0],[-150,0]]",circle,red,hori,left,"[150,0]","[-150,0]",left,1,,,,,,001,2025-03-10_19h19.36.389,SL_base,2021.2.3,Win32,59.88023952,1.603,,,39,0,39,0,1,,,,,,,,
,,"[""circle"",""no_dis"",""hori"",""left"",[99999,99999],[106,106]]",circle,no_dis,hori,left,"[99999,99999]","[106,106]",up,0,,,,,,001,2025-03-10_19h19.36.389,SL_base,2021.2.3,Win32,59.88023952,1.7004,,,40,0,40,0,1,,,,,,,,
,,"[""circle"",""green"",""vert"",""up"",[106,106],[106,-106]]",circle,green,vert,up,"[106,106]","[106,-106]",up,1,,,,,,001,2025-03-10_19h19.36.389,SL_base,2021.2.3,Win32,59.88023952,1.5503,,,41,0,41,0,1,,,,,,,,
,,"[""diamond"",""green"",""hori"",""left"",[0,-150],[-106,-106]]",diamond,green,hori,left,"[0,-150]","[-106,-106]",left,1,,,,,,001,2025-03-10_19h19.36.389,SL_base,2021.2.3,Win32,59.88023952,1.625,,,42,0,42,0,1,,,,,,,,
,,"[""circle"",""green"",""vert"",""up"",[-150,0],[150,0]]",circle,green,vert,up,"[-150,0]","[150,0]",up,1,,,,,,001,2025-03-10_19h19.36.389,SL_base,2021.2.3,Win32,59.88023952,1.1335,,,43,0,43,0,1,,,,,,,,
,,"[""diamond"",""no_dis"",""vert"",""up"",[99999,99999],[0,150]]",diamond,no_dis,vert,up,"[99999,99999]","[0,150]",up,1,,,,,,001,2025-03-10_19h19.36.389,SL_base,2021.2.3,Win32,59.88023952,1.0157,,,44,0,44,0,1,,,,,,,,
,,"[""diamond"",""red"",""hori"",""left"",[-150,0],[106,106]]",diamond,red,hori,left,"[-150,0]","[106,106]",left,1,,,,,,001,2025-03-10_19h19.36.389,SL_base,2021.2.3,Win32,59.88023952,1.4836,,,45,0,45,0,1,,,,,,,,
,,"[""circle"",""no_dis"",""hori"",""left"",[99999,99999],[0,-150]]",circle,no_dis,hori,left,"[99999,99999]","[0,-150]",left,1,,,,,,001,2025-03-10_19h19.36.389,SL_base,2021.2.3,Win32,59.88023952,1.2504,,,46,0,46,0,1,,,,,,,,
,,"[""circle"",""green"",""vert"",""up"",[-106,-106],[106,106]]",circle,green,vert,up,"[-106,-106]","[106,106]",up,1,,,,,,001,2025-03-10_19h19.36.389,SL_base,2021.2.3,Win32,59.88023952,1.5326,,,47,0,47,0,1,,,,,,,,
,,"[""diamond"",""green"",""hori"",""left"",[106,106],[0,150]]",diamond,green,hori,left,"[106,106]","[0,150]",left,1,,,,,,001,2025-03-10_19h19.36.389,SL_base,2021.2.3,Win32,59.88023952,2.0492,,,48,0,48,0,1,,,,,,,,
,,"[""circle"",""red"",""hori"",""left"",[-150,0],[-106,106]]",circle,red,hori,left,"[-150,0]","[-106,106]",left,1,,,,,,001,2025-03-10_19h19.36.389,SL_base,2021.2.3,Win32,59.88023952,1.451,,,49,0,49,0,1,,,,,,,,
,,"[""diamond"",""no_dis"",""vert"",""up"",[99999,99999],[106,106]]",diamond,no_dis,vert,up,"[99999,99999]","[106,106]",up,1,,,,,,001,2025-03-10_19h19.36.389,SL_base,2021.2.3,Win32,59.88023952,1.9159,,,50,0,50,0,1,,,,,,,,
,,"[""diamond"",""green"",""vert"",""up"",[150,0],[-150,0]]",diamond,green,vert,up,"[150,0]","[-150,0]",up,1,,,,,,001,2025-03-10_19h19.36.389,SL_base,2021.2.3,Win32,59.88023952,1.0671,,,51,0,51,0,1,,,,,,,,
,,"[""circle"",""no_dis"",""hori"",""left"",[99999,99999],[0,150]]",circle,no_dis,hori,left,"[99999,99999]","[0,150]",left,1,,,,,,001,2025-03-10_19h19.36.389,SL_base,2021.2.3,Win32,59.88023952,1.2338,,,52,0,52,0,1,,,,,,,,
,,"[""diamond"",""red"",""vert"",""up"",[0,-150],[-106,106]]",diamond,red,vert,up,"[0,-150]","[-106,106]",up,1,,,,,,001,2025-03-10_19h19.36.389,SL_base,2021.2.3,Win32,59.88023952,0.9666,,,53,0,53,0,1,,,,,,,,
,,"[""diamond"",""no_dis"",""hori"",""left"",[99999,99999],[150,0]]",diamond,no_dis,hori,left,"[99999,99999]","[150,0]",left,1,,,,,,001,2025-03-10_19h19.36.389,SL_base,2021.2.3,Win32,59.88023952,1.2171,,,54,0,54,0,1,,,,,,,,
,,"[""circle"",""red"",""vert"",""up"",[150,0],[106,106]]",circle,red,vert,up,"[150,0]","[106,106]",left,0,,,,,,001,2025-03-10_19h19.36.389,SL_base,2021.2.3,Win32,59.88023952,1.2548,,,55,0,55,0,1,,,,,,,,
,,"[""diamond"",""red"",""vert"",""up"",[0,150],[106,-106]]",diamond,red,vert,up,"[0,150]","[106,-106]",up,1,,,,,,001,2025-03-10_19h19.36.389,SL_base,2021.2.3,Win32,59.88023952,1.6838,,,56,0,56,0,1,,,,,,,,
,,"[""diamond"",""no_dis"",""hori"",""left"",[99999,99999],[106,-106]]",diamond,no_dis,hori,left,"[99999,99999]","[106,-106]",left,1,,,,,,001,2025-03-10_19h19.36.389,SL_base,2021.2.3,Win32,59.88023952,1.084,,,57,0,57,0,1,,,,,,,,
,,"[""circle"",""green"",""vert"",""up"",[106,-106],[-106,106]]",circle,green,vert,up,"[106,-106]","[-106,106]",up,1,,,,,,001,2025-03-10_19h19.36.389,SL_base,2021.2.3,Win32,59.88023952,1.2283,,,58,0,58,0,1,,,,,,,,
,,"[""circle"",""green"",""hori"",""left"",[150,0],[-150,0]]",circle,green,hori,left,"[150,0]","[-150,0]",left,1,,,,,,001,2025-03-10_19h19.36.389,SL_base,2021.2.3,Win32,59.88023952,1.1145,,,59,0,59,0,1,,,,,,,,
,,"[""circle"",""no_dis"",""hori"",""left"",[99999,99999],[150,0]]",circle,no_dis,hori,left,"[99999,99999]","[150,0]",left,1,,,,,,001,2025-03-10_19h19.36.389,SL_base,2021.2.3,Win32,59.88023952,0.8797,,,60,0,60,0,1,,,,,,,,
,,"[""diamond"",""green"",""hori"",""left"",[106,106],[-150,0]]",diamond,green,hori,left,"[106,106]","[-150,0]",left,1,,,,,,001,2025-03-10_19h19.36.389,SL_base,2021.2.3,Win32,59.88023952,1.4612,,,61,0,61,0,1,,,,,,,,
,,"[""diamond"",""green"",""hori"",""left"",[150,0],[0,150]]",diamond,green,hori,left,"[150,0]","[0,150]",left,1,,,,,,001,2025-03-10_19h19.36.389,SL_base,2021.2.3,Win32,59.88023952,2.2767,,,62,0,62,0,1,,,,,,,,
,,"[""diamond"",""red"",""vert"",""up"",[150,0],[-106,106]]",diamond,red,vert,up,"[150,0]","[-106,106]",up,1,,,,,,001,2025-03-10_19h19.36.389,SL_base,2021.2.3,Win32,59.88023952,2.6837,,,63,0,63,0,1,,,,,,,,
,,"[""diamond"",""red"",""vert"",""up"",[-150,0],[-106,-106]]",diamond,red,vert,up,"[-150,0]","[-106,-106]",up,1,,,,,,001,2025-03-10_19h19.36.389,SL_base,2021.2.3,Win32,59.88023952,1.4012,,,64,0,64,0,1,,,,,,,,
,,"[""circle"",""green"",""hori"",""left"",[0,-150],[-150,0]]",circle,green,hori,left,"[0,-150]","[-150,0]",left,1,,,,,,001,2025-03-10_19h19.36.389,SL_base,2021.2.3,Win32,59.88023952,1.8804,,,65,0,65,0,1,,,,,,,,
,,"[""circle"",""red"",""hori"",""left"",[150,0],[-106,-106]]",circle,red,hori,left,"[150,0]","[-106,-106]",left,1,,,,,,001,2025-03-10_19h19.36.389,SL_base,2021.2.3,Win32,59.88023952,1.9184,,,66,0,66,0,1,,,,,,,,
,,"[""circle"",""no_dis"",""hori"",""left"",[99999,99999],[106,106]]",circle,no_dis,hori,left,"[99999,99999]","[106,106]",left,1,,,,,,001,2025-03-10_19h19.36.389,SL_base,2021.2.3,Win32,59.88023952,0.9485,,,67,0,67,0,1,,,,,,,,
,,"[""circle"",""no_dis"",""hori"",""left"",[99999,99999],[0,150]]",circle,no_dis,hori,left,"[99999,99999]","[0,150]",left,1,,,,,,001,2025-03-10_19h19.36.389,SL_base,2021.2.3,Win32,59.88023952,1.6634,,,68,0,68,0,1,,,,,,,,
,,"[""circle"",""no_dis"",""vert"",""up"",[99999,99999],[106,106]]",circle,no_dis,vert,up,"[99999,99999]","[106,106]",up,1,,,,,,001,2025-03-10_19h19.36.389,SL_base,2021.2.3,Win32,59.88023952,2.3065,,,69,0,69,0,1,,,,,,,,
,,"[""circle"",""red"",""hori"",""left"",[106,-106],[0,-150]]",circle,red,hori,left,"[106,-106]","[0,-150]",left,1,,,,,,001,2025-03-10_19h19.36.389,SL_base,2021.2.3,Win32,59.88023952,1.8613,,,70,0,70,0,1,,,,,,,,
,,"[""circle"",""green"",""hori"",""left"",[150,0],[106,106]]",circle,green,hori,left,"[150,0]","[106,106]",left,1,,,,,,001,2025-03-10_19h19.36.389,SL_base,2021.2.3,Win32,59.88023952,1.015,,,71,0,71,0,1,,,,,,,,
,,"[""diamond"",""green"",""hori"",""left"",[-150,0],[106,-106]]",diamond,green,hori,left,"[-150,0]","[106,-106]",left,1,,,,,,001,2025-03-10_19h19.36.389,SL_base,2021.2.3,Win32,59.88023952,1.1435,,,72,0,72,0,1,,,,,,,,
,,"[""circle"",""no_dis"",""hori"",""left"",[99999,99999],[-150,0]]",circle,no_dis,hori,left,"[99999,99999]","[-150,0]",left,1,,,,,,001,2025-03-10_19h19.36.389,SL_base,2021.2.3,Win32,59.88023952,0.9306,,,73,0,73,0,1,,,,,,,,
,,"[""diamond"",""green"",""hori"",""left"",[106,-106],[150,0]]",diamond,green,hori,left,"[106,-106]","[150,0]",left,1,,,,,,001,2025-03-10_19h19.36.389,SL_base,2021.2.3,Win32,59.88023952,2.117,,,74,0,74,0,1,,,,,,,,
,,"[""circle"",""red"",""vert"",""up"",[-106,106],[0,-150]]",circle,red,vert,up,"[-106,106]","[0,-150]",up,1,,,,,,001,2025-03-10_19h19.36.389,SL_base,2021.2.3,Win32,59.88023952,1.2831,,,75,0,75,0,1,,,,,,,,
,,"[""circle"",""green"",""hori"",""left"",[150,0],[106,106]]",circle,green,hori,left,"[150,0]","[106,106]",left,1,,,,,,001,2025-03-10_19h19.36.389,SL_base,2021.2.3,Win32,59.88023952,1.1191,,,76,0,76,0,1,,,,,,,,
,,"[""circle"",""no_dis"",""hori"",""left"",[99999,99999],[-150,0]]",circle,no_dis,hori,left,"[99999,99999]","[-150,0]",left,1,,,,,,001,2025-03-10_19h19.36.389,SL_base,2021.2.3,Win32,59.88023952,0.9633,,,77,0,77,0,1,,,,,,,,
,,"[""circle"",""no_dis"",""vert"",""up"",[99999,99999],[-150,0]]",circle,no_dis,vert,up,"[99999,99999]","[-150,0]",up,1,,,,,,001,2025-03-10_19h19.36.389,SL_base,2021.2.3,Win32,59.88023952,0.926,,,78,0,78,0,1,,,,,,,,
,,"[""diamond"",""red"",""vert"",""up"",[106,106],[-106,106]]",diamond,red,vert,up,"[106,106]","[-106,106]",up,1,,,,,,001,2025-03-10_19h19.36.389,SL_base,2021.2.3,Win32,59.88023952,1.8158,,,79,0,79,0,1,,,,,,,,
,,"[""diamond"",""green"",""vert"",""up"",[0,150],[106,-106]]",diamond,green,vert,up,"[0,150]","[106,-106]",up,1,,,,,,001,2025-03-10_19h19.36.389,SL_base,2021.2.3,Win32,59.88023952,1.0263,,,80,0,80,0,1,,,,,,,,
,,"[""diamond"",""red"",""hori"",""left"",[-106,106],[-150,0]]",diamond,red,hori,left,"[-106,106]","[-150,0]",left,1,,,,,,001,2025-03-10_19h19.36.389,SL_base,2021.2.3,Win32,59.88023952,2.0274,,,81,0,81,0,1,,,,,,,,
,,"[""diamond"",""red"",""hori"",""left"",[106,106],[-150,0]]",diamond,red,hori,left,"[106,106]","[-150,0]",left,1,,,,,,001,2025-03-10_19h19.36.389,SL_base,2021.2.3,Win32,59.88023952,1.0339,,,82,0,82,0,1,,,,,,,,
,,"[""circle"",""green"",""vert"",""up"",[150,0],[-106,106]]",circle,green,vert,up,"[150,0]","[-106,106]",up,1,,,,,,001,2025-03-10_19h19.36.389,SL_base,2021.2.3,Win32,59.88023952,1.0668,,,83,0,83,0,1,,,,,,,,
,,"[""diamond"",""no_dis"",""vert"",""up"",[99999,99999],[150,0]]",diamond,no_dis,vert,up,"[99999,99999]","[150,0]",up,1,,,,,,001,2025-03-10_19h19.36.389,SL_base,2021.2.3,Win32,59.88023952,0.9477,,,84,0,84,0,1,,,,,,,,
,,"[""circle"",""red"",""vert"",""up"",[-106,106],[150,0]]",circle,red,vert,up,"[-106,106]","[150,0]",up,1,,,,,,001,2025-03-10_19h19.36.389,SL_base,2021.2.3,Win32,59.88023952,1.7074,,,85,0,85,0,1,,,,,,,,
,,"[""diamond"",""no_dis"",""hori"",""left"",[99999,99999],[-106,106]]",diamond,no_dis,hori,left,"[99999,99999]","[-106,106]",left,1,,,,,,001,2025-03-10_19h19.36.389,SL_base,2021.2.3,Win32,59.88023952,1.6004,,,86,0,86,0,1,,,,,,,,
,,"[""circle"",""red"",""hori"",""left"",[150,0],[-106,-106]]",circle,red,hori,left,"[150,0]","[-106,-106]",left,1,,,,,,001,2025-03-10_19h19.36.389,SL_base,2021.2.3,Win32,59.88023952,1.1678,,,87,0,87,0,1,,,,,,,,
,,"[""circle"",""no_dis"",""vert"",""up"",[99999,99999],[-106,-106]]",circle,no_dis,vert,up,"[99999,99999]","[-106,-106]",up,1,,,,,,001,2025-03-10_19h19.36.389,SL_base,2021.2.3,Win32,59.88023952,1.1548,,,88,0,88,0,1,,,,,,,,
,,"[""circle"",""no_dis"",""vert"",""up"",[99999,99999],[-106,-106]]",circle,no_dis,vert,up,"[99999,99999]","[-106,-106]",up,1,,,,,,001,2025-03-10_19h19.36.389,SL_base,2021.2.3,Win32,59.88023952,1.9163,,,89,0,89,0,1,,,,,,,,
,,"[""circle"",""no_dis"",""vert"",""up"",[99999,99999],[150,0]]",circle,no_dis,vert,up,"[99999,99999]","[150,0]",up,1,,,,,,001,2025-03-10_19h19.36.389,SL_base,2021.2.3,Win32,59.88023952,1.0998,,,90,0,90,0,1,,,,,,,,
,,"[""diamond"",""no_dis"",""hori"",""left"",[99999,99999],[-106,106]]",diamond,no_dis,hori,left,"[99999,99999]","[-106,106]",left,1,,,,,,001,2025-03-10_19h19.36.389,SL_base,2021.2.3,Win32,59.88023952,1.2,,,91,0,91,0,1,,,,,,,,
,,"[""diamond"",""no_dis"",""vert"",""up"",[99999,99999],[-106,106]]",diamond,no_dis,vert,up,"[99999,99999]","[-106,106]",up,1,,,,,,001,2025-03-10_19h19.36.389,SL_base,2021.2.3,Win32,59.88023952,1.1513,,,92,0,92,0,1,,,,,,,,
,,"[""diamond"",""no_dis"",""vert"",""up"",[99999,99999],[-106,106]]",diamond,no_dis,vert,up,"[99999,99999]","[-106,106]",up,1,,,,,,001,2025-03-10_19h19.36.389,SL_base,2021.2.3,Win32,59.88023952,0.7673,,,93,0,93,0,1,,,,,,,,
,,"[""circle"",""no_dis"",""vert"",""up"",[99999,99999],[-150,0]]",circle,no_dis,vert,up,"[99999,99999]","[-150,0]",up,1,,,,,,001,2025-03-10_19h19.36.389,SL_base,2021.2.3,Win32,59.88023952,0.9769,,,94,0,94,0,1,,,,,,,,
,,"[""circle"",""red"",""vert"",""up"",[150,0],[106,-106]]",circle,red,vert,up,"[150,0]","[106,-106]",up,1,,,,,,001,2025-03-10_19h19.36.389,SL_base,2021.2.3,Win32,59.88023952,2.2499,,,95,0,95,0,1,,,,,,,,
,,"[""diamond"",""green"",""hori"",""left"",[150,0],[106,-106]]",diamond,green,hori,left,"[150,0]","[106,-106]",up,0,,,,,,001,2025-03-10_19h19.36.389,SL_base,2021.2.3,Win32,59.88023952,2.6832,,,96,0,96,0,1,,,,,,,,
,,"[""diamond"",""no_dis"",""hori"",""left"",[99999,99999],[106,-106]]",diamond,no_dis,hori,left,"[99999,99999]","[106,-106]",left,1,,,,,,001,2025-03-10_19h19.36.389,SL_base,2021.2.3,Win32,59.88023952,1.2762,,,97,0,97,0,1,,,,,,,,
,,"[""diamond"",""no_dis"",""vert"",""up"",[99999,99999],[-150,0]]",diamond,no_dis,vert,up,"[99999,99999]","[-150,0]",up,1,,,,,,001,2025-03-10_19h19.36.389,SL_base,2021.2.3,Win32,59.88023952,1.867,,,98,0,98,0,1,,,,,,,,
,,"[""diamond"",""no_dis"",""vert"",""up"",[99999,99999],[0,-150]]",diamond,no_dis,vert,up,"[99999,99999]","[0,-150]",up,1,,,,,,001,2025-03-10_19h19.36.389,SL_base,2021.2.3,Win32,59.88023952,1.3882,,,99,0,99,0,1,,,,,,,,
,,"[""circle"",""red"",""vert"",""up"",[0,-150],[106,106]]",circle,red,vert,up,"[0,-150]","[106,106]",up,1,,,,,,001,2025-03-10_19h19.36.389,SL_base,2021.2.3,Win32,59.88023952,1.7837,,,100,0,100,0,1,,,,,,,,
,,"[""circle"",""green"",""vert"",""up"",[106,106],[0,150]]",circle,green,vert,up,"[106,106]","[0,150]",up,1,,,,,,001,2025-03-10_19h19.36.389,SL_base,2021.2.3,Win32,59.88023952,1.1447,,,101,0,101,0,1,,,,,,,,
,,"[""diamond"",""red"",""hori"",""left"",[0,-150],[0,150]]",diamond,red,hori,left,"[0,-150]","[0,150]",left,1,,,,,,001,2025-03-10_19h19.36.389,SL_base,2021.2.3,Win32,59.88023952,2.167,,,102,0,102,0,1,,,,,,,,
,,"[""circle"",""red"",""hori"",""left"",[150,0],[106,106]]",circle,red,hori,left,"[150,0]","[106,106]",left,1,,,,,,001,2025-03-10_19h19.36.389,SL_base,2021.2.3,Win32,59.88023952,2.4726,,,103,0,103,0,1,,,,,,,,
,,"[""diamond"",""green"",""vert"",""up"",[106,-106],[-150,0]]",diamond,green,vert,up,"[106,-106]","[-150,0]",up,1,,,,,,001,2025-03-10_19h19.36.389,SL_base,2021.2.3,Win32,59.88023952,2.0497,,,104,0,104,0,1,,,,,,,,
,,"[""circle"",""no_dis"",""hori"",""left"",[99999,99999],[150,0]]",circle,no_dis,hori,left,"[99999,99999]","[150,0]",left,1,,,,,,001,2025-03-10_19h19.36.389,SL_base,2021.2.3,Win32,59.88023952,1.8004,,,105,0,105,0,1,,,,,,,,
,,"[""circle"",""red"",""hori"",""left"",[150,0],[106,106]]",circle,red,hori,left,"[150,0]","[106,106]",left,1,,,,,,001,2025-03-10_19h19.36.389,SL_base,2021.2.3,Win32,59.88023952,2.9501,,,106,0,106,0,1,,,,,,,,
,,"[""diamond"",""red"",""hori"",""left"",[-106,106],[106,106]]",diamond,red,hori,left,"[-106,106]","[106,106]",,0,,,,,,001,2025-03-10_19h19.36.389,SL_base,2021.2.3,Win32,59.88023952,,,,107,0,107,0,1,,,,,,,,
,,"[""circle"",""green"",""hori"",""left"",[-106,106],[-106,-106]]",circle,green,hori,left,"[-106,106]","[-106,-106]",up,0,,,,,,001,2025-03-10_19h19.36.389,SL_base,2021.2.3,Win32,59.88023952,1.4339,,,108,0,108,0,1,,,,,,,,
,,"[""circle"",""red"",""hori"",""left"",[150,0],[0,150]]",circle,red,hori,left,"[150,0]","[0,150]",left,1,,,,,,001,2025-03-10_19h19.36.389,SL_base,2021.2.3,Win32,59.88023952,2.0211,,,109,0,109,0,1,,,,,,,,
,,"[""diamond"",""red"",""hori"",""left"",[150,0],[106,106]]",diamond,red,hori,left,"[150,0]","[106,106]",left,1,,,,,,001,2025-03-10_19h19.36.389,SL_base,2021.2.3,Win32,59.88023952,1.4336,,,110,0,110,0,1,,,,,,,,
,,"[""diamond"",""red"",""vert"",""up"",[-106,106],[-150,0]]",diamond,red,vert,up,"[-106,106]","[-150,0]",up,1,,,,,,001,2025-03-10_19h19.36.389,SL_base,2021.2.3,Win32,59.88023952,1.7212,,,111,0,111,0,1,,,,,,,,
,,"[""diamond"",""no_dis"",""hori"",""left"",[99999,99999],[0,-150]]",diamond,no_dis,hori,left,"[99999,99999]","[0,-150]",left,1,,,,,,001,2025-03-10_19h19.36.389,SL_base,2021.2.3,Win32,59.88023952,1.1668,,,112,0,112,0,1,,,,,,,,
,,"[""diamond"",""green"",""vert"",""up"",[0,150],[0,-150]]",diamond,green,vert,up,"[0,150]","[0,-150]",up,1,,,,,,001,2025-03-10_19h19.36.389,SL_base,2021.2.3,Win32,59.88023952,2.1082,,,113,0,113,0,1,,,,,,,,
,,"[""diamond"",""green"",""vert"",""up"",[-150,0],[-106,-106]]",diamond,green,vert,up,"[-150,0]","[-106,-106]",up,1,,,,,,001,2025-03-10_19h19.36.389,SL_base,2021.2.3,Win32,59.88023952,1.9074,,,114,0,114,0,1,,,,,,,,
,,"[""circle"",""red"",""hori"",""left"",[150,0],[-106,-106]]",circle,red,hori,left,"[150,0]","[-106,-106]",left,1,,,,,,001,2025-03-10_19h19.36.389,SL_base,2021.2.3,Win32,59.88023952,1.517,,,115,0,115,0,1,,,,,,,,
,,"[""diamond"",""green"",""vert"",""up"",[0,150],[-150,0]]",diamond,green,vert,up,"[0,150]","[-150,0]",up,1,,,,,,001,2025-03-10_19h19.36.389,SL_base,2021.2.3,Win32,59.88023952,1.6003,,,116,0,116,0,1,,,,,,,,
,,"[""circle"",""red"",""vert"",""up"",[106,106],[-106,-106]]",circle,red,vert,up,"[106,106]","[-106,-106]",up,1,,,,,,001,2025-03-10_19h19.36.389,SL_base,2021.2.3,Win32,59.88023952,1.3204,,,117,0,117,0,1,,,,,,,,
,,"[""circle"",""green"",""vert"",""up"",[150,0],[0,150]]",circle,green,vert,up,"[150,0]","[0,150]",up,1,,,,,,001,2025-03-10_19h19.36.389,SL_base,2021.2.3,Win32,59.88023952,1.8061,,,118,0,118,0,1,,,,,,,,
,,"[""diamond"",""green"",""hori"",""left"",[-106,-106],[150,0]]",diamond,green,hori,left,"[-106,-106]","[150,0]",left,1,,,,,,001,2025-03-10_19h19.36.389,SL_base,2021.2.3,Win32,59.88023952,1.1666,,,119,0,119,0,1,,,,,,,,
,,,,,,,,,,,,,,,,001,2025-03-10_19h19.36.389,SL_base,2021.2.3,Win32,59.88023952,,,,,,,,,3,space,58.8368,2,0,2,0,1
,,"[""diamond"",""red"",""hori"",""left"",[-106,106],[-150,0]]",diamond,red,hori,left,"[-106,106]","[-150,0]",left,1,,,,,,001,2025-03-10_19h19.36.389,SL_base,2021.2.3,Win32,59.88023952,2.1332,,,0,0,0,0,1,,,,,,,,
,,"[""diamond"",""green"",""vert"",""up"",[0,150],[106,-106]]",diamond,green,vert,up,"[0,150]","[106,-106]",up,1,,,,,,001,2025-03-10_19h19.36.389,SL_base,2021.2.3,Win32,59.88023952,1.4169,,,1,0,1,0,1,,,,,,,,
,,"[""circle"",""red"",""hori"",""left"",[150,0],[0,150]]",circle,red,hori,left,"[150,0]","[0,150]",left,1,,,,,,001,2025-03-10_19h19.36.389,SL_base,2021.2.3,Win32,59.88023952,1.3003,,,2,0,2,0,1,,,,,,,,
,,"[""diamond"",""green"",""hori"",""left"",[106,-106],[150,0]]",diamond,green,hori,left,"[106,-106]","[150,0]",left,1,,,,,,001,2025-03-10_19h19.36.389,SL_base,2021.2.3,Win32,59.88023952,1.1504,,,3,0,3,0,1,,,,,,,,
,,"[""circle"",""red"",""vert"",""up"",[106,106],[-106,-106]]",circle,red,vert,up,"[106,106]","[-106,-106]",up,1,,,,,,001,2025-03-10_19h19.36.389,SL_base,2021.2.3,Win32,59.88023952,1.2546,,,4,0,4,0,1,,,,,,,,
,,"[""circle"",""red"",""vert"",""up"",[0,150],[-106,106]]",circle,red,vert,up,"[0,150]","[-106,106]",up,1,,,,,,001,2025-03-10_19h19.36.389,SL_base,2021.2.3,Win32,59.88023952,0.8376,,,5,0,5,0,1,,,,,,,,
,,"[""circle"",""green"",""vert"",""up"",[-106,-106],[106,106]]",circle,green,vert,up,"[-106,-106]","[106,106]",up,1,,,,,,001,2025-03-10_19h19.36.389,SL_base,2021.2.3,Win32,59.88023952,0.7921,,,6,0,6,0,1,,,,,,,,
,,"[""diamond"",""green"",""hori"",""left"",[106,-106],[150,0]]",diamond,green,hori,left,"[106,-106]","[150,0]",left,1,,,,,,001,2025-03-10_19h19.36.389,SL_base,2021.2.3,Win32,59.88023952,1.016,,,7,0,7,0,1,,,,,,,,
,,"[""diamond"",""no_dis"",""vert"",""up"",[99999,99999],[150,0]]",diamond,no_dis,vert,up,"[99999,99999]","[150,0]",up,1,,,,,,001,2025-03-10_19h19.36.389,SL_base,2021.2.3,Win32,59.88023952,0.7507,,,8,0,8,0,1,,,,,,,,
,,"[""circle"",""no_dis"",""vert"",""up"",[99999,99999],[-150,0]]",circle,no_dis,vert,up,"[99999,99999]","[-150,0]",up,1,,,,,,001,2025-03-10_19h19.36.389,SL_base,2021.2.3,Win32,59.88023952,0.8874,,,9,0,9,0,1,,,,,,,,
,,"[""circle"",""red"",""hori"",""left"",[106,-106],[-106,106]]",circle,red,hori,left,"[106,-106]","[-106,106]",left,1,,,,,,001,2025-03-10_19h19.36.389,SL_base,2021.2.3,Win32,59.88023952,0.8005,,,10,0,10,0,1,,,,,,,,
,,"[""circle"",""no_dis"",""vert"",""up"",[99999,99999],[150,0]]",circle,no_dis,vert,up,"[99999,99999]","[150,0]",up,1,,,,,,001,2025-03-10_19h19.36.389,SL_base,2021.2.3,Win32,59.88023952,0.7677,,,11,0,11,0,1,,,,,,,,
,,"[""diamond"",""red"",""hori"",""left"",[-150,0],[106,106]]",diamond,red,hori,left,"[-150,0]","[106,106]",left,1,,,,,,001,2025-03-10_19h19.36.389,SL_base,2021.2.3,Win32,59.88023952,2.0566,,,12,0,12,0,1,,,,,,,,
,,"[""diamond"",""no_dis"",""vert"",""up"",[99999,99999],[0,-150]]",diamond,no_dis,vert,up,"[99999,99999]","[0,-150]",up,1,,,,,,001,2025-03-10_19h19.36.389,SL_base,2021.2.3,Win32,59.88023952,1.2,,,13,0,13,0,1,,,,,,,,
,,"[""diamond"",""no_dis"",""vert"",""up"",[99999,99999],[0,-150]]",diamond,no_dis,vert,up,"[99999,99999]","[0,-150]",up,1,,,,,,001,2025-03-10_19h19.36.389,SL_base,2021.2.3,Win32,59.88023952,2.1161,,,14,0,14,0,1,,,,,,,,
,,"[""circle"",""red"",""hori"",""left"",[150,0],[106,106]]",circle,red,hori,left,"[150,0]","[106,106]",up,0,,,,,,001,2025-03-10_19h19.36.389,SL_base,2021.2.3,Win32,59.88023952,0.9841,,,15,0,15,0,1,,,,,,,,
,,"[""diamond"",""no_dis"",""vert"",""up"",[99999,99999],[0,150]]",diamond,no_dis,vert,up,"[99999,99999]","[0,150]",left,0,,,,,,001,2025-03-10_19h19.36.389,SL_base,2021.2.3,Win32,59.88023952,1.2175,,,16,0,16,0,1,,,,,,,,
,,"[""diamond"",""no_dis"",""vert"",""up"",[99999,99999],[-106,106]]",diamond,no_dis,vert,up,"[99999,99999]","[-106,106]",up,1,,,,,,001,2025-03-10_19h19.36.389,SL_base,2021.2.3,Win32,59.88023952,1.8664,,,17,0,17,0,1,,,,,,,,
,,"[""circle"",""green"",""hori"",""left"",[0,-150],[-150,0]]",circle,green,hori,left,"[0,-150]","[-150,0]",left,1,,,,,,001,2025-03-10_19h19.36.389,SL_base,2021.2.3,Win32,59.88023952,1.4503,,,18,0,18,0,1,,,,,,,,
,,"[""diamond"",""no_dis"",""vert"",""up"",[99999,99999],[-106,106]]",diamond,no_dis,vert,up,"[99999,99999]","[-106,106]",up,1,,,,,,001,2025-03-10_19h19.36.389,SL_base,2021.2.3,Win32,59.88023952,0.871,,,19,0,19,0,1,,,,,,,,
,,"[""circle"",""red"",""vert"",""up"",[-106,106],[150,0]]",circle,red,vert,up,"[-106,106]","[150,0]",up,1,,,,,,001,2025-03-10_19h19.36.389,SL_base,2021.2.3,Win32,59.88023952,1.8169,,,20,0,20,0,1,,,,,,,,
,,"[""diamond"",""no_dis"",""hori"",""left"",[99999,99999],[106,106]]",diamond,no_dis,hori,left,"[99999,99999]","[106,106]",left,1,,,,,,001,2025-03-10_19h19.36.389,SL_base,2021.2.3,Win32,59.88023952,2.1001,,,21,0,21,0,1,,,,,,,,
,,"[""circle"",""green"",""vert"",""up"",[-150,0],[-106,106]]",circle,green,vert,up,"[-150,0]","[-106,106]",up,1,,,,,,001,2025-03-10_19h19.36.389,SL_base,2021.2.3,Win32,59.88023952,1.9504,,,22,0,22,0,1,,,,,,,,
,,"[""diamond"",""red"",""vert"",""up"",[150,0],[106,-106]]",diamond,red,vert,up,"[150,0]","[106,-106]",up,1,,,,,,001,2025-03-10_19h19.36.389,SL_base,2021.2.3,Win32,59.88023952,1.3825,,,23,0,23,0,1,,,,,,,,
,,"[""circle"",""red"",""hori"",""left"",[-150,0],[-106,106]]",circle,red,hori,left,"[-150,0]","[-106,106]",left,1,,,,,,001,2025-03-10_19h19.36.389,SL_base,2021.2.3,Win32,59.88023952,2.1159,,,24,0,24,0,1,,,,,,,,
,,"[""diamond"",""no_dis"",""hori"",""left"",[99999,99999],[-106,-106]]",diamond,no_dis,hori,left,"[99999,99999]","[-106,-106]",left,1,,,,,,001,2025-03-10_19h19.36.389,SL_base,2021.2.3,Win32,59.88023952,2.9669,,,25,0,25,0,1,,,,,,,,
,,"[""diamond"",""no_dis"",""hori"",""left"",[99999,99999],[150,0]]",diamond,no_dis,hori,left,"[99999,99999]","[150,0]",left,1,,,,,,001,2025-03-10_19h19.36.389,SL_base,2021.2.3,Win32,59.88023952,1.6006,,,26,0,26,0,1,,,,,,,,
,,"[""circle"",""green"",""vert"",""up"",[106,-106],[-106,106]]",circle,green,vert,up,"[106,-106]","[-106,106]",up,1,,,,,,001,2025-03-10_19h19.36.389,SL_base,2021.2.3,Win32,59.88023952,1.8328,,,27,0,27,0,1,,,,,,,,
,,"[""diamond"",""no_dis"",""hori"",""left"",[99999,99999],[106,-106]]",diamond,no_dis,hori,left,"[99999,99999]","[106,-106]",left,1,,,,,,001,2025-03-10_19h19.36.389,SL_base,2021.2.3,Win32,59.88023952,1.2675,,,28,0,28,0,1,,,,,,,,
,,"[""diamond"",""no_dis"",""hori"",""left"",[99999,99999],[0,-150]]",diamond,no_dis,hori,left,"[99999,99999]","[0,-150]",left,1,,,,,,001,2025-03-10_19h19.36.389,SL_base,2021.2.3,Win32,59.88023952,1.7763,,,29,0,29,0,1,,,,,,,,
,,"[""diamond"",""no_dis"",""hori"",""left"",[99999,99999],[-106,106]]",diamond,no_dis,hori,left,"[99999,99999]","[-106,106]",left,1,,,,,,001,2025-03-10_19h19.36.389,SL_base,2021.2.3,Win32,59.88023952,1.8175,,,30,0,30,0,1,,,,,,,,
,,"[""diamond"",""green"",""hori"",""left"",[0,-150],[-150,0]]",diamond,green,hori,left,"[0,-150]","[-150,0]",left,1,,,,,,001,2025-03-10_19h19.36.389,SL_base,2021.2.3,Win32,59.88023952,1.1167,,,31,0,31,0,1,,,,,,,,
,,"[""diamond"",""no_dis"",""hori"",""left"",[99999,99999],[0,150]]",diamond,no_dis,hori,left,"[99999,99999]","[0,150]",left,1,,,,,,001,2025-03-10_19h19.36.389,SL_base,2021.2.3,Win32,59.88023952,1.0661,,,32,0,32,0,1,,,,,,,,
,,"[""circle"",""no_dis"",""hori"",""left"",[99999,99999],[106,-106]]",circle,no_dis,hori,left,"[99999,99999]","[106,-106]",left,1,,,,,,001,2025-03-10_19h19.36.389,SL_base,2021.2.3,Win32,59.88023952,1.3329,,,33,0,33,0,1,,,,,,,,
,,"[""circle"",""green"",""vert"",""up"",[-150,0],[150,0]]",circle,green,vert,up,"[-150,0]","[150,0]",up,1,,,,,,001,2025-03-10_19h19.36.389,SL_base,2021.2.3,Win32,59.88023952,1.9675,,,34,0,34,0,1,,,,,,,,
,,"[""circle"",""red"",""hori"",""left"",[150,0],[-150,0]]",circle,red,hori,left,"[150,0]","[-150,0]",left,1,,,,,,001,2025-03-10_19h19.36.389,SL_base,2021.2.3,Win32,59.88023952,0.9506,,,35,0,35,0,1,,,,,,,,
,,"[""diamond"",""red"",""hori"",""left"",[-150,0],[-106,106]]",diamond,red,hori,left,"[-150,0]","[-106,106]",left,1,,,,,,001,2025-03-10_19h19.36.389,SL_base,2021.2.3,Win32,59.88023952,1.75,,,36,0,36,0,1,,,,,,,,
,,"[""circle"",""green"",""hori"",""left"",[150,0],[0,-150]]",circle,green,hori,left,"[150,0]","[0,-150]",left,1,,,,,,001,2025-03-10_19h19.36.389,SL_base,2021.2.3,Win32,59.88023952,1.6241,,,37,0,37,0,1,,,,,,,,
,,"[""diamond"",""red"",""vert"",""up"",[150,0],[106,106]]",diamond,red,vert,up,"[150,0]","[106,106]",up,1,,,,,,001,2025-03-10_19h19.36.389,SL_base,2021.2.3,Win32,59.88023952,1.2661,,,38,0,38,0,1,,,,,,,,
,,"[""diamond"",""red"",""vert"",""up"",[106,106],[-106,106]]",diamond,red,vert,up,"[106,106]","[-106,106]",up,1,,,,,,001,2025-03-10_19h19.36.389,SL_base,2021.2.3,Win32,59.88023952,1.083,,,39,0,39,0,1,,,,,,,,
,,"[""diamond"",""green"",""vert"",""up"",[-150,0],[-106,-106]]",diamond,green,vert,up,"[-150,0]","[-106,-106]",up,1,,,,,,001,2025-03-10_19h19.36.389,SL_base,2021.2.3,Win32,59.88023952,1.5665,,,40,0,40,0,1,,,,,,,,
,,"[""circle"",""no_dis"",""vert"",""up"",[99999,99999],[-150,0]]",circle,no_dis,vert,up,"[99999,99999]","[-150,0]",up,1,,,,,,001,2025-03-10_19h19.36.389,SL_base,2021.2.3,Win32,59.88023952,1.0428,,,41,0,41,0,1,,,,,,,,
,,"[""diamond"",""green"",""hori"",""left"",[-150,0],[106,-106]]",diamond,green,hori,left,"[-150,0]","[106,-106]",left,1,,,,,,001,2025-03-10_19h19.36.389,SL_base,2021.2.3,Win32,59.88023952,1.5502,,,42,0,42,0,1,,,,,,,,
,,"[""diamond"",""red"",""vert"",""up"",[-106,106],[-150,0]]",diamond,red,vert,up,"[-106,106]","[-150,0]",up,1,,,,,,001,2025-03-10_19h19.36.389,SL_base,2021.2.3,Win32,59.88023952,1.1363,,,43,0,43,0,1,,,,,,,,
,,"[""circle"",""no_dis"",""vert"",""up"",[99999,99999],[106,106]]",circle,no_dis,vert,up,"[99999,99999]","[106,106]",up,1,,,,,,001,2025-03-10_19h19.36.389,SL_base,2021.2.3,Win32,59.88023952,0.9911,,,44,0,44,0,1,,,,,,,,
,,"[""diamond"",""green"",""hori"",""left"",[-106,-106],[150,0]]",diamond,green,hori,left,"[-106,-106]","[150,0]",left,1,,,,,,001,2025-03-10_19h19.36.389,SL_base,2021.2.3,Win32,59.88023952,1.437,,,45,0,45,0,1,,,,,,,,
,,"[""circle"",""red"",""vert"",""up"",[150,0],[106,-106]]",circle,red,vert,up,"[150,0]","[106,-106]",up,1,,,,,,001,2025-03-10_19h19.36.389,SL_base,2021.2.3,Win32,59.88023952,1.5667,,,46,0,46,0,1,,,,,,,,
,,"[""circle"",""red"",""hori"",""left"",[106,-106],[0,-150]]",circle,red,hori,left,"[106,-106]","[0,-150]",left,1,,,,,,001,2025-03-10_19h19.36.389,SL_base,2021.2.3,Win32,59.88023952,1.5671,,,47,0,47,0,1,,,,,,,,
,,"[""diamond"",""red"",""vert"",""up"",[150,0],[0,-150]]",diamond,red,vert,up,"[150,0]","[0,-150]",up,1,,,,,,001,2025-03-10_19h19.36.389,SL_base,2021.2.3,Win32,59.88023952,1.6668,,,48,0,48,0,1,,,,,,,,
,,"[""diamond"",""green"",""vert"",""up"",[0,150],[-106,106]]",diamond,green,vert,up,"[0,150]","[-106,106]",up,1,,,,,,001,2025-03-10_19h19.36.389,SL_base,2021.2.3,Win32,59.88023952,1.6255,,,49,0,49,0,1,,,,,,,,
,,"[""diamond"",""red"",""vert"",""up"",[150,0],[-106,106]]",diamond,red,vert,up,"[150,0]","[-106,106]",up,1,,,,,,001,2025-03-10_19h19.36.389,SL_base,2021.2.3,Win32,59.88023952,0.9113,,,50,0,50,0,1,,,,,,,,
,,"[""diamond"",""green"",""hori"",""left"",[150,0],[106,-106]]",diamond,green,hori,left,"[150,0]","[106,-106]",left,1,,,,,,001,2025-03-10_19h19.36.389,SL_base,2021.2.3,Win32,59.88023952,1.9188,,,51,0,51,0,1,,,,,,,,
,,"[""circle"",""no_dis"",""hori"",""left"",[99999,99999],[0,-150]]",circle,no_dis,hori,left,"[99999,99999]","[0,-150]",left,1,,,,,,001,2025-03-10_19h19.36.389,SL_base,2021.2.3,Win32,59.88023952,1.1033,,,52,0,52,0,1,,,,,,,,
,,"[""circle"",""red"",""vert"",""up"",[150,0],[106,106]]",circle,red,vert,up,"[150,0]","[106,106]",up,1,,,,,,001,2025-03-10_19h19.36.389,SL_base,2021.2.3,Win32,59.88023952,1.1529,,,53,0,53,0,1,,,,,,,,
,,"[""circle"",""no_dis"",""hori"",""left"",[99999,99999],[0,150]]",circle,no_dis,hori,left,"[99999,99999]","[0,150]",left,1,,,,,,001,2025-03-10_19h19.36.389,SL_base,2021.2.3,Win32,59.88023952,1.2482,,,54,0,54,0,1,,,,,,,,
,,"[""circle"",""green"",""hori"",""left"",[150,0],[106,106]]",circle,green,hori,left,"[150,0]","[106,106]",left,1,,,,,,001,2025-03-10_19h19.36.389,SL_base,2021.2.3,Win32,59.88023952,0.7794,,,55,0,55,0,1,,,,,,,,
,,"[""diamond"",""red"",""vert"",""up"",[0,150],[106,-106]]",diamond,red,vert,up,"[0,150]","[106,-106]",up,1,,,,,,001,2025-03-10_19h19.36.389,SL_base,2021.2.3,Win32,59.88023952,1.6383,,,56,0,56,0,1,,,,,,,,
,,"[""circle"",""no_dis"",""hori"",""left"",[99999,99999],[106,106]]",circle,no_dis,hori,left,"[99999,99999]","[106,106]",left,1,,,,,,001,2025-03-10_19h19.36.389,SL_base,2021.2.3,Win32,59.88023952,1.4879,,,57,0,57,0,1,,,,,,,,
,,"[""diamond"",""green"",""vert"",""up"",[0,150],[-150,0]]",diamond,green,vert,up,"[0,150]","[-150,0]",up,1,,,,,,001,2025-03-10_19h19.36.389,SL_base,2021.2.3,Win32,59.88023952,2.1207,,,58,0,58,0,1,,,,,,,,
,,"[""circle"",""no_dis"",""hori"",""left"",[99999,99999],[150,0]]",circle,no_dis,hori,left,"[99999,99999]","[150,0]",left,1,,,,,,001,2025-03-10_19h19.36.389,SL_base,2021.2.3,Win32,59.88023952,1.4452,,,59,0,59,0,1,,,,,,,,
,,"[""circle"",""no_dis"",""hori"",""left"",[99999,99999],[0,150]]",circle,no_dis,hori,left,"[99999,99999]","[0,150]",left,1,,,,,,001,2025-03-10_19h19.36.389,SL_base,2021.2.3,Win32,59.88023952,2.1835,,,60,0,60,0,1,,,,,,,,
,,"[""circle"",""green"",""vert"",""up"",[106,106],[106,-106]]",circle,green,vert,up,"[106,106]","[106,-106]",up,1,,,,,,001,2025-03-10_19h19.36.389,SL_base,2021.2.3,Win32,59.88023952,1.1624,,,61,0,61,0,1,,,,,,,,
,,"[""circle"",""no_dis"",""vert"",""up"",[99999,99999],[106,-106]]",circle,no_dis,vert,up,"[99999,99999]","[106,-106]",up,1,,,,,,001,2025-03-10_19h19.36.389,SL_base,2021.2.3,Win32,59.88023952,0.917,,,62,0,62,0,1,,,,,,,,
,,"[""diamond"",""green"",""vert"",""up"",[-106,-106],[106,-106]]",diamond,green,vert,up,"[-106,-106]","[106,-106]",left,0,,,,,,001,2025-03-10_19h19.36.389,SL_base,2021.2.3,Win32,59.88023952,1.2336,,,63,0,63,0,1,,,,,,,,
,,"[""circle"",""green"",""vert"",""up"",[0,150],[-106,106]]",circle,green,vert,up,"[0,150]","[-106,106]",up,1,,,,,,001,2025-03-10_19h19.36.389,SL_base,2021.2.3,Win32,59.88023952,1.2265,,,64,0,64,0,1,,,,,,,,
,,"[""circle"",""red"",""vert"",""up"",[0,-150],[106,106]]",circle,red,vert,up,"[0,-150]","[106,106]",up,1,,,,,,001,2025-03-10_19h19.36.389,SL_base,2021.2.3,Win32,59.88023952,0.8761,,,65,0,65,0,1,,,,,,,,
,,"[""circle"",""green"",""hori"",""left"",[106,-106],[106,106]]",circle,green,hori,left,"[106,-106]","[106,106]",left,1,,,,,,001,2025-03-10_19h19.36.389,SL_base,2021.2.3,Win32,59.88023952,0.9679,,,66,0,66,0,1,,,,,,,,
,,"[""diamond"",""red"",""hori"",""left"",[-106,106],[-150,0]]",diamond,red,hori,left,"[-106,106]","[-150,0]",left,1,,,,,,001,2025-03-10_19h19.36.389,SL_base,2021.2.3,Win32,59.88023952,2.5325,,,67,0,67,0,1,,,,,,,,
,,"[""diamond"",""no_dis"",""vert"",""up"",[99999,99999],[-150,0]]",diamond,no_dis,vert,up,"[99999,99999]","[-150,0]",up,1,,,,,,001,2025-03-10_19h19.36.389,SL_base,2021.2.3,Win32,59.88023952,1.2843,,,68,0,68,0,1,,,,,,,,
,,"[""diamond"",""green"",""vert"",""up"",[0,150],[106,-106]]",diamond,green,vert,up,"[0,150]","[106,-106]",up,1,,,,,,001,2025-03-10_19h19.36.389,SL_base,2021.2.3,Win32,59.88023952,0.9175,,,69,0,69,0,1,,,,,,,,
,,"[""circle"",""red"",""vert"",""up"",[150,0],[106,-106]]",circle,red,vert,up,"[150,0]","[106,-106]",left,0,,,,,,001,2025-03-10_19h19.36.389,SL_base,2021.2.3,Win32,59.88023952,0.9715,,,70,0,70,0,1,,,,,,,,
,,"[""circle"",""green"",""vert"",""up"",[0,-150],[106,-106]]",circle,green,vert,up,"[0,-150]","[106,-106]",up,1,,,,,,001,2025-03-10_19h19.36.389,SL_base,2021.2.3,Win32,59.88023952,1.5163,,,71,0,71,0,1,,,,,,,,
,,"[""circle"",""red"",""hori"",""left"",[150,0],[-106,-106]]",circle,red,hori,left,"[150,0]","[-106,-106]",left,1,,,,,,001,2025-03-10_19h19.36.389,SL_base,2021.2.3,Win32,59.88023952,1.3676,,,72,0,72,0,1,,,,,,,,
,,"[""diamond"",""green"",""vert"",""up"",[0,150],[0,-150]]",diamond,green,vert,up,"[0,150]","[0,-150]",up,1,,,,,,001,2025-03-10_19h19.36.389,SL_base,2021.2.3,Win32,59.88023952,1.6004,,,73,0,73,0,1,,,,,,,,
,,"[""circle"",""green"",""vert"",""up"",[106,106],[0,150]]",circle,green,vert,up,"[106,106]","[0,150]",up,1,,,,,,001,2025-03-10_19h19.36.389,SL_base,2021.2.3,Win32,59.88023952,1.8005,,,74,0,74,0,1,,,,,,,,
,,"[""diamond"",""red"",""hori"",""left"",[0,-150],[0,150]]",diamond,red,hori,left,"[0,-150]","[0,150]",left,1,,,,,,001,2025-03-10_19h19.36.389,SL_base,2021.2.3,Win32,59.88023952,1.1208,,,75,0,75,0,1,,,,,,,,
,,"[""circle"",""green"",""hori"",""left"",[-106,-106],[-150,0]]",circle,green,hori,left,"[-106,-106]","[-150,0]",left,1,,,,,,001,2025-03-10_19h19.36.389,SL_base,2021.2.3,Win32,59.88023952,1.1837,,,76,0,76,0,1,,,,,,,,
,,"[""diamond"",""green"",""vert"",""up"",[-106,-106],[150,0]]",diamond,green,vert,up,"[-106,-106]","[150,0]",up,1,,,,,,001,2025-03-10_19h19.36.389,SL_base,2021.2.3,Win32,59.88023952,1.9661,,,77,0,77,0,1,,,,,,,,
,,"[""circle"",""no_dis"",""vert"",""up"",[99999,99999],[-106,-106]]",circle,no_dis,vert,up,"[99999,99999]","[-106,-106]",up,1,,,,,,001,2025-03-10_19h19.36.389,SL_base,2021.2.3,Win32,59.88023952,2.2673,,,78,0,78,0,1,,,,,,,,
,,"[""diamond"",""red"",""vert"",""up"",[-106,-106],[-150,0]]",diamond,red,vert,up,"[-106,-106]","[-150,0]",up,1,,,,,,001,2025-03-10_19h19.36.389,SL_base,2021.2.3,Win32,59.88023952,1.8504,,,79,0,79,0,1,,,,,,,,
,,"[""diamond"",""green"",""vert"",""up"",[106,-106],[-150,0]]",diamond,green,vert,up,"[106,-106]","[-150,0]",up,1,,,,,,001,2025-03-10_19h19.36.389,SL_base,2021.2.3,Win32,59.88023952,1.6162,,,80,0,80,0,1,,,,,,,,
,,"[""diamond"",""no_dis"",""vert"",""up"",[99999,99999],[-106,-106]]",diamond,no_dis,vert,up,"[99999,99999]","[-106,-106]",up,1,,,,,,001,2025-03-10_19h19.36.389,SL_base,2021.2.3,Win32,59.88023952,1.3666,,,81,0,81,0,1,,,,,,,,
,,"[""circle"",""green"",""hori"",""left"",[150,0],[-150,0]]",circle,green,hori,left,"[150,0]","[-150,0]",left,1,,,,,,001,2025-03-10_19h19.36.389,SL_base,2021.2.3,Win32,59.88023952,2.707,,,82,0,82,0,1,,,,,,,,
,,"[""diamond"",""red"",""hori"",""left"",[150,0],[106,106]]",diamond,red,hori,left,"[150,0]","[106,106]",left,1,,,,,,001,2025-03-10_19h19.36.389,SL_base,2021.2.3,Win32,59.88023952,1.9621,,,83,0,83,0,1,,,,,,,,
,,"[""circle"",""green"",""vert"",""up"",[150,0],[-106,106]]",circle,green,vert,up,"[150,0]","[-106,106]",up,1,,,,,,001,2025-03-10_19h19.36.389,SL_base,2021.2.3,Win32,59.88023952,1.4001,,,84,0,84,0,1,,,,,,,,
,,"[""circle"",""green"",""hori"",""left"",[-106,106],[-106,-106]]",circle,green,hori,left,"[-106,106]","[-106,-106]",left,1,,,,,,001,2025-03-10_19h19.36.389,SL_base,2021.2.3,Win32,59.88023952,1.4874,,,85,0,85,0,1,,,,,,,,
,,"[""diamond"",""no_dis"",""vert"",""up"",[99999,99999],[106,106]]",diamond,no_dis,vert,up,"[99999,99999]","[106,106]",up,1,,,,,,001,2025-03-10_19h19.36.389,SL_base,2021.2.3,Win32,59.88023952,1.333,,,86,0,86,0,1,,,,,,,,
,,"[""diamond"",""no_dis"",""hori"",""left"",[99999,99999],[106,-106]]",diamond,no_dis,hori,left,"[99999,99999]","[106,-106]",left,1,,,,,,001,2025-03-10_19h19.36.389,SL_base,2021.2.3,Win32,59.88023952,1.1537,,,87,0,87,0,1,,,,,,,,
,,"[""circle"",""no_dis"",""vert"",""up"",[99999,99999],[0,-150]]",circle,no_dis,vert,up,"[99999,99999]","[0,-150]",up,1,,,,,,001,2025-03-10_19h19.36.389,SL_base,2021.2.3,Win32,59.88023952,1.5253,,,88,0,88,0,1,,,,,,,,
,,"[""diamond"",""no_dis"",""hori"",""left"",[99999,99999],[-106,106]]",diamond,no_dis,hori,left,"[99999,99999]","[-106,106]",up,0,,,,,,001,2025-03-10_19h19.36.389,SL_base,2021.2.3,Win32,59.88023952,1.784,,,89,0,89,0,1,,,,,,,,
,,"[""circle"",""green"",""hori"",""left"",[150,0],[106,106]]",circle,green,hori,left,"[150,0]","[106,106]",left,1,,,,,,001,2025-03-10_19h19.36.389,SL_base,2021.2.3,Win32,59.88023952,1.4729,,,90,0,90,0,1,,,,,,,,
