﻿key_resp.keys,key_resp.rt,trial_para,tar_shape,dis_color_condi,tar_line,cor_resp,dis_loc,tar_loc,resp.keys,resp.corr,resp.rt,trials.thisRepN,trials.thisTrialN,trials.thisN,trials.thisIndex,trials.ran,participant,date,expName,psychopyVersion,OS,frameRate,key_resp_2.keys,key_resp_2.rt,trials_2.thisRepN,trials_2.thisTrialN,trials_2.thisN,trials_2.thisIndex,trials_2.ran,block_num,key_resp_3.keys,key_resp_3.rt,trials_3.thisRepN,trials_3.thisTrialN,trials_3.thisN,trials_3.thisIndex,trials_3.ran
space,102.5312,"[""diamond"",""red"",""hori"",""left"",[150,0],[-106,106]]",diamond,red,hori,left,"[150,0]","[-106,106]",left,1,1.2928,0,0,0,0,1,001,2025-03-10_22h32.57.399,SL_base,2021.2.3,Win32,60.04202942,,,,,,,,,,,,,,,
,,"[""diamond"",""green"",""hori"",""left"",[-150,0],[106,-106]]",diamond,green,hori,left,"[-150,0]","[106,-106]",left,1,0.895,1,0,1,0,1,001,2025-03-10_22h32.57.399,SL_base,2021.2.3,Win32,60.04202942,,,,,,,,,,,,,,,
,,"[""diamond"",""green"",""hori"",""left"",[150,0],[-106,-106]]",diamond,green,hori,left,"[150,0]","[-106,-106]",left,1,0.9005,2,0,2,0,1,001,2025-03-10_22h32.57.399,SL_base,2021.2.3,Win32,60.04202942,,,,,,,,,,,,,,,
,,"[""diamond"",""no_dis"",""vert"",""up"",[99999,99999],[-106,-106]]",diamond,no_dis,vert,up,"[99999,99999]","[-106,-106]",left,0,0.7185,3,0,3,0,1,001,2025-03-10_22h32.57.399,SL_base,2021.2.3,Win32,60.04202942,,,,,,,,,,,,,,,
,,"[""circle"",""red"",""hori"",""left"",[0,150],[0,-150]]",circle,red,hori,left,"[0,150]","[0,-150]",left,1,0.9138,4,0,4,0,1,001,2025-03-10_22h32.57.399,SL_base,2021.2.3,Win32,60.04202942,,,,,,,,,,,,,,,
,,"[""diamond"",""no_dis"",""vert"",""up"",[99999,99999],[150,0]]",diamond,no_dis,vert,up,"[99999,99999]","[150,0]",up,1,1.2186,5,0,5,0,1,001,2025-03-10_22h32.57.399,SL_base,2021.2.3,Win32,60.04202942,,,,,,,,,,,,,,,
,,"[""circle"",""green"",""hori"",""left"",[106,106],[-150,0]]",circle,green,hori,left,"[106,106]","[-150,0]",left,1,0.8582,6,0,6,0,1,001,2025-03-10_22h32.57.399,SL_base,2021.2.3,Win32,60.04202942,,,,,,,,,,,,,,,
,,"[""diamond"",""green"",""vert"",""up"",[106,-106],[0,150]]",diamond,green,vert,up,"[106,-106]","[0,150]",up,1,1.0525,7,0,7,0,1,001,2025-03-10_22h32.57.399,SL_base,2021.2.3,Win32,60.04202942,,,,,,,,,,,,,,,
,,"[""diamond"",""red"",""hori"",""left"",[106,106],[0,-150]]",diamond,red,hori,left,"[106,106]","[0,-150]",left,1,1.1227,8,0,8,0,1,001,2025-03-10_22h32.57.399,SL_base,2021.2.3,Win32,60.04202942,,,,,,,,,,,,,,,
,,"[""circle"",""green"",""hori"",""left"",[-106,106],[106,106]]",circle,green,hori,left,"[-106,106]","[106,106]",left,1,1.4814,9,0,9,0,1,001,2025-03-10_22h32.57.399,SL_base,2021.2.3,Win32,60.04202942,,,,,,,,,,,,,,,
,,"[""diamond"",""red"",""hori"",""left"",[150,0],[-106,106]]",diamond,red,hori,left,"[150,0]","[-106,106]",left,1,2.6631,,,,,,001,2025-03-10_22h32.57.399,SL_base,2021.2.3,Win32,60.04202942,space,4.4162,0,0,0,0,1,,,,,,,,
,,"[""diamond"",""green"",""hori"",""left"",[-150,0],[106,-106]]",diamond,green,hori,left,"[-150,0]","[106,-106]",left,1,0.9782,,,,,,001,2025-03-10_22h32.57.399,SL_base,2021.2.3,Win32,60.04202942,,,1,0,1,0,1,,,,,,,,
,,"[""diamond"",""green"",""hori"",""left"",[150,0],[-106,-106]]",diamond,green,hori,left,"[150,0]","[-106,-106]",left,1,0.8837,,,,,,001,2025-03-10_22h32.57.399,SL_base,2021.2.3,Win32,60.04202942,,,2,0,2,0,1,,,,,,,,
,,"[""diamond"",""no_dis"",""vert"",""up"",[99999,99999],[-106,-106]]",diamond,no_dis,vert,up,"[99999,99999]","[-106,-106]",left,0,0.6403,,,,,,001,2025-03-10_22h32.57.399,SL_base,2021.2.3,Win32,60.04202942,,,3,0,3,0,1,,,,,,,,
,,"[""circle"",""red"",""hori"",""left"",[0,150],[0,-150]]",circle,red,hori,left,"[0,150]","[0,-150]",left,1,0.8649,,,,,,001,2025-03-10_22h32.57.399,SL_base,2021.2.3,Win32,60.04202942,,,4,0,4,0,1,,,,,,,,
,,"[""diamond"",""no_dis"",""vert"",""up"",[99999,99999],[150,0]]",diamond,no_dis,vert,up,"[99999,99999]","[150,0]",up,1,0.6624,,,,,,001,2025-03-10_22h32.57.399,SL_base,2021.2.3,Win32,60.04202942,,,5,0,5,0,1,,,,,,,,
,,"[""circle"",""green"",""hori"",""left"",[106,106],[-150,0]]",circle,green,hori,left,"[106,106]","[-150,0]",left,1,1.3386,,,,,,001,2025-03-10_22h32.57.399,SL_base,2021.2.3,Win32,60.04202942,,,6,0,6,0,1,,,,,,,,
,,"[""diamond"",""green"",""vert"",""up"",[106,-106],[0,150]]",diamond,green,vert,up,"[106,-106]","[0,150]",up,1,0.6731,,,,,,001,2025-03-10_22h32.57.399,SL_base,2021.2.3,Win32,60.04202942,,,7,0,7,0,1,,,,,,,,
,,"[""diamond"",""red"",""hori"",""left"",[106,106],[0,-150]]",diamond,red,hori,left,"[106,106]","[0,-150]",left,1,0.6994,,,,,,001,2025-03-10_22h32.57.399,SL_base,2021.2.3,Win32,60.04202942,,,8,0,8,0,1,,,,,,,,
,,"[""circle"",""green"",""hori"",""left"",[-106,106],[106,106]]",circle,green,hori,left,"[-106,106]","[106,106]",left,1,0.6418,,,,,,001,2025-03-10_22h32.57.399,SL_base,2021.2.3,Win32,60.04202942,,,9,0,9,0,1,,,,,,,,
,,"[""diamond"",""red"",""vert"",""up"",[106,-106],[150,0]]",diamond,red,vert,up,"[106,-106]","[150,0]",up,1,0.9194,,,,,,001,2025-03-10_22h32.57.399,SL_base,2021.2.3,Win32,60.04202942,,,10,0,10,0,1,,,,,,,,
,,"[""circle"",""no_dis"",""hori"",""left"",[99999,99999],[150,0]]",circle,no_dis,hori,left,"[99999,99999]","[150,0]",left,1,0.7534,,,,,,001,2025-03-10_22h32.57.399,SL_base,2021.2.3,Win32,60.04202942,,,11,0,11,0,1,,,,,,,,
,,"[""diamond"",""no_dis"",""hori"",""left"",[99999,99999],[106,106]]",diamond,no_dis,hori,left,"[99999,99999]","[106,106]",left,1,1.124,,,,,,001,2025-03-10_22h32.57.399,SL_base,2021.2.3,Win32,60.04202942,,,12,0,12,0,1,,,,,,,,
,,"[""diamond"",""no_dis"",""hori"",""left"",[99999,99999],[150,0]]",diamond,no_dis,hori,left,"[99999,99999]","[150,0]",left,1,0.8196,,,,,,001,2025-03-10_22h32.57.399,SL_base,2021.2.3,Win32,60.04202942,,,13,0,13,0,1,,,,,,,,
,,"[""circle"",""red"",""vert"",""up"",[106,-106],[0,150]]",circle,red,vert,up,"[106,-106]","[0,150]",up,1,0.9384,,,,,,001,2025-03-10_22h32.57.399,SL_base,2021.2.3,Win32,60.04202942,,,14,0,14,0,1,,,,,,,,
,,"[""circle"",""green"",""vert"",""up"",[150,0],[0,150]]",circle,green,vert,up,"[150,0]","[0,150]",up,1,1.0907,,,,,,001,2025-03-10_22h32.57.399,SL_base,2021.2.3,Win32,60.04202942,,,15,0,15,0,1,,,,,,,,
,,"[""diamond"",""green"",""hori"",""left"",[150,0],[-106,106]]",diamond,green,hori,left,"[150,0]","[-106,106]",left,1,0.7788,,,,,,001,2025-03-10_22h32.57.399,SL_base,2021.2.3,Win32,60.04202942,,,16,0,16,0,1,,,,,,,,
,,"[""diamond"",""green"",""vert"",""up"",[106,-106],[150,0]]",diamond,green,vert,up,"[106,-106]","[150,0]",left,0,1.1076,,,,,,001,2025-03-10_22h32.57.399,SL_base,2021.2.3,Win32,60.04202942,,,17,0,17,0,1,,,,,,,,
,,"[""circle"",""red"",""hori"",""left"",[106,106],[150,0]]",circle,red,hori,left,"[106,106]","[150,0]",left,1,1.0244,,,,,,001,2025-03-10_22h32.57.399,SL_base,2021.2.3,Win32,60.04202942,,,18,0,18,0,1,,,,,,,,
,,"[""diamond"",""no_dis"",""hori"",""left"",[99999,99999],[0,-150]]",diamond,no_dis,hori,left,"[99999,99999]","[0,-150]",left,1,0.7044,,,,,,001,2025-03-10_22h32.57.399,SL_base,2021.2.3,Win32,60.04202942,,,19,0,19,0,1,,,,,,,,
,,"[""circle"",""red"",""hori"",""left"",[150,0],[0,150]]",circle,red,hori,left,"[150,0]","[0,150]",left,1,0.6523,,,,,,001,2025-03-10_22h32.57.399,SL_base,2021.2.3,Win32,60.04202942,,,20,0,20,0,1,,,,,,,,
,,"[""diamond"",""green"",""vert"",""up"",[0,150],[-106,-106]]",diamond,green,vert,up,"[0,150]","[-106,-106]",up,1,0.7015,,,,,,001,2025-03-10_22h32.57.399,SL_base,2021.2.3,Win32,60.04202942,,,21,0,21,0,1,,,,,,,,
,,"[""circle"",""red"",""hori"",""left"",[0,-150],[0,150]]",circle,red,hori,left,"[0,-150]","[0,150]",left,1,1.204,,,,,,001,2025-03-10_22h32.57.399,SL_base,2021.2.3,Win32,60.04202942,,,22,0,22,0,1,,,,,,,,
,,"[""diamond"",""red"",""vert"",""up"",[106,-106],[106,106]]",diamond,red,vert,up,"[106,-106]","[106,106]",up,1,0.8873,,,,,,001,2025-03-10_22h32.57.399,SL_base,2021.2.3,Win32,60.04202942,,,23,0,23,0,1,,,,,,,,
,,"[""diamond"",""green"",""hori"",""left"",[-150,0],[106,-106]]",diamond,green,hori,left,"[-150,0]","[106,-106]",left,1,0.7189,,,,,,001,2025-03-10_22h32.57.399,SL_base,2021.2.3,Win32,60.04202942,,,24,0,24,0,1,,,,,,,,
,,"[""diamond"",""no_dis"",""vert"",""up"",[99999,99999],[0,150]]",diamond,no_dis,vert,up,"[99999,99999]","[0,150]",up,1,0.6308,,,,,,001,2025-03-10_22h32.57.399,SL_base,2021.2.3,Win32,60.04202942,,,25,0,25,0,1,,,,,,,,
,,"[""diamond"",""no_dis"",""hori"",""left"",[99999,99999],[-106,-106]]",diamond,no_dis,hori,left,"[99999,99999]","[-106,-106]",left,1,0.773,,,,,,001,2025-03-10_22h32.57.399,SL_base,2021.2.3,Win32,60.04202942,,,26,0,26,0,1,,,,,,,,
,,"[""circle"",""no_dis"",""hori"",""left"",[99999,99999],[-150,0]]",circle,no_dis,hori,left,"[99999,99999]","[-150,0]",left,1,0.8257,,,,,,001,2025-03-10_22h32.57.399,SL_base,2021.2.3,Win32,60.04202942,,,27,0,27,0,1,,,,,,,,
,,"[""diamond"",""no_dis"",""vert"",""up"",[99999,99999],[-150,0]]",diamond,no_dis,vert,up,"[99999,99999]","[-150,0]",up,1,0.9716,,,,,,001,2025-03-10_22h32.57.399,SL_base,2021.2.3,Win32,60.04202942,,,28,0,28,0,1,,,,,,,,
,,"[""diamond"",""green"",""vert"",""up"",[-106,106],[0,150]]",diamond,green,vert,up,"[-106,106]","[0,150]",up,1,0.8746,,,,,,001,2025-03-10_22h32.57.399,SL_base,2021.2.3,Win32,60.04202942,,,29,0,29,0,1,,,,,,,,
,,"[""diamond"",""red"",""hori"",""left"",[150,0],[-106,106]]",diamond,red,hori,left,"[150,0]","[-106,106]",left,1,1.4794,,,,,,001,2025-03-10_22h32.57.399,SL_base,2021.2.3,Win32,60.04202942,,,30,0,30,0,1,,,,,,,,
,,"[""diamond"",""red"",""vert"",""up"",[150,0],[-106,106]]",diamond,red,vert,up,"[150,0]","[-106,106]",up,1,1.7449,,,,,,001,2025-03-10_22h32.57.399,SL_base,2021.2.3,Win32,60.04202942,,,31,0,31,0,1,,,,,,,,
,,"[""diamond"",""green"",""vert"",""up"",[-106,106],[-106,-106]]",diamond,green,vert,up,"[-106,106]","[-106,-106]",up,1,1.8872,,,,,,001,2025-03-10_22h32.57.399,SL_base,2021.2.3,Win32,60.04202942,,,32,0,32,0,1,,,,,,,,
,,"[""circle"",""green"",""hori"",""left"",[150,0],[0,-150]]",circle,green,hori,left,"[150,0]","[0,-150]",left,1,0.9812,,,,,,001,2025-03-10_22h32.57.399,SL_base,2021.2.3,Win32,60.04202942,,,33,0,33,0,1,,,,,,,,
,,"[""circle"",""no_dis"",""hori"",""left"",[99999,99999],[106,106]]",circle,no_dis,hori,left,"[99999,99999]","[106,106]",left,1,0.6265,,,,,,001,2025-03-10_22h32.57.399,SL_base,2021.2.3,Win32,60.04202942,,,34,0,34,0,1,,,,,,,,
,,"[""diamond"",""no_dis"",""hori"",""left"",[99999,99999],[106,-106]]",diamond,no_dis,hori,left,"[99999,99999]","[106,-106]",left,1,1.22,,,,,,001,2025-03-10_22h32.57.399,SL_base,2021.2.3,Win32,60.04202942,,,35,0,35,0,1,,,,,,,,
,,"[""diamond"",""green"",""hori"",""left"",[-150,0],[106,106]]",diamond,green,hori,left,"[-150,0]","[106,106]",left,1,1.3387,,,,,,001,2025-03-10_22h32.57.399,SL_base,2021.2.3,Win32,60.04202942,,,36,0,36,0,1,,,,,,,,
,,"[""circle"",""no_dis"",""hori"",""left"",[99999,99999],[0,150]]",circle,no_dis,hori,left,"[99999,99999]","[0,150]",left,1,1.3025,,,,,,001,2025-03-10_22h32.57.399,SL_base,2021.2.3,Win32,60.04202942,,,37,0,37,0,1,,,,,,,,
,,"[""diamond"",""no_dis"",""vert"",""up"",[99999,99999],[-106,106]]",diamond,no_dis,vert,up,"[99999,99999]","[-106,106]",up,1,1.3653,,,,,,001,2025-03-10_22h32.57.399,SL_base,2021.2.3,Win32,60.04202942,,,38,0,38,0,1,,,,,,,,
,,"[""diamond"",""red"",""vert"",""up"",[-150,0],[106,-106]]",diamond,red,vert,up,"[-150,0]","[106,-106]",up,1,1.1123,,,,,,001,2025-03-10_22h32.57.399,SL_base,2021.2.3,Win32,60.04202942,,,39,0,39,0,1,,,,,,,,
,,"[""circle"",""no_dis"",""hori"",""left"",[99999,99999],[106,-106]]",circle,no_dis,hori,left,"[99999,99999]","[106,-106]",left,1,1.1265,,,,,,001,2025-03-10_22h32.57.399,SL_base,2021.2.3,Win32,60.04202942,,,40,0,40,0,1,,,,,,,,
,,"[""diamond"",""red"",""hori"",""left"",[0,150],[150,0]]",diamond,red,hori,left,"[0,150]","[150,0]",up,0,1.0958,,,,,,001,2025-03-10_22h32.57.399,SL_base,2021.2.3,Win32,60.04202942,,,41,0,41,0,1,,,,,,,,
,,"[""diamond"",""green"",""vert"",""up"",[-106,-106],[106,106]]",diamond,green,vert,up,"[-106,-106]","[106,106]",up,1,0.8993,,,,,,001,2025-03-10_22h32.57.399,SL_base,2021.2.3,Win32,60.04202942,,,42,0,42,0,1,,,,,,,,
,,"[""circle"",""green"",""hori"",""left"",[-106,-106],[150,0]]",circle,green,hori,left,"[-106,-106]","[150,0]",left,1,0.8031,,,,,,001,2025-03-10_22h32.57.399,SL_base,2021.2.3,Win32,60.04202942,,,43,0,43,0,1,,,,,,,,
,,"[""circle"",""green"",""hori"",""left"",[0,-150],[106,106]]",circle,green,hori,left,"[0,-150]","[106,106]",left,1,0.7376,,,,,,001,2025-03-10_22h32.57.399,SL_base,2021.2.3,Win32,60.04202942,,,44,0,44,0,1,,,,,,,,
,,"[""circle"",""green"",""hori"",""left"",[106,106],[-106,-106]]",circle,green,hori,left,"[106,106]","[-106,-106]",left,1,0.7919,,,,,,001,2025-03-10_22h32.57.399,SL_base,2021.2.3,Win32,60.04202942,,,45,0,45,0,1,,,,,,,,
,,"[""circle"",""green"",""vert"",""up"",[150,0],[0,-150]]",circle,green,vert,up,"[150,0]","[0,-150]",left,0,0.7689,,,,,,001,2025-03-10_22h32.57.399,SL_base,2021.2.3,Win32,60.04202942,,,46,0,46,0,1,,,,,,,,
,,"[""circle"",""red"",""hori"",""left"",[150,0],[106,-106]]",circle,red,hori,left,"[150,0]","[106,-106]",left,1,0.9306,,,,,,001,2025-03-10_22h32.57.399,SL_base,2021.2.3,Win32,60.04202942,,,47,0,47,0,1,,,,,,,,
,,"[""circle"",""no_dis"",""hori"",""left"",[99999,99999],[106,106]]",circle,no_dis,hori,left,"[99999,99999]","[106,106]",left,1,0.6596,,,,,,001,2025-03-10_22h32.57.399,SL_base,2021.2.3,Win32,60.04202942,,,48,0,48,0,1,,,,,,,,
,,"[""circle"",""no_dis"",""vert"",""up"",[99999,99999],[106,-106]]",circle,no_dis,vert,up,"[99999,99999]","[106,-106]",up,1,0.7412,,,,,,001,2025-03-10_22h32.57.399,SL_base,2021.2.3,Win32,60.04202942,,,49,0,49,0,1,,,,,,,,
,,"[""circle"",""red"",""hori"",""left"",[-150,0],[106,106]]",circle,red,hori,left,"[-150,0]","[106,106]",left,1,0.7567,,,,,,001,2025-03-10_22h32.57.399,SL_base,2021.2.3,Win32,60.04202942,,,50,0,50,0,1,,,,,,,,
,,"[""circle"",""green"",""vert"",""up"",[0,150],[150,0]]",circle,green,vert,up,"[0,150]","[150,0]",left,0,0.7087,,,,,,001,2025-03-10_22h32.57.399,SL_base,2021.2.3,Win32,60.04202942,,,51,0,51,0,1,,,,,,,,
,,"[""diamond"",""no_dis"",""vert"",""up"",[99999,99999],[-106,-106]]",diamond,no_dis,vert,up,"[99999,99999]","[-106,-106]",up,1,0.8515,,,,,,001,2025-03-10_22h32.57.399,SL_base,2021.2.3,Win32,60.04202942,,,52,0,52,0,1,,,,,,,,
,,"[""circle"",""green"",""vert"",""up"",[-106,-106],[106,106]]",circle,green,vert,up,"[-106,-106]","[106,106]",up,1,0.6977,,,,,,001,2025-03-10_22h32.57.399,SL_base,2021.2.3,Win32,60.04202942,,,53,0,53,0,1,,,,,,,,
,,"[""diamond"",""green"",""hori"",""left"",[0,-150],[-106,106]]",diamond,green,hori,left,"[0,-150]","[-106,106]",left,1,0.9468,,,,,,001,2025-03-10_22h32.57.399,SL_base,2021.2.3,Win32,60.04202942,,,54,0,54,0,1,,,,,,,,
,,"[""circle"",""green"",""hori"",""left"",[-106,-106],[106,106]]",circle,green,hori,left,"[-106,-106]","[106,106]",left,1,0.7151,,,,,,001,2025-03-10_22h32.57.399,SL_base,2021.2.3,Win32,60.04202942,,,55,0,55,0,1,,,,,,,,
,,"[""diamond"",""red"",""vert"",""up"",[106,106],[-150,0]]",diamond,red,vert,up,"[106,106]","[-150,0]",up,1,1.0256,,,,,,001,2025-03-10_22h32.57.399,SL_base,2021.2.3,Win32,60.04202942,,,56,0,56,0,1,,,,,,,,
,,"[""diamond"",""no_dis"",""vert"",""up"",[99999,99999],[0,150]]",diamond,no_dis,vert,up,"[99999,99999]","[0,150]",up,1,0.6467,,,,,,001,2025-03-10_22h32.57.399,SL_base,2021.2.3,Win32,60.04202942,,,57,0,57,0,1,,,,,,,,
,,"[""circle"",""green"",""vert"",""up"",[0,-150],[150,0]]",circle,green,vert,up,"[0,-150]","[150,0]",up,1,0.924,,,,,,001,2025-03-10_22h32.57.399,SL_base,2021.2.3,Win32,60.04202942,,,58,0,58,0,1,,,,,,,,
,,"[""circle"",""red"",""hori"",""left"",[150,0],[106,-106]]",circle,red,hori,left,"[150,0]","[106,-106]",up,0,0.9324,,,,,,001,2025-03-10_22h32.57.399,SL_base,2021.2.3,Win32,60.04202942,,,59,0,59,0,1,,,,,,,,
,,"[""circle"",""red"",""vert"",""up"",[150,0],[-106,106]]",circle,red,vert,up,"[150,0]","[-106,106]",up,1,0.6396,,,,,,001,2025-03-10_22h32.57.399,SL_base,2021.2.3,Win32,60.04202942,,,60,0,60,0,1,,,,,,,,
,,"[""circle"",""no_dis"",""vert"",""up"",[99999,99999],[0,-150]]",circle,no_dis,vert,up,"[99999,99999]","[0,-150]",up,1,1.0056,,,,,,001,2025-03-10_22h32.57.399,SL_base,2021.2.3,Win32,60.04202942,,,61,0,61,0,1,,,,,,,,
,,"[""diamond"",""green"",""vert"",""up"",[-106,-106],[0,150]]",diamond,green,vert,up,"[-106,-106]","[0,150]",up,1,0.8095,,,,,,001,2025-03-10_22h32.57.399,SL_base,2021.2.3,Win32,60.04202942,,,62,0,62,0,1,,,,,,,,
,,"[""circle"",""green"",""vert"",""up"",[0,150],[-106,-106]]",circle,green,vert,up,"[0,150]","[-106,-106]",left,0,0.7338,,,,,,001,2025-03-10_22h32.57.399,SL_base,2021.2.3,Win32,60.04202942,,,63,0,63,0,1,,,,,,,,
,,"[""circle"",""green"",""vert"",""up"",[150,0],[-150,0]]",circle,green,vert,up,"[150,0]","[-150,0]",up,1,0.7505,,,,,,001,2025-03-10_22h32.57.399,SL_base,2021.2.3,Win32,60.04202942,,,64,0,64,0,1,,,,,,,,
,,"[""circle"",""red"",""hori"",""left"",[106,-106],[-106,106]]",circle,red,hori,left,"[106,-106]","[-106,106]",left,1,0.8085,,,,,,001,2025-03-10_22h32.57.399,SL_base,2021.2.3,Win32,60.04202942,,,65,0,65,0,1,,,,,,,,
,,"[""diamond"",""red"",""vert"",""up"",[0,150],[150,0]]",diamond,red,vert,up,"[0,150]","[150,0]",up,1,1.1396,,,,,,001,2025-03-10_22h32.57.399,SL_base,2021.2.3,Win32,60.04202942,,,66,0,66,0,1,,,,,,,,
,,"[""diamond"",""green"",""hori"",""left"",[-106,106],[106,106]]",diamond,green,hori,left,"[-106,106]","[106,106]",left,1,0.836,,,,,,001,2025-03-10_22h32.57.399,SL_base,2021.2.3,Win32,60.04202942,,,67,0,67,0,1,,,,,,,,
,,"[""circle"",""red"",""vert"",""up"",[-106,106],[0,150]]",circle,red,vert,up,"[-106,106]","[0,150]",up,1,1.1655,,,,,,001,2025-03-10_22h32.57.399,SL_base,2021.2.3,Win32,60.04202942,,,68,0,68,0,1,,,,,,,,
,,"[""circle"",""red"",""vert"",""up"",[150,0],[106,-106]]",circle,red,vert,up,"[150,0]","[106,-106]",up,1,1.0319,,,,,,001,2025-03-10_22h32.57.399,SL_base,2021.2.3,Win32,60.04202942,,,69,0,69,0,1,,,,,,,,
,,"[""circle"",""no_dis"",""hori"",""left"",[99999,99999],[0,150]]",circle,no_dis,hori,left,"[99999,99999]","[0,150]",left,1,0.6823,,,,,,001,2025-03-10_22h32.57.399,SL_base,2021.2.3,Win32,60.04202942,,,70,0,70,0,1,,,,,,,,
,,"[""circle"",""no_dis"",""hori"",""left"",[99999,99999],[0,150]]",circle,no_dis,hori,left,"[99999,99999]","[0,150]",left,1,0.8349,,,,,,001,2025-03-10_22h32.57.399,SL_base,2021.2.3,Win32,60.04202942,,,71,0,71,0,1,,,,,,,,
,,"[""diamond"",""green"",""vert"",""up"",[106,-106],[106,106]]",diamond,green,vert,up,"[106,-106]","[106,106]",up,1,0.9328,,,,,,001,2025-03-10_22h32.57.399,SL_base,2021.2.3,Win32,60.04202942,,,72,0,72,0,1,,,,,,,,
,,"[""diamond"",""red"",""vert"",""up"",[-106,106],[-150,0]]",diamond,red,vert,up,"[-106,106]","[-150,0]",up,1,1.1,,,,,,001,2025-03-10_22h32.57.399,SL_base,2021.2.3,Win32,60.04202942,,,73,0,73,0,1,,,,,,,,
,,"[""circle"",""no_dis"",""vert"",""up"",[99999,99999],[0,-150]]",circle,no_dis,vert,up,"[99999,99999]","[0,-150]",up,1,0.7814,,,,,,001,2025-03-10_22h32.57.399,SL_base,2021.2.3,Win32,60.04202942,,,74,0,74,0,1,,,,,,,,
,,"[""diamond"",""red"",""vert"",""up"",[150,0],[-150,0]]",diamond,red,vert,up,"[150,0]","[-150,0]",up,1,0.816,,,,,,001,2025-03-10_22h32.57.399,SL_base,2021.2.3,Win32,60.04202942,,,75,0,75,0,1,,,,,,,,
,,"[""circle"",""no_dis"",""vert"",""up"",[99999,99999],[0,-150]]",circle,no_dis,vert,up,"[99999,99999]","[0,-150]",up,1,0.5991,,,,,,001,2025-03-10_22h32.57.399,SL_base,2021.2.3,Win32,60.04202942,,,76,0,76,0,1,,,,,,,,
,,"[""circle"",""red"",""vert"",""up"",[150,0],[106,-106]]",circle,red,vert,up,"[150,0]","[106,-106]",left,0,1.4369,,,,,,001,2025-03-10_22h32.57.399,SL_base,2021.2.3,Win32,60.04202942,,,77,0,77,0,1,,,,,,,,
,,"[""circle"",""red"",""vert"",""up"",[-150,0],[150,0]]",circle,red,vert,up,"[-150,0]","[150,0]",up,1,0.6572,,,,,,001,2025-03-10_22h32.57.399,SL_base,2021.2.3,Win32,60.04202942,,,78,0,78,0,1,,,,,,,,
,,"[""circle"",""green"",""hori"",""left"",[150,0],[-150,0]]",circle,green,hori,left,"[150,0]","[-150,0]",left,1,0.8902,,,,,,001,2025-03-10_22h32.57.399,SL_base,2021.2.3,Win32,60.04202942,,,79,0,79,0,1,,,,,,,,
,,"[""circle"",""red"",""hori"",""left"",[0,-150],[106,106]]",circle,red,hori,left,"[0,-150]","[106,106]",left,1,0.7051,,,,,,001,2025-03-10_22h32.57.399,SL_base,2021.2.3,Win32,60.04202942,,,80,0,80,0,1,,,,,,,,
,,"[""diamond"",""no_dis"",""vert"",""up"",[99999,99999],[-106,106]]",diamond,no_dis,vert,up,"[99999,99999]","[-106,106]",up,1,0.9133,,,,,,001,2025-03-10_22h32.57.399,SL_base,2021.2.3,Win32,60.04202942,,,81,0,81,0,1,,,,,,,,
,,"[""circle"",""no_dis"",""vert"",""up"",[99999,99999],[-106,-106]]",circle,no_dis,vert,up,"[99999,99999]","[-106,-106]",up,1,0.7851,,,,,,001,2025-03-10_22h32.57.399,SL_base,2021.2.3,Win32,60.04202942,,,82,0,82,0,1,,,,,,,,
,,"[""diamond"",""red"",""hori"",""left"",[0,-150],[-106,106]]",diamond,red,hori,left,"[0,-150]","[-106,106]",left,1,1.0533,,,,,,001,2025-03-10_22h32.57.399,SL_base,2021.2.3,Win32,60.04202942,,,83,0,83,0,1,,,,,,,,
,,"[""circle"",""red"",""vert"",""up"",[150,0],[0,-150]]",circle,red,vert,up,"[150,0]","[0,-150]",up,1,0.9762,,,,,,001,2025-03-10_22h32.57.399,SL_base,2021.2.3,Win32,60.04202942,,,84,0,84,0,1,,,,,,,,
,,"[""circle"",""no_dis"",""vert"",""up"",[99999,99999],[-150,0]]",circle,no_dis,vert,up,"[99999,99999]","[-150,0]",up,1,0.9693,,,,,,001,2025-03-10_22h32.57.399,SL_base,2021.2.3,Win32,60.04202942,,,85,0,85,0,1,,,,,,,,
,,"[""diamond"",""red"",""hori"",""left"",[150,0],[0,-150]]",diamond,red,hori,left,"[150,0]","[0,-150]",left,1,1.2526,,,,,,001,2025-03-10_22h32.57.399,SL_base,2021.2.3,Win32,60.04202942,,,86,0,86,0,1,,,,,,,,
,,"[""diamond"",""green"",""vert"",""up"",[0,150],[0,-150]]",diamond,green,vert,up,"[0,150]","[0,-150]",up,1,0.9923,,,,,,001,2025-03-10_22h32.57.399,SL_base,2021.2.3,Win32,60.04202942,,,87,0,87,0,1,,,,,,,,
,,"[""circle"",""no_dis"",""vert"",""up"",[99999,99999],[-106,106]]",circle,no_dis,vert,up,"[99999,99999]","[-106,106]",up,1,1.1147,,,,,,001,2025-03-10_22h32.57.399,SL_base,2021.2.3,Win32,60.04202942,,,88,0,88,0,1,,,,,,,,
,,"[""circle"",""red"",""vert"",""up"",[150,0],[106,-106]]",circle,red,vert,up,"[150,0]","[106,-106]",up,1,0.9537,,,,,,001,2025-03-10_22h32.57.399,SL_base,2021.2.3,Win32,60.04202942,,,89,0,89,0,1,,,,,,,,
,,"[""diamond"",""green"",""hori"",""left"",[-106,106],[0,150]]",diamond,green,hori,left,"[-106,106]","[0,150]",left,1,1.0472,,,,,,001,2025-03-10_22h32.57.399,SL_base,2021.2.3,Win32,60.04202942,,,90,0,90,0,1,,,,,,,,
,,"[""diamond"",""no_dis"",""vert"",""up"",[99999,99999],[106,106]]",diamond,no_dis,vert,up,"[99999,99999]","[106,106]",up,1,0.896,,,,,,001,2025-03-10_22h32.57.399,SL_base,2021.2.3,Win32,60.04202942,,,91,0,91,0,1,,,,,,,,
,,"[""diamond"",""no_dis"",""hori"",""left"",[99999,99999],[-106,106]]",diamond,no_dis,hori,left,"[99999,99999]","[-106,106]",left,1,0.8129,,,,,,001,2025-03-10_22h32.57.399,SL_base,2021.2.3,Win32,60.04202942,,,92,0,92,0,1,,,,,,,,
,,"[""circle"",""green"",""hori"",""left"",[-150,0],[0,-150]]",circle,green,hori,left,"[-150,0]","[0,-150]",left,1,0.9413,,,,,,001,2025-03-10_22h32.57.399,SL_base,2021.2.3,Win32,60.04202942,,,93,0,93,0,1,,,,,,,,
,,"[""circle"",""green"",""vert"",""up"",[150,0],[0,150]]",circle,green,vert,up,"[150,0]","[0,150]",up,1,0.7238,,,,,,001,2025-03-10_22h32.57.399,SL_base,2021.2.3,Win32,60.04202942,,,94,0,94,0,1,,,,,,,,
,,"[""diamond"",""no_dis"",""vert"",""up"",[99999,99999],[106,-106]]",diamond,no_dis,vert,up,"[99999,99999]","[106,-106]",up,1,0.9644,,,,,,001,2025-03-10_22h32.57.399,SL_base,2021.2.3,Win32,60.04202942,,,95,0,95,0,1,,,,,,,,
,,"[""circle"",""no_dis"",""hori"",""left"",[99999,99999],[-106,-106]]",circle,no_dis,hori,left,"[99999,99999]","[-106,-106]",left,1,0.8193,,,,,,001,2025-03-10_22h32.57.399,SL_base,2021.2.3,Win32,60.04202942,,,96,0,96,0,1,,,,,,,,
,,"[""circle"",""no_dis"",""vert"",""up"",[99999,99999],[150,0]]",circle,no_dis,vert,up,"[99999,99999]","[150,0]",up,1,0.6078,,,,,,001,2025-03-10_22h32.57.399,SL_base,2021.2.3,Win32,60.04202942,,,97,0,97,0,1,,,,,,,,
,,"[""diamond"",""no_dis"",""hori"",""left"",[99999,99999],[0,-150]]",diamond,no_dis,hori,left,"[99999,99999]","[0,-150]",left,1,1.0893,,,,,,001,2025-03-10_22h32.57.399,SL_base,2021.2.3,Win32,60.04202942,,,98,0,98,0,1,,,,,,,,
,,"[""circle"",""red"",""hori"",""left"",[150,0],[-106,-106]]",circle,red,hori,left,"[150,0]","[-106,-106]",left,1,0.8645,,,,,,001,2025-03-10_22h32.57.399,SL_base,2021.2.3,Win32,60.04202942,,,99,0,99,0,1,,,,,,,,
,,"[""diamond"",""red"",""hori"",""left"",[150,0],[-150,0]]",diamond,red,hori,left,"[150,0]","[-150,0]",left,1,0.8702,,,,,,001,2025-03-10_22h32.57.399,SL_base,2021.2.3,Win32,60.04202942,,,100,0,100,0,1,,,,,,,,
,,"[""circle"",""green"",""vert"",""up"",[0,-150],[-106,-106]]",circle,green,vert,up,"[0,-150]","[-106,-106]",up,1,0.9057,,,,,,001,2025-03-10_22h32.57.399,SL_base,2021.2.3,Win32,60.04202942,,,101,0,101,0,1,,,,,,,,
,,"[""diamond"",""green"",""hori"",""left"",[106,106],[-106,106]]",diamond,green,hori,left,"[106,106]","[-106,106]",left,1,0.7469,,,,,,001,2025-03-10_22h32.57.399,SL_base,2021.2.3,Win32,60.04202942,,,102,0,102,0,1,,,,,,,,
,,"[""diamond"",""no_dis"",""hori"",""left"",[99999,99999],[-106,106]]",diamond,no_dis,hori,left,"[99999,99999]","[-106,106]",left,1,0.6402,,,,,,001,2025-03-10_22h32.57.399,SL_base,2021.2.3,Win32,60.04202942,,,103,0,103,0,1,,,,,,,,
,,"[""circle"",""no_dis"",""vert"",""up"",[99999,99999],[150,0]]",circle,no_dis,vert,up,"[99999,99999]","[150,0]",up,1,1.098,,,,,,001,2025-03-10_22h32.57.399,SL_base,2021.2.3,Win32,60.04202942,,,104,0,104,0,1,,,,,,,,
,,"[""diamond"",""green"",""hori"",""left"",[0,-150],[106,106]]",diamond,green,hori,left,"[0,-150]","[106,106]",left,1,0.7154,,,,,,001,2025-03-10_22h32.57.399,SL_base,2021.2.3,Win32,60.04202942,,,105,0,105,0,1,,,,,,,,
,,"[""diamond"",""red"",""hori"",""left"",[0,150],[150,0]]",diamond,red,hori,left,"[0,150]","[150,0]",left,1,0.7732,,,,,,001,2025-03-10_22h32.57.399,SL_base,2021.2.3,Win32,60.04202942,,,106,0,106,0,1,,,,,,,,
,,"[""diamond"",""no_dis"",""hori"",""left"",[99999,99999],[-150,0]]",diamond,no_dis,hori,left,"[99999,99999]","[-150,0]",left,1,0.6665,,,,,,001,2025-03-10_22h32.57.399,SL_base,2021.2.3,Win32,60.04202942,,,107,0,107,0,1,,,,,,,,
,,"[""diamond"",""no_dis"",""hori"",""left"",[99999,99999],[-150,0]]",diamond,no_dis,hori,left,"[99999,99999]","[-150,0]",left,1,0.6705,,,,,,001,2025-03-10_22h32.57.399,SL_base,2021.2.3,Win32,60.04202942,,,108,0,108,0,1,,,,,,,,
,,"[""circle"",""red"",""vert"",""up"",[106,106],[-106,-106]]",circle,red,vert,up,"[106,106]","[-106,-106]",up,1,0.8581,,,,,,001,2025-03-10_22h32.57.399,SL_base,2021.2.3,Win32,60.04202942,,,109,0,109,0,1,,,,,,,,
,,"[""diamond"",""red"",""vert"",""up"",[-106,-106],[-150,0]]",diamond,red,vert,up,"[-106,-106]","[-150,0]",up,1,1.0137,,,,,,001,2025-03-10_22h32.57.399,SL_base,2021.2.3,Win32,60.04202942,,,110,0,110,0,1,,,,,,,,
,,"[""diamond"",""red"",""hori"",""left"",[106,-106],[0,-150]]",diamond,red,hori,left,"[106,-106]","[0,-150]",left,1,1.0879,,,,,,001,2025-03-10_22h32.57.399,SL_base,2021.2.3,Win32,60.04202942,,,111,0,111,0,1,,,,,,,,
,,"[""diamond"",""green"",""vert"",""up"",[106,106],[-150,0]]",diamond,green,vert,up,"[106,106]","[-150,0]",up,1,0.7136,,,,,,001,2025-03-10_22h32.57.399,SL_base,2021.2.3,Win32,60.04202942,,,112,0,112,0,1,,,,,,,,
,,"[""diamond"",""red"",""hori"",""left"",[150,0],[0,150]]",diamond,red,hori,left,"[150,0]","[0,150]",left,1,1.1127,,,,,,001,2025-03-10_22h32.57.399,SL_base,2021.2.3,Win32,60.04202942,,,113,0,113,0,1,,,,,,,,
,,"[""circle"",""no_dis"",""hori"",""left"",[99999,99999],[106,-106]]",circle,no_dis,hori,left,"[99999,99999]","[106,-106]",left,1,0.8494,,,,,,001,2025-03-10_22h32.57.399,SL_base,2021.2.3,Win32,60.04202942,,,114,0,114,0,1,,,,,,,,
,,"[""circle"",""no_dis"",""vert"",""up"",[99999,99999],[106,106]]",circle,no_dis,vert,up,"[99999,99999]","[106,106]",up,1,0.8769,,,,,,001,2025-03-10_22h32.57.399,SL_base,2021.2.3,Win32,60.04202942,,,115,0,115,0,1,,,,,,,,
,,"[""circle"",""green"",""hori"",""left"",[-106,-106],[106,106]]",circle,green,hori,left,"[-106,-106]","[106,106]",up,0,0.9345,,,,,,001,2025-03-10_22h32.57.399,SL_base,2021.2.3,Win32,60.04202942,,,116,0,116,0,1,,,,,,,,
,,"[""diamond"",""red"",""vert"",""up"",[-150,0],[0,150]]",diamond,red,vert,up,"[-150,0]","[0,150]",up,1,0.9562,,,,,,001,2025-03-10_22h32.57.399,SL_base,2021.2.3,Win32,60.04202942,,,117,0,117,0,1,,,,,,,,
,,"[""circle"",""green"",""vert"",""up"",[-106,-106],[150,0]]",circle,green,vert,up,"[-106,-106]","[150,0]",up,1,1.1849,,,,,,001,2025-03-10_22h32.57.399,SL_base,2021.2.3,Win32,60.04202942,,,118,0,118,0,1,,,,,,,,
,,"[""circle"",""red"",""vert"",""up"",[-106,106],[0,150]]",circle,red,vert,up,"[-106,106]","[0,150]",up,1,2.0652,,,,,,001,2025-03-10_22h32.57.399,SL_base,2021.2.3,Win32,60.04202942,,,119,0,119,0,1,,,,,,,,
,,,,,,,,,,,,,,,,,001,2025-03-10_22h32.57.399,SL_base,2021.2.3,Win32,60.04202942,,,,,,,,1,space,3.275,0,0,0,0,1
,,"[""circle"",""green"",""hori"",""left"",[-106,106],[106,106]]",circle,green,hori,left,"[-106,106]","[106,106]",left,1,1.4222,,,,,,001,2025-03-10_22h32.57.399,SL_base,2021.2.3,Win32,60.04202942,,,0,0,0,0,1,,,,,,,,
,,"[""circle"",""green"",""hori"",""left"",[-150,0],[0,-150]]",circle,green,hori,left,"[-150,0]","[0,-150]",left,1,1.2315,,,,,,001,2025-03-10_22h32.57.399,SL_base,2021.2.3,Win32,60.04202942,,,1,0,1,0,1,,,,,,,,
,,"[""diamond"",""green"",""hori"",""left"",[-106,106],[106,106]]",diamond,green,hori,left,"[-106,106]","[106,106]",left,1,0.797,,,,,,001,2025-03-10_22h32.57.399,SL_base,2021.2.3,Win32,60.04202942,,,2,0,2,0,1,,,,,,,,
,,"[""diamond"",""red"",""vert"",""up"",[150,0],[-150,0]]",diamond,red,vert,up,"[150,0]","[-150,0]",up,1,0.9803,,,,,,001,2025-03-10_22h32.57.399,SL_base,2021.2.3,Win32,60.04202942,,,3,0,3,0,1,,,,,,,,
,,"[""circle"",""no_dis"",""vert"",""up"",[99999,99999],[0,-150]]",circle,no_dis,vert,up,"[99999,99999]","[0,-150]",up,1,0.7985,,,,,,001,2025-03-10_22h32.57.399,SL_base,2021.2.3,Win32,60.04202942,,,4,0,4,0,1,,,,,,,,
,,"[""diamond"",""green"",""hori"",""left"",[0,-150],[106,106]]",diamond,green,hori,left,"[0,-150]","[106,106]",left,1,0.7903,,,,,,001,2025-03-10_22h32.57.399,SL_base,2021.2.3,Win32,60.04202942,,,5,0,5,0,1,,,,,,,,
,,"[""diamond"",""green"",""hori"",""left"",[-150,0],[106,-106]]",diamond,green,hori,left,"[-150,0]","[106,-106]",left,1,0.891,,,,,,001,2025-03-10_22h32.57.399,SL_base,2021.2.3,Win32,60.04202942,,,6,0,6,0,1,,,,,,,,
,,"[""diamond"",""green"",""hori"",""left"",[150,0],[-106,-106]]",diamond,green,hori,left,"[150,0]","[-106,-106]",left,1,1.1485,,,,,,001,2025-03-10_22h32.57.399,SL_base,2021.2.3,Win32,60.04202942,,,7,0,7,0,1,,,,,,,,
,,"[""diamond"",""red"",""vert"",""up"",[-150,0],[0,150]]",diamond,red,vert,up,"[-150,0]","[0,150]",up,1,0.814,,,,,,001,2025-03-10_22h32.57.399,SL_base,2021.2.3,Win32,60.04202942,,,8,0,8,0,1,,,,,,,,
,,"[""circle"",""red"",""hori"",""left"",[-150,0],[106,106]]",circle,red,hori,left,"[-150,0]","[106,106]",up,0,1.0864,,,,,,001,2025-03-10_22h32.57.399,SL_base,2021.2.3,Win32,60.04202942,,,9,0,9,0,1,,,,,,,,
,,"[""diamond"",""no_dis"",""vert"",""up"",[99999,99999],[0,150]]",diamond,no_dis,vert,up,"[99999,99999]","[0,150]",up,1,0.7336,,,,,,001,2025-03-10_22h32.57.399,SL_base,2021.2.3,Win32,60.04202942,,,10,0,10,0,1,,,,,,,,
,,"[""diamond"",""red"",""vert"",""up"",[-106,-106],[-150,0]]",diamond,red,vert,up,"[-106,-106]","[-150,0]",up,1,0.6966,,,,,,001,2025-03-10_22h32.57.399,SL_base,2021.2.3,Win32,60.04202942,,,11,0,11,0,1,,,,,,,,
,,"[""circle"",""no_dis"",""vert"",""up"",[99999,99999],[106,106]]",circle,no_dis,vert,up,"[99999,99999]","[106,106]",up,1,1.4376,,,,,,001,2025-03-10_22h32.57.399,SL_base,2021.2.3,Win32,60.04202942,,,12,0,12,0,1,,,,,,,,
,,"[""circle"",""green"",""vert"",""up"",[-106,-106],[150,0]]",circle,green,vert,up,"[-106,-106]","[150,0]",up,1,1.253,,,,,,001,2025-03-10_22h32.57.399,SL_base,2021.2.3,Win32,60.04202942,,,13,0,13,0,1,,,,,,,,
,,"[""diamond"",""no_dis"",""hori"",""left"",[99999,99999],[150,0]]",diamond,no_dis,hori,left,"[99999,99999]","[150,0]",left,1,0.9681,,,,,,001,2025-03-10_22h32.57.399,SL_base,2021.2.3,Win32,60.04202942,,,14,0,14,0,1,,,,,,,,
,,"[""diamond"",""red"",""vert"",""up"",[150,0],[-106,106]]",diamond,red,vert,up,"[150,0]","[-106,106]",up,1,0.735,,,,,,001,2025-03-10_22h32.57.399,SL_base,2021.2.3,Win32,60.04202942,,,15,0,15,0,1,,,,,,,,
,,"[""diamond"",""no_dis"",""vert"",""up"",[99999,99999],[106,106]]",diamond,no_dis,vert,up,"[99999,99999]","[106,106]",up,1,0.7357,,,,,,001,2025-03-10_22h32.57.399,SL_base,2021.2.3,Win32,60.04202942,,,16,0,16,0,1,,,,,,,,
,,"[""circle"",""no_dis"",""vert"",""up"",[99999,99999],[-106,-106]]",circle,no_dis,vert,up,"[99999,99999]","[-106,-106]",up,1,0.7648,,,,,,001,2025-03-10_22h32.57.399,SL_base,2021.2.3,Win32,60.04202942,,,17,0,17,0,1,,,,,,,,
,,"[""diamond"",""red"",""hori"",""left"",[0,-150],[-106,106]]",diamond,red,hori,left,"[0,-150]","[-106,106]",left,1,1.1796,,,,,,001,2025-03-10_22h32.57.399,SL_base,2021.2.3,Win32,60.04202942,,,18,0,18,0,1,,,,,,,,
,,"[""circle"",""green"",""hori"",""left"",[-106,-106],[150,0]]",circle,green,hori,left,"[-106,-106]","[150,0]",left,1,1.0986,,,,,,001,2025-03-10_22h32.57.399,SL_base,2021.2.3,Win32,60.04202942,,,19,0,19,0,1,,,,,,,,
,,"[""circle"",""no_dis"",""hori"",""left"",[99999,99999],[0,150]]",circle,no_dis,hori,left,"[99999,99999]","[0,150]",left,1,1.0721,,,,,,001,2025-03-10_22h32.57.399,SL_base,2021.2.3,Win32,60.04202942,,,20,0,20,0,1,,,,,,,,
,,"[""circle"",""no_dis"",""hori"",""left"",[99999,99999],[106,-106]]",circle,no_dis,hori,left,"[99999,99999]","[106,-106]",left,1,0.6491,,,,,,001,2025-03-10_22h32.57.399,SL_base,2021.2.3,Win32,60.04202942,,,21,0,21,0,1,,,,,,,,
,,"[""circle"",""no_dis"",""vert"",""up"",[99999,99999],[150,0]]",circle,no_dis,vert,up,"[99999,99999]","[150,0]",up,1,0.8017,,,,,,001,2025-03-10_22h32.57.399,SL_base,2021.2.3,Win32,60.04202942,,,22,0,22,0,1,,,,,,,,
,,"[""circle"",""green"",""vert"",""up"",[150,0],[0,150]]",circle,green,vert,up,"[150,0]","[0,150]",up,1,0.8245,,,,,,001,2025-03-10_22h32.57.399,SL_base,2021.2.3,Win32,60.04202942,,,23,0,23,0,1,,,,,,,,
,,"[""circle"",""no_dis"",""vert"",""up"",[99999,99999],[106,-106]]",circle,no_dis,vert,up,"[99999,99999]","[106,-106]",up,1,0.7896,,,,,,001,2025-03-10_22h32.57.399,SL_base,2021.2.3,Win32,60.04202942,,,24,0,24,0,1,,,,,,,,
,,"[""circle"",""red"",""vert"",""up"",[150,0],[-106,106]]",circle,red,vert,up,"[150,0]","[-106,106]",up,1,0.7487,,,,,,001,2025-03-10_22h32.57.399,SL_base,2021.2.3,Win32,60.04202942,,,25,0,25,0,1,,,,,,,,
,,"[""circle"",""green"",""vert"",""up"",[0,-150],[-106,-106]]",circle,green,vert,up,"[0,-150]","[-106,-106]",up,1,1.2161,,,,,,001,2025-03-10_22h32.57.399,SL_base,2021.2.3,Win32,60.04202942,,,26,0,26,0,1,,,,,,,,
,,"[""diamond"",""green"",""hori"",""left"",[150,0],[-106,106]]",diamond,green,hori,left,"[150,0]","[-106,106]",left,1,1.3136,,,,,,001,2025-03-10_22h32.57.399,SL_base,2021.2.3,Win32,60.04202942,,,27,0,27,0,1,,,,,,,,
,,"[""circle"",""red"",""vert"",""up"",[-106,106],[0,150]]",circle,red,vert,up,"[-106,106]","[0,150]",up,1,1.149,,,,,,001,2025-03-10_22h32.57.399,SL_base,2021.2.3,Win32,60.04202942,,,28,0,28,0,1,,,,,,,,
,,"[""circle"",""no_dis"",""vert"",""up"",[99999,99999],[0,-150]]",circle,no_dis,vert,up,"[99999,99999]","[0,-150]",up,1,1.365,,,,,,001,2025-03-10_22h32.57.399,SL_base,2021.2.3,Win32,60.04202942,,,29,0,29,0,1,,,,,,,,
,,"[""circle"",""green"",""hori"",""left"",[0,-150],[106,106]]",circle,green,hori,left,"[0,-150]","[106,106]",left,1,0.7315,,,,,,001,2025-03-10_22h32.57.399,SL_base,2021.2.3,Win32,60.04202942,,,30,0,30,0,1,,,,,,,,
,,"[""diamond"",""green"",""vert"",""up"",[-106,106],[-106,-106]]",diamond,green,vert,up,"[-106,106]","[-106,-106]",up,1,1.0152,,,,,,001,2025-03-10_22h32.57.399,SL_base,2021.2.3,Win32,60.04202942,,,31,0,31,0,1,,,,,,,,
,,"[""diamond"",""red"",""hori"",""left"",[150,0],[-150,0]]",diamond,red,hori,left,"[150,0]","[-150,0]",left,1,1.0231,,,,,,001,2025-03-10_22h32.57.399,SL_base,2021.2.3,Win32,60.04202942,,,32,0,32,0,1,,,,,,,,
,,"[""diamond"",""green"",""vert"",""up"",[106,106],[-150,0]]",diamond,green,vert,up,"[106,106]","[-150,0]",up,1,0.9797,,,,,,001,2025-03-10_22h32.57.399,SL_base,2021.2.3,Win32,60.04202942,,,33,0,33,0,1,,,,,,,,
,,"[""diamond"",""no_dis"",""hori"",""left"",[99999,99999],[0,-150]]",diamond,no_dis,hori,left,"[99999,99999]","[0,-150]",left,1,1.5134,,,,,,001,2025-03-10_22h32.57.399,SL_base,2021.2.3,Win32,60.04202942,,,34,0,34,0,1,,,,,,,,
,,"[""circle"",""red"",""vert"",""up"",[-150,0],[150,0]]",circle,red,vert,up,"[-150,0]","[150,0]",up,1,1.0198,,,,,,001,2025-03-10_22h32.57.399,SL_base,2021.2.3,Win32,60.04202942,,,35,0,35,0,1,,,,,,,,
,,"[""diamond"",""red"",""hori"",""left"",[106,-106],[0,-150]]",diamond,red,hori,left,"[106,-106]","[0,-150]",left,1,1.1262,,,,,,001,2025-03-10_22h32.57.399,SL_base,2021.2.3,Win32,60.04202942,,,36,0,36,0,1,,,,,,,,
,,"[""diamond"",""green"",""vert"",""up"",[-106,-106],[106,106]]",diamond,green,vert,up,"[-106,-106]","[106,106]",up,1,0.8052,,,,,,001,2025-03-10_22h32.57.399,SL_base,2021.2.3,Win32,60.04202942,,,37,0,37,0,1,,,,,,,,
,,"[""diamond"",""no_dis"",""hori"",""left"",[99999,99999],[-150,0]]",diamond,no_dis,hori,left,"[99999,99999]","[-150,0]",left,1,0.7547,,,,,,001,2025-03-10_22h32.57.399,SL_base,2021.2.3,Win32,60.04202942,,,38,0,38,0,1,,,,,,,,
,,"[""diamond"",""red"",""hori"",""left"",[150,0],[0,150]]",diamond,red,hori,left,"[150,0]","[0,150]",left,1,0.9813,,,,,,001,2025-03-10_22h32.57.399,SL_base,2021.2.3,Win32,60.04202942,,,39,0,39,0,1,,,,,,,,
,,"[""circle"",""green"",""hori"",""left"",[150,0],[0,-150]]",circle,green,hori,left,"[150,0]","[0,-150]",left,1,1.2929,,,,,,001,2025-03-10_22h32.57.399,SL_base,2021.2.3,Win32,60.04202942,,,40,0,40,0,1,,,,,,,,
,,"[""diamond"",""green"",""hori"",""left"",[0,-150],[-106,106]]",diamond,green,hori,left,"[0,-150]","[-106,106]",up,0,0.7733,,,,,,001,2025-03-10_22h32.57.399,SL_base,2021.2.3,Win32,60.04202942,,,41,0,41,0,1,,,,,,,,
,,"[""circle"",""no_dis"",""vert"",""up"",[99999,99999],[150,0]]",circle,no_dis,vert,up,"[99999,99999]","[150,0]",up,1,0.8761,,,,,,001,2025-03-10_22h32.57.399,SL_base,2021.2.3,Win32,60.04202942,,,42,0,42,0,1,,,,,,,,
,,"[""diamond"",""no_dis"",""vert"",""up"",[99999,99999],[-106,-106]]",diamond,no_dis,vert,up,"[99999,99999]","[-106,-106]",up,1,1.2682,,,,,,001,2025-03-10_22h32.57.399,SL_base,2021.2.3,Win32,60.04202942,,,43,0,43,0,1,,,,,,,,
,,"[""circle"",""green"",""hori"",""left"",[106,106],[-150,0]]",circle,green,hori,left,"[106,106]","[-150,0]",left,1,0.7272,,,,,,001,2025-03-10_22h32.57.399,SL_base,2021.2.3,Win32,60.04202942,,,44,0,44,0,1,,,,,,,,
,,"[""diamond"",""green"",""hori"",""left"",[106,106],[-106,106]]",diamond,green,hori,left,"[106,106]","[-106,106]",left,1,0.6974,,,,,,001,2025-03-10_22h32.57.399,SL_base,2021.2.3,Win32,60.04202942,,,45,0,45,0,1,,,,,,,,
,,"[""circle"",""no_dis"",""vert"",""up"",[99999,99999],[-150,0]]",circle,no_dis,vert,up,"[99999,99999]","[-150,0]",up,1,0.9893,,,,,,001,2025-03-10_22h32.57.399,SL_base,2021.2.3,Win32,60.04202942,,,46,0,46,0,1,,,,,,,,
,,"[""diamond"",""red"",""hori"",""left"",[0,150],[150,0]]",diamond,red,hori,left,"[0,150]","[150,0]",left,1,1.2971,,,,,,001,2025-03-10_22h32.57.399,SL_base,2021.2.3,Win32,60.04202942,,,47,0,47,0,1,,,,,,,,
,,"[""circle"",""red"",""hori"",""left"",[150,0],[106,-106]]",circle,red,hori,left,"[150,0]","[106,-106]",left,1,1.4053,,,,,,001,2025-03-10_22h32.57.399,SL_base,2021.2.3,Win32,60.04202942,,,48,0,48,0,1,,,,,,,,
,,"[""diamond"",""red"",""vert"",""up"",[0,150],[150,0]]",diamond,red,vert,up,"[0,150]","[150,0]",up,1,1.4195,,,,,,001,2025-03-10_22h32.57.399,SL_base,2021.2.3,Win32,60.04202942,,,49,0,49,0,1,,,,,,,,
,,"[""circle"",""green"",""vert"",""up"",[0,-150],[150,0]]",circle,green,vert,up,"[0,-150]","[150,0]",up,1,0.8155,,,,,,001,2025-03-10_22h32.57.399,SL_base,2021.2.3,Win32,60.04202942,,,50,0,50,0,1,,,,,,,,
,,"[""circle"",""red"",""hori"",""left"",[0,-150],[106,106]]",circle,red,hori,left,"[0,-150]","[106,106]",left,1,0.8815,,,,,,001,2025-03-10_22h32.57.399,SL_base,2021.2.3,Win32,60.04202942,,,51,0,51,0,1,,,,,,,,
,,"[""circle"",""red"",""vert"",""up"",[150,0],[0,-150]]",circle,red,vert,up,"[150,0]","[0,-150]",up,1,1.1112,,,,,,001,2025-03-10_22h32.57.399,SL_base,2021.2.3,Win32,60.04202942,,,52,0,52,0,1,,,,,,,,
,,"[""diamond"",""red"",""vert"",""up"",[106,-106],[150,0]]",diamond,red,vert,up,"[106,-106]","[150,0]",up,1,0.9902,,,,,,001,2025-03-10_22h32.57.399,SL_base,2021.2.3,Win32,60.04202942,,,53,0,53,0,1,,,,,,,,
,,"[""circle"",""red"",""vert"",""up"",[150,0],[106,-106]]",circle,red,vert,up,"[150,0]","[106,-106]",up,1,1.7006,,,,,,001,2025-03-10_22h32.57.399,SL_base,2021.2.3,Win32,60.04202942,,,54,0,54,0,1,,,,,,,,
,,"[""diamond"",""green"",""vert"",""up"",[106,-106],[0,150]]",diamond,green,vert,up,"[106,-106]","[0,150]",up,1,1.0638,,,,,,001,2025-03-10_22h32.57.399,SL_base,2021.2.3,Win32,60.04202942,,,55,0,55,0,1,,,,,,,,
,,"[""circle"",""no_dis"",""hori"",""left"",[99999,99999],[-106,-106]]",circle,no_dis,hori,left,"[99999,99999]","[-106,-106]",left,1,1.1761,,,,,,001,2025-03-10_22h32.57.399,SL_base,2021.2.3,Win32,60.04202942,,,56,0,56,0,1,,,,,,,,
,,"[""diamond"",""green"",""vert"",""up"",[106,-106],[106,106]]",diamond,green,vert,up,"[106,-106]","[106,106]",up,1,0.9515,,,,,,001,2025-03-10_22h32.57.399,SL_base,2021.2.3,Win32,60.04202942,,,57,0,57,0,1,,,,,,,,
,,"[""diamond"",""no_dis"",""hori"",""left"",[99999,99999],[-106,-106]]",diamond,no_dis,hori,left,"[99999,99999]","[-106,-106]",left,1,0.7455,,,,,,001,2025-03-10_22h32.57.399,SL_base,2021.2.3,Win32,60.04202942,,,58,0,58,0,1,,,,,,,,
,,"[""circle"",""red"",""hori"",""left"",[150,0],[106,-106]]",circle,red,hori,left,"[150,0]","[106,-106]",left,1,0.8199,,,,,,001,2025-03-10_22h32.57.399,SL_base,2021.2.3,Win32,60.04202942,,,59,0,59,0,1,,,,,,,,
,,"[""circle"",""red"",""vert"",""up"",[150,0],[106,-106]]",circle,red,vert,up,"[150,0]","[106,-106]",up,1,0.8741,,,,,,001,2025-03-10_22h32.57.399,SL_base,2021.2.3,Win32,60.04202942,,,60,0,60,0,1,,,,,,,,
,,"[""diamond"",""red"",""vert"",""up"",[-106,106],[-150,0]]",diamond,red,vert,up,"[-106,106]","[-150,0]",up,1,1.0991,,,,,,001,2025-03-10_22h32.57.399,SL_base,2021.2.3,Win32,60.04202942,,,61,0,61,0,1,,,,,,,,
,,"[""diamond"",""no_dis"",""vert"",""up"",[99999,99999],[-106,-106]]",diamond,no_dis,vert,up,"[99999,99999]","[-106,-106]",up,1,0.938,,,,,,001,2025-03-10_22h32.57.399,SL_base,2021.2.3,Win32,60.04202942,,,62,0,62,0,1,,,,,,,,
,,"[""circle"",""red"",""vert"",""up"",[150,0],[106,-106]]",circle,red,vert,up,"[150,0]","[106,-106]",up,1,1.5566,,,,,,001,2025-03-10_22h32.57.399,SL_base,2021.2.3,Win32,60.04202942,,,63,0,63,0,1,,,,,,,,
,,"[""diamond"",""red"",""hori"",""left"",[0,150],[150,0]]",diamond,red,hori,left,"[0,150]","[150,0]",left,1,0.9554,,,,,,001,2025-03-10_22h32.57.399,SL_base,2021.2.3,Win32,60.04202942,,,64,0,64,0,1,,,,,,,,
,,"[""circle"",""red"",""hori"",""left"",[106,-106],[-106,106]]",circle,red,hori,left,"[106,-106]","[-106,106]",left,1,0.6446,,,,,,001,2025-03-10_22h32.57.399,SL_base,2021.2.3,Win32,60.04202942,,,65,0,65,0,1,,,,,,,,
,,"[""circle"",""no_dis"",""hori"",""left"",[99999,99999],[150,0]]",circle,no_dis,hori,left,"[99999,99999]","[150,0]",left,1,0.784,,,,,,001,2025-03-10_22h32.57.399,SL_base,2021.2.3,Win32,60.04202942,,,66,0,66,0,1,,,,,,,,
,,"[""circle"",""red"",""vert"",""up"",[106,106],[-106,-106]]",circle,red,vert,up,"[106,106]","[-106,-106]",up,1,0.9581,,,,,,001,2025-03-10_22h32.57.399,SL_base,2021.2.3,Win32,60.04202942,,,67,0,67,0,1,,,,,,,,
,,"[""circle"",""red"",""hori"",""left"",[106,106],[150,0]]",circle,red,hori,left,"[106,106]","[150,0]",up,0,1.5268,,,,,,001,2025-03-10_22h32.57.399,SL_base,2021.2.3,Win32,60.04202942,,,68,0,68,0,1,,,,,,,,
,,"[""diamond"",""red"",""vert"",""up"",[106,-106],[106,106]]",diamond,red,vert,up,"[106,-106]","[106,106]",up,1,0.767,,,,,,001,2025-03-10_22h32.57.399,SL_base,2021.2.3,Win32,60.04202942,,,69,0,69,0,1,,,,,,,,
,,"[""circle"",""green"",""vert"",""up"",[0,150],[-106,-106]]",circle,green,vert,up,"[0,150]","[-106,-106]",up,1,1.0372,,,,,,001,2025-03-10_22h32.57.399,SL_base,2021.2.3,Win32,60.04202942,,,70,0,70,0,1,,,,,,,,
,,"[""diamond"",""no_dis"",""hori"",""left"",[99999,99999],[-106,106]]",diamond,no_dis,hori,left,"[99999,99999]","[-106,106]",left,1,0.9631,,,,,,001,2025-03-10_22h32.57.399,SL_base,2021.2.3,Win32,60.04202942,,,71,0,71,0,1,,,,,,,,
,,"[""circle"",""no_dis"",""hori"",""left"",[99999,99999],[106,-106]]",circle,no_dis,hori,left,"[99999,99999]","[106,-106]",left,1,1.271,,,,,,001,2025-03-10_22h32.57.399,SL_base,2021.2.3,Win32,60.04202942,,,72,0,72,0,1,,,,,,,,
,,"[""circle"",""no_dis"",""hori"",""left"",[99999,99999],[0,150]]",circle,no_dis,hori,left,"[99999,99999]","[0,150]",left,1,0.6773,,,,,,001,2025-03-10_22h32.57.399,SL_base,2021.2.3,Win32,60.04202942,,,73,0,73,0,1,,,,,,,,
,,"[""diamond"",""red"",""vert"",""up"",[106,106],[-150,0]]",diamond,red,vert,up,"[106,106]","[-150,0]",up,1,0.8912,,,,,,001,2025-03-10_22h32.57.399,SL_base,2021.2.3,Win32,60.04202942,,,74,0,74,0,1,,,,,,,,
,,"[""diamond"",""red"",""hori"",""left"",[150,0],[-106,106]]",diamond,red,hori,left,"[150,0]","[-106,106]",left,1,1.1534,,,,,,001,2025-03-10_22h32.57.399,SL_base,2021.2.3,Win32,60.04202942,,,75,0,75,0,1,,,,,,,,
,,"[""circle"",""no_dis"",""hori"",""left"",[99999,99999],[-150,0]]",circle,no_dis,hori,left,"[99999,99999]","[-150,0]",left,1,1.07,,,,,,001,2025-03-10_22h32.57.399,SL_base,2021.2.3,Win32,60.04202942,,,76,0,76,0,1,,,,,,,,
,,"[""circle"",""green"",""vert"",""up"",[0,150],[150,0]]",circle,green,vert,up,"[0,150]","[150,0]",up,1,1.4914,,,,,,001,2025-03-10_22h32.57.399,SL_base,2021.2.3,Win32,60.04202942,,,77,0,77,0,1,,,,,,,,
,,"[""diamond"",""green"",""vert"",""up"",[0,150],[0,-150]]",diamond,green,vert,up,"[0,150]","[0,-150]",up,1,1.0477,,,,,,001,2025-03-10_22h32.57.399,SL_base,2021.2.3,Win32,60.04202942,,,78,0,78,0,1,,,,,,,,
,,"[""circle"",""red"",""hori"",""left"",[0,150],[0,-150]]",circle,red,hori,left,"[0,150]","[0,-150]",left,1,0.7535,,,,,,001,2025-03-10_22h32.57.399,SL_base,2021.2.3,Win32,60.04202942,,,79,0,79,0,1,,,,,,,,
,,"[""diamond"",""green"",""hori"",""left"",[-106,106],[0,150]]",diamond,green,hori,left,"[-106,106]","[0,150]",up,0,0.9842,,,,,,001,2025-03-10_22h32.57.399,SL_base,2021.2.3,Win32,60.04202942,,,80,0,80,0,1,,,,,,,,
,,"[""diamond"",""green"",""vert"",""up"",[-106,-106],[0,150]]",diamond,green,vert,up,"[-106,-106]","[0,150]",up,1,0.7676,,,,,,001,2025-03-10_22h32.57.399,SL_base,2021.2.3,Win32,60.04202942,,,81,0,81,0,1,,,,,,,,
,,"[""circle"",""green"",""vert"",""up"",[-106,-106],[106,106]]",circle,green,vert,up,"[-106,-106]","[106,106]",up,1,0.6818,,,,,,001,2025-03-10_22h32.57.399,SL_base,2021.2.3,Win32,60.04202942,,,82,0,82,0,1,,,,,,,,
,,"[""circle"",""green"",""hori"",""left"",[-106,-106],[106,106]]",circle,green,hori,left,"[-106,-106]","[106,106]",left,1,0.6989,,,,,,001,2025-03-10_22h32.57.399,SL_base,2021.2.3,Win32,60.04202942,,,83,0,83,0,1,,,,,,,,
,,"[""circle"",""no_dis"",""hori"",""left"",[99999,99999],[106,106]]",circle,no_dis,hori,left,"[99999,99999]","[106,106]",left,1,1.2763,,,,,,001,2025-03-10_22h32.57.399,SL_base,2021.2.3,Win32,60.04202942,,,84,0,84,0,1,,,,,,,,
,,"[""diamond"",""no_dis"",""hori"",""left"",[99999,99999],[0,-150]]",diamond,no_dis,hori,left,"[99999,99999]","[0,-150]",left,1,1.1468,,,,,,001,2025-03-10_22h32.57.399,SL_base,2021.2.3,Win32,60.04202942,,,85,0,85,0,1,,,,,,,,
,,"[""diamond"",""red"",""hori"",""left"",[150,0],[-106,106]]",diamond,red,hori,left,"[150,0]","[-106,106]",left,1,0.7502,,,,,,001,2025-03-10_22h32.57.399,SL_base,2021.2.3,Win32,60.04202942,,,86,0,86,0,1,,,,,,,,
,,"[""diamond"",""no_dis"",""vert"",""up"",[99999,99999],[0,150]]",diamond,no_dis,vert,up,"[99999,99999]","[0,150]",up,1,0.6229,,,,,,001,2025-03-10_22h32.57.399,SL_base,2021.2.3,Win32,60.04202942,,,87,0,87,0,1,,,,,,,,
,,"[""diamond"",""no_dis"",""vert"",""up"",[99999,99999],[-150,0]]",diamond,no_dis,vert,up,"[99999,99999]","[-150,0]",up,1,1.1077,,,,,,001,2025-03-10_22h32.57.399,SL_base,2021.2.3,Win32,60.04202942,,,88,0,88,0,1,,,,,,,,
,,"[""circle"",""green"",""hori"",""left"",[150,0],[-150,0]]",circle,green,hori,left,"[150,0]","[-150,0]",left,1,0.7332,,,,,,001,2025-03-10_22h32.57.399,SL_base,2021.2.3,Win32,60.04202942,,,89,0,89,0,1,,,,,,,,
,,"[""circle"",""red"",""vert"",""up"",[-106,106],[0,150]]",circle,red,vert,up,"[-106,106]","[0,150]",left,0,0.725,,,,,,001,2025-03-10_22h32.57.399,SL_base,2021.2.3,Win32,60.04202942,,,90,0,90,0,1,,,,,,,,
,,"[""circle"",""red"",""hori"",""left"",[0,-150],[0,150]]",circle,red,hori,left,"[0,-150]","[0,150]",left,1,0.9061,,,,,,001,2025-03-10_22h32.57.399,SL_base,2021.2.3,Win32,60.04202942,,,91,0,91,0,1,,,,,,,,
,,"[""diamond"",""red"",""hori"",""left"",[106,106],[0,-150]]",diamond,red,hori,left,"[106,106]","[0,-150]",left,1,0.7922,,,,,,001,2025-03-10_22h32.57.399,SL_base,2021.2.3,Win32,60.04202942,,,92,0,92,0,1,,,,,,,,
,,"[""circle"",""no_dis"",""vert"",""up"",[99999,99999],[-106,106]]",circle,no_dis,vert,up,"[99999,99999]","[-106,106]",up,1,0.6894,,,,,,001,2025-03-10_22h32.57.399,SL_base,2021.2.3,Win32,60.04202942,,,93,0,93,0,1,,,,,,,,
,,"[""diamond"",""red"",""vert"",""up"",[-150,0],[106,-106]]",diamond,red,vert,up,"[-150,0]","[106,-106]",up,1,1.0427,,,,,,001,2025-03-10_22h32.57.399,SL_base,2021.2.3,Win32,60.04202942,,,94,0,94,0,1,,,,,,,,
,,"[""diamond"",""green"",""hori"",""left"",[-150,0],[106,106]]",diamond,green,hori,left,"[-150,0]","[106,106]",left,1,0.8466,,,,,,001,2025-03-10_22h32.57.399,SL_base,2021.2.3,Win32,60.04202942,,,95,0,95,0,1,,,,,,,,
,,"[""diamond"",""no_dis"",""hori"",""left"",[99999,99999],[106,106]]",diamond,no_dis,hori,left,"[99999,99999]","[106,106]",left,1,0.6253,,,,,,001,2025-03-10_22h32.57.399,SL_base,2021.2.3,Win32,60.04202942,,,96,0,96,0,1,,,,,,,,
,,"[""circle"",""green"",""hori"",""left"",[106,106],[-106,-106]]",circle,green,hori,left,"[106,106]","[-106,-106]",left,1,1.1527,,,,,,001,2025-03-10_22h32.57.399,SL_base,2021.2.3,Win32,60.04202942,,,97,0,97,0,1,,,,,,,,
,,"[""diamond"",""no_dis"",""hori"",""left"",[99999,99999],[-106,106]]",diamond,no_dis,hori,left,"[99999,99999]","[-106,106]",left,1,0.814,,,,,,001,2025-03-10_22h32.57.399,SL_base,2021.2.3,Win32,60.04202942,,,98,0,98,0,1,,,,,,,,
,,"[""diamond"",""no_dis"",""vert"",""up"",[99999,99999],[-106,106]]",diamond,no_dis,vert,up,"[99999,99999]","[-106,106]",up,1,0.7709,,,,,,001,2025-03-10_22h32.57.399,SL_base,2021.2.3,Win32,60.04202942,,,99,0,99,0,1,,,,,,,,
,,"[""circle"",""red"",""hori"",""left"",[150,0],[0,150]]",circle,red,hori,left,"[150,0]","[0,150]",left,1,0.8581,,,,,,001,2025-03-10_22h32.57.399,SL_base,2021.2.3,Win32,60.04202942,,,100,0,100,0,1,,,,,,,,
,,"[""diamond"",""no_dis"",""hori"",""left"",[99999,99999],[106,-106]]",diamond,no_dis,hori,left,"[99999,99999]","[106,-106]",left,1,1.002,,,,,,001,2025-03-10_22h32.57.399,SL_base,2021.2.3,Win32,60.04202942,,,101,0,101,0,1,,,,,,,,
,,"[""diamond"",""red"",""hori"",""left"",[150,0],[0,-150]]",diamond,red,hori,left,"[150,0]","[0,-150]",left,1,1.0463,,,,,,001,2025-03-10_22h32.57.399,SL_base,2021.2.3,Win32,60.04202942,,,102,0,102,0,1,,,,,,,,
,,"[""diamond"",""green"",""hori"",""left"",[-150,0],[106,-106]]",diamond,green,hori,left,"[-150,0]","[106,-106]",left,1,0.8562,,,,,,001,2025-03-10_22h32.57.399,SL_base,2021.2.3,Win32,60.04202942,,,103,0,103,0,1,,,,,,,,
,,"[""circle"",""green"",""hori"",""left"",[-106,-106],[106,106]]",circle,green,hori,left,"[-106,-106]","[106,106]",left,1,0.821,,,,,,001,2025-03-10_22h32.57.399,SL_base,2021.2.3,Win32,60.04202942,,,104,0,104,0,1,,,,,,,,
,,"[""circle"",""green"",""vert"",""up"",[150,0],[0,150]]",circle,green,vert,up,"[150,0]","[0,150]",up,1,0.8021,,,,,,001,2025-03-10_22h32.57.399,SL_base,2021.2.3,Win32,60.04202942,,,105,0,105,0,1,,,,,,,,
,,"[""circle"",""red"",""hori"",""left"",[150,0],[-106,-106]]",circle,red,hori,left,"[150,0]","[-106,-106]",left,1,1.3923,,,,,,001,2025-03-10_22h32.57.399,SL_base,2021.2.3,Win32,60.04202942,,,106,0,106,0,1,,,,,,,,
,,"[""circle"",""red"",""vert"",""up"",[106,-106],[0,150]]",circle,red,vert,up,"[106,-106]","[0,150]",up,1,0.6328,,,,,,001,2025-03-10_22h32.57.399,SL_base,2021.2.3,Win32,60.04202942,,,107,0,107,0,1,,,,,,,,
,,"[""diamond"",""no_dis"",""hori"",""left"",[99999,99999],[-150,0]]",diamond,no_dis,hori,left,"[99999,99999]","[-150,0]",left,1,0.7736,,,,,,001,2025-03-10_22h32.57.399,SL_base,2021.2.3,Win32,60.04202942,,,108,0,108,0,1,,,,,,,,
,,"[""circle"",""green"",""vert"",""up"",[150,0],[-150,0]]",circle,green,vert,up,"[150,0]","[-150,0]",up,1,1.1663,,,,,,001,2025-03-10_22h32.57.399,SL_base,2021.2.3,Win32,60.04202942,,,109,0,109,0,1,,,,,,,,
,,"[""diamond"",""no_dis"",""vert"",""up"",[99999,99999],[106,-106]]",diamond,no_dis,vert,up,"[99999,99999]","[106,-106]",up,1,1.8382,,,,,,001,2025-03-10_22h32.57.399,SL_base,2021.2.3,Win32,60.04202942,,,110,0,110,0,1,,,,,,,,
,,"[""circle"",""green"",""vert"",""up"",[150,0],[0,-150]]",circle,green,vert,up,"[150,0]","[0,-150]",up,1,1.0352,,,,,,001,2025-03-10_22h32.57.399,SL_base,2021.2.3,Win32,60.04202942,,,111,0,111,0,1,,,,,,,,
,,"[""circle"",""no_dis"",""vert"",""up"",[99999,99999],[0,-150]]",circle,no_dis,vert,up,"[99999,99999]","[0,-150]",up,1,0.7208,,,,,,001,2025-03-10_22h32.57.399,SL_base,2021.2.3,Win32,60.04202942,,,112,0,112,0,1,,,,,,,,
,,"[""diamond"",""no_dis"",""vert"",""up"",[99999,99999],[150,0]]",diamond,no_dis,vert,up,"[99999,99999]","[150,0]",up,1,0.8172,,,,,,001,2025-03-10_22h32.57.399,SL_base,2021.2.3,Win32,60.04202942,,,113,0,113,0,1,,,,,,,,
,,"[""diamond"",""green"",""vert"",""up"",[-106,106],[0,150]]",diamond,green,vert,up,"[-106,106]","[0,150]",up,1,0.7245,,,,,,001,2025-03-10_22h32.57.399,SL_base,2021.2.3,Win32,60.04202942,,,114,0,114,0,1,,,,,,,,
,,"[""diamond"",""no_dis"",""vert"",""up"",[99999,99999],[-106,106]]",diamond,no_dis,vert,up,"[99999,99999]","[-106,106]",up,1,0.9298,,,,,,001,2025-03-10_22h32.57.399,SL_base,2021.2.3,Win32,60.04202942,,,115,0,115,0,1,,,,,,,,
,,"[""circle"",""no_dis"",""hori"",""left"",[99999,99999],[106,106]]",circle,no_dis,hori,left,"[99999,99999]","[106,106]",left,1,0.8583,,,,,,001,2025-03-10_22h32.57.399,SL_base,2021.2.3,Win32,60.04202942,,,116,0,116,0,1,,,,,,,,
,,"[""diamond"",""green"",""vert"",""up"",[0,150],[-106,-106]]",diamond,green,vert,up,"[0,150]","[-106,-106]",left,0,0.7793,,,,,,001,2025-03-10_22h32.57.399,SL_base,2021.2.3,Win32,60.04202942,,,117,0,117,0,1,,,,,,,,
,,"[""circle"",""no_dis"",""hori"",""left"",[99999,99999],[0,150]]",circle,no_dis,hori,left,"[99999,99999]","[0,150]",up,0,0.7486,,,,,,001,2025-03-10_22h32.57.399,SL_base,2021.2.3,Win32,60.04202942,,,118,0,118,0,1,,,,,,,,
,,"[""diamond"",""green"",""vert"",""up"",[106,-106],[150,0]]",diamond,green,vert,up,"[106,-106]","[150,0]",up,1,0.7916,,,,,,001,2025-03-10_22h32.57.399,SL_base,2021.2.3,Win32,60.04202942,,,119,0,119,0,1,,,,,,,,
,,,,,,,,,,,,,,,,,001,2025-03-10_22h32.57.399,SL_base,2021.2.3,Win32,60.04202942,,,,,,,,2,space,2.3492,1,0,1,0,1
,,"[""circle"",""no_dis"",""vert"",""up"",[99999,99999],[-106,106]]",circle,no_dis,vert,up,"[99999,99999]","[-106,106]",up,1,0.6818,,,,,,001,2025-03-10_22h32.57.399,SL_base,2021.2.3,Win32,60.04202942,,,0,0,0,0,1,,,,,,,,
,,"[""diamond"",""red"",""vert"",""up"",[106,106],[-150,0]]",diamond,red,vert,up,"[106,106]","[-150,0]",up,1,0.8838,,,,,,001,2025-03-10_22h32.57.399,SL_base,2021.2.3,Win32,60.04202942,,,1,0,1,0,1,,,,,,,,
,,"[""diamond"",""no_dis"",""vert"",""up"",[99999,99999],[-106,106]]",diamond,no_dis,vert,up,"[99999,99999]","[-106,106]",up,1,1.0042,,,,,,001,2025-03-10_22h32.57.399,SL_base,2021.2.3,Win32,60.04202942,,,2,0,2,0,1,,,,,,,,
,,"[""circle"",""no_dis"",""vert"",""up"",[99999,99999],[0,-150]]",circle,no_dis,vert,up,"[99999,99999]","[0,-150]",up,1,1.0206,,,,,,001,2025-03-10_22h32.57.399,SL_base,2021.2.3,Win32,60.04202942,,,3,0,3,0,1,,,,,,,,
,,"[""circle"",""no_dis"",""hori"",""left"",[99999,99999],[0,150]]",circle,no_dis,hori,left,"[99999,99999]","[0,150]",left,1,0.7704,,,,,,001,2025-03-10_22h32.57.399,SL_base,2021.2.3,Win32,60.04202942,,,4,0,4,0,1,,,,,,,,
,,"[""diamond"",""no_dis"",""vert"",""up"",[99999,99999],[-106,-106]]",diamond,no_dis,vert,up,"[99999,99999]","[-106,-106]",up,1,1.0005,,,,,,001,2025-03-10_22h32.57.399,SL_base,2021.2.3,Win32,60.04202942,,,5,0,5,0,1,,,,,,,,
,,"[""circle"",""green"",""vert"",""up"",[0,150],[-106,-106]]",circle,green,vert,up,"[0,150]","[-106,-106]",up,1,0.8814,,,,,,001,2025-03-10_22h32.57.399,SL_base,2021.2.3,Win32,60.04202942,,,6,0,6,0,1,,,,,,,,
,,"[""circle"",""no_dis"",""vert"",""up"",[99999,99999],[-150,0]]",circle,no_dis,vert,up,"[99999,99999]","[-150,0]",up,1,0.6752,,,,,,001,2025-03-10_22h32.57.399,SL_base,2021.2.3,Win32,60.04202942,,,7,0,7,0,1,,,,,,,,
,,"[""diamond"",""green"",""vert"",""up"",[0,150],[-106,-106]]",diamond,green,vert,up,"[0,150]","[-106,-106]",up,1,1.0299,,,,,,001,2025-03-10_22h32.57.399,SL_base,2021.2.3,Win32,60.04202942,,,8,0,8,0,1,,,,,,,,
,,"[""circle"",""green"",""hori"",""left"",[-106,-106],[106,106]]",circle,green,hori,left,"[-106,-106]","[106,106]",left,1,0.9314,,,,,,001,2025-03-10_22h32.57.399,SL_base,2021.2.3,Win32,60.04202942,,,9,0,9,0,1,,,,,,,,
,,"[""diamond"",""red"",""vert"",""up"",[-106,106],[-150,0]]",diamond,red,vert,up,"[-106,106]","[-150,0]",up,1,1.0718,,,,,,001,2025-03-10_22h32.57.399,SL_base,2021.2.3,Win32,60.04202942,,,10,0,10,0,1,,,,,,,,
,,"[""circle"",""no_dis"",""hori"",""left"",[99999,99999],[106,-106]]",circle,no_dis,hori,left,"[99999,99999]","[106,-106]",left,1,0.7479,,,,,,001,2025-03-10_22h32.57.399,SL_base,2021.2.3,Win32,60.04202942,,,11,0,11,0,1,,,,,,,,
,,"[""diamond"",""red"",""hori"",""left"",[106,106],[0,-150]]",diamond,red,hori,left,"[106,106]","[0,-150]",left,1,1.0307,,,,,,001,2025-03-10_22h32.57.399,SL_base,2021.2.3,Win32,60.04202942,,,12,0,12,0,1,,,,,,,,
,,"[""diamond"",""red"",""hori"",""left"",[0,150],[150,0]]",diamond,red,hori,left,"[0,150]","[150,0]",left,1,0.9453,,,,,,001,2025-03-10_22h32.57.399,SL_base,2021.2.3,Win32,60.04202942,,,13,0,13,0,1,,,,,,,,
,,"[""circle"",""no_dis"",""vert"",""up"",[99999,99999],[150,0]]",circle,no_dis,vert,up,"[99999,99999]","[150,0]",up,1,0.6673,,,,,,001,2025-03-10_22h32.57.399,SL_base,2021.2.3,Win32,60.04202942,,,14,0,14,0,1,,,,,,,,
,,"[""diamond"",""red"",""hori"",""left"",[150,0],[0,150]]",diamond,red,hori,left,"[150,0]","[0,150]",left,1,0.9805,,,,,,001,2025-03-10_22h32.57.399,SL_base,2021.2.3,Win32,60.04202942,,,15,0,15,0,1,,,,,,,,
,,"[""circle"",""red"",""hori"",""left"",[0,-150],[0,150]]",circle,red,hori,left,"[0,-150]","[0,150]",left,1,0.6677,,,,,,001,2025-03-10_22h32.57.399,SL_base,2021.2.3,Win32,60.04202942,,,16,0,16,0,1,,,,,,,,
,,"[""diamond"",""green"",""hori"",""left"",[-150,0],[106,-106]]",diamond,green,hori,left,"[-150,0]","[106,-106]",left,1,0.7081,,,,,,001,2025-03-10_22h32.57.399,SL_base,2021.2.3,Win32,60.04202942,,,17,0,17,0,1,,,,,,,,
,,"[""diamond"",""no_dis"",""vert"",""up"",[99999,99999],[150,0]]",diamond,no_dis,vert,up,"[99999,99999]","[150,0]",up,1,0.8158,,,,,,001,2025-03-10_22h32.57.399,SL_base,2021.2.3,Win32,60.04202942,,,18,0,18,0,1,,,,,,,,
,,"[""circle"",""green"",""hori"",""left"",[150,0],[0,-150]]",circle,green,hori,left,"[150,0]","[0,-150]",left,1,0.9246,,,,,,001,2025-03-10_22h32.57.399,SL_base,2021.2.3,Win32,60.04202942,,,19,0,19,0,1,,,,,,,,
,,"[""circle"",""green"",""vert"",""up"",[150,0],[-150,0]]",circle,green,vert,up,"[150,0]","[-150,0]",up,1,0.7664,,,,,,001,2025-03-10_22h32.57.399,SL_base,2021.2.3,Win32,60.04202942,,,20,0,20,0,1,,,,,,,,
,,"[""diamond"",""red"",""vert"",""up"",[-150,0],[106,-106]]",diamond,red,vert,up,"[-150,0]","[106,-106]",up,1,1.036,,,,,,001,2025-03-10_22h32.57.399,SL_base,2021.2.3,Win32,60.04202942,,,21,0,21,0,1,,,,,,,,
,,"[""diamond"",""no_dis"",""hori"",""left"",[99999,99999],[-106,106]]",diamond,no_dis,hori,left,"[99999,99999]","[-106,106]",left,1,0.6976,,,,,,001,2025-03-10_22h32.57.399,SL_base,2021.2.3,Win32,60.04202942,,,22,0,22,0,1,,,,,,,,
,,"[""diamond"",""green"",""vert"",""up"",[106,106],[-150,0]]",diamond,green,vert,up,"[106,106]","[-150,0]",up,1,0.7077,,,,,,001,2025-03-10_22h32.57.399,SL_base,2021.2.3,Win32,60.04202942,,,23,0,23,0,1,,,,,,,,
,,"[""diamond"",""no_dis"",""vert"",""up"",[99999,99999],[0,150]]",diamond,no_dis,vert,up,"[99999,99999]","[0,150]",up,1,0.7842,,,,,,001,2025-03-10_22h32.57.399,SL_base,2021.2.3,Win32,60.04202942,,,24,0,24,0,1,,,,,,,,
,,"[""diamond"",""green"",""vert"",""up"",[-106,106],[0,150]]",diamond,green,vert,up,"[-106,106]","[0,150]",up,1,0.5985,,,,,,001,2025-03-10_22h32.57.399,SL_base,2021.2.3,Win32,60.04202942,,,25,0,25,0,1,,,,,,,,
,,"[""circle"",""green"",""vert"",""up"",[0,-150],[150,0]]",circle,green,vert,up,"[0,-150]","[150,0]",up,1,1.1373,,,,,,001,2025-03-10_22h32.57.399,SL_base,2021.2.3,Win32,60.04202942,,,26,0,26,0,1,,,,,,,,
,,"[""circle"",""green"",""vert"",""up"",[-106,-106],[150,0]]",circle,green,vert,up,"[-106,-106]","[150,0]",up,1,0.6551,,,,,,001,2025-03-10_22h32.57.399,SL_base,2021.2.3,Win32,60.04202942,,,27,0,27,0,1,,,,,,,,
,,"[""diamond"",""red"",""hori"",""left"",[150,0],[-106,106]]",diamond,red,hori,left,"[150,0]","[-106,106]",left,1,0.9306,,,,,,001,2025-03-10_22h32.57.399,SL_base,2021.2.3,Win32,60.04202942,,,28,0,28,0,1,,,,,,,,
,,"[""diamond"",""green"",""vert"",""up"",[106,-106],[150,0]]",diamond,green,vert,up,"[106,-106]","[150,0]",up,1,0.7172,,,,,,001,2025-03-10_22h32.57.399,SL_base,2021.2.3,Win32,60.04202942,,,29,0,29,0,1,,,,,,,,
,,"[""circle"",""red"",""vert"",""up"",[150,0],[-106,106]]",circle,red,vert,up,"[150,0]","[-106,106]",up,1,0.8635,,,,,,001,2025-03-10_22h32.57.399,SL_base,2021.2.3,Win32,60.04202942,,,30,0,30,0,1,,,,,,,,
,,"[""circle"",""red"",""vert"",""up"",[-150,0],[150,0]]",circle,red,vert,up,"[-150,0]","[150,0]",up,1,1.1316,,,,,,001,2025-03-10_22h32.57.399,SL_base,2021.2.3,Win32,60.04202942,,,31,0,31,0,1,,,,,,,,
,,"[""diamond"",""no_dis"",""hori"",""left"",[99999,99999],[106,-106]]",diamond,no_dis,hori,left,"[99999,99999]","[106,-106]",left,1,1.0251,,,,,,001,2025-03-10_22h32.57.399,SL_base,2021.2.3,Win32,60.04202942,,,32,0,32,0,1,,,,,,,,
,,"[""diamond"",""red"",""vert"",""up"",[-106,-106],[-150,0]]",diamond,red,vert,up,"[-106,-106]","[-150,0]",up,1,1.2759,,,,,,001,2025-03-10_22h32.57.399,SL_base,2021.2.3,Win32,60.04202942,,,33,0,33,0,1,,,,,,,,
,,"[""circle"",""green"",""hori"",""left"",[-106,-106],[150,0]]",circle,green,hori,left,"[-106,-106]","[150,0]",left,1,1.7024,,,,,,001,2025-03-10_22h32.57.399,SL_base,2021.2.3,Win32,60.04202942,,,34,0,34,0,1,,,,,,,,
,,"[""diamond"",""green"",""vert"",""up"",[-106,-106],[106,106]]",diamond,green,vert,up,"[-106,-106]","[106,106]",up,1,0.6816,,,,,,001,2025-03-10_22h32.57.399,SL_base,2021.2.3,Win32,60.04202942,,,35,0,35,0,1,,,,,,,,
,,"[""diamond"",""red"",""vert"",""up"",[106,-106],[106,106]]",diamond,red,vert,up,"[106,-106]","[106,106]",up,1,0.5959,,,,,,001,2025-03-10_22h32.57.399,SL_base,2021.2.3,Win32,60.04202942,,,36,0,36,0,1,,,,,,,,
,,"[""circle"",""red"",""hori"",""left"",[106,106],[150,0]]",circle,red,hori,left,"[106,106]","[150,0]",left,1,1.6646,,,,,,001,2025-03-10_22h32.57.399,SL_base,2021.2.3,Win32,60.04202942,,,37,0,37,0,1,,,,,,,,
,,"[""diamond"",""no_dis"",""hori"",""left"",[99999,99999],[150,0]]",diamond,no_dis,hori,left,"[99999,99999]","[150,0]",left,1,1.0373,,,,,,001,2025-03-10_22h32.57.399,SL_base,2021.2.3,Win32,60.04202942,,,38,0,38,0,1,,,,,,,,
,,"[""diamond"",""no_dis"",""hori"",""left"",[99999,99999],[0,-150]]",diamond,no_dis,hori,left,"[99999,99999]","[0,-150]",left,1,0.7966,,,,,,001,2025-03-10_22h32.57.399,SL_base,2021.2.3,Win32,60.04202942,,,39,0,39,0,1,,,,,,,,
,,"[""circle"",""red"",""hori"",""left"",[0,150],[0,-150]]",circle,red,hori,left,"[0,150]","[0,-150]",left,1,0.8732,,,,,,001,2025-03-10_22h32.57.399,SL_base,2021.2.3,Win32,60.04202942,,,40,0,40,0,1,,,,,,,,
,,"[""circle"",""green"",""vert"",""up"",[150,0],[0,-150]]",circle,green,vert,up,"[150,0]","[0,-150]",up,1,1.1558,,,,,,001,2025-03-10_22h32.57.399,SL_base,2021.2.3,Win32,60.04202942,,,41,0,41,0,1,,,,,,,,
,,"[""diamond"",""no_dis"",""hori"",""left"",[99999,99999],[-150,0]]",diamond,no_dis,hori,left,"[99999,99999]","[-150,0]",left,1,1.2239,,,,,,001,2025-03-10_22h32.57.399,SL_base,2021.2.3,Win32,60.04202942,,,42,0,42,0,1,,,,,,,,
,,"[""diamond"",""red"",""vert"",""up"",[0,150],[150,0]]",diamond,red,vert,up,"[0,150]","[150,0]",up,1,1.4519,,,,,,001,2025-03-10_22h32.57.399,SL_base,2021.2.3,Win32,60.04202942,,,43,0,43,0,1,,,,,,,,
,,"[""diamond"",""red"",""vert"",""up"",[150,0],[-150,0]]",diamond,red,vert,up,"[150,0]","[-150,0]",up,1,0.7342,,,,,,001,2025-03-10_22h32.57.399,SL_base,2021.2.3,Win32,60.04202942,,,44,0,44,0,1,,,,,,,,
,,"[""circle"",""no_dis"",""vert"",""up"",[99999,99999],[150,0]]",circle,no_dis,vert,up,"[99999,99999]","[150,0]",up,1,0.6567,,,,,,001,2025-03-10_22h32.57.399,SL_base,2021.2.3,Win32,60.04202942,,,45,0,45,0,1,,,,,,,,
,,"[""diamond"",""no_dis"",""hori"",""left"",[99999,99999],[-150,0]]",diamond,no_dis,hori,left,"[99999,99999]","[-150,0]",left,1,1.1809,,,,,,001,2025-03-10_22h32.57.399,SL_base,2021.2.3,Win32,60.04202942,,,46,0,46,0,1,,,,,,,,
,,"[""diamond"",""red"",""hori"",""left"",[150,0],[-150,0]]",diamond,red,hori,left,"[150,0]","[-150,0]",left,1,1.3221,,,,,,001,2025-03-10_22h32.57.399,SL_base,2021.2.3,Win32,60.04202942,,,47,0,47,0,1,,,,,,,,
,,"[""diamond"",""no_dis"",""vert"",""up"",[99999,99999],[0,150]]",diamond,no_dis,vert,up,"[99999,99999]","[0,150]",up,1,0.7129,,,,,,001,2025-03-10_22h32.57.399,SL_base,2021.2.3,Win32,60.04202942,,,48,0,48,0,1,,,,,,,,
,,"[""circle"",""no_dis"",""vert"",""up"",[99999,99999],[106,-106]]",circle,no_dis,vert,up,"[99999,99999]","[106,-106]",up,1,0.7868,,,,,,001,2025-03-10_22h32.57.399,SL_base,2021.2.3,Win32,60.04202942,,,49,0,49,0,1,,,,,,,,
,,"[""circle"",""no_dis"",""vert"",""up"",[99999,99999],[106,106]]",circle,no_dis,vert,up,"[99999,99999]","[106,106]",up,1,0.7067,,,,,,001,2025-03-10_22h32.57.399,SL_base,2021.2.3,Win32,60.04202942,,,50,0,50,0,1,,,,,,,,
,,"[""diamond"",""green"",""hori"",""left"",[0,-150],[106,106]]",diamond,green,hori,left,"[0,-150]","[106,106]",left,1,1.031,,,,,,001,2025-03-10_22h32.57.399,SL_base,2021.2.3,Win32,60.04202942,,,51,0,51,0,1,,,,,,,,
,,"[""circle"",""green"",""vert"",""up"",[0,150],[150,0]]",circle,green,vert,up,"[0,150]","[150,0]",up,1,0.8575,,,,,,001,2025-03-10_22h32.57.399,SL_base,2021.2.3,Win32,60.04202942,,,52,0,52,0,1,,,,,,,,
,,"[""diamond"",""green"",""hori"",""left"",[0,-150],[-106,106]]",diamond,green,hori,left,"[0,-150]","[-106,106]",left,1,1.1638,,,,,,001,2025-03-10_22h32.57.399,SL_base,2021.2.3,Win32,60.04202942,,,53,0,53,0,1,,,,,,,,
,,"[""diamond"",""green"",""vert"",""up"",[-106,-106],[0,150]]",diamond,green,vert,up,"[-106,-106]","[0,150]",up,1,1.0574,,,,,,001,2025-03-10_22h32.57.399,SL_base,2021.2.3,Win32,60.04202942,,,54,0,54,0,1,,,,,,,,
,,"[""circle"",""green"",""hori"",""left"",[0,-150],[106,106]]",circle,green,hori,left,"[0,-150]","[106,106]",up,0,1.0086,,,,,,001,2025-03-10_22h32.57.399,SL_base,2021.2.3,Win32,60.04202942,,,55,0,55,0,1,,,,,,,,
,,"[""circle"",""no_dis"",""hori"",""left"",[99999,99999],[150,0]]",circle,no_dis,hori,left,"[99999,99999]","[150,0]",left,1,0.7827,,,,,,001,2025-03-10_22h32.57.399,SL_base,2021.2.3,Win32,60.04202942,,,56,0,56,0,1,,,,,,,,
,,"[""diamond"",""green"",""vert"",""up"",[-106,106],[-106,-106]]",diamond,green,vert,up,"[-106,106]","[-106,-106]",up,1,0.9472,,,,,,001,2025-03-10_22h32.57.399,SL_base,2021.2.3,Win32,60.04202942,,,57,0,57,0,1,,,,,,,,
,,"[""circle"",""no_dis"",""vert"",""up"",[99999,99999],[0,-150]]",circle,no_dis,vert,up,"[99999,99999]","[0,-150]",up,1,0.6983,,,,,,001,2025-03-10_22h32.57.399,SL_base,2021.2.3,Win32,60.04202942,,,58,0,58,0,1,,,,,,,,
,,"[""circle"",""red"",""vert"",""up"",[-106,106],[0,150]]",circle,red,vert,up,"[-106,106]","[0,150]",up,1,0.722,,,,,,001,2025-03-10_22h32.57.399,SL_base,2021.2.3,Win32,60.04202942,,,59,0,59,0,1,,,,,,,,
,,"[""diamond"",""red"",""hori"",""left"",[150,0],[-106,106]]",diamond,red,hori,left,"[150,0]","[-106,106]",left,1,0.7689,,,,,,001,2025-03-10_22h32.57.399,SL_base,2021.2.3,Win32,60.04202942,,,60,0,60,0,1,,,,,,,,
,,"[""diamond"",""green"",""hori"",""left"",[150,0],[-106,106]]",diamond,green,hori,left,"[150,0]","[-106,106]",left,1,0.8547,,,,,,001,2025-03-10_22h32.57.399,SL_base,2021.2.3,Win32,60.04202942,,,61,0,61,0,1,,,,,,,,
,,"[""diamond"",""green"",""hori"",""left"",[-106,106],[106,106]]",diamond,green,hori,left,"[-106,106]","[106,106]",left,1,1.339,,,,,,001,2025-03-10_22h32.57.399,SL_base,2021.2.3,Win32,60.04202942,,,62,0,62,0,1,,,,,,,,
,,"[""circle"",""red"",""vert"",""up"",[150,0],[106,-106]]",circle,red,vert,up,"[150,0]","[106,-106]",up,1,1.4151,,,,,,001,2025-03-10_22h32.57.399,SL_base,2021.2.3,Win32,60.04202942,,,63,0,63,0,1,,,,,,,,
,,"[""circle"",""red"",""vert"",""up"",[150,0],[0,-150]]",circle,red,vert,up,"[150,0]","[0,-150]",up,1,1.0418,,,,,,001,2025-03-10_22h32.57.399,SL_base,2021.2.3,Win32,60.04202942,,,64,0,64,0,1,,,,,,,,
,,"[""circle"",""red"",""vert"",""up"",[106,-106],[0,150]]",circle,red,vert,up,"[106,-106]","[0,150]",up,1,0.759,,,,,,001,2025-03-10_22h32.57.399,SL_base,2021.2.3,Win32,60.04202942,,,65,0,65,0,1,,,,,,,,
,,"[""diamond"",""red"",""vert"",""up"",[106,-106],[150,0]]",diamond,red,vert,up,"[106,-106]","[150,0]",left,0,0.8854,,,,,,001,2025-03-10_22h32.57.399,SL_base,2021.2.3,Win32,60.04202942,,,66,0,66,0,1,,,,,,,,
,,"[""diamond"",""red"",""hori"",""left"",[150,0],[0,-150]]",diamond,red,hori,left,"[150,0]","[0,-150]",left,1,0.9467,,,,,,001,2025-03-10_22h32.57.399,SL_base,2021.2.3,Win32,60.04202942,,,67,0,67,0,1,,,,,,,,
,,"[""diamond"",""no_dis"",""hori"",""left"",[99999,99999],[106,106]]",diamond,no_dis,hori,left,"[99999,99999]","[106,106]",left,1,0.6565,,,,,,001,2025-03-10_22h32.57.399,SL_base,2021.2.3,Win32,60.04202942,,,68,0,68,0,1,,,,,,,,
,,"[""circle"",""green"",""hori"",""left"",[-150,0],[0,-150]]",circle,green,hori,left,"[-150,0]","[0,-150]",left,1,1.059,,,,,,001,2025-03-10_22h32.57.399,SL_base,2021.2.3,Win32,60.04202942,,,69,0,69,0,1,,,,,,,,
,,"[""diamond"",""no_dis"",""vert"",""up"",[99999,99999],[-106,-106]]",diamond,no_dis,vert,up,"[99999,99999]","[-106,-106]",up,1,1.6316,,,,,,001,2025-03-10_22h32.57.399,SL_base,2021.2.3,Win32,60.04202942,,,70,0,70,0,1,,,,,,,,
,,"[""circle"",""green"",""hori"",""left"",[150,0],[-150,0]]",circle,green,hori,left,"[150,0]","[-150,0]",left,1,0.9312,,,,,,001,2025-03-10_22h32.57.399,SL_base,2021.2.3,Win32,60.04202942,,,71,0,71,0,1,,,,,,,,
,,"[""diamond"",""red"",""vert"",""up"",[150,0],[-106,106]]",diamond,red,vert,up,"[150,0]","[-106,106]",up,1,1.2503,,,,,,001,2025-03-10_22h32.57.399,SL_base,2021.2.3,Win32,60.04202942,,,72,0,72,0,1,,,,,,,,
,,"[""diamond"",""red"",""hori"",""left"",[0,-150],[-106,106]]",diamond,red,hori,left,"[0,-150]","[-106,106]",left,1,0.7511,,,,,,001,2025-03-10_22h32.57.399,SL_base,2021.2.3,Win32,60.04202942,,,73,0,73,0,1,,,,,,,,
,,"[""diamond"",""green"",""hori"",""left"",[150,0],[-106,-106]]",diamond,green,hori,left,"[150,0]","[-106,-106]",left,1,1.7356,,,,,,001,2025-03-10_22h32.57.399,SL_base,2021.2.3,Win32,60.04202942,,,74,0,74,0,1,,,,,,,,
,,"[""circle"",""no_dis"",""hori"",""left"",[99999,99999],[106,106]]",circle,no_dis,hori,left,"[99999,99999]","[106,106]",left,1,0.8406,,,,,,001,2025-03-10_22h32.57.399,SL_base,2021.2.3,Win32,60.04202942,,,75,0,75,0,1,,,,,,,,
,,"[""circle"",""red"",""vert"",""up"",[-106,106],[0,150]]",circle,red,vert,up,"[-106,106]","[0,150]",up,1,1.0153,,,,,,001,2025-03-10_22h32.57.399,SL_base,2021.2.3,Win32,60.04202942,,,76,0,76,0,1,,,,,,,,
,,"[""circle"",""red"",""hori"",""left"",[150,0],[106,-106]]",circle,red,hori,left,"[150,0]","[106,-106]",left,1,1.4987,,,,,,001,2025-03-10_22h32.57.399,SL_base,2021.2.3,Win32,60.04202942,,,77,0,77,0,1,,,,,,,,
,,"[""circle"",""red"",""hori"",""left"",[0,-150],[106,106]]",circle,red,hori,left,"[0,-150]","[106,106]",left,1,0.6181,,,,,,001,2025-03-10_22h32.57.399,SL_base,2021.2.3,Win32,60.04202942,,,78,0,78,0,1,,,,,,,,
,,"[""circle"",""green"",""vert"",""up"",[-106,-106],[106,106]]",circle,green,vert,up,"[-106,-106]","[106,106]",up,1,0.9709,,,,,,001,2025-03-10_22h32.57.399,SL_base,2021.2.3,Win32,60.04202942,,,79,0,79,0,1,,,,,,,,
,,"[""circle"",""green"",""hori"",""left"",[-106,106],[106,106]]",circle,green,hori,left,"[-106,106]","[106,106]",left,1,0.7699,,,,,,001,2025-03-10_22h32.57.399,SL_base,2021.2.3,Win32,60.04202942,,,80,0,80,0,1,,,,,,,,
,,"[""diamond"",""no_dis"",""hori"",""left"",[99999,99999],[0,-150]]",diamond,no_dis,hori,left,"[99999,99999]","[0,-150]",up,0,1.0149,,,,,,001,2025-03-10_22h32.57.399,SL_base,2021.2.3,Win32,60.04202942,,,81,0,81,0,1,,,,,,,,
,,"[""circle"",""no_dis"",""hori"",""left"",[99999,99999],[106,-106]]",circle,no_dis,hori,left,"[99999,99999]","[106,-106]",left,1,0.7345,,,,,,001,2025-03-10_22h32.57.399,SL_base,2021.2.3,Win32,60.04202942,,,82,0,82,0,1,,,,,,,,
,,"[""circle"",""no_dis"",""hori"",""left"",[99999,99999],[0,150]]",circle,no_dis,hori,left,"[99999,99999]","[0,150]",left,1,0.6986,,,,,,001,2025-03-10_22h32.57.399,SL_base,2021.2.3,Win32,60.04202942,,,83,0,83,0,1,,,,,,,,
,,"[""diamond"",""red"",""hori"",""left"",[0,150],[150,0]]",diamond,red,hori,left,"[0,150]","[150,0]",left,1,1.2919,,,,,,001,2025-03-10_22h32.57.399,SL_base,2021.2.3,Win32,60.04202942,,,84,0,84,0,1,,,,,,,,
,,"[""circle"",""no_dis"",""hori"",""left"",[99999,99999],[106,106]]",circle,no_dis,hori,left,"[99999,99999]","[106,106]",left,1,0.6653,,,,,,001,2025-03-10_22h32.57.399,SL_base,2021.2.3,Win32,60.04202942,,,85,0,85,0,1,,,,,,,,
,,"[""diamond"",""no_dis"",""vert"",""up"",[99999,99999],[-150,0]]",diamond,no_dis,vert,up,"[99999,99999]","[-150,0]",up,1,0.9384,,,,,,001,2025-03-10_22h32.57.399,SL_base,2021.2.3,Win32,60.04202942,,,86,0,86,0,1,,,,,,,,
,,"[""circle"",""green"",""hori"",""left"",[106,106],[-150,0]]",circle,green,hori,left,"[106,106]","[-150,0]",left,1,0.7071,,,,,,001,2025-03-10_22h32.57.399,SL_base,2021.2.3,Win32,60.04202942,,,87,0,87,0,1,,,,,,,,
,,"[""diamond"",""no_dis"",""vert"",""up"",[99999,99999],[106,106]]",diamond,no_dis,vert,up,"[99999,99999]","[106,106]",up,1,0.8426,,,,,,001,2025-03-10_22h32.57.399,SL_base,2021.2.3,Win32,60.04202942,,,88,0,88,0,1,,,,,,,,
,,"[""circle"",""green"",""vert"",""up"",[150,0],[0,150]]",circle,green,vert,up,"[150,0]","[0,150]",up,1,0.9204,,,,,,001,2025-03-10_22h32.57.399,SL_base,2021.2.3,Win32,60.04202942,,,89,0,89,0,1,,,,,,,,
,,"[""circle"",""no_dis"",""vert"",""up"",[99999,99999],[0,-150]]",circle,no_dis,vert,up,"[99999,99999]","[0,-150]",up,1,0.7207,,,,,,001,2025-03-10_22h32.57.399,SL_base,2021.2.3,Win32,60.04202942,,,90,0,90,0,1,,,,,,,,
,,"[""diamond"",""green"",""hori"",""left"",[106,106],[-106,106]]",diamond,green,hori,left,"[106,106]","[-106,106]",left,1,1.1295,,,,,,001,2025-03-10_22h32.57.399,SL_base,2021.2.3,Win32,60.04202942,,,91,0,91,0,1,,,,,,,,
,,"[""circle"",""red"",""vert"",""up"",[106,106],[-106,-106]]",circle,red,vert,up,"[106,106]","[-106,-106]",up,1,1.1542,,,,,,001,2025-03-10_22h32.57.399,SL_base,2021.2.3,Win32,60.04202942,,,92,0,92,0,1,,,,,,,,
,,"[""diamond"",""green"",""vert"",""up"",[0,150],[0,-150]]",diamond,green,vert,up,"[0,150]","[0,-150]",up,1,1.2021,,,,,,001,2025-03-10_22h32.57.399,SL_base,2021.2.3,Win32,60.04202942,,,93,0,93,0,1,,,,,,,,
,,"[""diamond"",""green"",""vert"",""up"",[106,-106],[0,150]]",diamond,green,vert,up,"[106,-106]","[0,150]",up,1,0.7253,,,,,,001,2025-03-10_22h32.57.399,SL_base,2021.2.3,Win32,60.04202942,,,94,0,94,0,1,,,,,,,,
,,"[""diamond"",""no_dis"",""hori"",""left"",[99999,99999],[-106,-106]]",diamond,no_dis,hori,left,"[99999,99999]","[-106,-106]",left,1,0.9321,,,,,,001,2025-03-10_22h32.57.399,SL_base,2021.2.3,Win32,60.04202942,,,95,0,95,0,1,,,,,,,,
,,"[""circle"",""no_dis"",""hori"",""left"",[99999,99999],[0,150]]",circle,no_dis,hori,left,"[99999,99999]","[0,150]",left,1,0.7341,,,,,,001,2025-03-10_22h32.57.399,SL_base,2021.2.3,Win32,60.04202942,,,96,0,96,0,1,,,,,,,,
,,"[""diamond"",""green"",""hori"",""left"",[-150,0],[106,-106]]",diamond,green,hori,left,"[-150,0]","[106,-106]",left,1,1.5088,,,,,,001,2025-03-10_22h32.57.399,SL_base,2021.2.3,Win32,60.04202942,,,97,0,97,0,1,,,,,,,,
,,"[""diamond"",""no_dis"",""vert"",""up"",[99999,99999],[-106,106]]",diamond,no_dis,vert,up,"[99999,99999]","[-106,106]",up,1,0.8128,,,,,,001,2025-03-10_22h32.57.399,SL_base,2021.2.3,Win32,60.04202942,,,98,0,98,0,1,,,,,,,,
,,"[""circle"",""green"",""vert"",""up"",[0,-150],[-106,-106]]",circle,green,vert,up,"[0,-150]","[-106,-106]",up,1,1.3556,,,,,,001,2025-03-10_22h32.57.399,SL_base,2021.2.3,Win32,60.04202942,,,99,0,99,0,1,,,,,,,,
,,"[""circle"",""red"",""hori"",""left"",[150,0],[-106,-106]]",circle,red,hori,left,"[150,0]","[-106,-106]",left,1,0.8422,,,,,,001,2025-03-10_22h32.57.399,SL_base,2021.2.3,Win32,60.04202942,,,100,0,100,0,1,,,,,,,,
,,"[""circle"",""green"",""hori"",""left"",[-106,-106],[106,106]]",circle,green,hori,left,"[-106,-106]","[106,106]",left,1,0.7204,,,,,,001,2025-03-10_22h32.57.399,SL_base,2021.2.3,Win32,60.04202942,,,101,0,101,0,1,,,,,,,,
,,"[""circle"",""red"",""vert"",""up"",[150,0],[106,-106]]",circle,red,vert,up,"[150,0]","[106,-106]",up,1,0.999,,,,,,001,2025-03-10_22h32.57.399,SL_base,2021.2.3,Win32,60.04202942,,,102,0,102,0,1,,,,,,,,
,,"[""diamond"",""no_dis"",""hori"",""left"",[99999,99999],[-106,106]]",diamond,no_dis,hori,left,"[99999,99999]","[-106,106]",left,1,0.8192,,,,,,001,2025-03-10_22h32.57.399,SL_base,2021.2.3,Win32,60.04202942,,,103,0,103,0,1,,,,,,,,
,,"[""diamond"",""green"",""hori"",""left"",[-150,0],[106,106]]",diamond,green,hori,left,"[-150,0]","[106,106]",left,1,1.1333,,,,,,001,2025-03-10_22h32.57.399,SL_base,2021.2.3,Win32,60.04202942,,,104,0,104,0,1,,,,,,,,
,,"[""circle"",""red"",""hori"",""left"",[150,0],[0,150]]",circle,red,hori,left,"[150,0]","[0,150]",left,1,0.7694,,,,,,001,2025-03-10_22h32.57.399,SL_base,2021.2.3,Win32,60.04202942,,,105,0,105,0,1,,,,,,,,
,,"[""diamond"",""red"",""hori"",""left"",[106,-106],[0,-150]]",diamond,red,hori,left,"[106,-106]","[0,-150]",left,1,1.2639,,,,,,001,2025-03-10_22h32.57.399,SL_base,2021.2.3,Win32,60.04202942,,,106,0,106,0,1,,,,,,,,
,,"[""circle"",""no_dis"",""vert"",""up"",[99999,99999],[-106,-106]]",circle,no_dis,vert,up,"[99999,99999]","[-106,-106]",up,1,1.3139,,,,,,001,2025-03-10_22h32.57.399,SL_base,2021.2.3,Win32,60.04202942,,,107,0,107,0,1,,,,,,,,
,,"[""circle"",""no_dis"",""hori"",""left"",[99999,99999],[-150,0]]",circle,no_dis,hori,left,"[99999,99999]","[-150,0]",left,1,0.7001,,,,,,001,2025-03-10_22h32.57.399,SL_base,2021.2.3,Win32,60.04202942,,,108,0,108,0,1,,,,,,,,
,,"[""circle"",""red"",""vert"",""up"",[150,0],[106,-106]]",circle,red,vert,up,"[150,0]","[106,-106]",up,1,1.272,,,,,,001,2025-03-10_22h32.57.399,SL_base,2021.2.3,Win32,60.04202942,,,109,0,109,0,1,,,,,,,,
,,"[""circle"",""green"",""hori"",""left"",[106,106],[-106,-106]]",circle,green,hori,left,"[106,106]","[-106,-106]",left,1,1.398,,,,,,001,2025-03-10_22h32.57.399,SL_base,2021.2.3,Win32,60.04202942,,,110,0,110,0,1,,,,,,,,
,,"[""circle"",""no_dis"",""hori"",""left"",[99999,99999],[-106,-106]]",circle,no_dis,hori,left,"[99999,99999]","[-106,-106]",left,1,1.074,,,,,,001,2025-03-10_22h32.57.399,SL_base,2021.2.3,Win32,60.04202942,,,111,0,111,0,1,,,,,,,,
,,"[""circle"",""red"",""hori"",""left"",[106,-106],[-106,106]]",circle,red,hori,left,"[106,-106]","[-106,106]",left,1,0.8745,,,,,,001,2025-03-10_22h32.57.399,SL_base,2021.2.3,Win32,60.04202942,,,112,0,112,0,1,,,,,,,,
,,"[""circle"",""green"",""vert"",""up"",[150,0],[0,150]]",circle,green,vert,up,"[150,0]","[0,150]",up,1,1.1488,,,,,,001,2025-03-10_22h32.57.399,SL_base,2021.2.3,Win32,60.04202942,,,113,0,113,0,1,,,,,,,,
,,"[""diamond"",""green"",""hori"",""left"",[-106,106],[0,150]]",diamond,green,hori,left,"[-106,106]","[0,150]",left,1,1.3201,,,,,,001,2025-03-10_22h32.57.399,SL_base,2021.2.3,Win32,60.04202942,,,114,0,114,0,1,,,,,,,,
,,"[""diamond"",""red"",""vert"",""up"",[-150,0],[0,150]]",diamond,red,vert,up,"[-150,0]","[0,150]",up,1,0.9993,,,,,,001,2025-03-10_22h32.57.399,SL_base,2021.2.3,Win32,60.04202942,,,115,0,115,0,1,,,,,,,,
,,"[""circle"",""red"",""hori"",""left"",[150,0],[106,-106]]",circle,red,hori,left,"[150,0]","[106,-106]",up,0,2.0142,,,,,,001,2025-03-10_22h32.57.399,SL_base,2021.2.3,Win32,60.04202942,,,116,0,116,0,1,,,,,,,,
,,"[""diamond"",""green"",""vert"",""up"",[106,-106],[106,106]]",diamond,green,vert,up,"[106,-106]","[106,106]",up,1,0.985,,,,,,001,2025-03-10_22h32.57.399,SL_base,2021.2.3,Win32,60.04202942,,,117,0,117,0,1,,,,,,,,
,,"[""circle"",""red"",""hori"",""left"",[-150,0],[106,106]]",circle,red,hori,left,"[-150,0]","[106,106]",up,0,2.0899,,,,,,001,2025-03-10_22h32.57.399,SL_base,2021.2.3,Win32,60.04202942,,,118,0,118,0,1,,,,,,,,
,,"[""diamond"",""no_dis"",""vert"",""up"",[99999,99999],[106,-106]]",diamond,no_dis,vert,up,"[99999,99999]","[106,-106]",up,1,0.6849,,,,,,001,2025-03-10_22h32.57.399,SL_base,2021.2.3,Win32,60.04202942,,,119,0,119,0,1,,,,,,,,
,,,,,,,,,,,,,,,,,001,2025-03-10_22h32.57.399,SL_base,2021.2.3,Win32,60.04202942,,,,,,,,3,space,2.4161,2,0,2,0,1
,,"[""diamond"",""no_dis"",""hori"",""left"",[99999,99999],[-150,0]]",diamond,no_dis,hori,left,"[99999,99999]","[-150,0]",up,0,2.2855,,,,,,001,2025-03-10_22h32.57.399,SL_base,2021.2.3,Win32,60.04202942,,,0,0,0,0,1,,,,,,,,
,,"[""diamond"",""no_dis"",""vert"",""up"",[99999,99999],[150,0]]",diamond,no_dis,vert,up,"[99999,99999]","[150,0]",up,1,0.6812,,,,,,001,2025-03-10_22h32.57.399,SL_base,2021.2.3,Win32,60.04202942,,,1,0,1,0,1,,,,,,,,
,,"[""diamond"",""red"",""vert"",""up"",[150,0],[-106,106]]",diamond,red,vert,up,"[150,0]","[-106,106]",up,1,0.7975,,,,,,001,2025-03-10_22h32.57.399,SL_base,2021.2.3,Win32,60.04202942,,,2,0,2,0,1,,,,,,,,
,,"[""circle"",""green"",""vert"",""up"",[150,0],[-150,0]]",circle,green,vert,up,"[150,0]","[-150,0]",up,1,1.5048,,,,,,001,2025-03-10_22h32.57.399,SL_base,2021.2.3,Win32,60.04202942,,,3,0,3,0,1,,,,,,,,
,,"[""circle"",""green"",""hori"",""left"",[-150,0],[0,-150]]",circle,green,hori,left,"[-150,0]","[0,-150]",left,1,1.4684,,,,,,001,2025-03-10_22h32.57.399,SL_base,2021.2.3,Win32,60.04202942,,,4,0,4,0,1,,,,,,,,
,,"[""circle"",""no_dis"",""hori"",""left"",[99999,99999],[-150,0]]",circle,no_dis,hori,left,"[99999,99999]","[-150,0]",left,1,0.7104,,,,,,001,2025-03-10_22h32.57.399,SL_base,2021.2.3,Win32,60.04202942,,,5,0,5,0,1,,,,,,,,
,,"[""circle"",""no_dis"",""hori"",""left"",[99999,99999],[106,106]]",circle,no_dis,hori,left,"[99999,99999]","[106,106]",left,1,0.6071,,,,,,001,2025-03-10_22h32.57.399,SL_base,2021.2.3,Win32,60.04202942,,,6,0,6,0,1,,,,,,,,
,,"[""diamond"",""green"",""vert"",""up"",[-106,106],[0,150]]",diamond,green,vert,up,"[-106,106]","[0,150]",up,1,1.3638,,,,,,001,2025-03-10_22h32.57.399,SL_base,2021.2.3,Win32,60.04202942,,,7,0,7,0,1,,,,,,,,
,,"[""diamond"",""red"",""vert"",""up"",[-150,0],[0,150]]",diamond,red,vert,up,"[-150,0]","[0,150]",up,1,0.8652,,,,,,001,2025-03-10_22h32.57.399,SL_base,2021.2.3,Win32,60.04202942,,,8,0,8,0,1,,,,,,,,
,,"[""diamond"",""green"",""hori"",""left"",[-150,0],[106,-106]]",diamond,green,hori,left,"[-150,0]","[106,-106]",left,1,0.6804,,,,,,001,2025-03-10_22h32.57.399,SL_base,2021.2.3,Win32,60.04202942,,,9,0,9,0,1,,,,,,,,
,,"[""circle"",""no_dis"",""vert"",""up"",[99999,99999],[0,-150]]",circle,no_dis,vert,up,"[99999,99999]","[0,-150]",up,1,1.0039,,,,,,001,2025-03-10_22h32.57.399,SL_base,2021.2.3,Win32,60.04202942,,,10,0,10,0,1,,,,,,,,
,,"[""diamond"",""green"",""vert"",""up"",[-106,106],[-106,-106]]",diamond,green,vert,up,"[-106,106]","[-106,-106]",up,1,1.0808,,,,,,001,2025-03-10_22h32.57.399,SL_base,2021.2.3,Win32,60.04202942,,,11,0,11,0,1,,,,,,,,
,,"[""circle"",""no_dis"",""hori"",""left"",[99999,99999],[106,106]]",circle,no_dis,hori,left,"[99999,99999]","[106,106]",left,1,0.7487,,,,,,001,2025-03-10_22h32.57.399,SL_base,2021.2.3,Win32,60.04202942,,,12,0,12,0,1,,,,,,,,
,,"[""diamond"",""green"",""vert"",""up"",[-106,-106],[0,150]]",diamond,green,vert,up,"[-106,-106]","[0,150]",up,1,1.0236,,,,,,001,2025-03-10_22h32.57.399,SL_base,2021.2.3,Win32,60.04202942,,,13,0,13,0,1,,,,,,,,
,,"[""diamond"",""green"",""vert"",""up"",[106,-106],[106,106]]",diamond,green,vert,up,"[106,-106]","[106,106]",up,1,0.8361,,,,,,001,2025-03-10_22h32.57.399,SL_base,2021.2.3,Win32,60.04202942,,,14,0,14,0,1,,,,,,,,
,,"[""diamond"",""no_dis"",""hori"",""left"",[99999,99999],[150,0]]",diamond,no_dis,hori,left,"[99999,99999]","[150,0]",left,1,0.8369,,,,,,001,2025-03-10_22h32.57.399,SL_base,2021.2.3,Win32,60.04202942,,,15,0,15,0,1,,,,,,,,
,,"[""diamond"",""red"",""hori"",""left"",[150,0],[-150,0]]",diamond,red,hori,left,"[150,0]","[-150,0]",left,1,0.7709,,,,,,001,2025-03-10_22h32.57.399,SL_base,2021.2.3,Win32,60.04202942,,,16,0,16,0,1,,,,,,,,
,,"[""circle"",""red"",""hori"",""left"",[106,106],[150,0]]",circle,red,hori,left,"[106,106]","[150,0]",left,1,0.7247,,,,,,001,2025-03-10_22h32.57.399,SL_base,2021.2.3,Win32,60.04202942,,,17,0,17,0,1,,,,,,,,
,,"[""circle"",""no_dis"",""hori"",""left"",[99999,99999],[106,-106]]",circle,no_dis,hori,left,"[99999,99999]","[106,-106]",left,1,0.6841,,,,,,001,2025-03-10_22h32.57.399,SL_base,2021.2.3,Win32,60.04202942,,,18,0,18,0,1,,,,,,,,
,,"[""diamond"",""no_dis"",""hori"",""left"",[99999,99999],[-150,0]]",diamond,no_dis,hori,left,"[99999,99999]","[-150,0]",left,1,0.6262,,,,,,001,2025-03-10_22h32.57.399,SL_base,2021.2.3,Win32,60.04202942,,,19,0,19,0,1,,,,,,,,
,,"[""circle"",""green"",""vert"",""up"",[0,150],[-106,-106]]",circle,green,vert,up,"[0,150]","[-106,-106]",left,0,0.882,,,,,,001,2025-03-10_22h32.57.399,SL_base,2021.2.3,Win32,60.04202942,,,20,0,20,0,1,,,,,,,,
,,"[""circle"",""red"",""hori"",""left"",[-150,0],[106,106]]",circle,red,hori,left,"[-150,0]","[106,106]",left,1,0.6653,,,,,,001,2025-03-10_22h32.57.399,SL_base,2021.2.3,Win32,60.04202942,,,21,0,21,0,1,,,,,,,,
,,"[""diamond"",""red"",""hori"",""left"",[106,106],[0,-150]]",diamond,red,hori,left,"[106,106]","[0,-150]",up,0,0.9519,,,,,,001,2025-03-10_22h32.57.399,SL_base,2021.2.3,Win32,60.04202942,,,22,0,22,0,1,,,,,,,,
,,"[""circle"",""green"",""vert"",""up"",[0,-150],[150,0]]",circle,green,vert,up,"[0,-150]","[150,0]",up,1,1.4383,,,,,,001,2025-03-10_22h32.57.399,SL_base,2021.2.3,Win32,60.04202942,,,23,0,23,0,1,,,,,,,,
,,"[""diamond"",""red"",""vert"",""up"",[106,106],[-150,0]]",diamond,red,vert,up,"[106,106]","[-150,0]",up,1,1.4718,,,,,,001,2025-03-10_22h32.57.399,SL_base,2021.2.3,Win32,60.04202942,,,24,0,24,0,1,,,,,,,,
,,"[""circle"",""no_dis"",""hori"",""left"",[99999,99999],[0,150]]",circle,no_dis,hori,left,"[99999,99999]","[0,150]",left,1,0.9406,,,,,,001,2025-03-10_22h32.57.399,SL_base,2021.2.3,Win32,60.04202942,,,25,0,25,0,1,,,,,,,,
,,"[""diamond"",""red"",""vert"",""up"",[106,-106],[150,0]]",diamond,red,vert,up,"[106,-106]","[150,0]",up,1,1.3154,,,,,,001,2025-03-10_22h32.57.399,SL_base,2021.2.3,Win32,60.04202942,,,26,0,26,0,1,,,,,,,,
,,"[""circle"",""green"",""hori"",""left"",[-106,106],[106,106]]",circle,green,hori,left,"[-106,106]","[106,106]",left,1,0.7986,,,,,,001,2025-03-10_22h32.57.399,SL_base,2021.2.3,Win32,60.04202942,,,27,0,27,0,1,,,,,,,,
,,"[""circle"",""green"",""hori"",""left"",[-106,-106],[106,106]]",circle,green,hori,left,"[-106,-106]","[106,106]",left,1,0.6284,,,,,,001,2025-03-10_22h32.57.399,SL_base,2021.2.3,Win32,60.04202942,,,28,0,28,0,1,,,,,,,,
,,"[""diamond"",""no_dis"",""vert"",""up"",[99999,99999],[106,-106]]",diamond,no_dis,vert,up,"[99999,99999]","[106,-106]",up,1,1.1136,,,,,,001,2025-03-10_22h32.57.399,SL_base,2021.2.3,Win32,60.04202942,,,29,0,29,0,1,,,,,,,,
,,"[""circle"",""green"",""vert"",""up"",[150,0],[0,150]]",circle,green,vert,up,"[150,0]","[0,150]",up,1,0.7939,,,,,,001,2025-03-10_22h32.57.399,SL_base,2021.2.3,Win32,60.04202942,,,30,0,30,0,1,,,,,,,,
,,"[""diamond"",""green"",""vert"",""up"",[0,150],[-106,-106]]",diamond,green,vert,up,"[0,150]","[-106,-106]",up,1,0.9659,,,,,,001,2025-03-10_22h32.57.399,SL_base,2021.2.3,Win32,60.04202942,,,31,0,31,0,1,,,,,,,,
,,"[""diamond"",""no_dis"",""vert"",""up"",[99999,99999],[0,150]]",diamond,no_dis,vert,up,"[99999,99999]","[0,150]",up,1,0.6971,,,,,,001,2025-03-10_22h32.57.399,SL_base,2021.2.3,Win32,60.04202942,,,32,0,32,0,1,,,,,,,,
,,"[""diamond"",""red"",""hori"",""left"",[0,150],[150,0]]",diamond,red,hori,left,"[0,150]","[150,0]",left,1,1.0971,,,,,,001,2025-03-10_22h32.57.399,SL_base,2021.2.3,Win32,60.04202942,,,33,0,33,0,1,,,,,,,,
,,"[""diamond"",""red"",""hori"",""left"",[106,-106],[0,-150]]",diamond,red,hori,left,"[106,-106]","[0,-150]",left,1,0.8507,,,,,,001,2025-03-10_22h32.57.399,SL_base,2021.2.3,Win32,60.04202942,,,34,0,34,0,1,,,,,,,,
,,"[""circle"",""no_dis"",""vert"",""up"",[99999,99999],[106,-106]]",circle,no_dis,vert,up,"[99999,99999]","[106,-106]",up,1,0.7666,,,,,,001,2025-03-10_22h32.57.399,SL_base,2021.2.3,Win32,60.04202942,,,35,0,35,0,1,,,,,,,,
,,"[""diamond"",""no_dis"",""vert"",""up"",[99999,99999],[-106,106]]",diamond,no_dis,vert,up,"[99999,99999]","[-106,106]",up,1,1.0589,,,,,,001,2025-03-10_22h32.57.399,SL_base,2021.2.3,Win32,60.04202942,,,36,0,36,0,1,,,,,,,,
,,"[""circle"",""green"",""hori"",""left"",[-106,-106],[150,0]]",circle,green,hori,left,"[-106,-106]","[150,0]",left,1,1.1066,,,,,,001,2025-03-10_22h32.57.399,SL_base,2021.2.3,Win32,60.04202942,,,37,0,37,0,1,,,,,,,,
,,"[""circle"",""red"",""vert"",""up"",[-150,0],[150,0]]",circle,red,vert,up,"[-150,0]","[150,0]",up,1,0.8689,,,,,,001,2025-03-10_22h32.57.399,SL_base,2021.2.3,Win32,60.04202942,,,38,0,38,0,1,,,,,,,,
,,"[""circle"",""red"",""vert"",""up"",[106,-106],[0,150]]",circle,red,vert,up,"[106,-106]","[0,150]",up,1,1.0986,,,,,,001,2025-03-10_22h32.57.399,SL_base,2021.2.3,Win32,60.04202942,,,39,0,39,0,1,,,,,,,,
,,"[""diamond"",""no_dis"",""hori"",""left"",[99999,99999],[106,-106]]",diamond,no_dis,hori,left,"[99999,99999]","[106,-106]",left,1,0.9589,,,,,,001,2025-03-10_22h32.57.399,SL_base,2021.2.3,Win32,60.04202942,,,40,0,40,0,1,,,,,,,,
,,"[""circle"",""green"",""hori"",""left"",[150,0],[-150,0]]",circle,green,hori,left,"[150,0]","[-150,0]",left,1,0.7939,,,,,,001,2025-03-10_22h32.57.399,SL_base,2021.2.3,Win32,60.04202942,,,41,0,41,0,1,,,,,,,,
,,"[""circle"",""red"",""hori"",""left"",[0,-150],[106,106]]",circle,red,hori,left,"[0,-150]","[106,106]",left,1,0.9545,,,,,,001,2025-03-10_22h32.57.399,SL_base,2021.2.3,Win32,60.04202942,,,42,0,42,0,1,,,,,,,,
,,"[""circle"",""no_dis"",""hori"",""left"",[99999,99999],[150,0]]",circle,no_dis,hori,left,"[99999,99999]","[150,0]",left,1,0.6831,,,,,,001,2025-03-10_22h32.57.399,SL_base,2021.2.3,Win32,60.04202942,,,43,0,43,0,1,,,,,,,,
,,"[""diamond"",""green"",""vert"",""up"",[106,-106],[150,0]]",diamond,green,vert,up,"[106,-106]","[150,0]",up,1,0.8515,,,,,,001,2025-03-10_22h32.57.399,SL_base,2021.2.3,Win32,60.04202942,,,44,0,44,0,1,,,,,,,,
,,"[""circle"",""red"",""hori"",""left"",[150,0],[-106,-106]]",circle,red,hori,left,"[150,0]","[-106,-106]",left,1,0.905,,,,,,001,2025-03-10_22h32.57.399,SL_base,2021.2.3,Win32,60.04202942,,,45,0,45,0,1,,,,,,,,
,,"[""circle"",""red"",""vert"",""up"",[-106,106],[0,150]]",circle,red,vert,up,"[-106,106]","[0,150]",up,1,1.4279,,,,,,001,2025-03-10_22h32.57.399,SL_base,2021.2.3,Win32,60.04202942,,,46,0,46,0,1,,,,,,,,
,,"[""diamond"",""green"",""hori"",""left"",[-106,106],[106,106]]",diamond,green,hori,left,"[-106,106]","[106,106]",left,1,1.7909,,,,,,001,2025-03-10_22h32.57.399,SL_base,2021.2.3,Win32,60.04202942,,,47,0,47,0,1,,,,,,,,
,,"[""circle"",""red"",""hori"",""left"",[150,0],[106,-106]]",circle,red,hori,left,"[150,0]","[106,-106]",left,1,1.219,,,,,,001,2025-03-10_22h32.57.399,SL_base,2021.2.3,Win32,60.04202942,,,48,0,48,0,1,,,,,,,,
,,"[""circle"",""no_dis"",""hori"",""left"",[99999,99999],[-106,-106]]",circle,no_dis,hori,left,"[99999,99999]","[-106,-106]",left,1,0.8658,,,,,,001,2025-03-10_22h32.57.399,SL_base,2021.2.3,Win32,60.04202942,,,49,0,49,0,1,,,,,,,,
,,"[""diamond"",""red"",""vert"",""up"",[-150,0],[106,-106]]",diamond,red,vert,up,"[-150,0]","[106,-106]",up,1,1.2418,,,,,,001,2025-03-10_22h32.57.399,SL_base,2021.2.3,Win32,60.04202942,,,50,0,50,0,1,,,,,,,,
,,"[""circle"",""green"",""hori"",""left"",[0,-150],[106,106]]",circle,green,hori,left,"[0,-150]","[106,106]",left,1,0.8828,,,,,,001,2025-03-10_22h32.57.399,SL_base,2021.2.3,Win32,60.04202942,,,51,0,51,0,1,,,,,,,,
,,"[""diamond"",""red"",""hori"",""left"",[150,0],[-106,106]]",diamond,red,hori,left,"[150,0]","[-106,106]",left,1,0.9708,,,,,,001,2025-03-10_22h32.57.399,SL_base,2021.2.3,Win32,60.04202942,,,52,0,52,0,1,,,,,,,,
,,"[""diamond"",""no_dis"",""hori"",""left"",[99999,99999],[0,-150]]",diamond,no_dis,hori,left,"[99999,99999]","[0,-150]",left,1,0.9538,,,,,,001,2025-03-10_22h32.57.399,SL_base,2021.2.3,Win32,60.04202942,,,53,0,53,0,1,,,,,,,,
,,"[""diamond"",""green"",""vert"",""up"",[0,150],[0,-150]]",diamond,green,vert,up,"[0,150]","[0,-150]",up,1,0.9999,,,,,,001,2025-03-10_22h32.57.399,SL_base,2021.2.3,Win32,60.04202942,,,54,0,54,0,1,,,,,,,,
,,"[""circle"",""no_dis"",""hori"",""left"",[99999,99999],[0,150]]",circle,no_dis,hori,left,"[99999,99999]","[0,150]",left,1,1.3924,,,,,,001,2025-03-10_22h32.57.399,SL_base,2021.2.3,Win32,60.04202942,,,55,0,55,0,1,,,,,,,,
,,"[""circle"",""red"",""hori"",""left"",[106,-106],[-106,106]]",circle,red,hori,left,"[106,-106]","[-106,106]",left,1,0.6504,,,,,,001,2025-03-10_22h32.57.399,SL_base,2021.2.3,Win32,60.04202942,,,56,0,56,0,1,,,,,,,,
,,"[""circle"",""green"",""hori"",""left"",[150,0],[0,-150]]",circle,green,hori,left,"[150,0]","[0,-150]",left,1,1.1932,,,,,,001,2025-03-10_22h32.57.399,SL_base,2021.2.3,Win32,60.04202942,,,57,0,57,0,1,,,,,,,,
,,"[""circle"",""no_dis"",""vert"",""up"",[99999,99999],[-106,-106]]",circle,no_dis,vert,up,"[99999,99999]","[-106,-106]",up,1,0.7176,,,,,,001,2025-03-10_22h32.57.399,SL_base,2021.2.3,Win32,60.04202942,,,58,0,58,0,1,,,,,,,,
,,"[""diamond"",""no_dis"",""hori"",""left"",[99999,99999],[-106,106]]",diamond,no_dis,hori,left,"[99999,99999]","[-106,106]",left,1,0.8418,,,,,,001,2025-03-10_22h32.57.399,SL_base,2021.2.3,Win32,60.04202942,,,59,0,59,0,1,,,,,,,,
,,"[""circle"",""green"",""hori"",""left"",[-106,-106],[106,106]]",circle,green,hori,left,"[-106,-106]","[106,106]",left,1,0.6105,,,,,,001,2025-03-10_22h32.57.399,SL_base,2021.2.3,Win32,60.04202942,,,60,0,60,0,1,,,,,,,,
,,"[""diamond"",""green"",""hori"",""left"",[0,-150],[-106,106]]",diamond,green,hori,left,"[0,-150]","[-106,106]",left,1,1.6326,,,,,,001,2025-03-10_22h32.57.399,SL_base,2021.2.3,Win32,60.04202942,,,61,0,61,0,1,,,,,,,,
,,"[""circle"",""red"",""hori"",""left"",[150,0],[0,150]]",circle,red,hori,left,"[150,0]","[0,150]",left,1,1.0268,,,,,,001,2025-03-10_22h32.57.399,SL_base,2021.2.3,Win32,60.04202942,,,62,0,62,0,1,,,,,,,,
,,"[""circle"",""red"",""vert"",""up"",[150,0],[106,-106]]",circle,red,vert,up,"[150,0]","[106,-106]",up,1,1.0487,,,,,,001,2025-03-10_22h32.57.399,SL_base,2021.2.3,Win32,60.04202942,,,63,0,63,0,1,,,,,,,,
,,"[""diamond"",""no_dis"",""hori"",""left"",[99999,99999],[-106,106]]",diamond,no_dis,hori,left,"[99999,99999]","[-106,106]",left,1,1.2974,,,,,,001,2025-03-10_22h32.57.399,SL_base,2021.2.3,Win32,60.04202942,,,64,0,64,0,1,,,,,,,,
,,"[""diamond"",""red"",""vert"",""up"",[-106,106],[-150,0]]",diamond,red,vert,up,"[-106,106]","[-150,0]",left,0,1.3176,,,,,,001,2025-03-10_22h32.57.399,SL_base,2021.2.3,Win32,60.04202942,,,65,0,65,0,1,,,,,,,,
,,"[""diamond"",""no_dis"",""vert"",""up"",[99999,99999],[-106,106]]",diamond,no_dis,vert,up,"[99999,99999]","[-106,106]",up,1,1.289,,,,,,001,2025-03-10_22h32.57.399,SL_base,2021.2.3,Win32,60.04202942,,,66,0,66,0,1,,,,,,,,
,,"[""circle"",""no_dis"",""hori"",""left"",[99999,99999],[106,-106]]",circle,no_dis,hori,left,"[99999,99999]","[106,-106]",left,1,1.1019,,,,,,001,2025-03-10_22h32.57.399,SL_base,2021.2.3,Win32,60.04202942,,,67,0,67,0,1,,,,,,,,
,,"[""circle"",""green"",""vert"",""up"",[-106,-106],[106,106]]",circle,green,vert,up,"[-106,-106]","[106,106]",up,1,0.6998,,,,,,001,2025-03-10_22h32.57.399,SL_base,2021.2.3,Win32,60.04202942,,,68,0,68,0,1,,,,,,,,
,,"[""diamond"",""no_dis"",""vert"",""up"",[99999,99999],[-106,-106]]",diamond,no_dis,vert,up,"[99999,99999]","[-106,-106]",up,1,1.1972,,,,,,001,2025-03-10_22h32.57.399,SL_base,2021.2.3,Win32,60.04202942,,,69,0,69,0,1,,,,,,,,
,,"[""circle"",""green"",""hori"",""left"",[106,106],[-106,-106]]",circle,green,hori,left,"[106,106]","[-106,-106]",left,1,0.8323,,,,,,001,2025-03-10_22h32.57.399,SL_base,2021.2.3,Win32,60.04202942,,,70,0,70,0,1,,,,,,,,
,,"[""diamond"",""green"",""hori"",""left"",[106,106],[-106,106]]",diamond,green,hori,left,"[106,106]","[-106,106]",left,1,1.1752,,,,,,001,2025-03-10_22h32.57.399,SL_base,2021.2.3,Win32,60.04202942,,,71,0,71,0,1,,,,,,,,
,,"[""diamond"",""no_dis"",""vert"",""up"",[99999,99999],[106,106]]",diamond,no_dis,vert,up,"[99999,99999]","[106,106]",up,1,0.7494,,,,,,001,2025-03-10_22h32.57.399,SL_base,2021.2.3,Win32,60.04202942,,,72,0,72,0,1,,,,,,,,
,,"[""circle"",""green"",""vert"",""up"",[150,0],[0,-150]]",circle,green,vert,up,"[150,0]","[0,-150]",up,1,0.8857,,,,,,001,2025-03-10_22h32.57.399,SL_base,2021.2.3,Win32,60.04202942,,,73,0,73,0,1,,,,,,,,
,,"[""circle"",""red"",""hori"",""left"",[0,150],[0,-150]]",circle,red,hori,left,"[0,150]","[0,-150]",left,1,0.9387,,,,,,001,2025-03-10_22h32.57.399,SL_base,2021.2.3,Win32,60.04202942,,,74,0,74,0,1,,,,,,,,
,,"[""diamond"",""red"",""vert"",""up"",[106,-106],[106,106]]",diamond,red,vert,up,"[106,-106]","[106,106]",up,1,0.7008,,,,,,001,2025-03-10_22h32.57.399,SL_base,2021.2.3,Win32,60.04202942,,,75,0,75,0,1,,,,,,,,
,,"[""circle"",""no_dis"",""hori"",""left"",[99999,99999],[0,150]]",circle,no_dis,hori,left,"[99999,99999]","[0,150]",left,1,1.2479,,,,,,001,2025-03-10_22h32.57.399,SL_base,2021.2.3,Win32,60.04202942,,,76,0,76,0,1,,,,,,,,
,,"[""circle"",""red"",""hori"",""left"",[0,-150],[0,150]]",circle,red,hori,left,"[0,-150]","[0,150]",left,1,0.959,,,,,,001,2025-03-10_22h32.57.399,SL_base,2021.2.3,Win32,60.04202942,,,77,0,77,0,1,,,,,,,,
,,"[""diamond"",""green"",""vert"",""up"",[106,106],[-150,0]]",diamond,green,vert,up,"[106,106]","[-150,0]",up,1,1.2136,,,,,,001,2025-03-10_22h32.57.399,SL_base,2021.2.3,Win32,60.04202942,,,78,0,78,0,1,,,,,,,,
,,"[""circle"",""no_dis"",""vert"",""up"",[99999,99999],[-106,106]]",circle,no_dis,vert,up,"[99999,99999]","[-106,106]",up,1,0.7486,,,,,,001,2025-03-10_22h32.57.399,SL_base,2021.2.3,Win32,60.04202942,,,79,0,79,0,1,,,,,,,,
,,"[""circle"",""green"",""vert"",""up"",[0,-150],[-106,-106]]",circle,green,vert,up,"[0,-150]","[-106,-106]",up,1,1.2215,,,,,,001,2025-03-10_22h32.57.399,SL_base,2021.2.3,Win32,60.04202942,,,80,0,80,0,1,,,,,,,,
,,"[""circle"",""red"",""vert"",""up"",[-106,106],[0,150]]",circle,red,vert,up,"[-106,106]","[0,150]",up,1,0.721,,,,,,001,2025-03-10_22h32.57.399,SL_base,2021.2.3,Win32,60.04202942,,,81,0,81,0,1,,,,,,,,
,,"[""diamond"",""red"",""vert"",""up"",[150,0],[-150,0]]",diamond,red,vert,up,"[150,0]","[-150,0]",up,1,0.8781,,,,,,001,2025-03-10_22h32.57.399,SL_base,2021.2.3,Win32,60.04202942,,,82,0,82,0,1,,,,,,,,
,,"[""diamond"",""green"",""hori"",""left"",[150,0],[-106,-106]]",diamond,green,hori,left,"[150,0]","[-106,-106]",left,1,1.3792,,,,,,001,2025-03-10_22h32.57.399,SL_base,2021.2.3,Win32,60.04202942,,,83,0,83,0,1,,,,,,,,
,,"[""diamond"",""green"",""hori"",""left"",[-150,0],[106,106]]",diamond,green,hori,left,"[-150,0]","[106,106]",left,1,0.6963,,,,,,001,2025-03-10_22h32.57.399,SL_base,2021.2.3,Win32,60.04202942,,,84,0,84,0,1,,,,,,,,
,,"[""circle"",""red"",""vert"",""up"",[150,0],[106,-106]]",circle,red,vert,up,"[150,0]","[106,-106]",up,1,0.944,,,,,,001,2025-03-10_22h32.57.399,SL_base,2021.2.3,Win32,60.04202942,,,85,0,85,0,1,,,,,,,,
,,"[""circle"",""red"",""vert"",""up"",[150,0],[-106,106]]",circle,red,vert,up,"[150,0]","[-106,106]",up,1,1.0991,,,,,,001,2025-03-10_22h32.57.399,SL_base,2021.2.3,Win32,60.04202942,,,86,0,86,0,1,,,,,,,,
,,"[""diamond"",""no_dis"",""vert"",""up"",[99999,99999],[0,150]]",diamond,no_dis,vert,up,"[99999,99999]","[0,150]",up,1,1.0986,,,,,,001,2025-03-10_22h32.57.399,SL_base,2021.2.3,Win32,60.04202942,,,87,0,87,0,1,,,,,,,,
,,"[""diamond"",""no_dis"",""vert"",""up"",[99999,99999],[-150,0]]",diamond,no_dis,vert,up,"[99999,99999]","[-150,0]",up,1,0.7069,,,,,,001,2025-03-10_22h32.57.399,SL_base,2021.2.3,Win32,60.04202942,,,88,0,88,0,1,,,,,,,,
,,"[""diamond"",""no_dis"",""hori"",""left"",[99999,99999],[-106,-106]]",diamond,no_dis,hori,left,"[99999,99999]","[-106,-106]",left,1,0.9066,,,,,,001,2025-03-10_22h32.57.399,SL_base,2021.2.3,Win32,60.04202942,,,89,0,89,0,1,,,,,,,,
,,"[""circle"",""red"",""vert"",""up"",[150,0],[0,-150]]",circle,red,vert,up,"[150,0]","[0,-150]",up,1,0.806,,,,,,001,2025-03-10_22h32.57.399,SL_base,2021.2.3,Win32,60.04202942,,,90,0,90,0,1,,,,,,,,
,,"[""circle"",""green"",""hori"",""left"",[106,106],[-150,0]]",circle,green,hori,left,"[106,106]","[-150,0]",left,1,0.6712,,,,,,001,2025-03-10_22h32.57.399,SL_base,2021.2.3,Win32,60.04202942,,,91,0,91,0,1,,,,,,,,
