﻿key_resp.keys,key_resp.rt,trial_para,tar_shape,dis_color_condi,tar_line,cor_resp,dis_loc,tar_loc,resp.keys,resp.corr,resp.rt,trials.thisRepN,trials.thisTrialN,trials.thisN,trials.thisIndex,trials.ran,participant,date,expName,psychopyVersion,OS,frameRate,key_resp_2.keys,key_resp_2.rt,trials_2.thisRepN,trials_2.thisTrialN,trials_2.thisN,trials_2.thisIndex,trials_2.ran,block_num,key_resp_3.keys,key_resp_3.rt,trials_3.thisRepN,trials_3.thisTrialN,trials_3.thisN,trials_3.thisIndex,trials_3.ran
space,9.9666,"[""circle"",""red"",""hori"",""left"",[-150,0],[0,150]]",circle,red,hori,left,"[-150,0]","[0,150]",left,1,1.761,0,0,0,0,1,001,2025-03-10_17h04.47.492,SL_base,2021.2.3,Win32,100,,,,,,,,,,,,,,,
,,"[""circle"",""no_dis"",""hori"",""left"",[99999,99999],[106,-106]]",circle,no_dis,hori,left,"[99999,99999]","[106,-106]",left,1,1.8697,1,0,1,0,1,001,2025-03-10_17h04.47.492,SL_base,2021.2.3,Win32,100,,,,,,,,,,,,,,,
,,"[""circle"",""no_dis"",""hori"",""left"",[99999,99999],[106,-106]]",circle,no_dis,hori,left,"[99999,99999]","[106,-106]",left,1,1.2507,2,0,2,0,1,001,2025-03-10_17h04.47.492,SL_base,2021.2.3,Win32,100,,,,,,,,,,,,,,,
,,"[""diamond"",""red"",""vert"",""up"",[150,0],[-106,-106]]",diamond,red,vert,up,"[150,0]","[-106,-106]",up,1,1.2921,3,0,3,0,1,001,2025-03-10_17h04.47.492,SL_base,2021.2.3,Win32,100,,,,,,,,,,,,,,,
,,"[""diamond"",""green"",""vert"",""up"",[0,-150],[-106,-106]]",diamond,green,vert,up,"[0,-150]","[-106,-106]",up,1,1.3389,4,0,4,0,1,001,2025-03-10_17h04.47.492,SL_base,2021.2.3,Win32,100,,,,,,,,,,,,,,,
,,"[""circle"",""no_dis"",""hori"",""left"",[99999,99999],[150,0]]",circle,no_dis,hori,left,"[99999,99999]","[150,0]",left,1,1.149,5,0,5,0,1,001,2025-03-10_17h04.47.492,SL_base,2021.2.3,Win32,100,,,,,,,,,,,,,,,
,,"[""diamond"",""red"",""vert"",""up"",[0,150],[150,0]]",diamond,red,vert,up,"[0,150]","[150,0]",left,0,1.363,6,0,6,0,1,001,2025-03-10_17h04.47.492,SL_base,2021.2.3,Win32,100,,,,,,,,,,,,,,,
,,"[""circle"",""green"",""vert"",""up"",[150,0],[-106,106]]",circle,green,vert,up,"[150,0]","[-106,106]",up,1,1.1502,7,0,7,0,1,001,2025-03-10_17h04.47.492,SL_base,2021.2.3,Win32,100,,,,,,,,,,,,,,,
,,"[""circle"",""red"",""hori"",""left"",[0,-150],[106,106]]",circle,red,hori,left,"[0,-150]","[106,106]",left,1,1.3776,8,0,8,0,1,001,2025-03-10_17h04.47.492,SL_base,2021.2.3,Win32,100,,,,,,,,,,,,,,,
,,"[""circle"",""red"",""vert"",""up"",[106,-106],[-106,106]]",circle,red,vert,up,"[106,-106]","[-106,106]",up,1,0.8544,9,0,9,0,1,001,2025-03-10_17h04.47.492,SL_base,2021.2.3,Win32,100,,,,,,,,,,,,,,,
,,"[""circle"",""red"",""hori"",""left"",[-150,0],[0,150]]",circle,red,hori,left,"[-150,0]","[0,150]",left,1,0.9309,,,,,,001,2025-03-10_17h04.47.492,SL_base,2021.2.3,Win32,100,space,1.976,0,0,0,0,1,,,,,,,,
,,"[""circle"",""no_dis"",""hori"",""left"",[99999,99999],[106,-106]]",circle,no_dis,hori,left,"[99999,99999]","[106,-106]",left,1,0.8117,,,,,,001,2025-03-10_17h04.47.492,SL_base,2021.2.3,Win32,100,,,1,0,1,0,1,,,,,,,,
,,"[""circle"",""no_dis"",""hori"",""left"",[99999,99999],[106,-106]]",circle,no_dis,hori,left,"[99999,99999]","[106,-106]",left,1,0.6121,,,,,,001,2025-03-10_17h04.47.492,SL_base,2021.2.3,Win32,100,,,2,0,2,0,1,,,,,,,,
,,"[""diamond"",""red"",""vert"",""up"",[150,0],[-106,-106]]",diamond,red,vert,up,"[150,0]","[-106,-106]",up,1,1.321,,,,,,001,2025-03-10_17h04.47.492,SL_base,2021.2.3,Win32,100,,,3,0,3,0,1,,,,,,,,
,,"[""diamond"",""green"",""vert"",""up"",[0,-150],[-106,-106]]",diamond,green,vert,up,"[0,-150]","[-106,-106]",up,1,0.9641,,,,,,001,2025-03-10_17h04.47.492,SL_base,2021.2.3,Win32,100,,,4,0,4,0,1,,,,,,,,
,,"[""circle"",""no_dis"",""hori"",""left"",[99999,99999],[150,0]]",circle,no_dis,hori,left,"[99999,99999]","[150,0]",left,1,1.2084,,,,,,001,2025-03-10_17h04.47.492,SL_base,2021.2.3,Win32,100,,,5,0,5,0,1,,,,,,,,
,,"[""diamond"",""red"",""vert"",""up"",[0,150],[150,0]]",diamond,red,vert,up,"[0,150]","[150,0]",up,1,1.0679,,,,,,001,2025-03-10_17h04.47.492,SL_base,2021.2.3,Win32,100,,,6,0,6,0,1,,,,,,,,
,,"[""circle"",""green"",""vert"",""up"",[150,0],[-106,106]]",circle,green,vert,up,"[150,0]","[-106,106]",up,1,1.2576,,,,,,001,2025-03-10_17h04.47.492,SL_base,2021.2.3,Win32,100,,,7,0,7,0,1,,,,,,,,
,,"[""circle"",""red"",""hori"",""left"",[0,-150],[106,106]]",circle,red,hori,left,"[0,-150]","[106,106]",left,1,0.7193,,,,,,001,2025-03-10_17h04.47.492,SL_base,2021.2.3,Win32,100,,,8,0,8,0,1,,,,,,,,
,,"[""circle"",""red"",""vert"",""up"",[106,-106],[-106,106]]",circle,red,vert,up,"[106,-106]","[-106,106]",up,1,0.749,,,,,,001,2025-03-10_17h04.47.492,SL_base,2021.2.3,Win32,100,,,9,0,9,0,1,,,,,,,,
,,"[""circle"",""red"",""vert"",""up"",[150,0],[-150,0]]",circle,red,vert,up,"[150,0]","[-150,0]",up,1,0.9783,,,,,,001,2025-03-10_17h04.47.492,SL_base,2021.2.3,Win32,100,,,10,0,10,0,1,,,,,,,,
,,"[""diamond"",""red"",""hori"",""left"",[150,0],[0,-150]]",diamond,red,hori,left,"[150,0]","[0,-150]",left,1,1.3184,,,,,,001,2025-03-10_17h04.47.492,SL_base,2021.2.3,Win32,100,,,11,0,11,0,1,,,,,,,,
,,"[""circle"",""no_dis"",""vert"",""up"",[99999,99999],[-150,0]]",circle,no_dis,vert,up,"[99999,99999]","[-150,0]",up,1,0.9587,,,,,,001,2025-03-10_17h04.47.492,SL_base,2021.2.3,Win32,100,,,12,0,12,0,1,,,,,,,,
,,"[""diamond"",""red"",""hori"",""left"",[106,106],[150,0]]",diamond,red,hori,left,"[106,106]","[150,0]",left,1,1.1754,,,,,,001,2025-03-10_17h04.47.492,SL_base,2021.2.3,Win32,100,,,13,0,13,0,1,,,,,,,,
,,"[""diamond"",""red"",""vert"",""up"",[-150,0],[0,-150]]",diamond,red,vert,up,"[-150,0]","[0,-150]",up,1,1.1669,,,,,,001,2025-03-10_17h04.47.492,SL_base,2021.2.3,Win32,100,,,14,0,14,0,1,,,,,,,,
,,"[""diamond"",""no_dis"",""vert"",""up"",[99999,99999],[-106,106]]",diamond,no_dis,vert,up,"[99999,99999]","[-106,106]",up,1,1.5258,,,,,,001,2025-03-10_17h04.47.492,SL_base,2021.2.3,Win32,100,,,15,0,15,0,1,,,,,,,,
,,"[""diamond"",""green"",""vert"",""up"",[150,0],[106,-106]]",diamond,green,vert,up,"[150,0]","[106,-106]",left,0,0.8179,,,,,,001,2025-03-10_17h04.47.492,SL_base,2021.2.3,Win32,100,,,16,0,16,0,1,,,,,,,,
,,"[""circle"",""no_dis"",""vert"",""up"",[99999,99999],[-106,-106]]",circle,no_dis,vert,up,"[99999,99999]","[-106,-106]",up,1,1.2198,,,,,,001,2025-03-10_17h04.47.492,SL_base,2021.2.3,Win32,100,,,17,0,17,0,1,,,,,,,,
,,"[""diamond"",""no_dis"",""vert"",""up"",[99999,99999],[-106,106]]",diamond,no_dis,vert,up,"[99999,99999]","[-106,106]",up,1,1.3797,,,,,,001,2025-03-10_17h04.47.492,SL_base,2021.2.3,Win32,100,,,18,0,18,0,1,,,,,,,,
,,"[""circle"",""no_dis"",""vert"",""up"",[99999,99999],[106,-106]]",circle,no_dis,vert,up,"[99999,99999]","[106,-106]",up,1,1.7018,,,,,,001,2025-03-10_17h04.47.492,SL_base,2021.2.3,Win32,100,,,19,0,19,0,1,,,,,,,,
,,"[""diamond"",""red"",""hori"",""left"",[150,0],[0,150]]",diamond,red,hori,left,"[150,0]","[0,150]",up,0,1.5547,,,,,,001,2025-03-10_17h04.47.492,SL_base,2021.2.3,Win32,100,,,20,0,20,0,1,,,,,,,,
,,"[""diamond"",""no_dis"",""vert"",""up"",[99999,99999],[-106,106]]",diamond,no_dis,vert,up,"[99999,99999]","[-106,106]",up,1,1.0935,,,,,,001,2025-03-10_17h04.47.492,SL_base,2021.2.3,Win32,100,,,21,0,21,0,1,,,,,,,,
,,"[""diamond"",""no_dis"",""hori"",""left"",[99999,99999],[106,106]]",diamond,no_dis,hori,left,"[99999,99999]","[106,106]",left,1,1.1082,,,,,,001,2025-03-10_17h04.47.492,SL_base,2021.2.3,Win32,100,,,22,0,22,0,1,,,,,,,,
,,"[""diamond"",""green"",""hori"",""left"",[-106,106],[106,106]]",diamond,green,hori,left,"[-106,106]","[106,106]",left,1,0.9099,,,,,,001,2025-03-10_17h04.47.492,SL_base,2021.2.3,Win32,100,,,23,0,23,0,1,,,,,,,,
,,"[""diamond"",""red"",""hori"",""left"",[150,0],[-106,-106]]",diamond,red,hori,left,"[150,0]","[-106,-106]",left,1,0.8304,,,,,,001,2025-03-10_17h04.47.492,SL_base,2021.2.3,Win32,100,,,24,0,24,0,1,,,,,,,,
,,"[""diamond"",""red"",""vert"",""up"",[-106,106],[-106,-106]]",diamond,red,vert,up,"[-106,106]","[-106,-106]",up,1,0.8848,,,,,,001,2025-03-10_17h04.47.492,SL_base,2021.2.3,Win32,100,,,25,0,25,0,1,,,,,,,,
,,"[""circle"",""green"",""hori"",""left"",[0,150],[-106,-106]]",circle,green,hori,left,"[0,150]","[-106,-106]",up,0,1.3943,,,,,,001,2025-03-10_17h04.47.492,SL_base,2021.2.3,Win32,100,,,26,0,26,0,1,,,,,,,,
,,"[""diamond"",""no_dis"",""hori"",""left"",[99999,99999],[0,-150]]",diamond,no_dis,hori,left,"[99999,99999]","[0,-150]",left,1,1.0244,,,,,,001,2025-03-10_17h04.47.492,SL_base,2021.2.3,Win32,100,,,27,0,27,0,1,,,,,,,,
,,"[""circle"",""red"",""hori"",""left"",[0,150],[-150,0]]",circle,red,hori,left,"[0,150]","[-150,0]",left,1,1.4639,,,,,,001,2025-03-10_17h04.47.492,SL_base,2021.2.3,Win32,100,,,28,0,28,0,1,,,,,,,,
,,"[""circle"",""green"",""vert"",""up"",[0,150],[106,-106]]",circle,green,vert,up,"[0,150]","[106,-106]",up,1,0.7947,,,,,,001,2025-03-10_17h04.47.492,SL_base,2021.2.3,Win32,100,,,29,0,29,0,1,,,,,,,,
,,"[""circle"",""green"",""vert"",""up"",[106,106],[-106,106]]",circle,green,vert,up,"[106,106]","[-106,106]",up,1,1.1452,,,,,,001,2025-03-10_17h04.47.492,SL_base,2021.2.3,Win32,100,,,30,0,30,0,1,,,,,,,,
,,"[""circle"",""red"",""vert"",""up"",[-150,0],[106,-106]]",circle,red,vert,up,"[-150,0]","[106,-106]",up,1,1.1526,,,,,,001,2025-03-10_17h04.47.492,SL_base,2021.2.3,Win32,100,,,31,0,31,0,1,,,,,,,,
,,"[""circle"",""no_dis"",""hori"",""left"",[99999,99999],[-106,106]]",circle,no_dis,hori,left,"[99999,99999]","[-106,106]",left,1,1.1209,,,,,,001,2025-03-10_17h04.47.492,SL_base,2021.2.3,Win32,100,,,32,0,32,0,1,,,,,,,,
,,"[""diamond"",""green"",""hori"",""left"",[106,106],[106,-106]]",diamond,green,hori,left,"[106,106]","[106,-106]",left,1,1.8445,,,,,,001,2025-03-10_17h04.47.492,SL_base,2021.2.3,Win32,100,,,33,0,33,0,1,,,,,,,,
,,"[""circle"",""green"",""hori"",""left"",[150,0],[-106,106]]",circle,green,hori,left,"[150,0]","[-106,106]",up,0,1.5325,,,,,,001,2025-03-10_17h04.47.492,SL_base,2021.2.3,Win32,100,,,34,0,34,0,1,,,,,,,,
,,"[""diamond"",""red"",""hori"",""left"",[0,-150],[150,0]]",diamond,red,hori,left,"[0,-150]","[150,0]",left,1,1.6727,,,,,,001,2025-03-10_17h04.47.492,SL_base,2021.2.3,Win32,100,,,35,0,35,0,1,,,,,,,,
,,"[""circle"",""no_dis"",""vert"",""up"",[99999,99999],[0,-150]]",circle,no_dis,vert,up,"[99999,99999]","[0,-150]",up,1,1.3386,,,,,,001,2025-03-10_17h04.47.492,SL_base,2021.2.3,Win32,100,,,36,0,36,0,1,,,,,,,,
,,"[""diamond"",""red"",""hori"",""left"",[-106,-106],[0,150]]",diamond,red,hori,left,"[-106,-106]","[0,150]",left,1,2.7949,,,,,,001,2025-03-10_17h04.47.492,SL_base,2021.2.3,Win32,100,,,37,0,37,0,1,,,,,,,,
,,"[""diamond"",""red"",""hori"",""left"",[106,-106],[106,106]]",diamond,red,hori,left,"[106,-106]","[106,106]",left,1,2.3992,,,,,,001,2025-03-10_17h04.47.492,SL_base,2021.2.3,Win32,100,,,38,0,38,0,1,,,,,,,,
,,"[""diamond"",""no_dis"",""vert"",""up"",[99999,99999],[-106,-106]]",diamond,no_dis,vert,up,"[99999,99999]","[-106,-106]",up,1,2.0979,,,,,,001,2025-03-10_17h04.47.492,SL_base,2021.2.3,Win32,100,,,39,0,39,0,1,,,,,,,,
,,"[""diamond"",""green"",""vert"",""up"",[150,0],[-106,106]]",diamond,green,vert,up,"[150,0]","[-106,106]",up,1,1.0207,,,,,,001,2025-03-10_17h04.47.492,SL_base,2021.2.3,Win32,100,,,40,0,40,0,1,,,,,,,,
,,"[""diamond"",""no_dis"",""vert"",""up"",[99999,99999],[150,0]]",diamond,no_dis,vert,up,"[99999,99999]","[150,0]",up,1,1.0937,,,,,,001,2025-03-10_17h04.47.492,SL_base,2021.2.3,Win32,100,,,41,0,41,0,1,,,,,,,,
,,"[""diamond"",""red"",""hori"",""left"",[150,0],[0,150]]",diamond,red,hori,left,"[150,0]","[0,150]",left,1,1.2114,,,,,,001,2025-03-10_17h04.47.492,SL_base,2021.2.3,Win32,100,,,42,0,42,0,1,,,,,,,,
,,"[""circle"",""green"",""hori"",""left"",[150,0],[0,150]]",circle,green,hori,left,"[150,0]","[0,150]",left,1,2.4419,,,,,,001,2025-03-10_17h04.47.492,SL_base,2021.2.3,Win32,100,,,43,0,43,0,1,,,,,,,,
,,"[""circle"",""green"",""hori"",""left"",[-106,-106],[0,150]]",circle,green,hori,left,"[-106,-106]","[0,150]",left,1,1.7029,,,,,,001,2025-03-10_17h04.47.492,SL_base,2021.2.3,Win32,100,,,44,0,44,0,1,,,,,,,,
,,"[""circle"",""no_dis"",""vert"",""up"",[99999,99999],[0,150]]",circle,no_dis,vert,up,"[99999,99999]","[0,150]",up,1,0.7712,,,,,,001,2025-03-10_17h04.47.492,SL_base,2021.2.3,Win32,100,,,45,0,45,0,1,,,,,,,,
,,"[""circle"",""no_dis"",""hori"",""left"",[99999,99999],[106,106]]",circle,no_dis,hori,left,"[99999,99999]","[106,106]",left,1,0.8216,,,,,,001,2025-03-10_17h04.47.492,SL_base,2021.2.3,Win32,100,,,46,0,46,0,1,,,,,,,,
,,"[""diamond"",""no_dis"",""vert"",""up"",[99999,99999],[0,-150]]",diamond,no_dis,vert,up,"[99999,99999]","[0,-150]",up,1,1.0469,,,,,,001,2025-03-10_17h04.47.492,SL_base,2021.2.3,Win32,100,,,47,0,47,0,1,,,,,,,,
,,"[""circle"",""red"",""hori"",""left"",[106,106],[106,-106]]",circle,red,hori,left,"[106,106]","[106,-106]",left,1,0.9189,,,,,,001,2025-03-10_17h04.47.492,SL_base,2021.2.3,Win32,100,,,48,0,48,0,1,,,,,,,,
,,"[""diamond"",""green"",""vert"",""up"",[150,0],[106,106]]",diamond,green,vert,up,"[150,0]","[106,106]",up,1,1.167,,,,,,001,2025-03-10_17h04.47.492,SL_base,2021.2.3,Win32,100,,,49,0,49,0,1,,,,,,,,
,,"[""circle"",""green"",""hori"",""left"",[150,0],[-106,106]]",circle,green,hori,left,"[150,0]","[-106,106]",left,1,1.214,,,,,,001,2025-03-10_17h04.47.492,SL_base,2021.2.3,Win32,100,,,50,0,50,0,1,,,,,,,,
,,"[""circle"",""no_dis"",""vert"",""up"",[99999,99999],[-106,-106]]",circle,no_dis,vert,up,"[99999,99999]","[-106,-106]",up,1,0.7196,,,,,,001,2025-03-10_17h04.47.492,SL_base,2021.2.3,Win32,100,,,51,0,51,0,1,,,,,,,,
,,"[""circle"",""green"",""vert"",""up"",[150,0],[-106,-106]]",circle,green,vert,up,"[150,0]","[-106,-106]",up,1,2.0903,,,,,,001,2025-03-10_17h04.47.492,SL_base,2021.2.3,Win32,100,,,52,0,52,0,1,,,,,,,,
,,"[""diamond"",""no_dis"",""hori"",""left"",[99999,99999],[-106,-106]]",diamond,no_dis,hori,left,"[99999,99999]","[-106,-106]",left,1,1.3653,,,,,,001,2025-03-10_17h04.47.492,SL_base,2021.2.3,Win32,100,,,53,0,53,0,1,,,,,,,,
,,"[""circle"",""green"",""hori"",""left"",[-106,106],[106,-106]]",circle,green,hori,left,"[-106,106]","[106,-106]",left,1,0.8551,,,,,,001,2025-03-10_17h04.47.492,SL_base,2021.2.3,Win32,100,,,54,0,54,0,1,,,,,,,,
,,"[""circle"",""red"",""hori"",""left"",[150,0],[0,150]]",circle,red,hori,left,"[150,0]","[0,150]",left,1,1.1292,,,,,,001,2025-03-10_17h04.47.492,SL_base,2021.2.3,Win32,100,,,55,0,55,0,1,,,,,,,,
,,"[""diamond"",""green"",""vert"",""up"",[150,0],[-106,106]]",diamond,green,vert,up,"[150,0]","[-106,106]",up,1,1.1033,,,,,,001,2025-03-10_17h04.47.492,SL_base,2021.2.3,Win32,100,,,56,0,56,0,1,,,,,,,,
,,"[""circle"",""red"",""hori"",""left"",[0,150],[-106,106]]",circle,red,hori,left,"[0,150]","[-106,106]",left,1,2.0787,,,,,,001,2025-03-10_17h04.47.492,SL_base,2021.2.3,Win32,100,,,57,0,57,0,1,,,,,,,,
,,"[""circle"",""green"",""hori"",""left"",[-150,0],[106,106]]",circle,green,hori,left,"[-150,0]","[106,106]",left,1,0.9871,,,,,,001,2025-03-10_17h04.47.492,SL_base,2021.2.3,Win32,100,,,58,0,58,0,1,,,,,,,,
,,"[""circle"",""green"",""hori"",""left"",[150,0],[0,150]]",circle,green,hori,left,"[150,0]","[0,150]",left,1,0.7746,,,,,,001,2025-03-10_17h04.47.492,SL_base,2021.2.3,Win32,100,,,59,0,59,0,1,,,,,,,,
,,"[""circle"",""green"",""vert"",""up"",[-106,106],[0,-150]]",circle,green,vert,up,"[-106,106]","[0,-150]",up,1,0.856,,,,,,001,2025-03-10_17h04.47.492,SL_base,2021.2.3,Win32,100,,,60,0,60,0,1,,,,,,,,
,,"[""diamond"",""no_dis"",""hori"",""left"",[99999,99999],[-106,106]]",diamond,no_dis,hori,left,"[99999,99999]","[-106,106]",left,1,1.2525,,,,,,001,2025-03-10_17h04.47.492,SL_base,2021.2.3,Win32,100,,,61,0,61,0,1,,,,,,,,
,,"[""circle"",""no_dis"",""hori"",""left"",[99999,99999],[0,150]]",circle,no_dis,hori,left,"[99999,99999]","[0,150]",left,1,1.5041,,,,,,001,2025-03-10_17h04.47.492,SL_base,2021.2.3,Win32,100,,,62,0,62,0,1,,,,,,,,
,,"[""circle"",""green"",""hori"",""left"",[106,-106],[106,106]]",circle,green,hori,left,"[106,-106]","[106,106]",left,1,2.4675,,,,,,001,2025-03-10_17h04.47.492,SL_base,2021.2.3,Win32,100,,,63,0,63,0,1,,,,,,,,
,,"[""circle"",""green"",""vert"",""up"",[150,0],[106,-106]]",circle,green,vert,up,"[150,0]","[106,-106]",up,1,1.3172,,,,,,001,2025-03-10_17h04.47.492,SL_base,2021.2.3,Win32,100,,,64,0,64,0,1,,,,,,,,
,,"[""circle"",""red"",""vert"",""up"",[-106,106],[150,0]]",circle,red,vert,up,"[-106,106]","[150,0]",up,1,1.709,,,,,,001,2025-03-10_17h04.47.492,SL_base,2021.2.3,Win32,100,,,65,0,65,0,1,,,,,,,,
,,"[""circle"",""green"",""hori"",""left"",[106,-106],[-150,0]]",circle,green,hori,left,"[106,-106]","[-150,0]",left,1,1.3694,,,,,,001,2025-03-10_17h04.47.492,SL_base,2021.2.3,Win32,100,,,66,0,66,0,1,,,,,,,,
,,"[""circle"",""red"",""hori"",""left"",[-106,-106],[106,106]]",circle,red,hori,left,"[-106,-106]","[106,106]",left,1,1.1934,,,,,,001,2025-03-10_17h04.47.492,SL_base,2021.2.3,Win32,100,,,67,0,67,0,1,,,,,,,,
,,"[""circle"",""red"",""hori"",""left"",[150,0],[-150,0]]",circle,red,hori,left,"[150,0]","[-150,0]",left,1,1.1963,,,,,,001,2025-03-10_17h04.47.492,SL_base,2021.2.3,Win32,100,,,68,0,68,0,1,,,,,,,,
,,"[""circle"",""no_dis"",""vert"",""up"",[99999,99999],[106,106]]",circle,no_dis,vert,up,"[99999,99999]","[106,106]",up,1,0.9941,,,,,,001,2025-03-10_17h04.47.492,SL_base,2021.2.3,Win32,100,,,69,0,69,0,1,,,,,,,,
,,"[""diamond"",""green"",""hori"",""left"",[-150,0],[-106,106]]",diamond,green,hori,left,"[-150,0]","[-106,106]",left,1,1.499,,,,,,001,2025-03-10_17h04.47.492,SL_base,2021.2.3,Win32,100,,,70,0,70,0,1,,,,,,,,
,,"[""circle"",""red"",""hori"",""left"",[150,0],[-106,-106]]",circle,red,hori,left,"[150,0]","[-106,-106]",left,1,1.626,,,,,,001,2025-03-10_17h04.47.492,SL_base,2021.2.3,Win32,100,,,71,0,71,0,1,,,,,,,,
,,"[""diamond"",""red"",""vert"",""up"",[0,-150],[106,-106]]",diamond,red,vert,up,"[0,-150]","[106,-106]",up,1,1.3642,,,,,,001,2025-03-10_17h04.47.492,SL_base,2021.2.3,Win32,100,,,72,0,72,0,1,,,,,,,,
,,"[""circle"",""red"",""vert"",""up"",[-106,106],[106,-106]]",circle,red,vert,up,"[-106,106]","[106,-106]",up,1,0.8753,,,,,,001,2025-03-10_17h04.47.492,SL_base,2021.2.3,Win32,100,,,73,0,73,0,1,,,,,,,,
,,"[""diamond"",""no_dis"",""vert"",""up"",[99999,99999],[0,150]]",diamond,no_dis,vert,up,"[99999,99999]","[0,150]",up,1,1.236,,,,,,001,2025-03-10_17h04.47.492,SL_base,2021.2.3,Win32,100,,,74,0,74,0,1,,,,,,,,
,,"[""diamond"",""green"",""hori"",""left"",[106,-106],[-150,0]]",diamond,green,hori,left,"[106,-106]","[-150,0]",left,1,0.8607,,,,,,001,2025-03-10_17h04.47.492,SL_base,2021.2.3,Win32,100,,,75,0,75,0,1,,,,,,,,
,,"[""diamond"",""red"",""hori"",""left"",[-106,-106],[150,0]]",diamond,red,hori,left,"[-106,-106]","[150,0]",left,1,1.3167,,,,,,001,2025-03-10_17h04.47.492,SL_base,2021.2.3,Win32,100,,,76,0,76,0,1,,,,,,,,
,,"[""diamond"",""no_dis"",""hori"",""left"",[99999,99999],[0,-150]]",diamond,no_dis,hori,left,"[99999,99999]","[0,-150]",left,1,1.1917,,,,,,001,2025-03-10_17h04.47.492,SL_base,2021.2.3,Win32,100,,,77,0,77,0,1,,,,,,,,
,,"[""circle"",""no_dis"",""hori"",""left"",[99999,99999],[-106,-106]]",circle,no_dis,hori,left,"[99999,99999]","[-106,-106]",left,1,1.6159,,,,,,001,2025-03-10_17h04.47.492,SL_base,2021.2.3,Win32,100,,,78,0,78,0,1,,,,,,,,
,,"[""diamond"",""no_dis"",""hori"",""left"",[99999,99999],[106,-106]]",diamond,no_dis,hori,left,"[99999,99999]","[106,-106]",left,1,1.1389,,,,,,001,2025-03-10_17h04.47.492,SL_base,2021.2.3,Win32,100,,,79,0,79,0,1,,,,,,,,
,,"[""circle"",""green"",""vert"",""up"",[-106,-106],[150,0]]",circle,green,vert,up,"[-106,-106]","[150,0]",left,0,1.3149,,,,,,001,2025-03-10_17h04.47.492,SL_base,2021.2.3,Win32,100,,,80,0,80,0,1,,,,,,,,
,,"[""diamond"",""green"",""vert"",""up"",[-150,0],[-106,-106]]",diamond,green,vert,up,"[-150,0]","[-106,-106]",up,1,1.2708,,,,,,001,2025-03-10_17h04.47.492,SL_base,2021.2.3,Win32,100,,,81,0,81,0,1,,,,,,,,
,,"[""circle"",""red"",""vert"",""up"",[0,150],[-150,0]]",circle,red,vert,up,"[0,150]","[-150,0]",up,1,1.269,,,,,,001,2025-03-10_17h04.47.492,SL_base,2021.2.3,Win32,100,,,82,0,82,0,1,,,,,,,,
,,"[""circle"",""green"",""vert"",""up"",[-106,106],[106,106]]",circle,green,vert,up,"[-106,106]","[106,106]",up,1,1.6234,,,,,,001,2025-03-10_17h04.47.492,SL_base,2021.2.3,Win32,100,,,83,0,83,0,1,,,,,,,,
,,"[""diamond"",""no_dis"",""vert"",""up"",[99999,99999],[150,0]]",diamond,no_dis,vert,up,"[99999,99999]","[150,0]",up,1,1.1676,,,,,,001,2025-03-10_17h04.47.492,SL_base,2021.2.3,Win32,100,,,84,0,84,0,1,,,,,,,,
,,"[""diamond"",""red"",""vert"",""up"",[106,106],[-150,0]]",diamond,red,vert,up,"[106,106]","[-150,0]",up,1,1.0679,,,,,,001,2025-03-10_17h04.47.492,SL_base,2021.2.3,Win32,100,,,85,0,85,0,1,,,,,,,,
,,"[""diamond"",""green"",""hori"",""left"",[150,0],[-150,0]]",diamond,green,hori,left,"[150,0]","[-150,0]",left,1,0.9201,,,,,,001,2025-03-10_17h04.47.492,SL_base,2021.2.3,Win32,100,,,86,0,86,0,1,,,,,,,,
,,"[""circle"",""no_dis"",""vert"",""up"",[99999,99999],[-150,0]]",circle,no_dis,vert,up,"[99999,99999]","[-150,0]",up,1,0.7359,,,,,,001,2025-03-10_17h04.47.492,SL_base,2021.2.3,Win32,100,,,87,0,87,0,1,,,,,,,,
,,"[""diamond"",""green"",""hori"",""left"",[-150,0],[-106,-106]]",diamond,green,hori,left,"[-150,0]","[-106,-106]",left,1,1.3456,,,,,,001,2025-03-10_17h04.47.492,SL_base,2021.2.3,Win32,100,,,88,0,88,0,1,,,,,,,,
,,"[""diamond"",""green"",""vert"",""up"",[-150,0],[106,-106]]",diamond,green,vert,up,"[-150,0]","[106,-106]",up,1,1.224,,,,,,001,2025-03-10_17h04.47.492,SL_base,2021.2.3,Win32,100,,,89,0,89,0,1,,,,,,,,
,,"[""diamond"",""no_dis"",""hori"",""left"",[99999,99999],[0,150]]",diamond,no_dis,hori,left,"[99999,99999]","[0,150]",left,1,1.4275,,,,,,001,2025-03-10_17h04.47.492,SL_base,2021.2.3,Win32,100,,,90,0,90,0,1,,,,,,,,
,,"[""diamond"",""red"",""vert"",""up"",[0,-150],[150,0]]",diamond,red,vert,up,"[0,-150]","[150,0]",up,1,1.1854,,,,,,001,2025-03-10_17h04.47.492,SL_base,2021.2.3,Win32,100,,,91,0,91,0,1,,,,,,,,
,,"[""circle"",""no_dis"",""hori"",""left"",[99999,99999],[-150,0]]",circle,no_dis,hori,left,"[99999,99999]","[-150,0]",left,1,1.7653,,,,,,001,2025-03-10_17h04.47.492,SL_base,2021.2.3,Win32,100,,,92,0,92,0,1,,,,,,,,
,,"[""circle"",""no_dis"",""vert"",""up"",[99999,99999],[0,-150]]",circle,no_dis,vert,up,"[99999,99999]","[0,-150]",up,1,1.3307,,,,,,001,2025-03-10_17h04.47.492,SL_base,2021.2.3,Win32,100,,,93,0,93,0,1,,,,,,,,
,,"[""diamond"",""no_dis"",""hori"",""left"",[99999,99999],[106,106]]",diamond,no_dis,hori,left,"[99999,99999]","[106,106]",left,1,1.0236,,,,,,001,2025-03-10_17h04.47.492,SL_base,2021.2.3,Win32,100,,,94,0,94,0,1,,,,,,,,
,,"[""diamond"",""no_dis"",""hori"",""left"",[99999,99999],[-150,0]]",diamond,no_dis,hori,left,"[99999,99999]","[-150,0]",left,1,0.9821,,,,,,001,2025-03-10_17h04.47.492,SL_base,2021.2.3,Win32,100,,,95,0,95,0,1,,,,,,,,
,,"[""circle"",""green"",""vert"",""up"",[-106,106],[-150,0]]",circle,green,vert,up,"[-106,106]","[-150,0]",up,1,1.2357,,,,,,001,2025-03-10_17h04.47.492,SL_base,2021.2.3,Win32,100,,,96,0,96,0,1,,,,,,,,
,,"[""diamond"",""green"",""hori"",""left"",[0,-150],[106,106]]",diamond,green,hori,left,"[0,-150]","[106,106]",left,1,1.1817,,,,,,001,2025-03-10_17h04.47.492,SL_base,2021.2.3,Win32,100,,,97,0,97,0,1,,,,,,,,
,,"[""diamond"",""green"",""hori"",""left"",[-106,-106],[-106,106]]",diamond,green,hori,left,"[-106,-106]","[-106,106]",left,1,1.4783,,,,,,001,2025-03-10_17h04.47.492,SL_base,2021.2.3,Win32,100,,,98,0,98,0,1,,,,,,,,
,,"[""circle"",""red"",""vert"",""up"",[-106,-106],[106,-106]]",circle,red,vert,up,"[-106,-106]","[106,-106]",up,1,1.8288,,,,,,001,2025-03-10_17h04.47.492,SL_base,2021.2.3,Win32,100,,,99,0,99,0,1,,,,,,,,
,,"[""circle"",""red"",""hori"",""left"",[-106,-106],[-106,106]]",circle,red,hori,left,"[-106,-106]","[-106,106]",left,1,1.4346,,,,,,001,2025-03-10_17h04.47.492,SL_base,2021.2.3,Win32,100,,,100,0,100,0,1,,,,,,,,
,,"[""circle"",""no_dis"",""hori"",""left"",[99999,99999],[-150,0]]",circle,no_dis,hori,left,"[99999,99999]","[-150,0]",left,1,1.836,,,,,,001,2025-03-10_17h04.47.492,SL_base,2021.2.3,Win32,100,,,101,0,101,0,1,,,,,,,,
,,"[""circle"",""red"",""vert"",""up"",[150,0],[-106,106]]",circle,red,vert,up,"[150,0]","[-106,106]",up,1,1.7946,,,,,,001,2025-03-10_17h04.47.492,SL_base,2021.2.3,Win32,100,,,102,0,102,0,1,,,,,,,,
,,"[""diamond"",""green"",""vert"",""up"",[0,-150],[0,150]]",diamond,green,vert,up,"[0,-150]","[0,150]",up,1,1.1187,,,,,,001,2025-03-10_17h04.47.492,SL_base,2021.2.3,Win32,100,,,103,0,103,0,1,,,,,,,,
,,"[""circle"",""no_dis"",""hori"",""left"",[99999,99999],[106,-106]]",circle,no_dis,hori,left,"[99999,99999]","[106,-106]",left,1,1.0074,,,,,,001,2025-03-10_17h04.47.492,SL_base,2021.2.3,Win32,100,,,104,0,104,0,1,,,,,,,,
,,"[""circle"",""green"",""vert"",""up"",[106,106],[-150,0]]",circle,green,vert,up,"[106,106]","[-150,0]",up,1,1.5226,,,,,,001,2025-03-10_17h04.47.492,SL_base,2021.2.3,Win32,100,,,105,0,105,0,1,,,,,,,,
,,"[""diamond"",""red"",""vert"",""up"",[150,0],[-106,106]]",diamond,red,vert,up,"[150,0]","[-106,106]",up,1,1.1679,,,,,,001,2025-03-10_17h04.47.492,SL_base,2021.2.3,Win32,100,,,106,0,106,0,1,,,,,,,,
,,"[""circle"",""red"",""vert"",""up"",[106,-106],[0,150]]",circle,red,vert,up,"[106,-106]","[0,150]",up,1,1.5756,,,,,,001,2025-03-10_17h04.47.492,SL_base,2021.2.3,Win32,100,,,107,0,107,0,1,,,,,,,,
,,"[""diamond"",""red"",""hori"",""left"",[150,0],[-106,-106]]",diamond,red,hori,left,"[150,0]","[-106,-106]",left,1,1.744,,,,,,001,2025-03-10_17h04.47.492,SL_base,2021.2.3,Win32,100,,,108,0,108,0,1,,,,,,,,
,,"[""diamond"",""no_dis"",""vert"",""up"",[99999,99999],[106,106]]",diamond,no_dis,vert,up,"[99999,99999]","[106,106]",up,1,0.9039,,,,,,001,2025-03-10_17h04.47.492,SL_base,2021.2.3,Win32,100,,,109,0,109,0,1,,,,,,,,
,,"[""diamond"",""red"",""vert"",""up"",[0,150],[150,0]]",diamond,red,vert,up,"[0,150]","[150,0]",up,1,1.255,,,,,,001,2025-03-10_17h04.47.492,SL_base,2021.2.3,Win32,100,,,110,0,110,0,1,,,,,,,,
,,"[""diamond"",""no_dis"",""vert"",""up"",[99999,99999],[150,0]]",diamond,no_dis,vert,up,"[99999,99999]","[150,0]",up,1,0.7715,,,,,,001,2025-03-10_17h04.47.492,SL_base,2021.2.3,Win32,100,,,111,0,111,0,1,,,,,,,,
,,"[""diamond"",""no_dis"",""hori"",""left"",[99999,99999],[150,0]]",diamond,no_dis,hori,left,"[99999,99999]","[150,0]",left,1,0.92,,,,,,001,2025-03-10_17h04.47.492,SL_base,2021.2.3,Win32,100,,,112,0,112,0,1,,,,,,,,
,,"[""diamond"",""green"",""hori"",""left"",[0,150],[150,0]]",diamond,green,hori,left,"[0,150]","[150,0]",left,1,0.7669,,,,,,001,2025-03-10_17h04.47.492,SL_base,2021.2.3,Win32,100,,,113,0,113,0,1,,,,,,,,
,,"[""diamond"",""green"",""hori"",""left"",[106,-106],[-150,0]]",diamond,green,hori,left,"[106,-106]","[-150,0]",left,1,1.0609,,,,,,001,2025-03-10_17h04.47.492,SL_base,2021.2.3,Win32,100,,,114,0,114,0,1,,,,,,,,
,,"[""circle"",""red"",""vert"",""up"",[106,-106],[150,0]]",circle,red,vert,up,"[106,-106]","[150,0]",up,1,1.3793,,,,,,001,2025-03-10_17h04.47.492,SL_base,2021.2.3,Win32,100,,,115,0,115,0,1,,,,,,,,
,,"[""diamond"",""green"",""vert"",""up"",[106,106],[150,0]]",diamond,green,vert,up,"[106,106]","[150,0]",up,1,0.7879,,,,,,001,2025-03-10_17h04.47.492,SL_base,2021.2.3,Win32,100,,,116,0,116,0,1,,,,,,,,
,,"[""diamond"",""green"",""vert"",""up"",[106,106],[-106,-106]]",diamond,green,vert,up,"[106,106]","[-106,-106]",up,1,0.8079,,,,,,001,2025-03-10_17h04.47.492,SL_base,2021.2.3,Win32,100,,,117,0,117,0,1,,,,,,,,
,,"[""circle"",""no_dis"",""vert"",""up"",[99999,99999],[0,150]]",circle,no_dis,vert,up,"[99999,99999]","[0,150]",up,1,1.4577,,,,,,001,2025-03-10_17h04.47.492,SL_base,2021.2.3,Win32,100,,,118,0,118,0,1,,,,,,,,
,,"[""diamond"",""red"",""vert"",""up"",[0,-150],[106,106]]",diamond,red,vert,up,"[0,-150]","[106,106]",up,1,0.945,,,,,,001,2025-03-10_17h04.47.492,SL_base,2021.2.3,Win32,100,,,119,0,119,0,1,,,,,,,,
,,,,,,,,,,,,,,,,,001,2025-03-10_17h04.47.492,SL_base,2021.2.3,Win32,100,,,,,,,,1,space,3.5474,0,0,0,0,1
,,"[""diamond"",""green"",""vert"",""up"",[150,0],[-106,106]]",diamond,green,vert,up,"[150,0]","[-106,106]",up,1,1.5382,,,,,,001,2025-03-10_17h04.47.492,SL_base,2021.2.3,Win32,100,,,0,0,0,0,1,,,,,,,,
,,"[""circle"",""no_dis"",""vert"",""up"",[99999,99999],[0,-150]]",circle,no_dis,vert,up,"[99999,99999]","[0,-150]",up,1,1.1789,,,,,,001,2025-03-10_17h04.47.492,SL_base,2021.2.3,Win32,100,,,1,0,1,0,1,,,,,,,,
,,"[""diamond"",""red"",""vert"",""up"",[0,-150],[106,-106]]",diamond,red,vert,up,"[0,-150]","[106,-106]",up,1,1.1117,,,,,,001,2025-03-10_17h04.47.492,SL_base,2021.2.3,Win32,100,,,2,0,2,0,1,,,,,,,,
,,"[""circle"",""red"",""vert"",""up"",[0,150],[-150,0]]",circle,red,vert,up,"[0,150]","[-150,0]",up,1,1.3529,,,,,,001,2025-03-10_17h04.47.492,SL_base,2021.2.3,Win32,100,,,3,0,3,0,1,,,,,,,,
,,"[""diamond"",""no_dis"",""vert"",""up"",[99999,99999],[150,0]]",diamond,no_dis,vert,up,"[99999,99999]","[150,0]",up,1,0.9066,,,,,,001,2025-03-10_17h04.47.492,SL_base,2021.2.3,Win32,100,,,4,0,4,0,1,,,,,,,,
,,"[""circle"",""red"",""hori"",""left"",[-106,-106],[106,106]]",circle,red,hori,left,"[-106,-106]","[106,106]",left,1,1.0065,,,,,,001,2025-03-10_17h04.47.492,SL_base,2021.2.3,Win32,100,,,5,0,5,0,1,,,,,,,,
,,"[""circle"",""green"",""vert"",""up"",[-106,106],[-150,0]]",circle,green,vert,up,"[-106,106]","[-150,0]",up,1,1.3663,,,,,,001,2025-03-10_17h04.47.492,SL_base,2021.2.3,Win32,100,,,6,0,6,0,1,,,,,,,,
,,"[""circle"",""green"",""vert"",""up"",[-106,106],[106,106]]",circle,green,vert,up,"[-106,106]","[106,106]",up,1,1.7294,,,,,,001,2025-03-10_17h04.47.492,SL_base,2021.2.3,Win32,100,,,7,0,7,0,1,,,,,,,,
,,"[""diamond"",""red"",""vert"",""up"",[0,150],[150,0]]",diamond,red,vert,up,"[0,150]","[150,0]",up,1,0.9438,,,,,,001,2025-03-10_17h04.47.492,SL_base,2021.2.3,Win32,100,,,8,0,8,0,1,,,,,,,,
,,"[""circle"",""no_dis"",""vert"",""up"",[99999,99999],[106,106]]",circle,no_dis,vert,up,"[99999,99999]","[106,106]",up,1,0.8083,,,,,,001,2025-03-10_17h04.47.492,SL_base,2021.2.3,Win32,100,,,9,0,9,0,1,,,,,,,,
,,"[""diamond"",""no_dis"",""vert"",""up"",[99999,99999],[0,150]]",diamond,no_dis,vert,up,"[99999,99999]","[0,150]",up,1,0.7968,,,,,,001,2025-03-10_17h04.47.492,SL_base,2021.2.3,Win32,100,,,10,0,10,0,1,,,,,,,,
,,"[""circle"",""no_dis"",""vert"",""up"",[99999,99999],[106,-106]]",circle,no_dis,vert,up,"[99999,99999]","[106,-106]",up,1,1.0675,,,,,,001,2025-03-10_17h04.47.492,SL_base,2021.2.3,Win32,100,,,11,0,11,0,1,,,,,,,,
,,"[""diamond"",""no_dis"",""vert"",""up"",[99999,99999],[-106,106]]",diamond,no_dis,vert,up,"[99999,99999]","[-106,106]",up,1,0.9217,,,,,,001,2025-03-10_17h04.47.492,SL_base,2021.2.3,Win32,100,,,12,0,12,0,1,,,,,,,,
,,"[""diamond"",""green"",""vert"",""up"",[0,-150],[-106,-106]]",diamond,green,vert,up,"[0,-150]","[-106,-106]",up,1,1.165,,,,,,001,2025-03-10_17h04.47.492,SL_base,2021.2.3,Win32,100,,,13,0,13,0,1,,,,,,,,
,,"[""circle"",""green"",""hori"",""left"",[150,0],[-106,106]]",circle,green,hori,left,"[150,0]","[-106,106]",left,1,1.3676,,,,,,001,2025-03-10_17h04.47.492,SL_base,2021.2.3,Win32,100,,,14,0,14,0,1,,,,,,,,
,,"[""diamond"",""green"",""vert"",""up"",[-150,0],[-106,-106]]",diamond,green,vert,up,"[-150,0]","[-106,-106]",up,1,1.2187,,,,,,001,2025-03-10_17h04.47.492,SL_base,2021.2.3,Win32,100,,,15,0,15,0,1,,,,,,,,
,,"[""diamond"",""red"",""hori"",""left"",[150,0],[-106,-106]]",diamond,red,hori,left,"[150,0]","[-106,-106]",up,0,1.3239,,,,,,001,2025-03-10_17h04.47.492,SL_base,2021.2.3,Win32,100,,,16,0,16,0,1,,,,,,,,
,,"[""circle"",""no_dis"",""hori"",""left"",[99999,99999],[-150,0]]",circle,no_dis,hori,left,"[99999,99999]","[-150,0]",left,1,1.0294,,,,,,001,2025-03-10_17h04.47.492,SL_base,2021.2.3,Win32,100,,,17,0,17,0,1,,,,,,,,
,,"[""circle"",""red"",""vert"",""up"",[106,-106],[0,150]]",circle,red,vert,up,"[106,-106]","[0,150]",up,1,1.2927,,,,,,001,2025-03-10_17h04.47.492,SL_base,2021.2.3,Win32,100,,,18,0,18,0,1,,,,,,,,
,,"[""circle"",""red"",""vert"",""up"",[106,-106],[150,0]]",circle,red,vert,up,"[106,-106]","[150,0]",up,1,0.9044,,,,,,001,2025-03-10_17h04.47.492,SL_base,2021.2.3,Win32,100,,,19,0,19,0,1,,,,,,,,
,,"[""diamond"",""red"",""hori"",""left"",[106,106],[150,0]]",diamond,red,hori,left,"[106,106]","[150,0]",left,1,1.1866,,,,,,001,2025-03-10_17h04.47.492,SL_base,2021.2.3,Win32,100,,,20,0,20,0,1,,,,,,,,
,,"[""diamond"",""red"",""vert"",""up"",[0,150],[150,0]]",diamond,red,vert,up,"[0,150]","[150,0]",up,1,0.7069,,,,,,001,2025-03-10_17h04.47.492,SL_base,2021.2.3,Win32,100,,,21,0,21,0,1,,,,,,,,
,,"[""circle"",""red"",""hori"",""left"",[0,150],[-106,106]]",circle,red,hori,left,"[0,150]","[-106,106]",left,1,1.5027,,,,,,001,2025-03-10_17h04.47.492,SL_base,2021.2.3,Win32,100,,,22,0,22,0,1,,,,,,,,
,,"[""diamond"",""no_dis"",""vert"",""up"",[99999,99999],[0,-150]]",diamond,no_dis,vert,up,"[99999,99999]","[0,-150]",up,1,0.9469,,,,,,001,2025-03-10_17h04.47.492,SL_base,2021.2.3,Win32,100,,,23,0,23,0,1,,,,,,,,
,,"[""diamond"",""green"",""hori"",""left"",[106,-106],[-150,0]]",diamond,green,hori,left,"[106,-106]","[-150,0]",left,1,1.0686,,,,,,001,2025-03-10_17h04.47.492,SL_base,2021.2.3,Win32,100,,,24,0,24,0,1,,,,,,,,
,,"[""diamond"",""red"",""hori"",""left"",[150,0],[-106,-106]]",diamond,red,hori,left,"[150,0]","[-106,-106]",left,1,1.0999,,,,,,001,2025-03-10_17h04.47.492,SL_base,2021.2.3,Win32,100,,,25,0,25,0,1,,,,,,,,
,,"[""diamond"",""green"",""hori"",""left"",[-106,-106],[-106,106]]",diamond,green,hori,left,"[-106,-106]","[-106,106]",left,1,1.4152,,,,,,001,2025-03-10_17h04.47.492,SL_base,2021.2.3,Win32,100,,,26,0,26,0,1,,,,,,,,
,,"[""circle"",""green"",""vert"",""up"",[150,0],[-106,-106]]",circle,green,vert,up,"[150,0]","[-106,-106]",up,1,1.5132,,,,,,001,2025-03-10_17h04.47.492,SL_base,2021.2.3,Win32,100,,,27,0,27,0,1,,,,,,,,
,,"[""circle"",""no_dis"",""vert"",""up"",[99999,99999],[0,150]]",circle,no_dis,vert,up,"[99999,99999]","[0,150]",up,1,1.6952,,,,,,001,2025-03-10_17h04.47.492,SL_base,2021.2.3,Win32,100,,,28,0,28,0,1,,,,,,,,
,,"[""circle"",""green"",""hori"",""left"",[106,-106],[106,106]]",circle,green,hori,left,"[106,-106]","[106,106]",left,1,2.5443,,,,,,001,2025-03-10_17h04.47.492,SL_base,2021.2.3,Win32,100,,,29,0,29,0,1,,,,,,,,
,,"[""circle"",""no_dis"",""vert"",""up"",[99999,99999],[-106,-106]]",circle,no_dis,vert,up,"[99999,99999]","[-106,-106]",up,1,1.3031,,,,,,001,2025-03-10_17h04.47.492,SL_base,2021.2.3,Win32,100,,,30,0,30,0,1,,,,,,,,
,,"[""circle"",""green"",""vert"",""up"",[150,0],[106,-106]]",circle,green,vert,up,"[150,0]","[106,-106]",up,1,1.0651,,,,,,001,2025-03-10_17h04.47.492,SL_base,2021.2.3,Win32,100,,,31,0,31,0,1,,,,,,,,
,,"[""circle"",""no_dis"",""hori"",""left"",[99999,99999],[106,-106]]",circle,no_dis,hori,left,"[99999,99999]","[106,-106]",left,1,0.742,,,,,,001,2025-03-10_17h04.47.492,SL_base,2021.2.3,Win32,100,,,32,0,32,0,1,,,,,,,,
,,"[""circle"",""no_dis"",""vert"",""up"",[99999,99999],[-106,-106]]",circle,no_dis,vert,up,"[99999,99999]","[-106,-106]",up,1,0.7396,,,,,,001,2025-03-10_17h04.47.492,SL_base,2021.2.3,Win32,100,,,33,0,33,0,1,,,,,,,,
,,"[""circle"",""red"",""hori"",""left"",[0,150],[-150,0]]",circle,red,hori,left,"[0,150]","[-150,0]",left,1,1.053,,,,,,001,2025-03-10_17h04.47.492,SL_base,2021.2.3,Win32,100,,,34,0,34,0,1,,,,,,,,
,,"[""circle"",""no_dis"",""vert"",""up"",[99999,99999],[-150,0]]",circle,no_dis,vert,up,"[99999,99999]","[-150,0]",up,1,0.7694,,,,,,001,2025-03-10_17h04.47.492,SL_base,2021.2.3,Win32,100,,,35,0,35,0,1,,,,,,,,
,,"[""diamond"",""green"",""hori"",""left"",[0,-150],[106,106]]",diamond,green,hori,left,"[0,-150]","[106,106]",left,1,1.6782,,,,,,001,2025-03-10_17h04.47.492,SL_base,2021.2.3,Win32,100,,,36,0,36,0,1,,,,,,,,
,,"[""circle"",""no_dis"",""hori"",""left"",[99999,99999],[106,-106]]",circle,no_dis,hori,left,"[99999,99999]","[106,-106]",left,1,0.8613,,,,,,001,2025-03-10_17h04.47.492,SL_base,2021.2.3,Win32,100,,,37,0,37,0,1,,,,,,,,
,,"[""circle"",""red"",""vert"",""up"",[106,-106],[-106,106]]",circle,red,vert,up,"[106,-106]","[-106,106]",up,1,0.7735,,,,,,001,2025-03-10_17h04.47.492,SL_base,2021.2.3,Win32,100,,,38,0,38,0,1,,,,,,,,
,,"[""diamond"",""red"",""hori"",""left"",[150,0],[0,-150]]",diamond,red,hori,left,"[150,0]","[0,-150]",left,1,1.0416,,,,,,001,2025-03-10_17h04.47.492,SL_base,2021.2.3,Win32,100,,,39,0,39,0,1,,,,,,,,
,,"[""diamond"",""red"",""vert"",""up"",[-150,0],[0,-150]]",diamond,red,vert,up,"[-150,0]","[0,-150]",up,1,1.3823,,,,,,001,2025-03-10_17h04.47.492,SL_base,2021.2.3,Win32,100,,,40,0,40,0,1,,,,,,,,
,,"[""diamond"",""green"",""vert"",""up"",[106,106],[-106,-106]]",diamond,green,vert,up,"[106,106]","[-106,-106]",up,1,0.9302,,,,,,001,2025-03-10_17h04.47.492,SL_base,2021.2.3,Win32,100,,,41,0,41,0,1,,,,,,,,
,,"[""diamond"",""no_dis"",""hori"",""left"",[99999,99999],[-106,106]]",diamond,no_dis,hori,left,"[99999,99999]","[-106,106]",left,1,1.243,,,,,,001,2025-03-10_17h04.47.492,SL_base,2021.2.3,Win32,100,,,42,0,42,0,1,,,,,,,,
,,"[""diamond"",""red"",""hori"",""left"",[0,-150],[150,0]]",diamond,red,hori,left,"[0,-150]","[150,0]",left,1,1.526,,,,,,001,2025-03-10_17h04.47.492,SL_base,2021.2.3,Win32,100,,,43,0,43,0,1,,,,,,,,
,,"[""diamond"",""no_dis"",""hori"",""left"",[99999,99999],[106,-106]]",diamond,no_dis,hori,left,"[99999,99999]","[106,-106]",left,1,0.9723,,,,,,001,2025-03-10_17h04.47.492,SL_base,2021.2.3,Win32,100,,,44,0,44,0,1,,,,,,,,
,,"[""diamond"",""red"",""vert"",""up"",[106,106],[-150,0]]",diamond,red,vert,up,"[106,106]","[-150,0]",up,1,0.8332,,,,,,001,2025-03-10_17h04.47.492,SL_base,2021.2.3,Win32,100,,,45,0,45,0,1,,,,,,,,
,,"[""diamond"",""no_dis"",""hori"",""left"",[99999,99999],[150,0]]",diamond,no_dis,hori,left,"[99999,99999]","[150,0]",left,1,0.7758,,,,,,001,2025-03-10_17h04.47.492,SL_base,2021.2.3,Win32,100,,,46,0,46,0,1,,,,,,,,
,,"[""diamond"",""red"",""vert"",""up"",[-106,106],[-106,-106]]",diamond,red,vert,up,"[-106,106]","[-106,-106]",up,1,0.7347,,,,,,001,2025-03-10_17h04.47.492,SL_base,2021.2.3,Win32,100,,,47,0,47,0,1,,,,,,,,
,,"[""diamond"",""no_dis"",""vert"",""up"",[99999,99999],[-106,-106]]",diamond,no_dis,vert,up,"[99999,99999]","[-106,-106]",up,1,0.6798,,,,,,001,2025-03-10_17h04.47.492,SL_base,2021.2.3,Win32,100,,,48,0,48,0,1,,,,,,,,
,,"[""diamond"",""no_dis"",""vert"",""up"",[99999,99999],[-106,106]]",diamond,no_dis,vert,up,"[99999,99999]","[-106,106]",up,1,0.848,,,,,,001,2025-03-10_17h04.47.492,SL_base,2021.2.3,Win32,100,,,49,0,49,0,1,,,,,,,,
,,"[""circle"",""green"",""hori"",""left"",[150,0],[-106,106]]",circle,green,hori,left,"[150,0]","[-106,106]",left,1,1.6504,,,,,,001,2025-03-10_17h04.47.492,SL_base,2021.2.3,Win32,100,,,50,0,50,0,1,,,,,,,,
,,"[""circle"",""red"",""hori"",""left"",[-106,-106],[-106,106]]",circle,red,hori,left,"[-106,-106]","[-106,106]",left,1,1.568,,,,,,001,2025-03-10_17h04.47.492,SL_base,2021.2.3,Win32,100,,,51,0,51,0,1,,,,,,,,
,,"[""circle"",""red"",""hori"",""left"",[106,106],[106,-106]]",circle,red,hori,left,"[106,106]","[106,-106]",left,1,1.2267,,,,,,001,2025-03-10_17h04.47.492,SL_base,2021.2.3,Win32,100,,,52,0,52,0,1,,,,,,,,
,,"[""diamond"",""green"",""hori"",""left"",[0,150],[150,0]]",diamond,green,hori,left,"[0,150]","[150,0]",left,1,1.182,,,,,,001,2025-03-10_17h04.47.492,SL_base,2021.2.3,Win32,100,,,53,0,53,0,1,,,,,,,,
,,"[""circle"",""green"",""hori"",""left"",[106,-106],[-150,0]]",circle,green,hori,left,"[106,-106]","[-150,0]",left,1,1.3715,,,,,,001,2025-03-10_17h04.47.492,SL_base,2021.2.3,Win32,100,,,54,0,54,0,1,,,,,,,,
,,"[""circle"",""no_dis"",""hori"",""left"",[99999,99999],[-106,106]]",circle,no_dis,hori,left,"[99999,99999]","[-106,106]",left,1,1.5932,,,,,,001,2025-03-10_17h04.47.492,SL_base,2021.2.3,Win32,100,,,55,0,55,0,1,,,,,,,,
,,"[""circle"",""no_dis"",""hori"",""left"",[99999,99999],[106,-106]]",circle,no_dis,hori,left,"[99999,99999]","[106,-106]",left,1,0.8691,,,,,,001,2025-03-10_17h04.47.492,SL_base,2021.2.3,Win32,100,,,56,0,56,0,1,,,,,,,,
,,"[""diamond"",""red"",""vert"",""up"",[150,0],[-106,106]]",diamond,red,vert,up,"[150,0]","[-106,106]",up,1,1.2587,,,,,,001,2025-03-10_17h04.47.492,SL_base,2021.2.3,Win32,100,,,57,0,57,0,1,,,,,,,,
,,"[""circle"",""green"",""hori"",""left"",[150,0],[0,150]]",circle,green,hori,left,"[150,0]","[0,150]",left,1,1.317,,,,,,001,2025-03-10_17h04.47.492,SL_base,2021.2.3,Win32,100,,,58,0,58,0,1,,,,,,,,
,,"[""diamond"",""red"",""hori"",""left"",[-106,-106],[0,150]]",diamond,red,hori,left,"[-106,-106]","[0,150]",left,1,1.4859,,,,,,001,2025-03-10_17h04.47.492,SL_base,2021.2.3,Win32,100,,,59,0,59,0,1,,,,,,,,
,,"[""diamond"",""green"",""vert"",""up"",[0,-150],[0,150]]",diamond,green,vert,up,"[0,-150]","[0,150]",up,1,0.7909,,,,,,001,2025-03-10_17h04.47.492,SL_base,2021.2.3,Win32,100,,,60,0,60,0,1,,,,,,,,
,,"[""diamond"",""no_dis"",""vert"",""up"",[99999,99999],[-106,106]]",diamond,no_dis,vert,up,"[99999,99999]","[-106,106]",up,1,0.7071,,,,,,001,2025-03-10_17h04.47.492,SL_base,2021.2.3,Win32,100,,,61,0,61,0,1,,,,,,,,
,,"[""circle"",""no_dis"",""vert"",""up"",[99999,99999],[0,150]]",circle,no_dis,vert,up,"[99999,99999]","[0,150]",up,1,1.287,,,,,,001,2025-03-10_17h04.47.492,SL_base,2021.2.3,Win32,100,,,62,0,62,0,1,,,,,,,,
,,"[""circle"",""no_dis"",""hori"",""left"",[99999,99999],[-150,0]]",circle,no_dis,hori,left,"[99999,99999]","[-150,0]",left,1,1.2863,,,,,,001,2025-03-10_17h04.47.492,SL_base,2021.2.3,Win32,100,,,63,0,63,0,1,,,,,,,,
,,"[""circle"",""red"",""hori"",""left"",[-150,0],[0,150]]",circle,red,hori,left,"[-150,0]","[0,150]",left,1,1.1802,,,,,,001,2025-03-10_17h04.47.492,SL_base,2021.2.3,Win32,100,,,64,0,64,0,1,,,,,,,,
,,"[""diamond"",""green"",""vert"",""up"",[150,0],[-106,106]]",diamond,green,vert,up,"[150,0]","[-106,106]",up,1,1.2763,,,,,,001,2025-03-10_17h04.47.492,SL_base,2021.2.3,Win32,100,,,65,0,65,0,1,,,,,,,,
,,"[""diamond"",""green"",""vert"",""up"",[150,0],[106,-106]]",diamond,green,vert,up,"[150,0]","[106,-106]",up,1,1.1921,,,,,,001,2025-03-10_17h04.47.492,SL_base,2021.2.3,Win32,100,,,66,0,66,0,1,,,,,,,,
,,"[""diamond"",""green"",""hori"",""left"",[-106,106],[106,106]]",diamond,green,hori,left,"[-106,106]","[106,106]",left,1,0.9694,,,,,,001,2025-03-10_17h04.47.492,SL_base,2021.2.3,Win32,100,,,67,0,67,0,1,,,,,,,,
,,"[""circle"",""green"",""vert"",""up"",[-106,106],[0,-150]]",circle,green,vert,up,"[-106,106]","[0,-150]",up,1,1.3571,,,,,,001,2025-03-10_17h04.47.492,SL_base,2021.2.3,Win32,100,,,68,0,68,0,1,,,,,,,,
,,"[""circle"",""green"",""vert"",""up"",[150,0],[-106,106]]",circle,green,vert,up,"[150,0]","[-106,106]",up,1,0.8554,,,,,,001,2025-03-10_17h04.47.492,SL_base,2021.2.3,Win32,100,,,69,0,69,0,1,,,,,,,,
,,"[""circle"",""no_dis"",""vert"",""up"",[99999,99999],[0,-150]]",circle,no_dis,vert,up,"[99999,99999]","[0,-150]",up,1,0.9243,,,,,,001,2025-03-10_17h04.47.492,SL_base,2021.2.3,Win32,100,,,70,0,70,0,1,,,,,,,,
,,"[""diamond"",""red"",""vert"",""up"",[150,0],[-106,-106]]",diamond,red,vert,up,"[150,0]","[-106,-106]",up,1,0.9053,,,,,,001,2025-03-10_17h04.47.492,SL_base,2021.2.3,Win32,100,,,71,0,71,0,1,,,,,,,,
,,"[""circle"",""red"",""vert"",""up"",[-106,106],[106,-106]]",circle,red,vert,up,"[-106,106]","[106,-106]",up,1,1.0967,,,,,,001,2025-03-10_17h04.47.492,SL_base,2021.2.3,Win32,100,,,72,0,72,0,1,,,,,,,,
,,"[""circle"",""red"",""hori"",""left"",[150,0],[-106,-106]]",circle,red,hori,left,"[150,0]","[-106,-106]",left,1,0.9996,,,,,,001,2025-03-10_17h04.47.492,SL_base,2021.2.3,Win32,100,,,73,0,73,0,1,,,,,,,,
,,"[""diamond"",""red"",""hori"",""left"",[150,0],[0,150]]",diamond,red,hori,left,"[150,0]","[0,150]",left,1,1.2284,,,,,,001,2025-03-10_17h04.47.492,SL_base,2021.2.3,Win32,100,,,74,0,74,0,1,,,,,,,,
,,"[""diamond"",""no_dis"",""vert"",""up"",[99999,99999],[150,0]]",diamond,no_dis,vert,up,"[99999,99999]","[150,0]",up,1,1.0423,,,,,,001,2025-03-10_17h04.47.492,SL_base,2021.2.3,Win32,100,,,75,0,75,0,1,,,,,,,,
,,"[""diamond"",""no_dis"",""hori"",""left"",[99999,99999],[0,-150]]",diamond,no_dis,hori,left,"[99999,99999]","[0,-150]",left,1,0.9583,,,,,,001,2025-03-10_17h04.47.492,SL_base,2021.2.3,Win32,100,,,76,0,76,0,1,,,,,,,,
,,"[""diamond"",""red"",""hori"",""left"",[106,-106],[106,106]]",diamond,red,hori,left,"[106,-106]","[106,106]",left,1,1.0832,,,,,,001,2025-03-10_17h04.47.492,SL_base,2021.2.3,Win32,100,,,77,0,77,0,1,,,,,,,,
,,"[""circle"",""no_dis"",""hori"",""left"",[99999,99999],[150,0]]",circle,no_dis,hori,left,"[99999,99999]","[150,0]",left,1,1.1621,,,,,,001,2025-03-10_17h04.47.492,SL_base,2021.2.3,Win32,100,,,78,0,78,0,1,,,,,,,,
,,"[""diamond"",""green"",""hori"",""left"",[-150,0],[-106,106]]",diamond,green,hori,left,"[-150,0]","[-106,106]",left,1,2.3326,,,,,,001,2025-03-10_17h04.47.492,SL_base,2021.2.3,Win32,100,,,79,0,79,0,1,,,,,,,,
,,"[""circle"",""green"",""hori"",""left"",[0,150],[-106,-106]]",circle,green,hori,left,"[0,150]","[-106,-106]",left,1,1.6464,,,,,,001,2025-03-10_17h04.47.492,SL_base,2021.2.3,Win32,100,,,80,0,80,0,1,,,,,,,,
,,"[""diamond"",""green"",""vert"",""up"",[150,0],[106,106]]",diamond,green,vert,up,"[150,0]","[106,106]",up,1,0.9048,,,,,,001,2025-03-10_17h04.47.492,SL_base,2021.2.3,Win32,100,,,81,0,81,0,1,,,,,,,,
,,"[""diamond"",""green"",""vert"",""up"",[106,106],[150,0]]",diamond,green,vert,up,"[106,106]","[150,0]",up,1,0.8613,,,,,,001,2025-03-10_17h04.47.492,SL_base,2021.2.3,Win32,100,,,82,0,82,0,1,,,,,,,,
,,"[""circle"",""no_dis"",""hori"",""left"",[99999,99999],[-106,-106]]",circle,no_dis,hori,left,"[99999,99999]","[-106,-106]",left,1,1.9124,,,,,,001,2025-03-10_17h04.47.492,SL_base,2021.2.3,Win32,100,,,83,0,83,0,1,,,,,,,,
,,"[""circle"",""green"",""vert"",""up"",[106,106],[-150,0]]",circle,green,vert,up,"[106,106]","[-150,0]",up,1,1.119,,,,,,001,2025-03-10_17h04.47.492,SL_base,2021.2.3,Win32,100,,,84,0,84,0,1,,,,,,,,
,,"[""diamond"",""green"",""hori"",""left"",[150,0],[-150,0]]",diamond,green,hori,left,"[150,0]","[-150,0]",left,1,0.8645,,,,,,001,2025-03-10_17h04.47.492,SL_base,2021.2.3,Win32,100,,,85,0,85,0,1,,,,,,,,
,,"[""circle"",""green"",""hori"",""left"",[-150,0],[106,106]]",circle,green,hori,left,"[-150,0]","[106,106]",left,1,1.5143,,,,,,001,2025-03-10_17h04.47.492,SL_base,2021.2.3,Win32,100,,,86,0,86,0,1,,,,,,,,
,,"[""circle"",""no_dis"",""vert"",""up"",[99999,99999],[-150,0]]",circle,no_dis,vert,up,"[99999,99999]","[-150,0]",up,1,0.8407,,,,,,001,2025-03-10_17h04.47.492,SL_base,2021.2.3,Win32,100,,,87,0,87,0,1,,,,,,,,
,,"[""diamond"",""red"",""hori"",""left"",[-106,-106],[150,0]]",diamond,red,hori,left,"[-106,-106]","[150,0]",left,1,1.2127,,,,,,001,2025-03-10_17h04.47.492,SL_base,2021.2.3,Win32,100,,,88,0,88,0,1,,,,,,,,
,,"[""diamond"",""no_dis"",""hori"",""left"",[99999,99999],[106,106]]",diamond,no_dis,hori,left,"[99999,99999]","[106,106]",left,1,1.0901,,,,,,001,2025-03-10_17h04.47.492,SL_base,2021.2.3,Win32,100,,,89,0,89,0,1,,,,,,,,
,,"[""diamond"",""no_dis"",""hori"",""left"",[99999,99999],[-150,0]]",diamond,no_dis,hori,left,"[99999,99999]","[-150,0]",left,1,0.9195,,,,,,001,2025-03-10_17h04.47.492,SL_base,2021.2.3,Win32,100,,,90,0,90,0,1,,,,,,,,
,,"[""diamond"",""no_dis"",""vert"",""up"",[99999,99999],[150,0]]",diamond,no_dis,vert,up,"[99999,99999]","[150,0]",up,1,0.9463,,,,,,001,2025-03-10_17h04.47.492,SL_base,2021.2.3,Win32,100,,,91,0,91,0,1,,,,,,,,
,,"[""circle"",""green"",""vert"",""up"",[0,150],[106,-106]]",circle,green,vert,up,"[0,150]","[106,-106]",up,1,1.2355,,,,,,001,2025-03-10_17h04.47.492,SL_base,2021.2.3,Win32,100,,,92,0,92,0,1,,,,,,,,
,,"[""circle"",""green"",""vert"",""up"",[106,106],[-106,106]]",circle,green,vert,up,"[106,106]","[-106,106]",up,1,2.1808,,,,,,001,2025-03-10_17h04.47.492,SL_base,2021.2.3,Win32,100,,,93,0,93,0,1,,,,,,,,
,,"[""circle"",""red"",""vert"",""up"",[-106,106],[150,0]]",circle,red,vert,up,"[-106,106]","[150,0]",up,1,1.3982,,,,,,001,2025-03-10_17h04.47.492,SL_base,2021.2.3,Win32,100,,,94,0,94,0,1,,,,,,,,
,,"[""circle"",""green"",""hori"",""left"",[-106,-106],[0,150]]",circle,green,hori,left,"[-106,-106]","[0,150]",left,1,1.5041,,,,,,001,2025-03-10_17h04.47.492,SL_base,2021.2.3,Win32,100,,,95,0,95,0,1,,,,,,,,
,,"[""diamond"",""no_dis"",""hori"",""left"",[99999,99999],[-106,-106]]",diamond,no_dis,hori,left,"[99999,99999]","[-106,-106]",left,1,1.396,,,,,,001,2025-03-10_17h04.47.492,SL_base,2021.2.3,Win32,100,,,96,0,96,0,1,,,,,,,,
,,"[""diamond"",""green"",""vert"",""up"",[-150,0],[106,-106]]",diamond,green,vert,up,"[-150,0]","[106,-106]",up,1,2.0476,,,,,,001,2025-03-10_17h04.47.492,SL_base,2021.2.3,Win32,100,,,97,0,97,0,1,,,,,,,,
,,"[""diamond"",""no_dis"",""hori"",""left"",[99999,99999],[106,106]]",diamond,no_dis,hori,left,"[99999,99999]","[106,106]",left,1,1.4189,,,,,,001,2025-03-10_17h04.47.492,SL_base,2021.2.3,Win32,100,,,98,0,98,0,1,,,,,,,,
,,"[""diamond"",""red"",""hori"",""left"",[150,0],[0,150]]",diamond,red,hori,left,"[150,0]","[0,150]",left,1,1.2515,,,,,,001,2025-03-10_17h04.47.492,SL_base,2021.2.3,Win32,100,,,99,0,99,0,1,,,,,,,,
,,"[""diamond"",""no_dis"",""hori"",""left"",[99999,99999],[0,150]]",diamond,no_dis,hori,left,"[99999,99999]","[0,150]",left,1,1.3631,,,,,,001,2025-03-10_17h04.47.492,SL_base,2021.2.3,Win32,100,,,100,0,100,0,1,,,,,,,,
,,"[""diamond"",""no_dis"",""hori"",""left"",[99999,99999],[0,-150]]",diamond,no_dis,hori,left,"[99999,99999]","[0,-150]",left,1,0.9112,,,,,,001,2025-03-10_17h04.47.492,SL_base,2021.2.3,Win32,100,,,101,0,101,0,1,,,,,,,,
,,"[""diamond"",""red"",""vert"",""up"",[0,-150],[150,0]]",diamond,red,vert,up,"[0,-150]","[150,0]",up,1,0.8858,,,,,,001,2025-03-10_17h04.47.492,SL_base,2021.2.3,Win32,100,,,102,0,102,0,1,,,,,,,,
,,"[""diamond"",""green"",""hori"",""left"",[-150,0],[-106,-106]]",diamond,green,hori,left,"[-150,0]","[-106,-106]",left,1,1.2763,,,,,,001,2025-03-10_17h04.47.492,SL_base,2021.2.3,Win32,100,,,103,0,103,0,1,,,,,,,,
,,"[""circle"",""green"",""vert"",""up"",[-106,-106],[150,0]]",circle,green,vert,up,"[-106,-106]","[150,0]",up,1,1.3021,,,,,,001,2025-03-10_17h04.47.492,SL_base,2021.2.3,Win32,100,,,104,0,104,0,1,,,,,,,,
,,"[""circle"",""red"",""vert"",""up"",[-150,0],[106,-106]]",circle,red,vert,up,"[-150,0]","[106,-106]",up,1,1.9655,,,,,,001,2025-03-10_17h04.47.492,SL_base,2021.2.3,Win32,100,,,105,0,105,0,1,,,,,,,,
,,"[""circle"",""green"",""hori"",""left"",[-106,106],[106,-106]]",circle,green,hori,left,"[-106,106]","[106,-106]",left,1,0.8757,,,,,,001,2025-03-10_17h04.47.492,SL_base,2021.2.3,Win32,100,,,106,0,106,0,1,,,,,,,,
,,"[""diamond"",""no_dis"",""vert"",""up"",[99999,99999],[106,106]]",diamond,no_dis,vert,up,"[99999,99999]","[106,106]",up,1,0.9432,,,,,,001,2025-03-10_17h04.47.492,SL_base,2021.2.3,Win32,100,,,107,0,107,0,1,,,,,,,,
,,"[""diamond"",""green"",""hori"",""left"",[106,106],[106,-106]]",diamond,green,hori,left,"[106,106]","[106,-106]",left,1,0.7254,,,,,,001,2025-03-10_17h04.47.492,SL_base,2021.2.3,Win32,100,,,108,0,108,0,1,,,,,,,,
,,"[""circle"",""red"",""vert"",""up"",[150,0],[-106,106]]",circle,red,vert,up,"[150,0]","[-106,106]",up,1,1.1352,,,,,,001,2025-03-10_17h04.47.492,SL_base,2021.2.3,Win32,100,,,109,0,109,0,1,,,,,,,,
,,"[""circle"",""no_dis"",""hori"",""left"",[99999,99999],[106,106]]",circle,no_dis,hori,left,"[99999,99999]","[106,106]",left,1,1.3426,,,,,,001,2025-03-10_17h04.47.492,SL_base,2021.2.3,Win32,100,,,110,0,110,0,1,,,,,,,,
,,"[""circle"",""no_dis"",""hori"",""left"",[99999,99999],[0,150]]",circle,no_dis,hori,left,"[99999,99999]","[0,150]",left,1,0.9505,,,,,,001,2025-03-10_17h04.47.492,SL_base,2021.2.3,Win32,100,,,111,0,111,0,1,,,,,,,,
,,"[""circle"",""red"",""vert"",""up"",[150,0],[-150,0]]",circle,red,vert,up,"[150,0]","[-150,0]",up,1,0.6733,,,,,,001,2025-03-10_17h04.47.492,SL_base,2021.2.3,Win32,100,,,112,0,112,0,1,,,,,,,,
,,"[""circle"",""red"",""vert"",""up"",[-106,-106],[106,-106]]",circle,red,vert,up,"[-106,-106]","[106,-106]",up,1,1.6917,,,,,,001,2025-03-10_17h04.47.492,SL_base,2021.2.3,Win32,100,,,113,0,113,0,1,,,,,,,,
,,"[""circle"",""green"",""hori"",""left"",[150,0],[0,150]]",circle,green,hori,left,"[150,0]","[0,150]",left,1,1.7227,,,,,,001,2025-03-10_17h04.47.492,SL_base,2021.2.3,Win32,100,,,114,0,114,0,1,,,,,,,,
,,"[""diamond"",""red"",""vert"",""up"",[0,-150],[106,106]]",diamond,red,vert,up,"[0,-150]","[106,106]",up,1,1.6308,,,,,,001,2025-03-10_17h04.47.492,SL_base,2021.2.3,Win32,100,,,115,0,115,0,1,,,,,,,,
,,"[""circle"",""red"",""hori"",""left"",[0,-150],[106,106]]",circle,red,hori,left,"[0,-150]","[106,106]",left,1,0.9494,,,,,,001,2025-03-10_17h04.47.492,SL_base,2021.2.3,Win32,100,,,116,0,116,0,1,,,,,,,,
,,"[""circle"",""red"",""hori"",""left"",[150,0],[-150,0]]",circle,red,hori,left,"[150,0]","[-150,0]",left,1,0.9969,,,,,,001,2025-03-10_17h04.47.492,SL_base,2021.2.3,Win32,100,,,117,0,117,0,1,,,,,,,,
,,"[""diamond"",""green"",""hori"",""left"",[106,-106],[-150,0]]",diamond,green,hori,left,"[106,-106]","[-150,0]",left,1,1.5471,,,,,,001,2025-03-10_17h04.47.492,SL_base,2021.2.3,Win32,100,,,118,0,118,0,1,,,,,,,,
,,"[""circle"",""red"",""hori"",""left"",[150,0],[0,150]]",circle,red,hori,left,"[150,0]","[0,150]",left,1,1.0495,,,,,,001,2025-03-10_17h04.47.492,SL_base,2021.2.3,Win32,100,,,119,0,119,0,1,,,,,,,,
,,,,,,,,,,,,,,,,,001,2025-03-10_17h04.47.492,SL_base,2021.2.3,Win32,100,,,,,,,,2,space,20.1644,1,0,1,0,1
,,"[""diamond"",""green"",""vert"",""up"",[-150,0],[-106,-106]]",diamond,green,vert,up,"[-150,0]","[-106,-106]",,0,,,,,,,001,2025-03-10_17h04.47.492,SL_base,2021.2.3,Win32,100,,,0,0,0,0,1,,,,,,,,
,,"[""circle"",""green"",""vert"",""up"",[150,0],[106,-106]]",circle,green,vert,up,"[150,0]","[106,-106]",up,1,1.9119,,,,,,001,2025-03-10_17h04.47.492,SL_base,2021.2.3,Win32,100,,,1,0,1,0,1,,,,,,,,
,,"[""diamond"",""red"",""vert"",""up"",[-106,106],[-106,-106]]",diamond,red,vert,up,"[-106,106]","[-106,-106]",up,1,1.3764,,,,,,001,2025-03-10_17h04.47.492,SL_base,2021.2.3,Win32,100,,,2,0,2,0,1,,,,,,,,
,,"[""diamond"",""red"",""vert"",""up"",[150,0],[-106,-106]]",diamond,red,vert,up,"[150,0]","[-106,-106]",up,1,1.5643,,,,,,001,2025-03-10_17h04.47.492,SL_base,2021.2.3,Win32,100,,,3,0,3,0,1,,,,,,,,
,,"[""circle"",""red"",""vert"",""up"",[-150,0],[106,-106]]",circle,red,vert,up,"[-150,0]","[106,-106]",up,1,1.0678,,,,,,001,2025-03-10_17h04.47.492,SL_base,2021.2.3,Win32,100,,,4,0,4,0,1,,,,,,,,
,,"[""circle"",""red"",""vert"",""up"",[150,0],[-106,106]]",circle,red,vert,up,"[150,0]","[-106,106]",up,1,1.3953,,,,,,001,2025-03-10_17h04.47.492,SL_base,2021.2.3,Win32,100,,,5,0,5,0,1,,,,,,,,
,,"[""circle"",""green"",""hori"",""left"",[0,150],[-106,-106]]",circle,green,hori,left,"[0,150]","[-106,-106]",left,1,1.5113,,,,,,001,2025-03-10_17h04.47.492,SL_base,2021.2.3,Win32,100,,,6,0,6,0,1,,,,,,,,
,,"[""diamond"",""red"",""vert"",""up"",[0,-150],[106,106]]",diamond,red,vert,up,"[0,-150]","[106,106]",up,1,1.0696,,,,,,001,2025-03-10_17h04.47.492,SL_base,2021.2.3,Win32,100,,,7,0,7,0,1,,,,,,,,
,,"[""circle"",""red"",""hori"",""left"",[150,0],[-150,0]]",circle,red,hori,left,"[150,0]","[-150,0]",left,1,0.9143,,,,,,001,2025-03-10_17h04.47.492,SL_base,2021.2.3,Win32,100,,,8,0,8,0,1,,,,,,,,
,,"[""circle"",""green"",""hori"",""left"",[-150,0],[106,106]]",circle,green,hori,left,"[-150,0]","[106,106]",left,1,1.0935,,,,,,001,2025-03-10_17h04.47.492,SL_base,2021.2.3,Win32,100,,,9,0,9,0,1,,,,,,,,
,,"[""circle"",""red"",""vert"",""up"",[106,-106],[-106,106]]",circle,red,vert,up,"[106,-106]","[-106,106]",up,1,0.8475,,,,,,001,2025-03-10_17h04.47.492,SL_base,2021.2.3,Win32,100,,,10,0,10,0,1,,,,,,,,
,,"[""circle"",""red"",""hori"",""left"",[-106,-106],[-106,106]]",circle,red,hori,left,"[-106,-106]","[-106,106]",left,1,1.9366,,,,,,001,2025-03-10_17h04.47.492,SL_base,2021.2.3,Win32,100,,,11,0,11,0,1,,,,,,,,
,,"[""diamond"",""red"",""hori"",""left"",[0,-150],[150,0]]",diamond,red,hori,left,"[0,-150]","[150,0]",left,1,1.6765,,,,,,001,2025-03-10_17h04.47.492,SL_base,2021.2.3,Win32,100,,,12,0,12,0,1,,,,,,,,
,,"[""circle"",""red"",""vert"",""up"",[0,150],[-150,0]]",circle,red,vert,up,"[0,150]","[-150,0]",up,1,1.3763,,,,,,001,2025-03-10_17h04.47.492,SL_base,2021.2.3,Win32,100,,,13,0,13,0,1,,,,,,,,
,,"[""circle"",""red"",""vert"",""up"",[-106,106],[106,-106]]",circle,red,vert,up,"[-106,106]","[106,-106]",up,1,1.1447,,,,,,001,2025-03-10_17h04.47.492,SL_base,2021.2.3,Win32,100,,,14,0,14,0,1,,,,,,,,
,,"[""diamond"",""red"",""vert"",""up"",[0,150],[150,0]]",diamond,red,vert,up,"[0,150]","[150,0]",up,1,1.3605,,,,,,001,2025-03-10_17h04.47.492,SL_base,2021.2.3,Win32,100,,,15,0,15,0,1,,,,,,,,
,,"[""circle"",""red"",""vert"",""up"",[-106,106],[150,0]]",circle,red,vert,up,"[-106,106]","[150,0]",up,1,0.6555,,,,,,001,2025-03-10_17h04.47.492,SL_base,2021.2.3,Win32,100,,,16,0,16,0,1,,,,,,,,
,,"[""circle"",""no_dis"",""hori"",""left"",[99999,99999],[106,-106]]",circle,no_dis,hori,left,"[99999,99999]","[106,-106]",left,1,0.6851,,,,,,001,2025-03-10_17h04.47.492,SL_base,2021.2.3,Win32,100,,,17,0,17,0,1,,,,,,,,
,,"[""diamond"",""no_dis"",""vert"",""up"",[99999,99999],[0,150]]",diamond,no_dis,vert,up,"[99999,99999]","[0,150]",up,1,0.9818,,,,,,001,2025-03-10_17h04.47.492,SL_base,2021.2.3,Win32,100,,,18,0,18,0,1,,,,,,,,
,,"[""circle"",""red"",""vert"",""up"",[106,-106],[0,150]]",circle,red,vert,up,"[106,-106]","[0,150]",up,1,1.8275,,,,,,001,2025-03-10_17h04.47.492,SL_base,2021.2.3,Win32,100,,,19,0,19,0,1,,,,,,,,
,,"[""diamond"",""no_dis"",""hori"",""left"",[99999,99999],[-106,-106]]",diamond,no_dis,hori,left,"[99999,99999]","[-106,-106]",left,1,2.4618,,,,,,001,2025-03-10_17h04.47.492,SL_base,2021.2.3,Win32,100,,,20,0,20,0,1,,,,,,,,
,,"[""circle"",""no_dis"",""hori"",""left"",[99999,99999],[-150,0]]",circle,no_dis,hori,left,"[99999,99999]","[-150,0]",left,1,0.8937,,,,,,001,2025-03-10_17h04.47.492,SL_base,2021.2.3,Win32,100,,,21,0,21,0,1,,,,,,,,
,,"[""diamond"",""green"",""vert"",""up"",[106,106],[-106,-106]]",diamond,green,vert,up,"[106,106]","[-106,-106]",up,1,1.1073,,,,,,001,2025-03-10_17h04.47.492,SL_base,2021.2.3,Win32,100,,,22,0,22,0,1,,,,,,,,
,,"[""diamond"",""green"",""hori"",""left"",[-106,106],[106,106]]",diamond,green,hori,left,"[-106,106]","[106,106]",left,1,1.1483,,,,,,001,2025-03-10_17h04.47.492,SL_base,2021.2.3,Win32,100,,,23,0,23,0,1,,,,,,,,
,,"[""diamond"",""no_dis"",""vert"",""up"",[99999,99999],[106,106]]",diamond,no_dis,vert,up,"[99999,99999]","[106,106]",up,1,0.7679,,,,,,001,2025-03-10_17h04.47.492,SL_base,2021.2.3,Win32,100,,,24,0,24,0,1,,,,,,,,
,,"[""diamond"",""green"",""hori"",""left"",[150,0],[-150,0]]",diamond,green,hori,left,"[150,0]","[-150,0]",left,1,0.7806,,,,,,001,2025-03-10_17h04.47.492,SL_base,2021.2.3,Win32,100,,,25,0,25,0,1,,,,,,,,
,,"[""circle"",""no_dis"",""hori"",""left"",[99999,99999],[150,0]]",circle,no_dis,hori,left,"[99999,99999]","[150,0]",left,1,0.8777,,,,,,001,2025-03-10_17h04.47.492,SL_base,2021.2.3,Win32,100,,,26,0,26,0,1,,,,,,,,
,,"[""diamond"",""green"",""vert"",""up"",[150,0],[106,106]]",diamond,green,vert,up,"[150,0]","[106,106]",up,1,0.8905,,,,,,001,2025-03-10_17h04.47.492,SL_base,2021.2.3,Win32,100,,,27,0,27,0,1,,,,,,,,
,,"[""circle"",""no_dis"",""vert"",""up"",[99999,99999],[-106,-106]]",circle,no_dis,vert,up,"[99999,99999]","[-106,-106]",up,1,1.2662,,,,,,001,2025-03-10_17h04.47.492,SL_base,2021.2.3,Win32,100,,,28,0,28,0,1,,,,,,,,
,,"[""circle"",""green"",""vert"",""up"",[106,106],[-150,0]]",circle,green,vert,up,"[106,106]","[-150,0]",up,1,1.3699,,,,,,001,2025-03-10_17h04.47.492,SL_base,2021.2.3,Win32,100,,,29,0,29,0,1,,,,,,,,
,,"[""diamond"",""green"",""hori"",""left"",[0,-150],[106,106]]",diamond,green,hori,left,"[0,-150]","[106,106]",left,1,0.8884,,,,,,001,2025-03-10_17h04.47.492,SL_base,2021.2.3,Win32,100,,,30,0,30,0,1,,,,,,,,
,,"[""diamond"",""no_dis"",""vert"",""up"",[99999,99999],[0,-150]]",diamond,no_dis,vert,up,"[99999,99999]","[0,-150]",up,1,0.9583,,,,,,001,2025-03-10_17h04.47.492,SL_base,2021.2.3,Win32,100,,,31,0,31,0,1,,,,,,,,
,,"[""circle"",""green"",""vert"",""up"",[-106,106],[0,-150]]",circle,green,vert,up,"[-106,106]","[0,-150]",up,1,1.1138,,,,,,001,2025-03-10_17h04.47.492,SL_base,2021.2.3,Win32,100,,,32,0,32,0,1,,,,,,,,
,,"[""circle"",""red"",""hori"",""left"",[106,106],[106,-106]]",circle,red,hori,left,"[106,106]","[106,-106]",left,1,1.413,,,,,,001,2025-03-10_17h04.47.492,SL_base,2021.2.3,Win32,100,,,33,0,33,0,1,,,,,,,,
,,"[""diamond"",""green"",""vert"",""up"",[0,-150],[0,150]]",diamond,green,vert,up,"[0,-150]","[0,150]",up,1,2.1651,,,,,,001,2025-03-10_17h04.47.492,SL_base,2021.2.3,Win32,100,,,34,0,34,0,1,,,,,,,,
,,"[""circle"",""no_dis"",""hori"",""left"",[99999,99999],[106,-106]]",circle,no_dis,hori,left,"[99999,99999]","[106,-106]",left,1,1.15,,,,,,001,2025-03-10_17h04.47.492,SL_base,2021.2.3,Win32,100,,,35,0,35,0,1,,,,,,,,
,,"[""circle"",""green"",""hori"",""left"",[-106,106],[106,-106]]",circle,green,hori,left,"[-106,106]","[106,-106]",left,1,0.8811,,,,,,001,2025-03-10_17h04.47.492,SL_base,2021.2.3,Win32,100,,,36,0,36,0,1,,,,,,,,
,,"[""circle"",""no_dis"",""hori"",""left"",[99999,99999],[-106,-106]]",circle,no_dis,hori,left,"[99999,99999]","[-106,-106]",left,1,1.3571,,,,,,001,2025-03-10_17h04.47.492,SL_base,2021.2.3,Win32,100,,,37,0,37,0,1,,,,,,,,
,,"[""diamond"",""red"",""hori"",""left"",[150,0],[-106,-106]]",diamond,red,hori,left,"[150,0]","[-106,-106]",left,1,1.6334,,,,,,001,2025-03-10_17h04.47.492,SL_base,2021.2.3,Win32,100,,,38,0,38,0,1,,,,,,,,
,,"[""circle"",""no_dis"",""hori"",""left"",[99999,99999],[-150,0]]",circle,no_dis,hori,left,"[99999,99999]","[-150,0]",left,1,1.2328,,,,,,001,2025-03-10_17h04.47.492,SL_base,2021.2.3,Win32,100,,,39,0,39,0,1,,,,,,,,
,,"[""diamond"",""green"",""vert"",""up"",[150,0],[106,-106]]",diamond,green,vert,up,"[150,0]","[106,-106]",up,1,0.8668,,,,,,001,2025-03-10_17h04.47.492,SL_base,2021.2.3,Win32,100,,,40,0,40,0,1,,,,,,,,
,,"[""diamond"",""red"",""hori"",""left"",[150,0],[0,-150]]",diamond,red,hori,left,"[150,0]","[0,-150]",left,1,0.8093,,,,,,001,2025-03-10_17h04.47.492,SL_base,2021.2.3,Win32,100,,,41,0,41,0,1,,,,,,,,
,,"[""diamond"",""green"",""vert"",""up"",[0,-150],[-106,-106]]",diamond,green,vert,up,"[0,-150]","[-106,-106]",up,1,1.0612,,,,,,001,2025-03-10_17h04.47.492,SL_base,2021.2.3,Win32,100,,,42,0,42,0,1,,,,,,,,
,,"[""diamond"",""green"",""hori"",""left"",[106,-106],[-150,0]]",diamond,green,hori,left,"[106,-106]","[-150,0]",left,1,0.9501,,,,,,001,2025-03-10_17h04.47.492,SL_base,2021.2.3,Win32,100,,,43,0,43,0,1,,,,,,,,
,,"[""circle"",""no_dis"",""hori"",""left"",[99999,99999],[106,106]]",circle,no_dis,hori,left,"[99999,99999]","[106,106]",left,1,0.9512,,,,,,001,2025-03-10_17h04.47.492,SL_base,2021.2.3,Win32,100,,,44,0,44,0,1,,,,,,,,
,,"[""diamond"",""red"",""hori"",""left"",[106,106],[150,0]]",diamond,red,hori,left,"[106,106]","[150,0]",left,1,1.0716,,,,,,001,2025-03-10_17h04.47.492,SL_base,2021.2.3,Win32,100,,,45,0,45,0,1,,,,,,,,
,,"[""circle"",""green"",""hori"",""left"",[150,0],[0,150]]",circle,green,hori,left,"[150,0]","[0,150]",left,1,1.2773,,,,,,001,2025-03-10_17h04.47.492,SL_base,2021.2.3,Win32,100,,,46,0,46,0,1,,,,,,,,
,,"[""diamond"",""red"",""hori"",""left"",[150,0],[-106,-106]]",diamond,red,hori,left,"[150,0]","[-106,-106]",left,1,1.2824,,,,,,001,2025-03-10_17h04.47.492,SL_base,2021.2.3,Win32,100,,,47,0,47,0,1,,,,,,,,
,,"[""diamond"",""red"",""vert"",""up"",[0,-150],[106,-106]]",diamond,red,vert,up,"[0,-150]","[106,-106]",up,1,1.1453,,,,,,001,2025-03-10_17h04.47.492,SL_base,2021.2.3,Win32,100,,,48,0,48,0,1,,,,,,,,
,,"[""circle"",""green"",""vert"",""up"",[-106,-106],[150,0]]",circle,green,vert,up,"[-106,-106]","[150,0]",up,1,1.0064,,,,,,001,2025-03-10_17h04.47.492,SL_base,2021.2.3,Win32,100,,,49,0,49,0,1,,,,,,,,
,,"[""diamond"",""no_dis"",""hori"",""left"",[99999,99999],[-106,106]]",diamond,no_dis,hori,left,"[99999,99999]","[-106,106]",left,1,1.0967,,,,,,001,2025-03-10_17h04.47.492,SL_base,2021.2.3,Win32,100,,,50,0,50,0,1,,,,,,,,
,,"[""circle"",""red"",""hori"",""left"",[0,150],[-106,106]]",circle,red,hori,left,"[0,150]","[-106,106]",left,1,1.7665,,,,,,001,2025-03-10_17h04.47.492,SL_base,2021.2.3,Win32,100,,,51,0,51,0,1,,,,,,,,
,,"[""diamond"",""green"",""hori"",""left"",[106,106],[106,-106]]",diamond,green,hori,left,"[106,106]","[106,-106]",left,1,1.0786,,,,,,001,2025-03-10_17h04.47.492,SL_base,2021.2.3,Win32,100,,,52,0,52,0,1,,,,,,,,
,,"[""circle"",""no_dis"",""vert"",""up"",[99999,99999],[-150,0]]",circle,no_dis,vert,up,"[99999,99999]","[-150,0]",up,1,1.6196,,,,,,001,2025-03-10_17h04.47.492,SL_base,2021.2.3,Win32,100,,,53,0,53,0,1,,,,,,,,
,,"[""diamond"",""green"",""hori"",""left"",[-150,0],[-106,-106]]",diamond,green,hori,left,"[-150,0]","[-106,-106]",left,1,1.2333,,,,,,001,2025-03-10_17h04.47.492,SL_base,2021.2.3,Win32,100,,,54,0,54,0,1,,,,,,,,
,,"[""diamond"",""red"",""hori"",""left"",[-106,-106],[0,150]]",diamond,red,hori,left,"[-106,-106]","[0,150]",left,1,1.2359,,,,,,001,2025-03-10_17h04.47.492,SL_base,2021.2.3,Win32,100,,,55,0,55,0,1,,,,,,,,
,,"[""diamond"",""no_dis"",""vert"",""up"",[99999,99999],[150,0]]",diamond,no_dis,vert,up,"[99999,99999]","[150,0]",up,1,0.7891,,,,,,001,2025-03-10_17h04.47.492,SL_base,2021.2.3,Win32,100,,,56,0,56,0,1,,,,,,,,
,,"[""circle"",""red"",""vert"",""up"",[150,0],[-150,0]]",circle,red,vert,up,"[150,0]","[-150,0]",up,1,1.1096,,,,,,001,2025-03-10_17h04.47.492,SL_base,2021.2.3,Win32,100,,,57,0,57,0,1,,,,,,,,
,,"[""diamond"",""red"",""vert"",""up"",[0,-150],[150,0]]",diamond,red,vert,up,"[0,-150]","[150,0]",up,1,1.1199,,,,,,001,2025-03-10_17h04.47.492,SL_base,2021.2.3,Win32,100,,,58,0,58,0,1,,,,,,,,
,,"[""circle"",""green"",""vert"",""up"",[106,106],[-106,106]]",circle,green,vert,up,"[106,106]","[-106,106]",up,1,1.8097,,,,,,001,2025-03-10_17h04.47.492,SL_base,2021.2.3,Win32,100,,,59,0,59,0,1,,,,,,,,
,,"[""diamond"",""no_dis"",""hori"",""left"",[99999,99999],[0,-150]]",diamond,no_dis,hori,left,"[99999,99999]","[0,-150]",left,1,0.9325,,,,,,001,2025-03-10_17h04.47.492,SL_base,2021.2.3,Win32,100,,,60,0,60,0,1,,,,,,,,
,,"[""circle"",""no_dis"",""hori"",""left"",[99999,99999],[0,150]]",circle,no_dis,hori,left,"[99999,99999]","[0,150]",left,1,1.2508,,,,,,001,2025-03-10_17h04.47.492,SL_base,2021.2.3,Win32,100,,,61,0,61,0,1,,,,,,,,
,,"[""diamond"",""no_dis"",""hori"",""left"",[99999,99999],[-150,0]]",diamond,no_dis,hori,left,"[99999,99999]","[-150,0]",left,1,1.0742,,,,,,001,2025-03-10_17h04.47.492,SL_base,2021.2.3,Win32,100,,,62,0,62,0,1,,,,,,,,
,,"[""diamond"",""green"",""hori"",""left"",[-150,0],[-106,106]]",diamond,green,hori,left,"[-150,0]","[-106,106]",left,1,1.0631,,,,,,001,2025-03-10_17h04.47.492,SL_base,2021.2.3,Win32,100,,,63,0,63,0,1,,,,,,,,
,,"[""diamond"",""red"",""hori"",""left"",[106,-106],[106,106]]",diamond,red,hori,left,"[106,-106]","[106,106]",left,1,1.094,,,,,,001,2025-03-10_17h04.47.492,SL_base,2021.2.3,Win32,100,,,64,0,64,0,1,,,,,,,,
,,"[""circle"",""red"",""vert"",""up"",[106,-106],[150,0]]",circle,red,vert,up,"[106,-106]","[150,0]",up,1,0.9547,,,,,,001,2025-03-10_17h04.47.492,SL_base,2021.2.3,Win32,100,,,65,0,65,0,1,,,,,,,,
,,"[""circle"",""green"",""vert"",""up"",[150,0],[-106,106]]",circle,green,vert,up,"[150,0]","[-106,106]",up,1,1.3342,,,,,,001,2025-03-10_17h04.47.492,SL_base,2021.2.3,Win32,100,,,66,0,66,0,1,,,,,,,,
,,"[""circle"",""no_dis"",""vert"",""up"",[99999,99999],[0,-150]]",circle,no_dis,vert,up,"[99999,99999]","[0,-150]",up,1,2.097,,,,,,001,2025-03-10_17h04.47.492,SL_base,2021.2.3,Win32,100,,,67,0,67,0,1,,,,,,,,
,,"[""diamond"",""green"",""vert"",""up"",[150,0],[-106,106]]",diamond,green,vert,up,"[150,0]","[-106,106]",up,1,1.1543,,,,,,001,2025-03-10_17h04.47.492,SL_base,2021.2.3,Win32,100,,,68,0,68,0,1,,,,,,,,
,,"[""circle"",""no_dis"",""hori"",""left"",[99999,99999],[106,-106]]",circle,no_dis,hori,left,"[99999,99999]","[106,-106]",left,1,0.6758,,,,,,001,2025-03-10_17h04.47.492,SL_base,2021.2.3,Win32,100,,,69,0,69,0,1,,,,,,,,
,,"[""diamond"",""red"",""vert"",""up"",[150,0],[-106,106]]",diamond,red,vert,up,"[150,0]","[-106,106]",up,1,0.8613,,,,,,001,2025-03-10_17h04.47.492,SL_base,2021.2.3,Win32,100,,,70,0,70,0,1,,,,,,,,
,,"[""circle"",""green"",""hori"",""left"",[150,0],[-106,106]]",circle,green,hori,left,"[150,0]","[-106,106]",left,1,0.8672,,,,,,001,2025-03-10_17h04.47.492,SL_base,2021.2.3,Win32,100,,,71,0,71,0,1,,,,,,,,
,,"[""diamond"",""green"",""hori"",""left"",[-106,-106],[-106,106]]",diamond,green,hori,left,"[-106,-106]","[-106,106]",left,1,0.9985,,,,,,001,2025-03-10_17h04.47.492,SL_base,2021.2.3,Win32,100,,,72,0,72,0,1,,,,,,,,
,,"[""circle"",""green"",""vert"",""up"",[-106,106],[-150,0]]",circle,green,vert,up,"[-106,106]","[-150,0]",up,1,1.33,,,,,,001,2025-03-10_17h04.47.492,SL_base,2021.2.3,Win32,100,,,73,0,73,0,1,,,,,,,,
,,"[""circle"",""red"",""hori"",""left"",[0,150],[-150,0]]",circle,red,hori,left,"[0,150]","[-150,0]",left,1,0.6821,,,,,,001,2025-03-10_17h04.47.492,SL_base,2021.2.3,Win32,100,,,74,0,74,0,1,,,,,,,,
,,"[""circle"",""green"",""hori"",""left"",[-106,-106],[0,150]]",circle,green,hori,left,"[-106,-106]","[0,150]",left,1,0.8111,,,,,,001,2025-03-10_17h04.47.492,SL_base,2021.2.3,Win32,100,,,75,0,75,0,1,,,,,,,,
,,"[""diamond"",""green"",""hori"",""left"",[0,150],[150,0]]",diamond,green,hori,left,"[0,150]","[150,0]",left,1,1.0815,,,,,,001,2025-03-10_17h04.47.492,SL_base,2021.2.3,Win32,100,,,76,0,76,0,1,,,,,,,,
,,"[""circle"",""green"",""vert"",""up"",[0,150],[106,-106]]",circle,green,vert,up,"[0,150]","[106,-106]",up,1,1.104,,,,,,001,2025-03-10_17h04.47.492,SL_base,2021.2.3,Win32,100,,,77,0,77,0,1,,,,,,,,
,,"[""circle"",""no_dis"",""vert"",""up"",[99999,99999],[106,106]]",circle,no_dis,vert,up,"[99999,99999]","[106,106]",up,1,0.9333,,,,,,001,2025-03-10_17h04.47.492,SL_base,2021.2.3,Win32,100,,,78,0,78,0,1,,,,,,,,
,,"[""circle"",""green"",""hori"",""left"",[106,-106],[-150,0]]",circle,green,hori,left,"[106,-106]","[-150,0]",left,1,1.1371,,,,,,001,2025-03-10_17h04.47.492,SL_base,2021.2.3,Win32,100,,,79,0,79,0,1,,,,,,,,
,,"[""circle"",""red"",""vert"",""up"",[-106,-106],[106,-106]]",circle,red,vert,up,"[-106,-106]","[106,-106]",up,1,1.2504,,,,,,001,2025-03-10_17h04.47.492,SL_base,2021.2.3,Win32,100,,,80,0,80,0,1,,,,,,,,
,,"[""diamond"",""no_dis"",""vert"",""up"",[99999,99999],[-106,106]]",diamond,no_dis,vert,up,"[99999,99999]","[-106,106]",up,1,0.9885,,,,,,001,2025-03-10_17h04.47.492,SL_base,2021.2.3,Win32,100,,,81,0,81,0,1,,,,,,,,
,,"[""diamond"",""no_dis"",""hori"",""left"",[99999,99999],[106,106]]",diamond,no_dis,hori,left,"[99999,99999]","[106,106]",left,1,0.7706,,,,,,001,2025-03-10_17h04.47.492,SL_base,2021.2.3,Win32,100,,,82,0,82,0,1,,,,,,,,
,,"[""diamond"",""red"",""hori"",""left"",[150,0],[0,150]]",diamond,red,hori,left,"[150,0]","[0,150]",left,1,0.9412,,,,,,001,2025-03-10_17h04.47.492,SL_base,2021.2.3,Win32,100,,,83,0,83,0,1,,,,,,,,
,,"[""diamond"",""green"",""vert"",""up"",[106,106],[150,0]]",diamond,green,vert,up,"[106,106]","[150,0]",up,1,0.9186,,,,,,001,2025-03-10_17h04.47.492,SL_base,2021.2.3,Win32,100,,,84,0,84,0,1,,,,,,,,
,,"[""circle"",""red"",""hori"",""left"",[150,0],[-106,-106]]",circle,red,hori,left,"[150,0]","[-106,-106]",left,1,0.8514,,,,,,001,2025-03-10_17h04.47.492,SL_base,2021.2.3,Win32,100,,,85,0,85,0,1,,,,,,,,
,,"[""diamond"",""red"",""hori"",""left"",[-106,-106],[150,0]]",diamond,red,hori,left,"[-106,-106]","[150,0]",left,1,1.0646,,,,,,001,2025-03-10_17h04.47.492,SL_base,2021.2.3,Win32,100,,,86,0,86,0,1,,,,,,,,
,,"[""circle"",""red"",""hori"",""left"",[-106,-106],[106,106]]",circle,red,hori,left,"[-106,-106]","[106,106]",left,1,0.8191,,,,,,001,2025-03-10_17h04.47.492,SL_base,2021.2.3,Win32,100,,,87,0,87,0,1,,,,,,,,
,,"[""diamond"",""no_dis"",""hori"",""left"",[99999,99999],[150,0]]",diamond,no_dis,hori,left,"[99999,99999]","[150,0]",left,1,0.8996,,,,,,001,2025-03-10_17h04.47.492,SL_base,2021.2.3,Win32,100,,,88,0,88,0,1,,,,,,,,
,,"[""circle"",""no_dis"",""vert"",""up"",[99999,99999],[0,150]]",circle,no_dis,vert,up,"[99999,99999]","[0,150]",up,1,0.8732,,,,,,001,2025-03-10_17h04.47.492,SL_base,2021.2.3,Win32,100,,,89,0,89,0,1,,,,,,,,
,,"[""circle"",""no_dis"",""vert"",""up"",[99999,99999],[-150,0]]",circle,no_dis,vert,up,"[99999,99999]","[-150,0]",up,1,1.5377,,,,,,001,2025-03-10_17h04.47.492,SL_base,2021.2.3,Win32,100,,,90,0,90,0,1,,,,,,,,
,,"[""diamond"",""green"",""vert"",""up"",[150,0],[-106,106]]",diamond,green,vert,up,"[150,0]","[-106,106]",up,1,1.1184,,,,,,001,2025-03-10_17h04.47.492,SL_base,2021.2.3,Win32,100,,,91,0,91,0,1,,,,,,,,
,,"[""circle"",""red"",""hori"",""left"",[150,0],[0,150]]",circle,red,hori,left,"[150,0]","[0,150]",left,1,1.1994,,,,,,001,2025-03-10_17h04.47.492,SL_base,2021.2.3,Win32,100,,,92,0,92,0,1,,,,,,,,
,,"[""diamond"",""green"",""hori"",""left"",[106,-106],[-150,0]]",diamond,green,hori,left,"[106,-106]","[-150,0]",left,1,0.8788,,,,,,001,2025-03-10_17h04.47.492,SL_base,2021.2.3,Win32,100,,,93,0,93,0,1,,,,,,,,
,,"[""circle"",""no_dis"",""hori"",""left"",[99999,99999],[-106,106]]",circle,no_dis,hori,left,"[99999,99999]","[-106,106]",left,1,0.8525,,,,,,001,2025-03-10_17h04.47.492,SL_base,2021.2.3,Win32,100,,,94,0,94,0,1,,,,,,,,
,,"[""diamond"",""red"",""vert"",""up"",[106,106],[-150,0]]",diamond,red,vert,up,"[106,106]","[-150,0]",up,1,0.8957,,,,,,001,2025-03-10_17h04.47.492,SL_base,2021.2.3,Win32,100,,,95,0,95,0,1,,,,,,,,
,,"[""circle"",""green"",""hori"",""left"",[106,-106],[106,106]]",circle,green,hori,left,"[106,-106]","[106,106]",left,1,0.9473,,,,,,001,2025-03-10_17h04.47.492,SL_base,2021.2.3,Win32,100,,,96,0,96,0,1,,,,,,,,
,,"[""diamond"",""no_dis"",""vert"",""up"",[99999,99999],[-106,106]]",diamond,no_dis,vert,up,"[99999,99999]","[-106,106]",up,1,0.8747,,,,,,001,2025-03-10_17h04.47.492,SL_base,2021.2.3,Win32,100,,,97,0,97,0,1,,,,,,,,
,,"[""diamond"",""no_dis"",""hori"",""left"",[99999,99999],[0,150]]",diamond,no_dis,hori,left,"[99999,99999]","[0,150]",left,1,0.8258,,,,,,001,2025-03-10_17h04.47.492,SL_base,2021.2.3,Win32,100,,,98,0,98,0,1,,,,,,,,
,,"[""circle"",""no_dis"",""vert"",""up"",[99999,99999],[-106,-106]]",circle,no_dis,vert,up,"[99999,99999]","[-106,-106]",up,1,0.9149,,,,,,001,2025-03-10_17h04.47.492,SL_base,2021.2.3,Win32,100,,,99,0,99,0,1,,,,,,,,
,,"[""diamond"",""no_dis"",""vert"",""up"",[99999,99999],[150,0]]",diamond,no_dis,vert,up,"[99999,99999]","[150,0]",up,1,1.1795,,,,,,001,2025-03-10_17h04.47.492,SL_base,2021.2.3,Win32,100,,,100,0,100,0,1,,,,,,,,
,,"[""diamond"",""red"",""vert"",""up"",[0,150],[150,0]]",diamond,red,vert,up,"[0,150]","[150,0]",up,1,1.0362,,,,,,001,2025-03-10_17h04.47.492,SL_base,2021.2.3,Win32,100,,,101,0,101,0,1,,,,,,,,
,,"[""circle"",""green"",""hori"",""left"",[150,0],[-106,106]]",circle,green,hori,left,"[150,0]","[-106,106]",left,1,1.0908,,,,,,001,2025-03-10_17h04.47.492,SL_base,2021.2.3,Win32,100,,,102,0,102,0,1,,,,,,,,
,,"[""circle"",""no_dis"",""vert"",""up"",[99999,99999],[0,-150]]",circle,no_dis,vert,up,"[99999,99999]","[0,-150]",up,1,1.3882,,,,,,001,2025-03-10_17h04.47.492,SL_base,2021.2.3,Win32,100,,,103,0,103,0,1,,,,,,,,
,,"[""circle"",""green"",""vert"",""up"",[-106,106],[106,106]]",circle,green,vert,up,"[-106,106]","[106,106]",up,1,0.9883,,,,,,001,2025-03-10_17h04.47.492,SL_base,2021.2.3,Win32,100,,,104,0,104,0,1,,,,,,,,
,,"[""circle"",""no_dis"",""vert"",""up"",[99999,99999],[0,150]]",circle,no_dis,vert,up,"[99999,99999]","[0,150]",up,1,0.9046,,,,,,001,2025-03-10_17h04.47.492,SL_base,2021.2.3,Win32,100,,,105,0,105,0,1,,,,,,,,
,,"[""circle"",""green"",""hori"",""left"",[150,0],[0,150]]",circle,green,hori,left,"[150,0]","[0,150]",left,1,0.9121,,,,,,001,2025-03-10_17h04.47.492,SL_base,2021.2.3,Win32,100,,,106,0,106,0,1,,,,,,,,
,,"[""diamond"",""no_dis"",""hori"",""left"",[99999,99999],[106,-106]]",diamond,no_dis,hori,left,"[99999,99999]","[106,-106]",left,1,0.8894,,,,,,001,2025-03-10_17h04.47.492,SL_base,2021.2.3,Win32,100,,,107,0,107,0,1,,,,,,,,
,,"[""diamond"",""no_dis"",""hori"",""left"",[99999,99999],[106,106]]",diamond,no_dis,hori,left,"[99999,99999]","[106,106]",left,1,1.0723,,,,,,001,2025-03-10_17h04.47.492,SL_base,2021.2.3,Win32,100,,,108,0,108,0,1,,,,,,,,
,,"[""diamond"",""no_dis"",""vert"",""up"",[99999,99999],[-106,-106]]",diamond,no_dis,vert,up,"[99999,99999]","[-106,-106]",up,1,0.8621,,,,,,001,2025-03-10_17h04.47.492,SL_base,2021.2.3,Win32,100,,,109,0,109,0,1,,,,,,,,
,,"[""circle"",""no_dis"",""vert"",""up"",[99999,99999],[106,-106]]",circle,no_dis,vert,up,"[99999,99999]","[106,-106]",up,1,0.8998,,,,,,001,2025-03-10_17h04.47.492,SL_base,2021.2.3,Win32,100,,,110,0,110,0,1,,,,,,,,
,,"[""diamond"",""no_dis"",""vert"",""up"",[99999,99999],[-106,106]]",diamond,no_dis,vert,up,"[99999,99999]","[-106,106]",up,1,1.8517,,,,,,001,2025-03-10_17h04.47.492,SL_base,2021.2.3,Win32,100,,,111,0,111,0,1,,,,,,,,
,,"[""circle"",""red"",""hori"",""left"",[-150,0],[0,150]]",circle,red,hori,left,"[-150,0]","[0,150]",left,1,0.8132,,,,,,001,2025-03-10_17h04.47.492,SL_base,2021.2.3,Win32,100,,,112,0,112,0,1,,,,,,,,
,,"[""circle"",""green"",""vert"",""up"",[150,0],[-106,-106]]",circle,green,vert,up,"[150,0]","[-106,-106]",up,1,1.2124,,,,,,001,2025-03-10_17h04.47.492,SL_base,2021.2.3,Win32,100,,,113,0,113,0,1,,,,,,,,
,,"[""diamond"",""green"",""vert"",""up"",[-150,0],[106,-106]]",diamond,green,vert,up,"[-150,0]","[106,-106]",up,1,1.2134,,,,,,001,2025-03-10_17h04.47.492,SL_base,2021.2.3,Win32,100,,,114,0,114,0,1,,,,,,,,
,,"[""diamond"",""red"",""vert"",""up"",[-150,0],[0,-150]]",diamond,red,vert,up,"[-150,0]","[0,-150]",up,1,1.4402,,,,,,001,2025-03-10_17h04.47.492,SL_base,2021.2.3,Win32,100,,,115,0,115,0,1,,,,,,,,
,,"[""diamond"",""no_dis"",""vert"",""up"",[99999,99999],[150,0]]",diamond,no_dis,vert,up,"[99999,99999]","[150,0]",up,1,0.7442,,,,,,001,2025-03-10_17h04.47.492,SL_base,2021.2.3,Win32,100,,,116,0,116,0,1,,,,,,,,
,,"[""diamond"",""red"",""hori"",""left"",[150,0],[0,150]]",diamond,red,hori,left,"[150,0]","[0,150]",left,1,1.0295,,,,,,001,2025-03-10_17h04.47.492,SL_base,2021.2.3,Win32,100,,,117,0,117,0,1,,,,,,,,
,,"[""circle"",""red"",""hori"",""left"",[0,-150],[106,106]]",circle,red,hori,left,"[0,-150]","[106,106]",left,1,0.9922,,,,,,001,2025-03-10_17h04.47.492,SL_base,2021.2.3,Win32,100,,,118,0,118,0,1,,,,,,,,
,,"[""diamond"",""no_dis"",""hori"",""left"",[99999,99999],[0,-150]]",diamond,no_dis,hori,left,"[99999,99999]","[0,-150]",left,1,0.9029,,,,,,001,2025-03-10_17h04.47.492,SL_base,2021.2.3,Win32,100,,,119,0,119,0,1,,,,,,,,
,,,,,,,,,,,,,,,,,001,2025-03-10_17h04.47.492,SL_base,2021.2.3,Win32,100,,,,,,,,3,space,313.2859,2,0,2,0,1
,,"[""circle"",""no_dis"",""hori"",""left"",[99999,99999],[106,106]]",circle,no_dis,hori,left,"[99999,99999]","[106,106]",left,1,0.8367,,,,,,001,2025-03-10_17h04.47.492,SL_base,2021.2.3,Win32,100,,,0,0,0,0,1,,,,,,,,
,,"[""circle"",""red"",""vert"",""up"",[-106,106],[150,0]]",circle,red,vert,up,"[-106,106]","[150,0]",up,1,0.7956,,,,,,001,2025-03-10_17h04.47.492,SL_base,2021.2.3,Win32,100,,,1,0,1,0,1,,,,,,,,
,,"[""circle"",""green"",""vert"",""up"",[150,0],[-106,106]]",circle,green,vert,up,"[150,0]","[-106,106]",up,1,1.0624,,,,,,001,2025-03-10_17h04.47.492,SL_base,2021.2.3,Win32,100,,,2,0,2,0,1,,,,,,,,
,,"[""diamond"",""no_dis"",""hori"",""left"",[99999,99999],[0,150]]",diamond,no_dis,hori,left,"[99999,99999]","[0,150]",left,1,0.9144,,,,,,001,2025-03-10_17h04.47.492,SL_base,2021.2.3,Win32,100,,,3,0,3,0,1,,,,,,,,
,,"[""circle"",""red"",""hori"",""left"",[-106,-106],[-106,106]]",circle,red,hori,left,"[-106,-106]","[-106,106]",left,1,1.2792,,,,,,001,2025-03-10_17h04.47.492,SL_base,2021.2.3,Win32,100,,,4,0,4,0,1,,,,,,,,
,,"[""diamond"",""red"",""vert"",""up"",[0,150],[150,0]]",diamond,red,vert,up,"[0,150]","[150,0]",up,1,1.1284,,,,,,001,2025-03-10_17h04.47.492,SL_base,2021.2.3,Win32,100,,,5,0,5,0,1,,,,,,,,
,,"[""circle"",""green"",""vert"",""up"",[106,106],[-150,0]]",circle,green,vert,up,"[106,106]","[-150,0]",up,1,1.0586,,,,,,001,2025-03-10_17h04.47.492,SL_base,2021.2.3,Win32,100,,,6,0,6,0,1,,,,,,,,
,,"[""circle"",""green"",""hori"",""left"",[0,150],[-106,-106]]",circle,green,hori,left,"[0,150]","[-106,-106]",left,1,1.0215,,,,,,001,2025-03-10_17h04.47.492,SL_base,2021.2.3,Win32,100,,,7,0,7,0,1,,,,,,,,
,,"[""circle"",""red"",""hori"",""left"",[0,-150],[106,106]]",circle,red,hori,left,"[0,-150]","[106,106]",left,1,1.0444,,,,,,001,2025-03-10_17h04.47.492,SL_base,2021.2.3,Win32,100,,,8,0,8,0,1,,,,,,,,
,,"[""diamond"",""green"",""vert"",""up"",[-150,0],[-106,-106]]",diamond,green,vert,up,"[-150,0]","[-106,-106]",up,1,1.504,,,,,,001,2025-03-10_17h04.47.492,SL_base,2021.2.3,Win32,100,,,9,0,9,0,1,,,,,,,,
,,"[""circle"",""green"",""hori"",""left"",[-106,-106],[0,150]]",circle,green,hori,left,"[-106,-106]","[0,150]",left,1,0.7996,,,,,,001,2025-03-10_17h04.47.492,SL_base,2021.2.3,Win32,100,,,10,0,10,0,1,,,,,,,,
,,"[""circle"",""no_dis"",""vert"",""up"",[99999,99999],[106,106]]",circle,no_dis,vert,up,"[99999,99999]","[106,106]",up,1,0.7397,,,,,,001,2025-03-10_17h04.47.492,SL_base,2021.2.3,Win32,100,,,11,0,11,0,1,,,,,,,,
,,"[""circle"",""no_dis"",""hori"",""left"",[99999,99999],[-150,0]]",circle,no_dis,hori,left,"[99999,99999]","[-150,0]",left,1,1.0166,,,,,,001,2025-03-10_17h04.47.492,SL_base,2021.2.3,Win32,100,,,12,0,12,0,1,,,,,,,,
,,"[""diamond"",""no_dis"",""vert"",""up"",[99999,99999],[-106,106]]",diamond,no_dis,vert,up,"[99999,99999]","[-106,106]",up,1,0.9023,,,,,,001,2025-03-10_17h04.47.492,SL_base,2021.2.3,Win32,100,,,13,0,13,0,1,,,,,,,,
,,"[""circle"",""no_dis"",""hori"",""left"",[99999,99999],[0,150]]",circle,no_dis,hori,left,"[99999,99999]","[0,150]",left,1,0.8776,,,,,,001,2025-03-10_17h04.47.492,SL_base,2021.2.3,Win32,100,,,14,0,14,0,1,,,,,,,,
,,"[""diamond"",""green"",""hori"",""left"",[-150,0],[-106,106]]",diamond,green,hori,left,"[-150,0]","[-106,106]",left,1,1.2791,,,,,,001,2025-03-10_17h04.47.492,SL_base,2021.2.3,Win32,100,,,15,0,15,0,1,,,,,,,,
,,"[""diamond"",""no_dis"",""hori"",""left"",[99999,99999],[-106,-106]]",diamond,no_dis,hori,left,"[99999,99999]","[-106,-106]",left,1,0.9217,,,,,,001,2025-03-10_17h04.47.492,SL_base,2021.2.3,Win32,100,,,16,0,16,0,1,,,,,,,,
,,"[""diamond"",""no_dis"",""vert"",""up"",[99999,99999],[-106,106]]",diamond,no_dis,vert,up,"[99999,99999]","[-106,106]",up,1,0.8213,,,,,,001,2025-03-10_17h04.47.492,SL_base,2021.2.3,Win32,100,,,17,0,17,0,1,,,,,,,,
,,"[""diamond"",""no_dis"",""hori"",""left"",[99999,99999],[106,106]]",diamond,no_dis,hori,left,"[99999,99999]","[106,106]",left,1,0.7851,,,,,,001,2025-03-10_17h04.47.492,SL_base,2021.2.3,Win32,100,,,18,0,18,0,1,,,,,,,,
,,"[""diamond"",""no_dis"",""vert"",""up"",[99999,99999],[106,106]]",diamond,no_dis,vert,up,"[99999,99999]","[106,106]",up,1,1.3001,,,,,,001,2025-03-10_17h04.47.492,SL_base,2021.2.3,Win32,100,,,19,0,19,0,1,,,,,,,,
,,"[""circle"",""green"",""vert"",""up"",[-106,-106],[150,0]]",circle,green,vert,up,"[-106,-106]","[150,0]",up,1,1.4748,,,,,,001,2025-03-10_17h04.47.492,SL_base,2021.2.3,Win32,100,,,20,0,20,0,1,,,,,,,,
,,"[""diamond"",""red"",""vert"",""up"",[0,-150],[150,0]]",diamond,red,vert,up,"[0,-150]","[150,0]",up,1,1.2015,,,,,,001,2025-03-10_17h04.47.492,SL_base,2021.2.3,Win32,100,,,21,0,21,0,1,,,,,,,,
,,"[""diamond"",""no_dis"",""hori"",""left"",[99999,99999],[0,-150]]",diamond,no_dis,hori,left,"[99999,99999]","[0,-150]",left,1,1.666,,,,,,001,2025-03-10_17h04.47.492,SL_base,2021.2.3,Win32,100,,,22,0,22,0,1,,,,,,,,
,,"[""diamond"",""no_dis"",""vert"",""up"",[99999,99999],[-106,-106]]",diamond,no_dis,vert,up,"[99999,99999]","[-106,-106]",up,1,1.1139,,,,,,001,2025-03-10_17h04.47.492,SL_base,2021.2.3,Win32,100,,,23,0,23,0,1,,,,,,,,
,,"[""diamond"",""green"",""vert"",""up"",[106,106],[-106,-106]]",diamond,green,vert,up,"[106,106]","[-106,-106]",up,1,1.381,,,,,,001,2025-03-10_17h04.47.492,SL_base,2021.2.3,Win32,100,,,24,0,24,0,1,,,,,,,,
,,"[""circle"",""no_dis"",""hori"",""left"",[99999,99999],[106,-106]]",circle,no_dis,hori,left,"[99999,99999]","[106,-106]",left,1,0.9595,,,,,,001,2025-03-10_17h04.47.492,SL_base,2021.2.3,Win32,100,,,25,0,25,0,1,,,,,,,,
,,"[""circle"",""red"",""vert"",""up"",[106,-106],[-106,106]]",circle,red,vert,up,"[106,-106]","[-106,106]",up,1,1.4792,,,,,,001,2025-03-10_17h04.47.492,SL_base,2021.2.3,Win32,100,,,26,0,26,0,1,,,,,,,,
,,"[""diamond"",""red"",""vert"",""up"",[-106,106],[-106,-106]]",diamond,red,vert,up,"[-106,106]","[-106,-106]",up,1,1.3117,,,,,,001,2025-03-10_17h04.47.492,SL_base,2021.2.3,Win32,100,,,27,0,27,0,1,,,,,,,,
,,"[""diamond"",""no_dis"",""vert"",""up"",[99999,99999],[150,0]]",diamond,no_dis,vert,up,"[99999,99999]","[150,0]",up,1,1.9764,,,,,,001,2025-03-10_17h04.47.492,SL_base,2021.2.3,Win32,100,,,28,0,28,0,1,,,,,,,,
,,"[""diamond"",""green"",""hori"",""left"",[106,-106],[-150,0]]",diamond,green,hori,left,"[106,-106]","[-150,0]",left,1,1.9786,,,,,,001,2025-03-10_17h04.47.492,SL_base,2021.2.3,Win32,100,,,29,0,29,0,1,,,,,,,,
,,"[""circle"",""green"",""hori"",""left"",[106,-106],[106,106]]",circle,green,hori,left,"[106,-106]","[106,106]",left,1,2.0432,,,,,,001,2025-03-10_17h04.47.492,SL_base,2021.2.3,Win32,100,,,30,0,30,0,1,,,,,,,,
,,"[""circle"",""red"",""hori"",""left"",[-106,-106],[106,106]]",circle,red,hori,left,"[-106,-106]","[106,106]",left,1,1.3575,,,,,,001,2025-03-10_17h04.47.492,SL_base,2021.2.3,Win32,100,,,31,0,31,0,1,,,,,,,,
,,"[""circle"",""red"",""hori"",""left"",[-150,0],[0,150]]",circle,red,hori,left,"[-150,0]","[0,150]",left,1,2.0545,,,,,,001,2025-03-10_17h04.47.492,SL_base,2021.2.3,Win32,100,,,32,0,32,0,1,,,,,,,,
,,"[""diamond"",""no_dis"",""hori"",""left"",[99999,99999],[106,106]]",diamond,no_dis,hori,left,"[99999,99999]","[106,106]",left,1,2.8286,,,,,,001,2025-03-10_17h04.47.492,SL_base,2021.2.3,Win32,100,,,33,0,33,0,1,,,,,,,,
,,"[""circle"",""no_dis"",""vert"",""up"",[99999,99999],[0,150]]",circle,no_dis,vert,up,"[99999,99999]","[0,150]",up,1,1.542,,,,,,001,2025-03-10_17h04.47.492,SL_base,2021.2.3,Win32,100,,,34,0,34,0,1,,,,,,,,
,,"[""diamond"",""no_dis"",""hori"",""left"",[99999,99999],[-106,106]]",diamond,no_dis,hori,left,"[99999,99999]","[-106,106]",left,1,0.8438,,,,,,001,2025-03-10_17h04.47.492,SL_base,2021.2.3,Win32,100,,,35,0,35,0,1,,,,,,,,
,,"[""circle"",""no_dis"",""vert"",""up"",[99999,99999],[-150,0]]",circle,no_dis,vert,up,"[99999,99999]","[-150,0]",up,1,1.0694,,,,,,001,2025-03-10_17h04.47.492,SL_base,2021.2.3,Win32,100,,,36,0,36,0,1,,,,,,,,
,,"[""diamond"",""red"",""hori"",""left"",[150,0],[0,150]]",diamond,red,hori,left,"[150,0]","[0,150]",left,1,1.0128,,,,,,001,2025-03-10_17h04.47.492,SL_base,2021.2.3,Win32,100,,,37,0,37,0,1,,,,,,,,
,,"[""diamond"",""green"",""vert"",""up"",[0,-150],[-106,-106]]",diamond,green,vert,up,"[0,-150]","[-106,-106]",up,1,1.1718,,,,,,001,2025-03-10_17h04.47.492,SL_base,2021.2.3,Win32,100,,,38,0,38,0,1,,,,,,,,
,,"[""diamond"",""red"",""vert"",""up"",[-150,0],[0,-150]]",diamond,red,vert,up,"[-150,0]","[0,-150]",up,1,0.8917,,,,,,001,2025-03-10_17h04.47.492,SL_base,2021.2.3,Win32,100,,,39,0,39,0,1,,,,,,,,
,,"[""circle"",""no_dis"",""vert"",""up"",[99999,99999],[-106,-106]]",circle,no_dis,vert,up,"[99999,99999]","[-106,-106]",up,1,1.0336,,,,,,001,2025-03-10_17h04.47.492,SL_base,2021.2.3,Win32,100,,,40,0,40,0,1,,,,,,,,
,,"[""circle"",""red"",""vert"",""up"",[-106,106],[106,-106]]",circle,red,vert,up,"[-106,106]","[106,-106]",up,1,0.8418,,,,,,001,2025-03-10_17h04.47.492,SL_base,2021.2.3,Win32,100,,,41,0,41,0,1,,,,,,,,
,,"[""circle"",""red"",""vert"",""up"",[150,0],[-150,0]]",circle,red,vert,up,"[150,0]","[-150,0]",up,1,0.8128,,,,,,001,2025-03-10_17h04.47.492,SL_base,2021.2.3,Win32,100,,,42,0,42,0,1,,,,,,,,
,,"[""circle"",""red"",""hori"",""left"",[150,0],[-150,0]]",circle,red,hori,left,"[150,0]","[-150,0]",left,1,0.899,,,,,,001,2025-03-10_17h04.47.492,SL_base,2021.2.3,Win32,100,,,43,0,43,0,1,,,,,,,,
,,"[""diamond"",""red"",""hori"",""left"",[150,0],[-106,-106]]",diamond,red,hori,left,"[150,0]","[-106,-106]",left,1,0.8349,,,,,,001,2025-03-10_17h04.47.492,SL_base,2021.2.3,Win32,100,,,44,0,44,0,1,,,,,,,,
,,"[""diamond"",""green"",""vert"",""up"",[106,106],[150,0]]",diamond,green,vert,up,"[106,106]","[150,0]",up,1,1.024,,,,,,001,2025-03-10_17h04.47.492,SL_base,2021.2.3,Win32,100,,,45,0,45,0,1,,,,,,,,
,,"[""diamond"",""red"",""hori"",""left"",[150,0],[0,150]]",diamond,red,hori,left,"[150,0]","[0,150]",left,1,0.9277,,,,,,001,2025-03-10_17h04.47.492,SL_base,2021.2.3,Win32,100,,,46,0,46,0,1,,,,,,,,
,,"[""diamond"",""green"",""vert"",""up"",[150,0],[-106,106]]",diamond,green,vert,up,"[150,0]","[-106,106]",up,1,0.9688,,,,,,001,2025-03-10_17h04.47.492,SL_base,2021.2.3,Win32,100,,,47,0,47,0,1,,,,,,,,
,,"[""diamond"",""red"",""vert"",""up"",[150,0],[-106,-106]]",diamond,red,vert,up,"[150,0]","[-106,-106]",up,1,1.7609,,,,,,001,2025-03-10_17h04.47.492,SL_base,2021.2.3,Win32,100,,,48,0,48,0,1,,,,,,,,
,,"[""diamond"",""red"",""vert"",""up"",[0,-150],[106,-106]]",diamond,red,vert,up,"[0,-150]","[106,-106]",up,1,1.2946,,,,,,001,2025-03-10_17h04.47.492,SL_base,2021.2.3,Win32,100,,,49,0,49,0,1,,,,,,,,
,,"[""circle"",""green"",""hori"",""left"",[-106,106],[106,-106]]",circle,green,hori,left,"[-106,106]","[106,-106]",left,1,0.9557,,,,,,001,2025-03-10_17h04.47.492,SL_base,2021.2.3,Win32,100,,,50,0,50,0,1,,,,,,,,
,,"[""diamond"",""green"",""hori"",""left"",[106,106],[106,-106]]",diamond,green,hori,left,"[106,106]","[106,-106]",left,1,1.1552,,,,,,001,2025-03-10_17h04.47.492,SL_base,2021.2.3,Win32,100,,,51,0,51,0,1,,,,,,,,
,,"[""diamond"",""red"",""vert"",""up"",[0,150],[150,0]]",diamond,red,vert,up,"[0,150]","[150,0]",up,1,0.8321,,,,,,001,2025-03-10_17h04.47.492,SL_base,2021.2.3,Win32,100,,,52,0,52,0,1,,,,,,,,
,,"[""circle"",""no_dis"",""hori"",""left"",[99999,99999],[-150,0]]",circle,no_dis,hori,left,"[99999,99999]","[-150,0]",left,1,1.5028,,,,,,001,2025-03-10_17h04.47.492,SL_base,2021.2.3,Win32,100,,,53,0,53,0,1,,,,,,,,
,,"[""diamond"",""red"",""hori"",""left"",[-106,-106],[0,150]]",diamond,red,hori,left,"[-106,-106]","[0,150]",left,1,1.0572,,,,,,001,2025-03-10_17h04.47.492,SL_base,2021.2.3,Win32,100,,,54,0,54,0,1,,,,,,,,
,,"[""diamond"",""red"",""hori"",""left"",[106,106],[150,0]]",diamond,red,hori,left,"[106,106]","[150,0]",left,1,0.8152,,,,,,001,2025-03-10_17h04.47.492,SL_base,2021.2.3,Win32,100,,,55,0,55,0,1,,,,,,,,
,,"[""diamond"",""green"",""hori"",""left"",[-106,-106],[-106,106]]",diamond,green,hori,left,"[-106,-106]","[-106,106]",left,1,1.2922,,,,,,001,2025-03-10_17h04.47.492,SL_base,2021.2.3,Win32,100,,,56,0,56,0,1,,,,,,,,
,,"[""circle"",""red"",""vert"",""up"",[106,-106],[0,150]]",circle,red,vert,up,"[106,-106]","[0,150]",up,1,2.0499,,,,,,001,2025-03-10_17h04.47.492,SL_base,2021.2.3,Win32,100,,,57,0,57,0,1,,,,,,,,
,,"[""diamond"",""no_dis"",""hori"",""left"",[99999,99999],[-150,0]]",diamond,no_dis,hori,left,"[99999,99999]","[-150,0]",left,1,0.8834,,,,,,001,2025-03-10_17h04.47.492,SL_base,2021.2.3,Win32,100,,,58,0,58,0,1,,,,,,,,
,,"[""diamond"",""no_dis"",""hori"",""left"",[99999,99999],[0,-150]]",diamond,no_dis,hori,left,"[99999,99999]","[0,-150]",left,1,0.8984,,,,,,001,2025-03-10_17h04.47.492,SL_base,2021.2.3,Win32,100,,,59,0,59,0,1,,,,,,,,
,,"[""circle"",""no_dis"",""vert"",""up"",[99999,99999],[0,150]]",circle,no_dis,vert,up,"[99999,99999]","[0,150]",up,1,0.851,,,,,,001,2025-03-10_17h04.47.492,SL_base,2021.2.3,Win32,100,,,60,0,60,0,1,,,,,,,,
,,"[""circle"",""red"",""vert"",""up"",[106,-106],[150,0]]",circle,red,vert,up,"[106,-106]","[150,0]",up,1,0.9762,,,,,,001,2025-03-10_17h04.47.492,SL_base,2021.2.3,Win32,100,,,61,0,61,0,1,,,,,,,,
,,"[""diamond"",""red"",""vert"",""up"",[0,-150],[106,106]]",diamond,red,vert,up,"[0,-150]","[106,106]",up,1,0.8816,,,,,,001,2025-03-10_17h04.47.492,SL_base,2021.2.3,Win32,100,,,62,0,62,0,1,,,,,,,,
,,"[""diamond"",""green"",""hori"",""left"",[0,-150],[106,106]]",diamond,green,hori,left,"[0,-150]","[106,106]",left,1,0.8726,,,,,,001,2025-03-10_17h04.47.492,SL_base,2021.2.3,Win32,100,,,63,0,63,0,1,,,,,,,,
,,"[""diamond"",""green"",""hori"",""left"",[-106,106],[106,106]]",diamond,green,hori,left,"[-106,106]","[106,106]",left,1,0.8105,,,,,,001,2025-03-10_17h04.47.492,SL_base,2021.2.3,Win32,100,,,64,0,64,0,1,,,,,,,,
,,"[""diamond"",""red"",""hori"",""left"",[150,0],[-106,-106]]",diamond,red,hori,left,"[150,0]","[-106,-106]",left,1,1.4016,,,,,,001,2025-03-10_17h04.47.492,SL_base,2021.2.3,Win32,100,,,65,0,65,0,1,,,,,,,,
,,"[""diamond"",""green"",""vert"",""up"",[0,-150],[0,150]]",diamond,green,vert,up,"[0,-150]","[0,150]",up,1,0.8546,,,,,,001,2025-03-10_17h04.47.492,SL_base,2021.2.3,Win32,100,,,66,0,66,0,1,,,,,,,,
,,"[""circle"",""green"",""vert"",""up"",[-106,106],[106,106]]",circle,green,vert,up,"[-106,106]","[106,106]",up,1,1.3693,,,,,,001,2025-03-10_17h04.47.492,SL_base,2021.2.3,Win32,100,,,67,0,67,0,1,,,,,,,,
,,"[""circle"",""green"",""vert"",""up"",[0,150],[106,-106]]",circle,green,vert,up,"[0,150]","[106,-106]",up,1,1.2991,,,,,,001,2025-03-10_17h04.47.492,SL_base,2021.2.3,Win32,100,,,68,0,68,0,1,,,,,,,,
,,"[""circle"",""green"",""hori"",""left"",[150,0],[0,150]]",circle,green,hori,left,"[150,0]","[0,150]",left,1,1.1996,,,,,,001,2025-03-10_17h04.47.492,SL_base,2021.2.3,Win32,100,,,69,0,69,0,1,,,,,,,,
,,"[""diamond"",""no_dis"",""vert"",""up"",[99999,99999],[0,-150]]",diamond,no_dis,vert,up,"[99999,99999]","[0,-150]",up,1,1.3169,,,,,,001,2025-03-10_17h04.47.492,SL_base,2021.2.3,Win32,100,,,70,0,70,0,1,,,,,,,,
,,"[""diamond"",""green"",""hori"",""left"",[150,0],[-150,0]]",diamond,green,hori,left,"[150,0]","[-150,0]",left,1,1.5684,,,,,,001,2025-03-10_17h04.47.492,SL_base,2021.2.3,Win32,100,,,71,0,71,0,1,,,,,,,,
,,"[""diamond"",""no_dis"",""vert"",""up"",[99999,99999],[0,150]]",diamond,no_dis,vert,up,"[99999,99999]","[0,150]",up,1,1.0091,,,,,,001,2025-03-10_17h04.47.492,SL_base,2021.2.3,Win32,100,,,72,0,72,0,1,,,,,,,,
,,"[""diamond"",""green"",""hori"",""left"",[0,150],[150,0]]",diamond,green,hori,left,"[0,150]","[150,0]",left,1,1.3845,,,,,,001,2025-03-10_17h04.47.492,SL_base,2021.2.3,Win32,100,,,73,0,73,0,1,,,,,,,,
,,"[""circle"",""no_dis"",""vert"",""up"",[99999,99999],[106,-106]]",circle,no_dis,vert,up,"[99999,99999]","[106,-106]",up,1,1.1242,,,,,,001,2025-03-10_17h04.47.492,SL_base,2021.2.3,Win32,100,,,74,0,74,0,1,,,,,,,,
,,"[""circle"",""green"",""vert"",""up"",[150,0],[106,-106]]",circle,green,vert,up,"[150,0]","[106,-106]",up,1,1.1995,,,,,,001,2025-03-10_17h04.47.492,SL_base,2021.2.3,Win32,100,,,75,0,75,0,1,,,,,,,,
,,"[""diamond"",""no_dis"",""hori"",""left"",[99999,99999],[106,-106]]",diamond,no_dis,hori,left,"[99999,99999]","[106,-106]",left,1,0.8907,,,,,,001,2025-03-10_17h04.47.492,SL_base,2021.2.3,Win32,100,,,76,0,76,0,1,,,,,,,,
,,"[""diamond"",""green"",""hori"",""left"",[106,-106],[-150,0]]",diamond,green,hori,left,"[106,-106]","[-150,0]",left,1,1.5966,,,,,,001,2025-03-10_17h04.47.492,SL_base,2021.2.3,Win32,100,,,77,0,77,0,1,,,,,,,,
,,"[""circle"",""red"",""hori"",""left"",[150,0],[0,150]]",circle,red,hori,left,"[150,0]","[0,150]",left,1,1.1305,,,,,,001,2025-03-10_17h04.47.492,SL_base,2021.2.3,Win32,100,,,78,0,78,0,1,,,,,,,,
,,"[""circle"",""green"",""hori"",""left"",[150,0],[-106,106]]",circle,green,hori,left,"[150,0]","[-106,106]",,0,,,,,,,001,2025-03-10_17h04.47.492,SL_base,2021.2.3,Win32,100,,,79,0,79,0,1,,,,,,,,
,,"[""diamond"",""no_dis"",""vert"",""up"",[99999,99999],[150,0]]",diamond,no_dis,vert,up,"[99999,99999]","[150,0]",up,1,0.9386,,,,,,001,2025-03-10_17h04.47.492,SL_base,2021.2.3,Win32,100,,,80,0,80,0,1,,,,,,,,
,,"[""circle"",""no_dis"",""hori"",""left"",[99999,99999],[106,-106]]",circle,no_dis,hori,left,"[99999,99999]","[106,-106]",left,1,0.9224,,,,,,001,2025-03-10_17h04.47.492,SL_base,2021.2.3,Win32,100,,,81,0,81,0,1,,,,,,,,
,,"[""circle"",""red"",""vert"",""up"",[150,0],[-106,106]]",circle,red,vert,up,"[150,0]","[-106,106]",up,1,1.2695,,,,,,001,2025-03-10_17h04.47.492,SL_base,2021.2.3,Win32,100,,,82,0,82,0,1,,,,,,,,
,,"[""diamond"",""red"",""vert"",""up"",[150,0],[-106,106]]",diamond,red,vert,up,"[150,0]","[-106,106]",up,1,1.5943,,,,,,001,2025-03-10_17h04.47.492,SL_base,2021.2.3,Win32,100,,,83,0,83,0,1,,,,,,,,
,,"[""circle"",""green"",""hori"",""left"",[106,-106],[-150,0]]",circle,green,hori,left,"[106,-106]","[-150,0]",left,1,1.2068,,,,,,001,2025-03-10_17h04.47.492,SL_base,2021.2.3,Win32,100,,,84,0,84,0,1,,,,,,,,
,,"[""circle"",""no_dis"",""hori"",""left"",[99999,99999],[-106,106]]",circle,no_dis,hori,left,"[99999,99999]","[-106,106]",left,1,1.5798,,,,,,001,2025-03-10_17h04.47.492,SL_base,2021.2.3,Win32,100,,,85,0,85,0,1,,,,,,,,
,,"[""diamond"",""green"",""hori"",""left"",[-150,0],[-106,-106]]",diamond,green,hori,left,"[-150,0]","[-106,-106]",left,1,1.0362,,,,,,001,2025-03-10_17h04.47.492,SL_base,2021.2.3,Win32,100,,,86,0,86,0,1,,,,,,,,
,,"[""circle"",""green"",""hori"",""left"",[-150,0],[106,106]]",circle,green,hori,left,"[-150,0]","[106,106]",up,0,1.3909,,,,,,001,2025-03-10_17h04.47.492,SL_base,2021.2.3,Win32,100,,,87,0,87,0,1,,,,,,,,
,,"[""diamond"",""red"",""hori"",""left"",[150,0],[0,-150]]",diamond,red,hori,left,"[150,0]","[0,-150]",left,1,1.0954,,,,,,001,2025-03-10_17h04.47.492,SL_base,2021.2.3,Win32,100,,,88,0,88,0,1,,,,,,,,
,,"[""circle"",""no_dis"",""vert"",""up"",[99999,99999],[-106,-106]]",circle,no_dis,vert,up,"[99999,99999]","[-106,-106]",up,1,1.2566,,,,,,001,2025-03-10_17h04.47.492,SL_base,2021.2.3,Win32,100,,,89,0,89,0,1,,,,,,,,
,,"[""circle"",""red"",""vert"",""up"",[0,150],[-150,0]]",circle,red,vert,up,"[0,150]","[-150,0]",up,1,2.0268,,,,,,001,2025-03-10_17h04.47.492,SL_base,2021.2.3,Win32,100,,,90,0,90,0,1,,,,,,,,
,,"[""circle"",""red"",""hori"",""left"",[0,150],[-150,0]]",circle,red,hori,left,"[0,150]","[-150,0]",left,1,1.2181,,,,,,001,2025-03-10_17h04.47.492,SL_base,2021.2.3,Win32,100,,,91,0,91,0,1,,,,,,,,
,,"[""diamond"",""no_dis"",""vert"",""up"",[99999,99999],[150,0]]",diamond,no_dis,vert,up,"[99999,99999]","[150,0]",up,1,1.056,,,,,,001,2025-03-10_17h04.47.492,SL_base,2021.2.3,Win32,100,,,92,0,92,0,1,,,,,,,,
,,"[""circle"",""green"",""hori"",""left"",[150,0],[-106,106]]",circle,green,hori,left,"[150,0]","[-106,106]",left,1,0.987,,,,,,001,2025-03-10_17h04.47.492,SL_base,2021.2.3,Win32,100,,,93,0,93,0,1,,,,,,,,
,,"[""circle"",""red"",""hori"",""left"",[0,150],[-106,106]]",circle,red,hori,left,"[0,150]","[-106,106]",left,1,0.6482,,,,,,001,2025-03-10_17h04.47.492,SL_base,2021.2.3,Win32,100,,,94,0,94,0,1,,,,,,,,
,,"[""circle"",""no_dis"",""vert"",""up"",[99999,99999],[0,-150]]",circle,no_dis,vert,up,"[99999,99999]","[0,-150]",up,1,0.7702,,,,,,001,2025-03-10_17h04.47.492,SL_base,2021.2.3,Win32,100,,,95,0,95,0,1,,,,,,,,
,,"[""diamond"",""green"",""vert"",""up"",[150,0],[-106,106]]",diamond,green,vert,up,"[150,0]","[-106,106]",up,1,1.0682,,,,,,001,2025-03-10_17h04.47.492,SL_base,2021.2.3,Win32,100,,,96,0,96,0,1,,,,,,,,
,,"[""circle"",""no_dis"",""hori"",""left"",[99999,99999],[150,0]]",circle,no_dis,hori,left,"[99999,99999]","[150,0]",left,1,0.667,,,,,,001,2025-03-10_17h04.47.492,SL_base,2021.2.3,Win32,100,,,97,0,97,0,1,,,,,,,,
,,"[""circle"",""green"",""vert"",""up"",[-106,106],[-150,0]]",circle,green,vert,up,"[-106,106]","[-150,0]",up,1,0.7863,,,,,,001,2025-03-10_17h04.47.492,SL_base,2021.2.3,Win32,100,,,98,0,98,0,1,,,,,,,,
,,"[""circle"",""green"",""hori"",""left"",[150,0],[0,150]]",circle,green,hori,left,"[150,0]","[0,150]",left,1,0.7946,,,,,,001,2025-03-10_17h04.47.492,SL_base,2021.2.3,Win32,100,,,99,0,99,0,1,,,,,,,,
,,"[""circle"",""red"",""hori"",""left"",[106,106],[106,-106]]",circle,red,hori,left,"[106,106]","[106,-106]",left,1,0.7811,,,,,,001,2025-03-10_17h04.47.492,SL_base,2021.2.3,Win32,100,,,100,0,100,0,1,,,,,,,,
,,"[""circle"",""no_dis"",""hori"",""left"",[99999,99999],[-106,-106]]",circle,no_dis,hori,left,"[99999,99999]","[-106,-106]",left,1,0.7112,,,,,,001,2025-03-10_17h04.47.492,SL_base,2021.2.3,Win32,100,,,101,0,101,0,1,,,,,,,,
,,"[""diamond"",""red"",""hori"",""left"",[106,-106],[106,106]]",diamond,red,hori,left,"[106,-106]","[106,106]",left,1,2.1118,,,,,,001,2025-03-10_17h04.47.492,SL_base,2021.2.3,Win32,100,,,102,0,102,0,1,,,,,,,,
,,"[""diamond"",""green"",""vert"",""up"",[150,0],[106,-106]]",diamond,green,vert,up,"[150,0]","[106,-106]",up,1,0.9779,,,,,,001,2025-03-10_17h04.47.492,SL_base,2021.2.3,Win32,100,,,103,0,103,0,1,,,,,,,,
,,"[""circle"",""green"",""vert"",""up"",[106,106],[-106,106]]",circle,green,vert,up,"[106,106]","[-106,106]",up,1,1.2195,,,,,,001,2025-03-10_17h04.47.492,SL_base,2021.2.3,Win32,100,,,104,0,104,0,1,,,,,,,,
,,"[""diamond"",""red"",""vert"",""up"",[106,106],[-150,0]]",diamond,red,vert,up,"[106,106]","[-150,0]",up,1,0.9055,,,,,,001,2025-03-10_17h04.47.492,SL_base,2021.2.3,Win32,100,,,105,0,105,0,1,,,,,,,,
,,"[""diamond"",""red"",""hori"",""left"",[0,-150],[150,0]]",diamond,red,hori,left,"[0,-150]","[150,0]",left,1,1.1895,,,,,,001,2025-03-10_17h04.47.492,SL_base,2021.2.3,Win32,100,,,106,0,106,0,1,,,,,,,,
,,"[""circle"",""no_dis"",""vert"",""up"",[99999,99999],[-150,0]]",circle,no_dis,vert,up,"[99999,99999]","[-150,0]",up,1,1.3295,,,,,,001,2025-03-10_17h04.47.492,SL_base,2021.2.3,Win32,100,,,107,0,107,0,1,,,,,,,,
,,"[""diamond"",""no_dis"",""vert"",""up"",[99999,99999],[-106,106]]",diamond,no_dis,vert,up,"[99999,99999]","[-106,106]",up,1,1.2428,,,,,,001,2025-03-10_17h04.47.492,SL_base,2021.2.3,Win32,100,,,108,0,108,0,1,,,,,,,,
