﻿key_resp.keys,key_resp.rt,trial_para,tar_shape,dis_color_condi,tar_line,cor_resp,dis_loc,tar_loc,resp.keys,resp.corr,resp.rt,trials.thisRepN,trials.thisTrialN,trials.thisN,trials.thisIndex,trials.ran,participant,date,expName,psychopyVersion,OS,frameRate,key_resp_2.keys,key_resp_2.rt,trials_2.thisRepN,trials_2.thisTrialN,trials_2.thisN,trials_2.thisIndex,trials_2.ran,block_num,key_resp_3.keys,key_resp_3.rt,trials_3.thisRepN,trials_3.thisTrialN,trials_3.thisN,trials_3.thisIndex,trials_3.ran
space,20.1389,"[""diamond"",""red"",""hori"",""left"",[-106,106],[0,-150]]",diamond,red,hori,left,"[-106,106]","[0,-150]",left,1,2.3228,0,0,0,0,1,001,2025-03-17_13h06.44.443,SL_base,2021.2.3,Win32,60.0024001,,,,,,,,,,,,,,,
,,"[""diamond"",""red"",""hori"",""left"",[-106,106],[0,-150]]",diamond,red,hori,left,"[-106,106]","[0,-150]",up,0,1.9499,1,0,1,0,1,001,2025-03-17_13h06.44.443,SL_base,2021.2.3,Win32,60.0024001,,,,,,,,,,,,,,,
,,"[""diamond"",""no_dis"",""hori"",""left"",[99999,99999],[-106,-106]]",diamond,no_dis,hori,left,"[99999,99999]","[-106,-106]",left,1,1.6489,2,0,2,0,1,001,2025-03-17_13h06.44.443,SL_base,2021.2.3,Win32,60.0024001,,,,,,,,,,,,,,,
,,"[""diamond"",""green"",""hori"",""left"",[150,0],[-106,106]]",diamond,green,hori,left,"[150,0]","[-106,106]",left,1,1.7549,3,0,3,0,1,001,2025-03-17_13h06.44.443,SL_base,2021.2.3,Win32,60.0024001,,,,,,,,,,,,,,,
,,"[""circle"",""no_dis"",""hori"",""left"",[99999,99999],[106,-106]]",circle,no_dis,hori,left,"[99999,99999]","[106,-106]",left,1,2.6261,4,0,4,0,1,001,2025-03-17_13h06.44.443,SL_base,2021.2.3,Win32,60.0024001,,,,,,,,,,,,,,,
,,"[""circle"",""no_dis"",""hori"",""left"",[99999,99999],[0,150]]",circle,no_dis,hori,left,"[99999,99999]","[0,150]",left,1,1.8193,5,0,5,0,1,001,2025-03-17_13h06.44.443,SL_base,2021.2.3,Win32,60.0024001,,,,,,,,,,,,,,,
,,"[""circle"",""green"",""vert"",""up"",[106,-106],[0,-150]]",circle,green,vert,up,"[106,-106]","[0,-150]",up,1,2.0077,6,0,6,0,1,001,2025-03-17_13h06.44.443,SL_base,2021.2.3,Win32,60.0024001,,,,,,,,,,,,,,,
,,"[""diamond"",""green"",""hori"",""left"",[106,-106],[-150,0]]",diamond,green,hori,left,"[106,-106]","[-150,0]",left,1,1.5079,7,0,7,0,1,001,2025-03-17_13h06.44.443,SL_base,2021.2.3,Win32,60.0024001,,,,,,,,,,,,,,,
,,"[""diamond"",""green"",""vert"",""up"",[-106,-106],[150,0]]",diamond,green,vert,up,"[-106,-106]","[150,0]",up,1,2.5239,8,0,8,0,1,001,2025-03-17_13h06.44.443,SL_base,2021.2.3,Win32,60.0024001,,,,,,,,,,,,,,,
,,"[""diamond"",""no_dis"",""vert"",""up"",[99999,99999],[150,0]]",diamond,no_dis,vert,up,"[99999,99999]","[150,0]",up,1,1.4271,9,0,9,0,1,001,2025-03-17_13h06.44.443,SL_base,2021.2.3,Win32,60.0024001,,,,,,,,,,,,,,,
,,"[""diamond"",""red"",""hori"",""left"",[-106,106],[0,-150]]",diamond,red,hori,left,"[-106,106]","[0,-150]",left,1,1.5791,,,,,,001,2025-03-17_13h06.44.443,SL_base,2021.2.3,Win32,60.0024001,space,1.5144,0,0,0,0,1,,,,,,,,
,,"[""diamond"",""red"",""hori"",""left"",[-106,106],[0,-150]]",diamond,red,hori,left,"[-106,106]","[0,-150]",left,1,1.1792,,,,,,001,2025-03-17_13h06.44.443,SL_base,2021.2.3,Win32,60.0024001,,,1,0,1,0,1,,,,,,,,
,,"[""diamond"",""no_dis"",""hori"",""left"",[99999,99999],[-106,-106]]",diamond,no_dis,hori,left,"[99999,99999]","[-106,-106]",left,1,1.2935,,,,,,001,2025-03-17_13h06.44.443,SL_base,2021.2.3,Win32,60.0024001,,,2,0,2,0,1,,,,,,,,
,,"[""diamond"",""green"",""hori"",""left"",[150,0],[-106,106]]",diamond,green,hori,left,"[150,0]","[-106,106]",left,1,1.3352,,,,,,001,2025-03-17_13h06.44.443,SL_base,2021.2.3,Win32,60.0024001,,,3,0,3,0,1,,,,,,,,
,,"[""circle"",""no_dis"",""hori"",""left"",[99999,99999],[106,-106]]",circle,no_dis,hori,left,"[99999,99999]","[106,-106]",left,1,1.4065,,,,,,001,2025-03-17_13h06.44.443,SL_base,2021.2.3,Win32,60.0024001,,,4,0,4,0,1,,,,,,,,
,,"[""circle"",""no_dis"",""hori"",""left"",[99999,99999],[0,150]]",circle,no_dis,hori,left,"[99999,99999]","[0,150]",left,1,2.5759,,,,,,001,2025-03-17_13h06.44.443,SL_base,2021.2.3,Win32,60.0024001,,,5,0,5,0,1,,,,,,,,
,,"[""circle"",""green"",""vert"",""up"",[106,-106],[0,-150]]",circle,green,vert,up,"[106,-106]","[0,-150]",up,1,2.6433,,,,,,001,2025-03-17_13h06.44.443,SL_base,2021.2.3,Win32,60.0024001,,,6,0,6,0,1,,,,,,,,
,,"[""diamond"",""green"",""hori"",""left"",[106,-106],[-150,0]]",diamond,green,hori,left,"[106,-106]","[-150,0]",left,1,1.6619,,,,,,001,2025-03-17_13h06.44.443,SL_base,2021.2.3,Win32,60.0024001,,,7,0,7,0,1,,,,,,,,
,,"[""diamond"",""green"",""vert"",""up"",[-106,-106],[150,0]]",diamond,green,vert,up,"[-106,-106]","[150,0]",up,1,1.8072,,,,,,001,2025-03-17_13h06.44.443,SL_base,2021.2.3,Win32,60.0024001,,,8,0,8,0,1,,,,,,,,
,,"[""diamond"",""no_dis"",""vert"",""up"",[99999,99999],[150,0]]",diamond,no_dis,vert,up,"[99999,99999]","[150,0]",up,1,1.8369,,,,,,001,2025-03-17_13h06.44.443,SL_base,2021.2.3,Win32,60.0024001,,,9,0,9,0,1,,,,,,,,
,,"[""circle"",""no_dis"",""vert"",""up"",[99999,99999],[106,106]]",circle,no_dis,vert,up,"[99999,99999]","[106,106]",up,1,1.8918,,,,,,001,2025-03-17_13h06.44.443,SL_base,2021.2.3,Win32,60.0024001,,,10,0,10,0,1,,,,,,,,
,,"[""diamond"",""no_dis"",""hori"",""left"",[99999,99999],[-150,0]]",diamond,no_dis,hori,left,"[99999,99999]","[-150,0]",left,1,2.2194,,,,,,001,2025-03-17_13h06.44.443,SL_base,2021.2.3,Win32,60.0024001,,,11,0,11,0,1,,,,,,,,
,,"[""circle"",""no_dis"",""hori"",""left"",[99999,99999],[150,0]]",circle,no_dis,hori,left,"[99999,99999]","[150,0]",left,1,2.1587,,,,,,001,2025-03-17_13h06.44.443,SL_base,2021.2.3,Win32,60.0024001,,,12,0,12,0,1,,,,,,,,
,,"[""diamond"",""no_dis"",""hori"",""left"",[99999,99999],[0,-150]]",diamond,no_dis,hori,left,"[99999,99999]","[0,-150]",left,1,1.4175,,,,,,001,2025-03-17_13h06.44.443,SL_base,2021.2.3,Win32,60.0024001,,,13,0,13,0,1,,,,,,,,
,,"[""circle"",""no_dis"",""hori"",""left"",[99999,99999],[-106,-106]]",circle,no_dis,hori,left,"[99999,99999]","[-106,-106]",left,1,2.3846,,,,,,001,2025-03-17_13h06.44.443,SL_base,2021.2.3,Win32,60.0024001,,,14,0,14,0,1,,,,,,,,
,,"[""diamond"",""green"",""vert"",""up"",[-150,0],[-106,106]]",diamond,green,vert,up,"[-150,0]","[-106,106]",up,1,1.3926,,,,,,001,2025-03-17_13h06.44.443,SL_base,2021.2.3,Win32,60.0024001,,,15,0,15,0,1,,,,,,,,
,,"[""circle"",""green"",""vert"",""up"",[-150,0],[0,150]]",circle,green,vert,up,"[-150,0]","[0,150]",up,1,1.9009,,,,,,001,2025-03-17_13h06.44.443,SL_base,2021.2.3,Win32,60.0024001,,,16,0,16,0,1,,,,,,,,
,,"[""diamond"",""green"",""hori"",""left"",[106,-106],[0,-150]]",diamond,green,hori,left,"[106,-106]","[0,-150]",left,1,2.0454,,,,,,001,2025-03-17_13h06.44.443,SL_base,2021.2.3,Win32,60.0024001,,,17,0,17,0,1,,,,,,,,
,,"[""diamond"",""green"",""hori"",""left"",[-150,0],[0,-150]]",diamond,green,hori,left,"[-150,0]","[0,-150]",left,1,1.5952,,,,,,001,2025-03-17_13h06.44.443,SL_base,2021.2.3,Win32,60.0024001,,,18,0,18,0,1,,,,,,,,
,,"[""diamond"",""red"",""vert"",""up"",[0,150],[-106,106]]",diamond,red,vert,up,"[0,150]","[-106,106]",up,1,1.5684,,,,,,001,2025-03-17_13h06.44.443,SL_base,2021.2.3,Win32,60.0024001,,,19,0,19,0,1,,,,,,,,
,,"[""circle"",""red"",""vert"",""up"",[106,106],[106,-106]]",circle,red,vert,up,"[106,106]","[106,-106]",up,1,2.0048,,,,,,001,2025-03-17_13h06.44.443,SL_base,2021.2.3,Win32,60.0024001,,,20,0,20,0,1,,,,,,,,
,,"[""circle"",""green"",""vert"",""up"",[106,106],[0,-150]]",circle,green,vert,up,"[106,106]","[0,-150]",up,1,2.2374,,,,,,001,2025-03-17_13h06.44.443,SL_base,2021.2.3,Win32,60.0024001,,,21,0,21,0,1,,,,,,,,
,,"[""circle"",""red"",""vert"",""up"",[106,-106],[150,0]]",circle,red,vert,up,"[106,-106]","[150,0]",up,1,1.9325,,,,,,001,2025-03-17_13h06.44.443,SL_base,2021.2.3,Win32,60.0024001,,,22,0,22,0,1,,,,,,,,
,,"[""circle"",""red"",""vert"",""up"",[106,-106],[0,-150]]",circle,red,vert,up,"[106,-106]","[0,-150]",up,1,1.5912,,,,,,001,2025-03-17_13h06.44.443,SL_base,2021.2.3,Win32,60.0024001,,,23,0,23,0,1,,,,,,,,
,,"[""diamond"",""no_dis"",""hori"",""left"",[99999,99999],[106,-106]]",diamond,no_dis,hori,left,"[99999,99999]","[106,-106]",left,1,1.6307,,,,,,001,2025-03-17_13h06.44.443,SL_base,2021.2.3,Win32,60.0024001,,,24,0,24,0,1,,,,,,,,
,,"[""circle"",""red"",""vert"",""up"",[150,0],[-150,0]]",circle,red,vert,up,"[150,0]","[-150,0]",up,1,2.2745,,,,,,001,2025-03-17_13h06.44.443,SL_base,2021.2.3,Win32,60.0024001,,,25,0,25,0,1,,,,,,,,
,,"[""circle"",""no_dis"",""vert"",""up"",[99999,99999],[-150,0]]",circle,no_dis,vert,up,"[99999,99999]","[-150,0]",up,1,2.0568,,,,,,001,2025-03-17_13h06.44.443,SL_base,2021.2.3,Win32,60.0024001,,,26,0,26,0,1,,,,,,,,
,,"[""circle"",""no_dis"",""vert"",""up"",[99999,99999],[0,-150]]",circle,no_dis,vert,up,"[99999,99999]","[0,-150]",up,1,1.6848,,,,,,001,2025-03-17_13h06.44.443,SL_base,2021.2.3,Win32,60.0024001,,,27,0,27,0,1,,,,,,,,
,,"[""diamond"",""red"",""vert"",""up"",[106,-106],[-150,0]]",diamond,red,vert,up,"[106,-106]","[-150,0]",up,1,1.5846,,,,,,001,2025-03-17_13h06.44.443,SL_base,2021.2.3,Win32,60.0024001,,,28,0,28,0,1,,,,,,,,
,,"[""circle"",""green"",""vert"",""up"",[-106,-106],[106,-106]]",circle,green,vert,up,"[-106,-106]","[106,-106]",up,1,2.1018,,,,,,001,2025-03-17_13h06.44.443,SL_base,2021.2.3,Win32,60.0024001,,,29,0,29,0,1,,,,,,,,
,,"[""circle"",""no_dis"",""hori"",""left"",[99999,99999],[-106,106]]",circle,no_dis,hori,left,"[99999,99999]","[-106,106]",left,1,1.0184,,,,,,001,2025-03-17_13h06.44.443,SL_base,2021.2.3,Win32,60.0024001,,,30,0,30,0,1,,,,,,,,
,,"[""diamond"",""no_dis"",""hori"",""left"",[99999,99999],[106,-106]]",diamond,no_dis,hori,left,"[99999,99999]","[106,-106]",left,1,1.2258,,,,,,001,2025-03-17_13h06.44.443,SL_base,2021.2.3,Win32,60.0024001,,,31,0,31,0,1,,,,,,,,
,,"[""diamond"",""green"",""vert"",""up"",[106,106],[150,0]]",diamond,green,vert,up,"[106,106]","[150,0]",up,1,1.5805,,,,,,001,2025-03-17_13h06.44.443,SL_base,2021.2.3,Win32,60.0024001,,,32,0,32,0,1,,,,,,,,
,,"[""diamond"",""green"",""vert"",""up"",[-150,0],[0,-150]]",diamond,green,vert,up,"[-150,0]","[0,-150]",up,1,1.4203,,,,,,001,2025-03-17_13h06.44.443,SL_base,2021.2.3,Win32,60.0024001,,,33,0,33,0,1,,,,,,,,
,,"[""diamond"",""green"",""vert"",""up"",[-106,106],[-106,-106]]",diamond,green,vert,up,"[-106,106]","[-106,-106]",up,1,1.3793,,,,,,001,2025-03-17_13h06.44.443,SL_base,2021.2.3,Win32,60.0024001,,,34,0,34,0,1,,,,,,,,
,,"[""diamond"",""no_dis"",""hori"",""left"",[99999,99999],[-106,106]]",diamond,no_dis,hori,left,"[99999,99999]","[-106,106]",left,1,1.2956,,,,,,001,2025-03-17_13h06.44.443,SL_base,2021.2.3,Win32,60.0024001,,,35,0,35,0,1,,,,,,,,
,,"[""circle"",""red"",""hori"",""left"",[106,-106],[0,150]]",circle,red,hori,left,"[106,-106]","[0,150]",up,0,2.1223,,,,,,001,2025-03-17_13h06.44.443,SL_base,2021.2.3,Win32,60.0024001,,,36,0,36,0,1,,,,,,,,
,,"[""diamond"",""no_dis"",""vert"",""up"",[99999,99999],[0,150]]",diamond,no_dis,vert,up,"[99999,99999]","[0,150]",up,1,1.8593,,,,,,001,2025-03-17_13h06.44.443,SL_base,2021.2.3,Win32,60.0024001,,,37,0,37,0,1,,,,,,,,
,,"[""circle"",""green"",""hori"",""left"",[0,-150],[106,106]]",circle,green,hori,left,"[0,-150]","[106,106]",left,1,1.9849,,,,,,001,2025-03-17_13h06.44.443,SL_base,2021.2.3,Win32,60.0024001,,,38,0,38,0,1,,,,,,,,
,,"[""circle"",""no_dis"",""vert"",""up"",[99999,99999],[0,-150]]",circle,no_dis,vert,up,"[99999,99999]","[0,-150]",up,1,2.0676,,,,,,001,2025-03-17_13h06.44.443,SL_base,2021.2.3,Win32,60.0024001,,,39,0,39,0,1,,,,,,,,
,,"[""diamond"",""red"",""vert"",""up"",[-106,106],[0,150]]",diamond,red,vert,up,"[-106,106]","[0,150]",up,1,2.2275,,,,,,001,2025-03-17_13h06.44.443,SL_base,2021.2.3,Win32,60.0024001,,,40,0,40,0,1,,,,,,,,
,,"[""diamond"",""red"",""hori"",""left"",[-150,0],[106,-106]]",diamond,red,hori,left,"[-150,0]","[106,-106]",left,1,1.8125,,,,,,001,2025-03-17_13h06.44.443,SL_base,2021.2.3,Win32,60.0024001,,,41,0,41,0,1,,,,,,,,
,,"[""circle"",""red"",""vert"",""up"",[-150,0],[106,106]]",circle,red,vert,up,"[-150,0]","[106,106]",up,1,2.0772,,,,,,001,2025-03-17_13h06.44.443,SL_base,2021.2.3,Win32,60.0024001,,,42,0,42,0,1,,,,,,,,
,,"[""diamond"",""red"",""vert"",""up"",[-106,-106],[0,-150]]",diamond,red,vert,up,"[-106,-106]","[0,-150]",up,1,1.7864,,,,,,001,2025-03-17_13h06.44.443,SL_base,2021.2.3,Win32,60.0024001,,,43,0,43,0,1,,,,,,,,
,,"[""diamond"",""red"",""hori"",""left"",[106,106],[0,150]]",diamond,red,hori,left,"[106,106]","[0,150]",left,1,1.7886,,,,,,001,2025-03-17_13h06.44.443,SL_base,2021.2.3,Win32,60.0024001,,,44,0,44,0,1,,,,,,,,
,,"[""diamond"",""no_dis"",""hori"",""left"",[99999,99999],[-150,0]]",diamond,no_dis,hori,left,"[99999,99999]","[-150,0]",left,1,1.5047,,,,,,001,2025-03-17_13h06.44.443,SL_base,2021.2.3,Win32,60.0024001,,,45,0,45,0,1,,,,,,,,
,,"[""circle"",""no_dis"",""vert"",""up"",[99999,99999],[0,150]]",circle,no_dis,vert,up,"[99999,99999]","[0,150]",up,1,1.4585,,,,,,001,2025-03-17_13h06.44.443,SL_base,2021.2.3,Win32,60.0024001,,,46,0,46,0,1,,,,,,,,
,,"[""circle"",""red"",""vert"",""up"",[106,106],[-150,0]]",circle,red,vert,up,"[106,106]","[-150,0]",up,1,1.3189,,,,,,001,2025-03-17_13h06.44.443,SL_base,2021.2.3,Win32,60.0024001,,,47,0,47,0,1,,,,,,,,
,,"[""circle"",""no_dis"",""hori"",""left"",[99999,99999],[-150,0]]",circle,no_dis,hori,left,"[99999,99999]","[-150,0]",left,1,1.7045,,,,,,001,2025-03-17_13h06.44.443,SL_base,2021.2.3,Win32,60.0024001,,,48,0,48,0,1,,,,,,,,
,,"[""diamond"",""green"",""vert"",""up"",[106,-106],[0,150]]",diamond,green,vert,up,"[106,-106]","[0,150]",up,1,1.4894,,,,,,001,2025-03-17_13h06.44.443,SL_base,2021.2.3,Win32,60.0024001,,,49,0,49,0,1,,,,,,,,
,,"[""circle"",""green"",""hori"",""left"",[-106,-106],[106,106]]",circle,green,hori,left,"[-106,-106]","[106,106]",left,1,1.4402,,,,,,001,2025-03-17_13h06.44.443,SL_base,2021.2.3,Win32,60.0024001,,,50,0,50,0,1,,,,,,,,
,,"[""diamond"",""no_dis"",""vert"",""up"",[99999,99999],[0,150]]",diamond,no_dis,vert,up,"[99999,99999]","[0,150]",up,1,1.6047,,,,,,001,2025-03-17_13h06.44.443,SL_base,2021.2.3,Win32,60.0024001,,,51,0,51,0,1,,,,,,,,
,,"[""diamond"",""red"",""hori"",""left"",[106,-106],[0,-150]]",diamond,red,hori,left,"[106,-106]","[0,-150]",left,1,1.5706,,,,,,001,2025-03-17_13h06.44.443,SL_base,2021.2.3,Win32,60.0024001,,,52,0,52,0,1,,,,,,,,
,,"[""circle"",""green"",""vert"",""up"",[106,-106],[150,0]]",circle,green,vert,up,"[106,-106]","[150,0]",up,1,2.4345,,,,,,001,2025-03-17_13h06.44.443,SL_base,2021.2.3,Win32,60.0024001,,,53,0,53,0,1,,,,,,,,
,,"[""diamond"",""no_dis"",""vert"",""up"",[99999,99999],[-106,-106]]",diamond,no_dis,vert,up,"[99999,99999]","[-106,-106]",up,1,1.1672,,,,,,001,2025-03-17_13h06.44.443,SL_base,2021.2.3,Win32,60.0024001,,,54,0,54,0,1,,,,,,,,
,,"[""diamond"",""no_dis"",""vert"",""up"",[99999,99999],[-106,106]]",diamond,no_dis,vert,up,"[99999,99999]","[-106,106]",up,1,1.3855,,,,,,001,2025-03-17_13h06.44.443,SL_base,2021.2.3,Win32,60.0024001,,,55,0,55,0,1,,,,,,,,
,,"[""circle"",""green"",""hori"",""left"",[-106,106],[150,0]]",circle,green,hori,left,"[-106,106]","[150,0]",left,1,1.7741,,,,,,001,2025-03-17_13h06.44.443,SL_base,2021.2.3,Win32,60.0024001,,,56,0,56,0,1,,,,,,,,
,,"[""circle"",""red"",""hori"",""left"",[0,150],[-106,-106]]",circle,red,hori,left,"[0,150]","[-106,-106]",left,1,1.7687,,,,,,001,2025-03-17_13h06.44.443,SL_base,2021.2.3,Win32,60.0024001,,,57,0,57,0,1,,,,,,,,
,,"[""diamond"",""green"",""vert"",""up"",[106,-106],[0,150]]",diamond,green,vert,up,"[106,-106]","[0,150]",up,1,1.9805,,,,,,001,2025-03-17_13h06.44.443,SL_base,2021.2.3,Win32,60.0024001,,,58,0,58,0,1,,,,,,,,
,,"[""circle"",""green"",""vert"",""up"",[0,-150],[106,106]]",circle,green,vert,up,"[0,-150]","[106,106]",up,1,1.2328,,,,,,001,2025-03-17_13h06.44.443,SL_base,2021.2.3,Win32,60.0024001,,,59,0,59,0,1,,,,,,,,
,,"[""circle"",""no_dis"",""vert"",""up"",[99999,99999],[0,-150]]",circle,no_dis,vert,up,"[99999,99999]","[0,-150]",up,1,1.613,,,,,,001,2025-03-17_13h06.44.443,SL_base,2021.2.3,Win32,60.0024001,,,60,0,60,0,1,,,,,,,,
,,"[""circle"",""green"",""hori"",""left"",[0,150],[150,0]]",circle,green,hori,left,"[0,150]","[150,0]",left,1,1.4894,,,,,,001,2025-03-17_13h06.44.443,SL_base,2021.2.3,Win32,60.0024001,,,61,0,61,0,1,,,,,,,,
,,"[""diamond"",""green"",""hori"",""left"",[106,-106],[-106,-106]]",diamond,green,hori,left,"[106,-106]","[-106,-106]",left,1,1.6834,,,,,,001,2025-03-17_13h06.44.443,SL_base,2021.2.3,Win32,60.0024001,,,62,0,62,0,1,,,,,,,,
,,"[""diamond"",""no_dis"",""hori"",""left"",[99999,99999],[150,0]]",diamond,no_dis,hori,left,"[99999,99999]","[150,0]",left,1,1.1169,,,,,,001,2025-03-17_13h06.44.443,SL_base,2021.2.3,Win32,60.0024001,,,63,0,63,0,1,,,,,,,,
,,"[""diamond"",""red"",""vert"",""up"",[0,150],[0,-150]]",diamond,red,vert,up,"[0,150]","[0,-150]",up,1,1.0979,,,,,,001,2025-03-17_13h06.44.443,SL_base,2021.2.3,Win32,60.0024001,,,64,0,64,0,1,,,,,,,,
,,"[""circle"",""green"",""hori"",""left"",[106,-106],[-106,-106]]",circle,green,hori,left,"[106,-106]","[-106,-106]",left,1,1.6172,,,,,,001,2025-03-17_13h06.44.443,SL_base,2021.2.3,Win32,60.0024001,,,65,0,65,0,1,,,,,,,,
,,"[""circle"",""red"",""hori"",""left"",[0,-150],[150,0]]",circle,red,hori,left,"[0,-150]","[150,0]",left,1,1.4361,,,,,,001,2025-03-17_13h06.44.443,SL_base,2021.2.3,Win32,60.0024001,,,66,0,66,0,1,,,,,,,,
,,"[""circle"",""green"",""hori"",""left"",[-150,0],[106,106]]",circle,green,hori,left,"[-150,0]","[106,106]",left,1,1.5118,,,,,,001,2025-03-17_13h06.44.443,SL_base,2021.2.3,Win32,60.0024001,,,67,0,67,0,1,,,,,,,,
,,"[""diamond"",""green"",""hori"",""left"",[106,106],[-106,106]]",diamond,green,hori,left,"[106,106]","[-106,106]",left,1,1.9768,,,,,,001,2025-03-17_13h06.44.443,SL_base,2021.2.3,Win32,60.0024001,,,68,0,68,0,1,,,,,,,,
,,"[""diamond"",""green"",""hori"",""left"",[106,-106],[-150,0]]",diamond,green,hori,left,"[106,-106]","[-150,0]",left,1,1.1242,,,,,,001,2025-03-17_13h06.44.443,SL_base,2021.2.3,Win32,60.0024001,,,69,0,69,0,1,,,,,,,,
,,"[""circle"",""red"",""hori"",""left"",[0,150],[-106,-106]]",circle,red,hori,left,"[0,150]","[-106,-106]",left,1,1.4509,,,,,,001,2025-03-17_13h06.44.443,SL_base,2021.2.3,Win32,60.0024001,,,70,0,70,0,1,,,,,,,,
,,"[""diamond"",""no_dis"",""hori"",""left"",[99999,99999],[-106,-106]]",diamond,no_dis,hori,left,"[99999,99999]","[-106,-106]",left,1,1.6645,,,,,,001,2025-03-17_13h06.44.443,SL_base,2021.2.3,Win32,60.0024001,,,71,0,71,0,1,,,,,,,,
,,"[""diamond"",""green"",""hori"",""left"",[-106,106],[106,-106]]",diamond,green,hori,left,"[-106,106]","[106,-106]",left,1,1.3949,,,,,,001,2025-03-17_13h06.44.443,SL_base,2021.2.3,Win32,60.0024001,,,72,0,72,0,1,,,,,,,,
,,"[""circle"",""green"",""vert"",""up"",[150,0],[0,150]]",circle,green,vert,up,"[150,0]","[0,150]",up,1,1.2562,,,,,,001,2025-03-17_13h06.44.443,SL_base,2021.2.3,Win32,60.0024001,,,73,0,73,0,1,,,,,,,,
,,"[""circle"",""no_dis"",""vert"",""up"",[99999,99999],[150,0]]",circle,no_dis,vert,up,"[99999,99999]","[150,0]",up,1,1.3391,,,,,,001,2025-03-17_13h06.44.443,SL_base,2021.2.3,Win32,60.0024001,,,74,0,74,0,1,,,,,,,,
,,"[""diamond"",""green"",""vert"",""up"",[-106,106],[-106,-106]]",diamond,green,vert,up,"[-106,106]","[-106,-106]",up,1,2.1202,,,,,,001,2025-03-17_13h06.44.443,SL_base,2021.2.3,Win32,60.0024001,,,75,0,75,0,1,,,,,,,,
,,"[""diamond"",""red"",""hori"",""left"",[106,-106],[-150,0]]",diamond,red,hori,left,"[106,-106]","[-150,0]",left,1,1.2799,,,,,,001,2025-03-17_13h06.44.443,SL_base,2021.2.3,Win32,60.0024001,,,76,0,76,0,1,,,,,,,,
,,"[""circle"",""green"",""hori"",""left"",[106,-106],[0,150]]",circle,green,hori,left,"[106,-106]","[0,150]",left,1,2.9016,,,,,,001,2025-03-17_13h06.44.443,SL_base,2021.2.3,Win32,60.0024001,,,77,0,77,0,1,,,,,,,,
,,"[""circle"",""red"",""hori"",""left"",[0,150],[106,106]]",circle,red,hori,left,"[0,150]","[106,106]",left,1,2.1683,,,,,,001,2025-03-17_13h06.44.443,SL_base,2021.2.3,Win32,60.0024001,,,78,0,78,0,1,,,,,,,,
,,"[""circle"",""no_dis"",""hori"",""left"",[99999,99999],[106,106]]",circle,no_dis,hori,left,"[99999,99999]","[106,106]",left,1,1.385,,,,,,001,2025-03-17_13h06.44.443,SL_base,2021.2.3,Win32,60.0024001,,,79,0,79,0,1,,,,,,,,
,,"[""diamond"",""no_dis"",""vert"",""up"",[99999,99999],[106,-106]]",diamond,no_dis,vert,up,"[99999,99999]","[106,-106]",up,1,1.2681,,,,,,001,2025-03-17_13h06.44.443,SL_base,2021.2.3,Win32,60.0024001,,,80,0,80,0,1,,,,,,,,
,,"[""diamond"",""red"",""hori"",""left"",[-106,-106],[0,-150]]",diamond,red,hori,left,"[-106,-106]","[0,-150]",left,1,1.3856,,,,,,001,2025-03-17_13h06.44.443,SL_base,2021.2.3,Win32,60.0024001,,,81,0,81,0,1,,,,,,,,
,,"[""circle"",""red"",""hori"",""left"",[106,-106],[106,106]]",circle,red,hori,left,"[106,-106]","[106,106]",left,1,1.3472,,,,,,001,2025-03-17_13h06.44.443,SL_base,2021.2.3,Win32,60.0024001,,,82,0,82,0,1,,,,,,,,
,,"[""diamond"",""green"",""vert"",""up"",[150,0],[0,150]]",diamond,green,vert,up,"[150,0]","[0,150]",up,1,2.0063,,,,,,001,2025-03-17_13h06.44.443,SL_base,2021.2.3,Win32,60.0024001,,,83,0,83,0,1,,,,,,,,
,,"[""circle"",""green"",""hori"",""left"",[0,-150],[0,150]]",circle,green,hori,left,"[0,-150]","[0,150]",left,1,1.3363,,,,,,001,2025-03-17_13h06.44.443,SL_base,2021.2.3,Win32,60.0024001,,,84,0,84,0,1,,,,,,,,
,,"[""circle"",""red"",""hori"",""left"",[150,0],[-150,0]]",circle,red,hori,left,"[150,0]","[-150,0]",left,1,2.0298,,,,,,001,2025-03-17_13h06.44.443,SL_base,2021.2.3,Win32,60.0024001,,,85,0,85,0,1,,,,,,,,
,,"[""diamond"",""red"",""hori"",""left"",[106,-106],[106,106]]",diamond,red,hori,left,"[106,-106]","[106,106]",left,1,1.7869,,,,,,001,2025-03-17_13h06.44.443,SL_base,2021.2.3,Win32,60.0024001,,,86,0,86,0,1,,,,,,,,
,,"[""diamond"",""no_dis"",""vert"",""up"",[99999,99999],[106,106]]",diamond,no_dis,vert,up,"[99999,99999]","[106,106]",up,1,1.4631,,,,,,001,2025-03-17_13h06.44.443,SL_base,2021.2.3,Win32,60.0024001,,,87,0,87,0,1,,,,,,,,
,,"[""diamond"",""red"",""hori"",""left"",[-106,-106],[0,150]]",diamond,red,hori,left,"[-106,-106]","[0,150]",left,1,1.5115,,,,,,001,2025-03-17_13h06.44.443,SL_base,2021.2.3,Win32,60.0024001,,,88,0,88,0,1,,,,,,,,
,,"[""diamond"",""no_dis"",""hori"",""left"",[99999,99999],[-106,106]]",diamond,no_dis,hori,left,"[99999,99999]","[-106,106]",left,1,1.5193,,,,,,001,2025-03-17_13h06.44.443,SL_base,2021.2.3,Win32,60.0024001,,,89,0,89,0,1,,,,,,,,
,,"[""circle"",""red"",""hori"",""left"",[0,-150],[-150,0]]",circle,red,hori,left,"[0,-150]","[-150,0]",left,1,1.3883,,,,,,001,2025-03-17_13h06.44.443,SL_base,2021.2.3,Win32,60.0024001,,,90,0,90,0,1,,,,,,,,
,,"[""circle"",""red"",""vert"",""up"",[106,-106],[0,150]]",circle,red,vert,up,"[106,-106]","[0,150]",up,1,1.2132,,,,,,001,2025-03-17_13h06.44.443,SL_base,2021.2.3,Win32,60.0024001,,,91,0,91,0,1,,,,,,,,
,,"[""circle"",""no_dis"",""hori"",""left"",[99999,99999],[0,150]]",circle,no_dis,hori,left,"[99999,99999]","[0,150]",left,1,1.1946,,,,,,001,2025-03-17_13h06.44.443,SL_base,2021.2.3,Win32,60.0024001,,,92,0,92,0,1,,,,,,,,
,,"[""circle"",""red"",""vert"",""up"",[106,106],[-150,0]]",circle,red,vert,up,"[106,106]","[-150,0]",up,1,1.2101,,,,,,001,2025-03-17_13h06.44.443,SL_base,2021.2.3,Win32,60.0024001,,,93,0,93,0,1,,,,,,,,
,,"[""circle"",""green"",""hori"",""left"",[0,150],[106,106]]",circle,green,hori,left,"[0,150]","[106,106]",left,1,2.0872,,,,,,001,2025-03-17_13h06.44.443,SL_base,2021.2.3,Win32,60.0024001,,,94,0,94,0,1,,,,,,,,
,,"[""circle"",""no_dis"",""hori"",""left"",[99999,99999],[106,106]]",circle,no_dis,hori,left,"[99999,99999]","[106,106]",left,1,1.5464,,,,,,001,2025-03-17_13h06.44.443,SL_base,2021.2.3,Win32,60.0024001,,,95,0,95,0,1,,,,,,,,
,,"[""diamond"",""no_dis"",""vert"",""up"",[99999,99999],[-106,106]]",diamond,no_dis,vert,up,"[99999,99999]","[-106,106]",up,1,1.1748,,,,,,001,2025-03-17_13h06.44.443,SL_base,2021.2.3,Win32,60.0024001,,,96,0,96,0,1,,,,,,,,
,,"[""circle"",""red"",""hori"",""left"",[106,106],[150,0]]",circle,red,hori,left,"[106,106]","[150,0]",left,1,1.3568,,,,,,001,2025-03-17_13h06.44.443,SL_base,2021.2.3,Win32,60.0024001,,,97,0,97,0,1,,,,,,,,
,,"[""diamond"",""red"",""vert"",""up"",[-106,106],[-106,-106]]",diamond,red,vert,up,"[-106,106]","[-106,-106]",up,1,1.3259,,,,,,001,2025-03-17_13h06.44.443,SL_base,2021.2.3,Win32,60.0024001,,,98,0,98,0,1,,,,,,,,
,,"[""circle"",""no_dis"",""vert"",""up"",[99999,99999],[150,0]]",circle,no_dis,vert,up,"[99999,99999]","[150,0]",up,1,1.3206,,,,,,001,2025-03-17_13h06.44.443,SL_base,2021.2.3,Win32,60.0024001,,,99,0,99,0,1,,,,,,,,
,,"[""circle"",""no_dis"",""hori"",""left"",[99999,99999],[106,-106]]",circle,no_dis,hori,left,"[99999,99999]","[106,-106]",left,1,2.0681,,,,,,001,2025-03-17_13h06.44.443,SL_base,2021.2.3,Win32,60.0024001,,,100,0,100,0,1,,,,,,,,
,,"[""diamond"",""red"",""vert"",""up"",[106,-106],[-150,0]]",diamond,red,vert,up,"[106,-106]","[-150,0]",up,1,1.3132,,,,,,001,2025-03-17_13h06.44.443,SL_base,2021.2.3,Win32,60.0024001,,,101,0,101,0,1,,,,,,,,
,,"[""circle"",""green"",""vert"",""up"",[-106,-106],[-150,0]]",circle,green,vert,up,"[-106,-106]","[-150,0]",up,1,1.5521,,,,,,001,2025-03-17_13h06.44.443,SL_base,2021.2.3,Win32,60.0024001,,,102,0,102,0,1,,,,,,,,
,,"[""circle"",""no_dis"",""vert"",""up"",[99999,99999],[-106,-106]]",circle,no_dis,vert,up,"[99999,99999]","[-106,-106]",up,1,1.2593,,,,,,001,2025-03-17_13h06.44.443,SL_base,2021.2.3,Win32,60.0024001,,,103,0,103,0,1,,,,,,,,
,,"[""circle"",""no_dis"",""vert"",""up"",[99999,99999],[0,-150]]",circle,no_dis,vert,up,"[99999,99999]","[0,-150]",up,1,1.6232,,,,,,001,2025-03-17_13h06.44.443,SL_base,2021.2.3,Win32,60.0024001,,,104,0,104,0,1,,,,,,,,
,,"[""circle"",""red"",""vert"",""up"",[0,-150],[0,150]]",circle,red,vert,up,"[0,-150]","[0,150]",up,1,1.2898,,,,,,001,2025-03-17_13h06.44.443,SL_base,2021.2.3,Win32,60.0024001,,,105,0,105,0,1,,,,,,,,
,,"[""diamond"",""green"",""hori"",""left"",[150,0],[0,-150]]",diamond,green,hori,left,"[150,0]","[0,-150]",left,1,1.2951,,,,,,001,2025-03-17_13h06.44.443,SL_base,2021.2.3,Win32,60.0024001,,,106,0,106,0,1,,,,,,,,
,,"[""diamond"",""green"",""hori"",""left"",[106,-106],[150,0]]",diamond,green,hori,left,"[106,-106]","[150,0]",left,1,1.3436,,,,,,001,2025-03-17_13h06.44.443,SL_base,2021.2.3,Win32,60.0024001,,,107,0,107,0,1,,,,,,,,
,,"[""circle"",""red"",""vert"",""up"",[0,-150],[106,-106]]",circle,red,vert,up,"[0,-150]","[106,-106]",up,1,2.1703,,,,,,001,2025-03-17_13h06.44.443,SL_base,2021.2.3,Win32,60.0024001,,,108,0,108,0,1,,,,,,,,
,,"[""diamond"",""green"",""vert"",""up"",[106,-106],[150,0]]",diamond,green,vert,up,"[106,-106]","[150,0]",up,1,1.6093,,,,,,001,2025-03-17_13h06.44.443,SL_base,2021.2.3,Win32,60.0024001,,,109,0,109,0,1,,,,,,,,
,,"[""circle"",""green"",""vert"",""up"",[0,-150],[106,106]]",circle,green,vert,up,"[0,-150]","[106,106]",up,1,1.8164,,,,,,001,2025-03-17_13h06.44.443,SL_base,2021.2.3,Win32,60.0024001,,,110,0,110,0,1,,,,,,,,
,,"[""circle"",""green"",""hori"",""left"",[150,0],[106,106]]",circle,green,hori,left,"[150,0]","[106,106]",left,1,1.2935,,,,,,001,2025-03-17_13h06.44.443,SL_base,2021.2.3,Win32,60.0024001,,,111,0,111,0,1,,,,,,,,
,,"[""circle"",""green"",""vert"",""up"",[-150,0],[106,-106]]",circle,green,vert,up,"[-150,0]","[106,-106]",up,1,1.2581,,,,,,001,2025-03-17_13h06.44.443,SL_base,2021.2.3,Win32,60.0024001,,,112,0,112,0,1,,,,,,,,
,,"[""diamond"",""red"",""hori"",""left"",[0,150],[150,0]]",diamond,red,hori,left,"[0,150]","[150,0]",left,1,1.6032,,,,,,001,2025-03-17_13h06.44.443,SL_base,2021.2.3,Win32,60.0024001,,,113,0,113,0,1,,,,,,,,
,,"[""diamond"",""red"",""vert"",""up"",[-106,-106],[106,106]]",diamond,red,vert,up,"[-106,-106]","[106,106]",up,1,1.4661,,,,,,001,2025-03-17_13h06.44.443,SL_base,2021.2.3,Win32,60.0024001,,,114,0,114,0,1,,,,,,,,
,,"[""diamond"",""red"",""vert"",""up"",[106,-106],[106,106]]",diamond,red,vert,up,"[106,-106]","[106,106]",up,1,1.4363,,,,,,001,2025-03-17_13h06.44.443,SL_base,2021.2.3,Win32,60.0024001,,,115,0,115,0,1,,,,,,,,
,,"[""diamond"",""no_dis"",""vert"",""up"",[99999,99999],[106,106]]",diamond,no_dis,vert,up,"[99999,99999]","[106,106]",up,1,0.8637,,,,,,001,2025-03-17_13h06.44.443,SL_base,2021.2.3,Win32,60.0024001,,,116,0,116,0,1,,,,,,,,
,,"[""diamond"",""no_dis"",""vert"",""up"",[99999,99999],[-150,0]]",diamond,no_dis,vert,up,"[99999,99999]","[-150,0]",up,1,1.345,,,,,,001,2025-03-17_13h06.44.443,SL_base,2021.2.3,Win32,60.0024001,,,117,0,117,0,1,,,,,,,,
,,"[""diamond"",""red"",""vert"",""up"",[150,0],[-106,106]]",diamond,red,vert,up,"[150,0]","[-106,106]",up,1,1.3086,,,,,,001,2025-03-17_13h06.44.443,SL_base,2021.2.3,Win32,60.0024001,,,118,0,118,0,1,,,,,,,,
,,"[""circle"",""red"",""hori"",""left"",[106,-106],[-150,0]]",circle,red,hori,left,"[106,-106]","[-150,0]",left,1,1.2121,,,,,,001,2025-03-17_13h06.44.443,SL_base,2021.2.3,Win32,60.0024001,,,119,0,119,0,1,,,,,,,,
,,,,,,,,,,,,,,,,,001,2025-03-17_13h06.44.443,SL_base,2021.2.3,Win32,60.0024001,,,,,,,,1,space,10.6465,0,0,0,0,1
,,"[""circle"",""no_dis"",""hori"",""left"",[99999,99999],[106,-106]]",circle,no_dis,hori,left,"[99999,99999]","[106,-106]",left,1,2.1408,,,,,,001,2025-03-17_13h06.44.443,SL_base,2021.2.3,Win32,60.0024001,,,0,0,0,0,1,,,,,,,,
,,"[""circle"",""no_dis"",""vert"",""up"",[99999,99999],[0,-150]]",circle,no_dis,vert,up,"[99999,99999]","[0,-150]",up,1,1.332,,,,,,001,2025-03-17_13h06.44.443,SL_base,2021.2.3,Win32,60.0024001,,,1,0,1,0,1,,,,,,,,
,,"[""circle"",""no_dis"",""vert"",""up"",[99999,99999],[0,-150]]",circle,no_dis,vert,up,"[99999,99999]","[0,-150]",up,1,1.4692,,,,,,001,2025-03-17_13h06.44.443,SL_base,2021.2.3,Win32,60.0024001,,,2,0,2,0,1,,,,,,,,
,,"[""circle"",""no_dis"",""vert"",""up"",[99999,99999],[0,150]]",circle,no_dis,vert,up,"[99999,99999]","[0,150]",up,1,1.2978,,,,,,001,2025-03-17_13h06.44.443,SL_base,2021.2.3,Win32,60.0024001,,,3,0,3,0,1,,,,,,,,
,,"[""circle"",""green"",""hori"",""left"",[150,0],[106,106]]",circle,green,hori,left,"[150,0]","[106,106]",left,1,1.4347,,,,,,001,2025-03-17_13h06.44.443,SL_base,2021.2.3,Win32,60.0024001,,,4,0,4,0,1,,,,,,,,
,,"[""diamond"",""no_dis"",""vert"",""up"",[99999,99999],[106,106]]",diamond,no_dis,vert,up,"[99999,99999]","[106,106]",up,1,1.3169,,,,,,001,2025-03-17_13h06.44.443,SL_base,2021.2.3,Win32,60.0024001,,,5,0,5,0,1,,,,,,,,
,,"[""circle"",""no_dis"",""vert"",""up"",[99999,99999],[106,106]]",circle,no_dis,vert,up,"[99999,99999]","[106,106]",up,1,1.4019,,,,,,001,2025-03-17_13h06.44.443,SL_base,2021.2.3,Win32,60.0024001,,,6,0,6,0,1,,,,,,,,
,,"[""diamond"",""no_dis"",""hori"",""left"",[99999,99999],[-106,106]]",diamond,no_dis,hori,left,"[99999,99999]","[-106,106]",left,1,1.312,,,,,,001,2025-03-17_13h06.44.443,SL_base,2021.2.3,Win32,60.0024001,,,7,0,7,0,1,,,,,,,,
,,"[""diamond"",""green"",""hori"",""left"",[106,-106],[-106,-106]]",diamond,green,hori,left,"[106,-106]","[-106,-106]",left,1,2.169,,,,,,001,2025-03-17_13h06.44.443,SL_base,2021.2.3,Win32,60.0024001,,,8,0,8,0,1,,,,,,,,
,,"[""circle"",""green"",""hori"",""left"",[-106,106],[150,0]]",circle,green,hori,left,"[-106,106]","[150,0]",left,1,1.3203,,,,,,001,2025-03-17_13h06.44.443,SL_base,2021.2.3,Win32,60.0024001,,,9,0,9,0,1,,,,,,,,
,,"[""diamond"",""red"",""hori"",""left"",[-106,106],[0,-150]]",diamond,red,hori,left,"[-106,106]","[0,-150]",left,1,1.2032,,,,,,001,2025-03-17_13h06.44.443,SL_base,2021.2.3,Win32,60.0024001,,,10,0,10,0,1,,,,,,,,
,,"[""diamond"",""green"",""vert"",""up"",[-106,-106],[150,0]]",diamond,green,vert,up,"[-106,-106]","[150,0]",up,1,1.8192,,,,,,001,2025-03-17_13h06.44.443,SL_base,2021.2.3,Win32,60.0024001,,,11,0,11,0,1,,,,,,,,
,,"[""circle"",""no_dis"",""vert"",""up"",[99999,99999],[-150,0]]",circle,no_dis,vert,up,"[99999,99999]","[-150,0]",up,1,1.6579,,,,,,001,2025-03-17_13h06.44.443,SL_base,2021.2.3,Win32,60.0024001,,,12,0,12,0,1,,,,,,,,
,,"[""circle"",""red"",""vert"",""up"",[106,106],[106,-106]]",circle,red,vert,up,"[106,106]","[106,-106]",up,1,1.4347,,,,,,001,2025-03-17_13h06.44.443,SL_base,2021.2.3,Win32,60.0024001,,,13,0,13,0,1,,,,,,,,
,,"[""diamond"",""green"",""hori"",""left"",[-150,0],[0,-150]]",diamond,green,hori,left,"[-150,0]","[0,-150]",left,1,1.3932,,,,,,001,2025-03-17_13h06.44.443,SL_base,2021.2.3,Win32,60.0024001,,,14,0,14,0,1,,,,,,,,
,,"[""circle"",""red"",""hori"",""left"",[0,-150],[150,0]]",circle,red,hori,left,"[0,-150]","[150,0]",left,1,1.4773,,,,,,001,2025-03-17_13h06.44.443,SL_base,2021.2.3,Win32,60.0024001,,,15,0,15,0,1,,,,,,,,
,,"[""diamond"",""red"",""hori"",""left"",[-106,-106],[0,-150]]",diamond,red,hori,left,"[-106,-106]","[0,-150]",left,1,1.2537,,,,,,001,2025-03-17_13h06.44.443,SL_base,2021.2.3,Win32,60.0024001,,,16,0,16,0,1,,,,,,,,
,,"[""circle"",""red"",""hori"",""left"",[106,-106],[106,106]]",circle,red,hori,left,"[106,-106]","[106,106]",left,1,1.7572,,,,,,001,2025-03-17_13h06.44.443,SL_base,2021.2.3,Win32,60.0024001,,,17,0,17,0,1,,,,,,,,
,,"[""diamond"",""red"",""vert"",""up"",[106,-106],[106,106]]",diamond,red,vert,up,"[106,-106]","[106,106]",up,1,1.3783,,,,,,001,2025-03-17_13h06.44.443,SL_base,2021.2.3,Win32,60.0024001,,,18,0,18,0,1,,,,,,,,
,,"[""circle"",""green"",""vert"",""up"",[-150,0],[106,-106]]",circle,green,vert,up,"[-150,0]","[106,-106]",up,1,1.4887,,,,,,001,2025-03-17_13h06.44.443,SL_base,2021.2.3,Win32,60.0024001,,,19,0,19,0,1,,,,,,,,
,,"[""circle"",""no_dis"",""hori"",""left"",[99999,99999],[106,-106]]",circle,no_dis,hori,left,"[99999,99999]","[106,-106]",left,1,1.2708,,,,,,001,2025-03-17_13h06.44.443,SL_base,2021.2.3,Win32,60.0024001,,,20,0,20,0,1,,,,,,,,
,,"[""circle"",""no_dis"",""hori"",""left"",[99999,99999],[-106,106]]",circle,no_dis,hori,left,"[99999,99999]","[-106,106]",left,1,1.21,,,,,,001,2025-03-17_13h06.44.443,SL_base,2021.2.3,Win32,60.0024001,,,21,0,21,0,1,,,,,,,,
,,"[""diamond"",""no_dis"",""vert"",""up"",[99999,99999],[-150,0]]",diamond,no_dis,vert,up,"[99999,99999]","[-150,0]",up,1,1.5473,,,,,,001,2025-03-17_13h06.44.443,SL_base,2021.2.3,Win32,60.0024001,,,22,0,22,0,1,,,,,,,,
,,"[""circle"",""green"",""vert"",""up"",[0,-150],[106,106]]",circle,green,vert,up,"[0,-150]","[106,106]",up,1,1.524,,,,,,001,2025-03-17_13h06.44.443,SL_base,2021.2.3,Win32,60.0024001,,,23,0,23,0,1,,,,,,,,
,,"[""diamond"",""green"",""vert"",""up"",[150,0],[0,150]]",diamond,green,vert,up,"[150,0]","[0,150]",up,1,1.8599,,,,,,001,2025-03-17_13h06.44.443,SL_base,2021.2.3,Win32,60.0024001,,,24,0,24,0,1,,,,,,,,
,,"[""circle"",""red"",""hori"",""left"",[106,-106],[0,150]]",circle,red,hori,left,"[106,-106]","[0,150]",left,1,1.6109,,,,,,001,2025-03-17_13h06.44.443,SL_base,2021.2.3,Win32,60.0024001,,,25,0,25,0,1,,,,,,,,
,,"[""circle"",""no_dis"",""vert"",""up"",[99999,99999],[0,-150]]",circle,no_dis,vert,up,"[99999,99999]","[0,-150]",up,1,1.2019,,,,,,001,2025-03-17_13h06.44.443,SL_base,2021.2.3,Win32,60.0024001,,,26,0,26,0,1,,,,,,,,
,,"[""circle"",""no_dis"",""hori"",""left"",[99999,99999],[0,150]]",circle,no_dis,hori,left,"[99999,99999]","[0,150]",left,1,1.1681,,,,,,001,2025-03-17_13h06.44.443,SL_base,2021.2.3,Win32,60.0024001,,,27,0,27,0,1,,,,,,,,
,,"[""diamond"",""red"",""vert"",""up"",[-106,-106],[0,-150]]",diamond,red,vert,up,"[-106,-106]","[0,-150]",up,1,1.0007,,,,,,001,2025-03-17_13h06.44.443,SL_base,2021.2.3,Win32,60.0024001,,,28,0,28,0,1,,,,,,,,
,,"[""diamond"",""red"",""hori"",""left"",[-106,106],[0,-150]]",diamond,red,hori,left,"[-106,106]","[0,-150]",left,1,0.9255,,,,,,001,2025-03-17_13h06.44.443,SL_base,2021.2.3,Win32,60.0024001,,,29,0,29,0,1,,,,,,,,
,,"[""diamond"",""no_dis"",""hori"",""left"",[99999,99999],[150,0]]",diamond,no_dis,hori,left,"[99999,99999]","[150,0]",left,1,1.3486,,,,,,001,2025-03-17_13h06.44.443,SL_base,2021.2.3,Win32,60.0024001,,,30,0,30,0,1,,,,,,,,
,,"[""diamond"",""red"",""hori"",""left"",[106,-106],[106,106]]",diamond,red,hori,left,"[106,-106]","[106,106]",left,1,0.9763,,,,,,001,2025-03-17_13h06.44.443,SL_base,2021.2.3,Win32,60.0024001,,,31,0,31,0,1,,,,,,,,
,,"[""circle"",""red"",""vert"",""up"",[150,0],[-150,0]]",circle,red,vert,up,"[150,0]","[-150,0]",up,1,1.1572,,,,,,001,2025-03-17_13h06.44.443,SL_base,2021.2.3,Win32,60.0024001,,,32,0,32,0,1,,,,,,,,
,,"[""diamond"",""no_dis"",""hori"",""left"",[99999,99999],[-106,-106]]",diamond,no_dis,hori,left,"[99999,99999]","[-106,-106]",left,1,1.4971,,,,,,001,2025-03-17_13h06.44.443,SL_base,2021.2.3,Win32,60.0024001,,,33,0,33,0,1,,,,,,,,
,,"[""diamond"",""green"",""hori"",""left"",[106,-106],[150,0]]",diamond,green,hori,left,"[106,-106]","[150,0]",left,1,1.2037,,,,,,001,2025-03-17_13h06.44.443,SL_base,2021.2.3,Win32,60.0024001,,,34,0,34,0,1,,,,,,,,
,,"[""circle"",""no_dis"",""vert"",""up"",[99999,99999],[150,0]]",circle,no_dis,vert,up,"[99999,99999]","[150,0]",up,1,1.5646,,,,,,001,2025-03-17_13h06.44.443,SL_base,2021.2.3,Win32,60.0024001,,,35,0,35,0,1,,,,,,,,
,,"[""diamond"",""no_dis"",""vert"",""up"",[99999,99999],[106,-106]]",diamond,no_dis,vert,up,"[99999,99999]","[106,-106]",up,1,1.246,,,,,,001,2025-03-17_13h06.44.443,SL_base,2021.2.3,Win32,60.0024001,,,36,0,36,0,1,,,,,,,,
,,"[""circle"",""red"",""vert"",""up"",[106,-106],[150,0]]",circle,red,vert,up,"[106,-106]","[150,0]",up,1,2.3078,,,,,,001,2025-03-17_13h06.44.443,SL_base,2021.2.3,Win32,60.0024001,,,37,0,37,0,1,,,,,,,,
,,"[""circle"",""green"",""vert"",""up"",[-150,0],[0,150]]",circle,green,vert,up,"[-150,0]","[0,150]",up,1,1.58,,,,,,001,2025-03-17_13h06.44.443,SL_base,2021.2.3,Win32,60.0024001,,,38,0,38,0,1,,,,,,,,
,,"[""diamond"",""red"",""vert"",""up"",[0,150],[-106,106]]",diamond,red,vert,up,"[0,150]","[-106,106]",up,1,1.598,,,,,,001,2025-03-17_13h06.44.443,SL_base,2021.2.3,Win32,60.0024001,,,39,0,39,0,1,,,,,,,,
,,"[""circle"",""green"",""vert"",""up"",[-106,-106],[-150,0]]",circle,green,vert,up,"[-106,-106]","[-150,0]",up,1,1.3879,,,,,,001,2025-03-17_13h06.44.443,SL_base,2021.2.3,Win32,60.0024001,,,40,0,40,0,1,,,,,,,,
,,"[""circle"",""green"",""hori"",""left"",[0,150],[106,106]]",circle,green,hori,left,"[0,150]","[106,106]",left,1,1.3192,,,,,,001,2025-03-17_13h06.44.443,SL_base,2021.2.3,Win32,60.0024001,,,41,0,41,0,1,,,,,,,,
,,"[""circle"",""green"",""vert"",""up"",[106,106],[0,-150]]",circle,green,vert,up,"[106,106]","[0,-150]",up,1,1.3683,,,,,,001,2025-03-17_13h06.44.443,SL_base,2021.2.3,Win32,60.0024001,,,42,0,42,0,1,,,,,,,,
,,"[""diamond"",""no_dis"",""vert"",""up"",[99999,99999],[-106,106]]",diamond,no_dis,vert,up,"[99999,99999]","[-106,106]",up,1,1.3118,,,,,,001,2025-03-17_13h06.44.443,SL_base,2021.2.3,Win32,60.0024001,,,43,0,43,0,1,,,,,,,,
,,"[""circle"",""green"",""hori"",""left"",[-106,-106],[106,106]]",circle,green,hori,left,"[-106,-106]","[106,106]",left,1,1.3521,,,,,,001,2025-03-17_13h06.44.443,SL_base,2021.2.3,Win32,60.0024001,,,44,0,44,0,1,,,,,,,,
,,"[""diamond"",""no_dis"",""hori"",""left"",[99999,99999],[106,-106]]",diamond,no_dis,hori,left,"[99999,99999]","[106,-106]",left,1,1.3092,,,,,,001,2025-03-17_13h06.44.443,SL_base,2021.2.3,Win32,60.0024001,,,45,0,45,0,1,,,,,,,,
,,"[""circle"",""red"",""vert"",""up"",[106,-106],[0,150]]",circle,red,vert,up,"[106,-106]","[0,150]",up,1,1.4077,,,,,,001,2025-03-17_13h06.44.443,SL_base,2021.2.3,Win32,60.0024001,,,46,0,46,0,1,,,,,,,,
,,"[""circle"",""no_dis"",""vert"",""up"",[99999,99999],[150,0]]",circle,no_dis,vert,up,"[99999,99999]","[150,0]",up,1,1.8663,,,,,,001,2025-03-17_13h06.44.443,SL_base,2021.2.3,Win32,60.0024001,,,47,0,47,0,1,,,,,,,,
,,"[""circle"",""no_dis"",""vert"",""up"",[99999,99999],[0,-150]]",circle,no_dis,vert,up,"[99999,99999]","[0,-150]",up,1,1.0839,,,,,,001,2025-03-17_13h06.44.443,SL_base,2021.2.3,Win32,60.0024001,,,48,0,48,0,1,,,,,,,,
,,"[""diamond"",""no_dis"",""vert"",""up"",[99999,99999],[106,106]]",diamond,no_dis,vert,up,"[99999,99999]","[106,106]",up,1,2.0252,,,,,,001,2025-03-17_13h06.44.443,SL_base,2021.2.3,Win32,60.0024001,,,49,0,49,0,1,,,,,,,,
,,"[""diamond"",""no_dis"",""hori"",""left"",[99999,99999],[-106,-106]]",diamond,no_dis,hori,left,"[99999,99999]","[-106,-106]",left,1,1.2431,,,,,,001,2025-03-17_13h06.44.443,SL_base,2021.2.3,Win32,60.0024001,,,50,0,50,0,1,,,,,,,,
,,"[""circle"",""no_dis"",""hori"",""left"",[99999,99999],[0,150]]",circle,no_dis,hori,left,"[99999,99999]","[0,150]",left,1,1.7203,,,,,,001,2025-03-17_13h06.44.443,SL_base,2021.2.3,Win32,60.0024001,,,51,0,51,0,1,,,,,,,,
,,"[""diamond"",""green"",""hori"",""left"",[106,-106],[-150,0]]",diamond,green,hori,left,"[106,-106]","[-150,0]",left,1,1.4833,,,,,,001,2025-03-17_13h06.44.443,SL_base,2021.2.3,Win32,60.0024001,,,52,0,52,0,1,,,,,,,,
,,"[""circle"",""green"",""hori"",""left"",[106,-106],[-106,-106]]",circle,green,hori,left,"[106,-106]","[-106,-106]",left,1,2.4554,,,,,,001,2025-03-17_13h06.44.443,SL_base,2021.2.3,Win32,60.0024001,,,53,0,53,0,1,,,,,,,,
,,"[""diamond"",""no_dis"",""hori"",""left"",[99999,99999],[-106,106]]",diamond,no_dis,hori,left,"[99999,99999]","[-106,106]",left,1,1.6315,,,,,,001,2025-03-17_13h06.44.443,SL_base,2021.2.3,Win32,60.0024001,,,54,0,54,0,1,,,,,,,,
,,"[""diamond"",""red"",""vert"",""up"",[106,-106],[-150,0]]",diamond,red,vert,up,"[106,-106]","[-150,0]",up,1,1.5559,,,,,,001,2025-03-17_13h06.44.443,SL_base,2021.2.3,Win32,60.0024001,,,55,0,55,0,1,,,,,,,,
,,"[""diamond"",""green"",""vert"",""up"",[-150,0],[-106,106]]",diamond,green,vert,up,"[-150,0]","[-106,106]",up,1,1.8654,,,,,,001,2025-03-17_13h06.44.443,SL_base,2021.2.3,Win32,60.0024001,,,56,0,56,0,1,,,,,,,,
,,"[""circle"",""red"",""vert"",""up"",[106,106],[-150,0]]",circle,red,vert,up,"[106,106]","[-150,0]",up,1,1.4388,,,,,,001,2025-03-17_13h06.44.443,SL_base,2021.2.3,Win32,60.0024001,,,57,0,57,0,1,,,,,,,,
,,"[""diamond"",""green"",""vert"",""up"",[106,106],[150,0]]",diamond,green,vert,up,"[106,106]","[150,0]",up,1,1.8107,,,,,,001,2025-03-17_13h06.44.443,SL_base,2021.2.3,Win32,60.0024001,,,58,0,58,0,1,,,,,,,,
,,"[""circle"",""red"",""vert"",""up"",[106,-106],[0,-150]]",circle,red,vert,up,"[106,-106]","[0,-150]",up,1,1.4345,,,,,,001,2025-03-17_13h06.44.443,SL_base,2021.2.3,Win32,60.0024001,,,59,0,59,0,1,,,,,,,,
,,"[""diamond"",""red"",""vert"",""up"",[0,150],[0,-150]]",diamond,red,vert,up,"[0,150]","[0,-150]",up,1,1.719,,,,,,001,2025-03-17_13h06.44.443,SL_base,2021.2.3,Win32,60.0024001,,,60,0,60,0,1,,,,,,,,
,,"[""circle"",""green"",""vert"",""up"",[150,0],[0,150]]",circle,green,vert,up,"[150,0]","[0,150]",up,1,1.6196,,,,,,001,2025-03-17_13h06.44.443,SL_base,2021.2.3,Win32,60.0024001,,,61,0,61,0,1,,,,,,,,
,,"[""diamond"",""green"",""vert"",""up"",[-106,106],[-106,-106]]",diamond,green,vert,up,"[-106,106]","[-106,-106]",up,1,1.9416,,,,,,001,2025-03-17_13h06.44.443,SL_base,2021.2.3,Win32,60.0024001,,,62,0,62,0,1,,,,,,,,
,,"[""diamond"",""red"",""hori"",""left"",[106,-106],[-150,0]]",diamond,red,hori,left,"[106,-106]","[-150,0]",left,1,1.8042,,,,,,001,2025-03-17_13h06.44.443,SL_base,2021.2.3,Win32,60.0024001,,,63,0,63,0,1,,,,,,,,
,,"[""diamond"",""no_dis"",""vert"",""up"",[99999,99999],[150,0]]",diamond,no_dis,vert,up,"[99999,99999]","[150,0]",up,1,1.516,,,,,,001,2025-03-17_13h06.44.443,SL_base,2021.2.3,Win32,60.0024001,,,64,0,64,0,1,,,,,,,,
,,"[""circle"",""red"",""hori"",""left"",[150,0],[-150,0]]",circle,red,hori,left,"[150,0]","[-150,0]",left,1,2.1673,,,,,,001,2025-03-17_13h06.44.443,SL_base,2021.2.3,Win32,60.0024001,,,65,0,65,0,1,,,,,,,,
,,"[""diamond"",""green"",""hori"",""left"",[106,-106],[0,-150]]",diamond,green,hori,left,"[106,-106]","[0,-150]",left,1,1.7714,,,,,,001,2025-03-17_13h06.44.443,SL_base,2021.2.3,Win32,60.0024001,,,66,0,66,0,1,,,,,,,,
,,"[""circle"",""no_dis"",""hori"",""left"",[99999,99999],[150,0]]",circle,no_dis,hori,left,"[99999,99999]","[150,0]",left,1,1.5254,,,,,,001,2025-03-17_13h06.44.443,SL_base,2021.2.3,Win32,60.0024001,,,67,0,67,0,1,,,,,,,,
,,"[""diamond"",""green"",""vert"",""up"",[106,-106],[0,150]]",diamond,green,vert,up,"[106,-106]","[0,150]",up,1,2.1885,,,,,,001,2025-03-17_13h06.44.443,SL_base,2021.2.3,Win32,60.0024001,,,68,0,68,0,1,,,,,,,,
,,"[""circle"",""no_dis"",""hori"",""left"",[99999,99999],[106,106]]",circle,no_dis,hori,left,"[99999,99999]","[106,106]",left,1,1.7917,,,,,,001,2025-03-17_13h06.44.443,SL_base,2021.2.3,Win32,60.0024001,,,69,0,69,0,1,,,,,,,,
,,"[""diamond"",""green"",""hori"",""left"",[106,106],[-106,106]]",diamond,green,hori,left,"[106,106]","[-106,106]",left,1,1.8507,,,,,,001,2025-03-17_13h06.44.443,SL_base,2021.2.3,Win32,60.0024001,,,70,0,70,0,1,,,,,,,,
,,"[""diamond"",""no_dis"",""vert"",""up"",[99999,99999],[-106,106]]",diamond,no_dis,vert,up,"[99999,99999]","[-106,106]",up,1,1.4183,,,,,,001,2025-03-17_13h06.44.443,SL_base,2021.2.3,Win32,60.0024001,,,71,0,71,0,1,,,,,,,,
,,"[""circle"",""red"",""vert"",""up"",[0,-150],[106,-106]]",circle,red,vert,up,"[0,-150]","[106,-106]",up,1,2.026,,,,,,001,2025-03-17_13h06.44.443,SL_base,2021.2.3,Win32,60.0024001,,,72,0,72,0,1,,,,,,,,
,,"[""diamond"",""no_dis"",""hori"",""left"",[99999,99999],[0,-150]]",diamond,no_dis,hori,left,"[99999,99999]","[0,-150]",left,1,1.7524,,,,,,001,2025-03-17_13h06.44.443,SL_base,2021.2.3,Win32,60.0024001,,,73,0,73,0,1,,,,,,,,
,,"[""diamond"",""green"",""vert"",""up"",[106,-106],[0,150]]",diamond,green,vert,up,"[106,-106]","[0,150]",up,1,1.4449,,,,,,001,2025-03-17_13h06.44.443,SL_base,2021.2.3,Win32,60.0024001,,,74,0,74,0,1,,,,,,,,
,,"[""diamond"",""green"",""hori"",""left"",[106,-106],[-150,0]]",diamond,green,hori,left,"[106,-106]","[-150,0]",left,1,1.3727,,,,,,001,2025-03-17_13h06.44.443,SL_base,2021.2.3,Win32,60.0024001,,,75,0,75,0,1,,,,,,,,
,,"[""circle"",""red"",""hori"",""left"",[106,-106],[-150,0]]",circle,red,hori,left,"[106,-106]","[-150,0]",left,1,1.5213,,,,,,001,2025-03-17_13h06.44.443,SL_base,2021.2.3,Win32,60.0024001,,,76,0,76,0,1,,,,,,,,
,,"[""circle"",""green"",""vert"",""up"",[0,-150],[106,106]]",circle,green,vert,up,"[0,-150]","[106,106]",up,1,1.239,,,,,,001,2025-03-17_13h06.44.443,SL_base,2021.2.3,Win32,60.0024001,,,77,0,77,0,1,,,,,,,,
,,"[""circle"",""green"",""vert"",""up"",[106,-106],[0,-150]]",circle,green,vert,up,"[106,-106]","[0,-150]",up,1,1.6892,,,,,,001,2025-03-17_13h06.44.443,SL_base,2021.2.3,Win32,60.0024001,,,78,0,78,0,1,,,,,,,,
,,"[""diamond"",""no_dis"",""vert"",""up"",[99999,99999],[0,150]]",diamond,no_dis,vert,up,"[99999,99999]","[0,150]",up,1,1.6369,,,,,,001,2025-03-17_13h06.44.443,SL_base,2021.2.3,Win32,60.0024001,,,79,0,79,0,1,,,,,,,,
,,"[""circle"",""red"",""vert"",""up"",[0,-150],[0,150]]",circle,red,vert,up,"[0,-150]","[0,150]",up,1,2.018,,,,,,001,2025-03-17_13h06.44.443,SL_base,2021.2.3,Win32,60.0024001,,,80,0,80,0,1,,,,,,,,
,,"[""circle"",""red"",""hori"",""left"",[0,150],[106,106]]",circle,red,hori,left,"[0,150]","[106,106]",left,1,1.5921,,,,,,001,2025-03-17_13h06.44.443,SL_base,2021.2.3,Win32,60.0024001,,,81,0,81,0,1,,,,,,,,
,,"[""circle"",""green"",""hori"",""left"",[0,-150],[0,150]]",circle,green,hori,left,"[0,-150]","[0,150]",left,1,1.6501,,,,,,001,2025-03-17_13h06.44.443,SL_base,2021.2.3,Win32,60.0024001,,,82,0,82,0,1,,,,,,,,
,,"[""diamond"",""red"",""vert"",""up"",[-106,-106],[106,106]]",diamond,red,vert,up,"[-106,-106]","[106,106]",up,1,1.5287,,,,,,001,2025-03-17_13h06.44.443,SL_base,2021.2.3,Win32,60.0024001,,,83,0,83,0,1,,,,,,,,
,,"[""diamond"",""green"",""vert"",""up"",[-106,106],[-106,-106]]",diamond,green,vert,up,"[-106,106]","[-106,-106]",up,1,1.8459,,,,,,001,2025-03-17_13h06.44.443,SL_base,2021.2.3,Win32,60.0024001,,,84,0,84,0,1,,,,,,,,
,,"[""diamond"",""red"",""hori"",""left"",[-106,-106],[0,150]]",diamond,red,hori,left,"[-106,-106]","[0,150]",left,1,1.3485,,,,,,001,2025-03-17_13h06.44.443,SL_base,2021.2.3,Win32,60.0024001,,,85,0,85,0,1,,,,,,,,
,,"[""diamond"",""red"",""vert"",""up"",[150,0],[-106,106]]",diamond,red,vert,up,"[150,0]","[-106,106]",up,1,1.3517,,,,,,001,2025-03-17_13h06.44.443,SL_base,2021.2.3,Win32,60.0024001,,,86,0,86,0,1,,,,,,,,
,,"[""diamond"",""no_dis"",""hori"",""left"",[99999,99999],[-150,0]]",diamond,no_dis,hori,left,"[99999,99999]","[-150,0]",left,1,1.1447,,,,,,001,2025-03-17_13h06.44.443,SL_base,2021.2.3,Win32,60.0024001,,,87,0,87,0,1,,,,,,,,
,,"[""diamond"",""no_dis"",""vert"",""up"",[99999,99999],[0,150]]",diamond,no_dis,vert,up,"[99999,99999]","[0,150]",up,1,1.257,,,,,,001,2025-03-17_13h06.44.443,SL_base,2021.2.3,Win32,60.0024001,,,88,0,88,0,1,,,,,,,,
,,"[""circle"",""no_dis"",""hori"",""left"",[99999,99999],[106,106]]",circle,no_dis,hori,left,"[99999,99999]","[106,106]",left,1,1.3509,,,,,,001,2025-03-17_13h06.44.443,SL_base,2021.2.3,Win32,60.0024001,,,89,0,89,0,1,,,,,,,,
,,"[""circle"",""green"",""hori"",""left"",[106,-106],[0,150]]",circle,green,hori,left,"[106,-106]","[0,150]",,0,,,,,,,001,2025-03-17_13h06.44.443,SL_base,2021.2.3,Win32,60.0024001,,,90,0,90,0,1,,,,,,,,
,,"[""diamond"",""red"",""hori"",""left"",[106,106],[0,150]]",diamond,red,hori,left,"[106,106]","[0,150]",left,1,1.9625,,,,,,001,2025-03-17_13h06.44.443,SL_base,2021.2.3,Win32,60.0024001,,,91,0,91,0,1,,,,,,,,
,,"[""diamond"",""red"",""hori"",""left"",[-150,0],[106,-106]]",diamond,red,hori,left,"[-150,0]","[106,-106]",left,1,1.3435,,,,,,001,2025-03-17_13h06.44.443,SL_base,2021.2.3,Win32,60.0024001,,,92,0,92,0,1,,,,,,,,
,,"[""circle"",""red"",""hori"",""left"",[106,106],[150,0]]",circle,red,hori,left,"[106,106]","[150,0]",left,1,1.4694,,,,,,001,2025-03-17_13h06.44.443,SL_base,2021.2.3,Win32,60.0024001,,,93,0,93,0,1,,,,,,,,
,,"[""circle"",""green"",""hori"",""left"",[-150,0],[106,106]]",circle,green,hori,left,"[-150,0]","[106,106]",left,1,1.2011,,,,,,001,2025-03-17_13h06.44.443,SL_base,2021.2.3,Win32,60.0024001,,,94,0,94,0,1,,,,,,,,
,,"[""circle"",""red"",""hori"",""left"",[0,-150],[-150,0]]",circle,red,hori,left,"[0,-150]","[-150,0]",left,1,1.1607,,,,,,001,2025-03-17_13h06.44.443,SL_base,2021.2.3,Win32,60.0024001,,,95,0,95,0,1,,,,,,,,
,,"[""diamond"",""no_dis"",""vert"",""up"",[99999,99999],[-106,-106]]",diamond,no_dis,vert,up,"[99999,99999]","[-106,-106]",up,1,1.0993,,,,,,001,2025-03-17_13h06.44.443,SL_base,2021.2.3,Win32,60.0024001,,,96,0,96,0,1,,,,,,,,
,,"[""circle"",""green"",""hori"",""left"",[0,-150],[106,106]]",circle,green,hori,left,"[0,-150]","[106,106]",left,1,1.1584,,,,,,001,2025-03-17_13h06.44.443,SL_base,2021.2.3,Win32,60.0024001,,,97,0,97,0,1,,,,,,,,
,,"[""circle"",""no_dis"",""vert"",""up"",[99999,99999],[-106,-106]]",circle,no_dis,vert,up,"[99999,99999]","[-106,-106]",up,1,1.24,,,,,,001,2025-03-17_13h06.44.443,SL_base,2021.2.3,Win32,60.0024001,,,98,0,98,0,1,,,,,,,,
,,"[""circle"",""red"",""vert"",""up"",[-150,0],[106,106]]",circle,red,vert,up,"[-150,0]","[106,106]",up,1,1.14,,,,,,001,2025-03-17_13h06.44.443,SL_base,2021.2.3,Win32,60.0024001,,,99,0,99,0,1,,,,,,,,
,,"[""diamond"",""green"",""vert"",""up"",[106,-106],[150,0]]",diamond,green,vert,up,"[106,-106]","[150,0]",up,1,1.22,,,,,,001,2025-03-17_13h06.44.443,SL_base,2021.2.3,Win32,60.0024001,,,100,0,100,0,1,,,,,,,,
,,"[""circle"",""no_dis"",""hori"",""left"",[99999,99999],[-150,0]]",circle,no_dis,hori,left,"[99999,99999]","[-150,0]",left,1,1.0909,,,,,,001,2025-03-17_13h06.44.443,SL_base,2021.2.3,Win32,60.0024001,,,101,0,101,0,1,,,,,,,,
,,"[""diamond"",""red"",""hori"",""left"",[0,150],[150,0]]",diamond,red,hori,left,"[0,150]","[150,0]",left,1,1.2077,,,,,,001,2025-03-17_13h06.44.443,SL_base,2021.2.3,Win32,60.0024001,,,102,0,102,0,1,,,,,,,,
,,"[""diamond"",""red"",""vert"",""up"",[106,-106],[-150,0]]",diamond,red,vert,up,"[106,-106]","[-150,0]",up,1,1.0569,,,,,,001,2025-03-17_13h06.44.443,SL_base,2021.2.3,Win32,60.0024001,,,103,0,103,0,1,,,,,,,,
,,"[""diamond"",""red"",""hori"",""left"",[106,-106],[0,-150]]",diamond,red,hori,left,"[106,-106]","[0,-150]",left,1,1.1445,,,,,,001,2025-03-17_13h06.44.443,SL_base,2021.2.3,Win32,60.0024001,,,104,0,104,0,1,,,,,,,,
,,"[""circle"",""red"",""hori"",""left"",[0,150],[-106,-106]]",circle,red,hori,left,"[0,150]","[-106,-106]",left,1,1.1722,,,,,,001,2025-03-17_13h06.44.443,SL_base,2021.2.3,Win32,60.0024001,,,105,0,105,0,1,,,,,,,,
,,"[""diamond"",""red"",""vert"",""up"",[-106,106],[-106,-106]]",diamond,red,vert,up,"[-106,106]","[-106,-106]",up,1,1.2887,,,,,,001,2025-03-17_13h06.44.443,SL_base,2021.2.3,Win32,60.0024001,,,106,0,106,0,1,,,,,,,,
,,"[""circle"",""green"",""hori"",""left"",[0,150],[150,0]]",circle,green,hori,left,"[0,150]","[150,0]",left,1,1.354,,,,,,001,2025-03-17_13h06.44.443,SL_base,2021.2.3,Win32,60.0024001,,,107,0,107,0,1,,,,,,,,
,,"[""circle"",""no_dis"",""hori"",""left"",[99999,99999],[-106,-106]]",circle,no_dis,hori,left,"[99999,99999]","[-106,-106]",left,1,1.1787,,,,,,001,2025-03-17_13h06.44.443,SL_base,2021.2.3,Win32,60.0024001,,,108,0,108,0,1,,,,,,,,
,,"[""diamond"",""no_dis"",""hori"",""left"",[99999,99999],[-150,0]]",diamond,no_dis,hori,left,"[99999,99999]","[-150,0]",left,1,1.5645,,,,,,001,2025-03-17_13h06.44.443,SL_base,2021.2.3,Win32,60.0024001,,,109,0,109,0,1,,,,,,,,
,,"[""diamond"",""green"",""vert"",""up"",[-150,0],[0,-150]]",diamond,green,vert,up,"[-150,0]","[0,-150]",up,1,1.6069,,,,,,001,2025-03-17_13h06.44.443,SL_base,2021.2.3,Win32,60.0024001,,,110,0,110,0,1,,,,,,,,
,,"[""circle"",""green"",""vert"",""up"",[106,-106],[150,0]]",circle,green,vert,up,"[106,-106]","[150,0]",up,1,1.5613,,,,,,001,2025-03-17_13h06.44.443,SL_base,2021.2.3,Win32,60.0024001,,,111,0,111,0,1,,,,,,,,
,,"[""diamond"",""red"",""vert"",""up"",[-106,106],[0,150]]",diamond,red,vert,up,"[-106,106]","[0,150]",up,1,1.2963,,,,,,001,2025-03-17_13h06.44.443,SL_base,2021.2.3,Win32,60.0024001,,,112,0,112,0,1,,,,,,,,
,,"[""circle"",""red"",""hori"",""left"",[0,150],[-106,-106]]",circle,red,hori,left,"[0,150]","[-106,-106]",left,1,1.2846,,,,,,001,2025-03-17_13h06.44.443,SL_base,2021.2.3,Win32,60.0024001,,,113,0,113,0,1,,,,,,,,
,,"[""diamond"",""no_dis"",""hori"",""left"",[99999,99999],[106,-106]]",diamond,no_dis,hori,left,"[99999,99999]","[106,-106]",left,1,1.5132,,,,,,001,2025-03-17_13h06.44.443,SL_base,2021.2.3,Win32,60.0024001,,,114,0,114,0,1,,,,,,,,
,,"[""diamond"",""green"",""hori"",""left"",[-106,106],[106,-106]]",diamond,green,hori,left,"[-106,106]","[106,-106]",left,1,1.0511,,,,,,001,2025-03-17_13h06.44.443,SL_base,2021.2.3,Win32,60.0024001,,,115,0,115,0,1,,,,,,,,
,,"[""circle"",""red"",""vert"",""up"",[106,106],[-150,0]]",circle,red,vert,up,"[106,106]","[-150,0]",up,1,1.7567,,,,,,001,2025-03-17_13h06.44.443,SL_base,2021.2.3,Win32,60.0024001,,,116,0,116,0,1,,,,,,,,
,,"[""diamond"",""green"",""hori"",""left"",[150,0],[0,-150]]",diamond,green,hori,left,"[150,0]","[0,-150]",left,1,1.4442,,,,,,001,2025-03-17_13h06.44.443,SL_base,2021.2.3,Win32,60.0024001,,,117,0,117,0,1,,,,,,,,
,,"[""diamond"",""green"",""hori"",""left"",[150,0],[-106,106]]",diamond,green,hori,left,"[150,0]","[-106,106]",left,1,1.2094,,,,,,001,2025-03-17_13h06.44.443,SL_base,2021.2.3,Win32,60.0024001,,,118,0,118,0,1,,,,,,,,
,,"[""circle"",""green"",""vert"",""up"",[-106,-106],[106,-106]]",circle,green,vert,up,"[-106,-106]","[106,-106]",up,1,1.4625,,,,,,001,2025-03-17_13h06.44.443,SL_base,2021.2.3,Win32,60.0024001,,,119,0,119,0,1,,,,,,,,
,,,,,,,,,,,,,,,,,001,2025-03-17_13h06.44.443,SL_base,2021.2.3,Win32,60.0024001,,,,,,,,2,space,26.611,1,0,1,0,1
,,"[""circle"",""green"",""hori"",""left"",[150,0],[106,106]]",circle,green,hori,left,"[150,0]","[106,106]",left,1,1.8894,,,,,,001,2025-03-17_13h06.44.443,SL_base,2021.2.3,Win32,60.0024001,,,0,0,0,0,1,,,,,,,,
,,"[""diamond"",""no_dis"",""vert"",""up"",[99999,99999],[106,-106]]",diamond,no_dis,vert,up,"[99999,99999]","[106,-106]",up,1,1.0883,,,,,,001,2025-03-17_13h06.44.443,SL_base,2021.2.3,Win32,60.0024001,,,1,0,1,0,1,,,,,,,,
,,"[""diamond"",""red"",""vert"",""up"",[150,0],[-106,106]]",diamond,red,vert,up,"[150,0]","[-106,106]",up,1,1.1472,,,,,,001,2025-03-17_13h06.44.443,SL_base,2021.2.3,Win32,60.0024001,,,2,0,2,0,1,,,,,,,,
,,"[""circle"",""no_dis"",""hori"",""left"",[99999,99999],[106,-106]]",circle,no_dis,hori,left,"[99999,99999]","[106,-106]",left,1,0.9487,,,,,,001,2025-03-17_13h06.44.443,SL_base,2021.2.3,Win32,60.0024001,,,3,0,3,0,1,,,,,,,,
,,"[""circle"",""no_dis"",""hori"",""left"",[99999,99999],[-106,-106]]",circle,no_dis,hori,left,"[99999,99999]","[-106,-106]",left,1,1.0908,,,,,,001,2025-03-17_13h06.44.443,SL_base,2021.2.3,Win32,60.0024001,,,4,0,4,0,1,,,,,,,,
,,"[""circle"",""no_dis"",""hori"",""left"",[99999,99999],[-106,106]]",circle,no_dis,hori,left,"[99999,99999]","[-106,106]",left,1,1.0792,,,,,,001,2025-03-17_13h06.44.443,SL_base,2021.2.3,Win32,60.0024001,,,5,0,5,0,1,,,,,,,,
,,"[""circle"",""red"",""vert"",""up"",[106,106],[-150,0]]",circle,red,vert,up,"[106,106]","[-150,0]",up,1,0.9742,,,,,,001,2025-03-17_13h06.44.443,SL_base,2021.2.3,Win32,60.0024001,,,6,0,6,0,1,,,,,,,,
,,"[""diamond"",""no_dis"",""vert"",""up"",[99999,99999],[-106,106]]",diamond,no_dis,vert,up,"[99999,99999]","[-106,106]",up,1,1.1838,,,,,,001,2025-03-17_13h06.44.443,SL_base,2021.2.3,Win32,60.0024001,,,7,0,7,0,1,,,,,,,,
,,"[""circle"",""no_dis"",""hori"",""left"",[99999,99999],[106,106]]",circle,no_dis,hori,left,"[99999,99999]","[106,106]",left,1,0.8742,,,,,,001,2025-03-17_13h06.44.443,SL_base,2021.2.3,Win32,60.0024001,,,8,0,8,0,1,,,,,,,,
,,"[""circle"",""green"",""vert"",""up"",[0,-150],[106,106]]",circle,green,vert,up,"[0,-150]","[106,106]",up,1,1.57,,,,,,001,2025-03-17_13h06.44.443,SL_base,2021.2.3,Win32,60.0024001,,,9,0,9,0,1,,,,,,,,
,,"[""circle"",""red"",""vert"",""up"",[-150,0],[106,106]]",circle,red,vert,up,"[-150,0]","[106,106]",up,1,1.2339,,,,,,001,2025-03-17_13h06.44.443,SL_base,2021.2.3,Win32,60.0024001,,,10,0,10,0,1,,,,,,,,
,,"[""diamond"",""green"",""vert"",""up"",[106,-106],[150,0]]",diamond,green,vert,up,"[106,-106]","[150,0]",up,1,1.4756,,,,,,001,2025-03-17_13h06.44.443,SL_base,2021.2.3,Win32,60.0024001,,,11,0,11,0,1,,,,,,,,
,,"[""circle"",""green"",""hori"",""left"",[-106,-106],[106,106]]",circle,green,hori,left,"[-106,-106]","[106,106]",left,1,0.9124,,,,,,001,2025-03-17_13h06.44.443,SL_base,2021.2.3,Win32,60.0024001,,,12,0,12,0,1,,,,,,,,
,,"[""diamond"",""red"",""hori"",""left"",[-106,-106],[0,-150]]",diamond,red,hori,left,"[-106,-106]","[0,-150]",left,1,1.0371,,,,,,001,2025-03-17_13h06.44.443,SL_base,2021.2.3,Win32,60.0024001,,,13,0,13,0,1,,,,,,,,
,,"[""diamond"",""no_dis"",""hori"",""left"",[99999,99999],[-106,106]]",diamond,no_dis,hori,left,"[99999,99999]","[-106,106]",left,1,1.1406,,,,,,001,2025-03-17_13h06.44.443,SL_base,2021.2.3,Win32,60.0024001,,,14,0,14,0,1,,,,,,,,
,,"[""diamond"",""red"",""hori"",""left"",[-150,0],[106,-106]]",diamond,red,hori,left,"[-150,0]","[106,-106]",left,1,1.1467,,,,,,001,2025-03-17_13h06.44.443,SL_base,2021.2.3,Win32,60.0024001,,,15,0,15,0,1,,,,,,,,
,,"[""diamond"",""green"",""vert"",""up"",[-106,106],[-106,-106]]",diamond,green,vert,up,"[-106,106]","[-106,-106]",up,1,1.1015,,,,,,001,2025-03-17_13h06.44.443,SL_base,2021.2.3,Win32,60.0024001,,,16,0,16,0,1,,,,,,,,
,,"[""diamond"",""no_dis"",""hori"",""left"",[99999,99999],[-150,0]]",diamond,no_dis,hori,left,"[99999,99999]","[-150,0]",left,1,1.1511,,,,,,001,2025-03-17_13h06.44.443,SL_base,2021.2.3,Win32,60.0024001,,,17,0,17,0,1,,,,,,,,
,,"[""circle"",""red"",""vert"",""up"",[106,-106],[150,0]]",circle,red,vert,up,"[106,-106]","[150,0]",up,1,1.242,,,,,,001,2025-03-17_13h06.44.443,SL_base,2021.2.3,Win32,60.0024001,,,18,0,18,0,1,,,,,,,,
,,"[""circle"",""green"",""vert"",""up"",[-106,-106],[-150,0]]",circle,green,vert,up,"[-106,-106]","[-150,0]",up,1,1.3691,,,,,,001,2025-03-17_13h06.44.443,SL_base,2021.2.3,Win32,60.0024001,,,19,0,19,0,1,,,,,,,,
,,"[""diamond"",""no_dis"",""hori"",""left"",[99999,99999],[106,-106]]",diamond,no_dis,hori,left,"[99999,99999]","[106,-106]",left,1,1.122,,,,,,001,2025-03-17_13h06.44.443,SL_base,2021.2.3,Win32,60.0024001,,,20,0,20,0,1,,,,,,,,
,,"[""diamond"",""no_dis"",""hori"",""left"",[99999,99999],[150,0]]",diamond,no_dis,hori,left,"[99999,99999]","[150,0]",left,1,0.7789,,,,,,001,2025-03-17_13h06.44.443,SL_base,2021.2.3,Win32,60.0024001,,,21,0,21,0,1,,,,,,,,
,,"[""diamond"",""red"",""hori"",""left"",[0,150],[150,0]]",diamond,red,hori,left,"[0,150]","[150,0]",left,1,1.0664,,,,,,001,2025-03-17_13h06.44.443,SL_base,2021.2.3,Win32,60.0024001,,,22,0,22,0,1,,,,,,,,
,,"[""diamond"",""no_dis"",""hori"",""left"",[99999,99999],[106,-106]]",diamond,no_dis,hori,left,"[99999,99999]","[106,-106]",left,1,0.9199,,,,,,001,2025-03-17_13h06.44.443,SL_base,2021.2.3,Win32,60.0024001,,,23,0,23,0,1,,,,,,,,
,,"[""diamond"",""red"",""hori"",""left"",[-106,106],[0,-150]]",diamond,red,hori,left,"[-106,106]","[0,-150]",left,1,0.9844,,,,,,001,2025-03-17_13h06.44.443,SL_base,2021.2.3,Win32,60.0024001,,,24,0,24,0,1,,,,,,,,
,,"[""diamond"",""no_dis"",""hori"",""left"",[99999,99999],[-150,0]]",diamond,no_dis,hori,left,"[99999,99999]","[-150,0]",left,1,0.9443,,,,,,001,2025-03-17_13h06.44.443,SL_base,2021.2.3,Win32,60.0024001,,,25,0,25,0,1,,,,,,,,
,,"[""circle"",""red"",""vert"",""up"",[106,106],[-150,0]]",circle,red,vert,up,"[106,106]","[-150,0]",up,1,1.358,,,,,,001,2025-03-17_13h06.44.443,SL_base,2021.2.3,Win32,60.0024001,,,26,0,26,0,1,,,,,,,,
,,"[""diamond"",""no_dis"",""hori"",""left"",[99999,99999],[-106,-106]]",diamond,no_dis,hori,left,"[99999,99999]","[-106,-106]",left,1,1.0231,,,,,,001,2025-03-17_13h06.44.443,SL_base,2021.2.3,Win32,60.0024001,,,27,0,27,0,1,,,,,,,,
,,"[""circle"",""red"",""hori"",""left"",[150,0],[-150,0]]",circle,red,hori,left,"[150,0]","[-150,0]",left,1,1.2254,,,,,,001,2025-03-17_13h06.44.443,SL_base,2021.2.3,Win32,60.0024001,,,28,0,28,0,1,,,,,,,,
,,"[""circle"",""red"",""hori"",""left"",[0,-150],[-150,0]]",circle,red,hori,left,"[0,-150]","[-150,0]",left,1,1.1226,,,,,,001,2025-03-17_13h06.44.443,SL_base,2021.2.3,Win32,60.0024001,,,29,0,29,0,1,,,,,,,,
,,"[""diamond"",""green"",""vert"",""up"",[106,106],[150,0]]",diamond,green,vert,up,"[106,106]","[150,0]",up,1,1.2014,,,,,,001,2025-03-17_13h06.44.443,SL_base,2021.2.3,Win32,60.0024001,,,30,0,30,0,1,,,,,,,,
,,"[""diamond"",""green"",""hori"",""left"",[150,0],[0,-150]]",diamond,green,hori,left,"[150,0]","[0,-150]",left,1,1.2101,,,,,,001,2025-03-17_13h06.44.443,SL_base,2021.2.3,Win32,60.0024001,,,31,0,31,0,1,,,,,,,,
,,"[""circle"",""no_dis"",""vert"",""up"",[99999,99999],[-150,0]]",circle,no_dis,vert,up,"[99999,99999]","[-150,0]",up,1,1.3263,,,,,,001,2025-03-17_13h06.44.443,SL_base,2021.2.3,Win32,60.0024001,,,32,0,32,0,1,,,,,,,,
,,"[""circle"",""no_dis"",""hori"",""left"",[99999,99999],[106,106]]",circle,no_dis,hori,left,"[99999,99999]","[106,106]",left,1,1.7781,,,,,,001,2025-03-17_13h06.44.443,SL_base,2021.2.3,Win32,60.0024001,,,33,0,33,0,1,,,,,,,,
,,"[""circle"",""no_dis"",""hori"",""left"",[99999,99999],[150,0]]",circle,no_dis,hori,left,"[99999,99999]","[150,0]",left,1,1.0836,,,,,,001,2025-03-17_13h06.44.443,SL_base,2021.2.3,Win32,60.0024001,,,34,0,34,0,1,,,,,,,,
,,"[""diamond"",""no_dis"",""hori"",""left"",[99999,99999],[-106,106]]",diamond,no_dis,hori,left,"[99999,99999]","[-106,106]",left,1,1.2705,,,,,,001,2025-03-17_13h06.44.443,SL_base,2021.2.3,Win32,60.0024001,,,35,0,35,0,1,,,,,,,,
,,"[""circle"",""red"",""vert"",""up"",[150,0],[-150,0]]",circle,red,vert,up,"[150,0]","[-150,0]",up,1,1.1899,,,,,,001,2025-03-17_13h06.44.443,SL_base,2021.2.3,Win32,60.0024001,,,36,0,36,0,1,,,,,,,,
,,"[""circle"",""no_dis"",""vert"",""up"",[99999,99999],[0,-150]]",circle,no_dis,vert,up,"[99999,99999]","[0,-150]",up,1,1.1406,,,,,,001,2025-03-17_13h06.44.443,SL_base,2021.2.3,Win32,60.0024001,,,37,0,37,0,1,,,,,,,,
,,"[""circle"",""red"",""vert"",""up"",[106,-106],[0,-150]]",circle,red,vert,up,"[106,-106]","[0,-150]",up,1,1.1674,,,,,,001,2025-03-17_13h06.44.443,SL_base,2021.2.3,Win32,60.0024001,,,38,0,38,0,1,,,,,,,,
,,"[""diamond"",""no_dis"",""vert"",""up"",[99999,99999],[106,106]]",diamond,no_dis,vert,up,"[99999,99999]","[106,106]",up,1,1.0233,,,,,,001,2025-03-17_13h06.44.443,SL_base,2021.2.3,Win32,60.0024001,,,39,0,39,0,1,,,,,,,,
,,"[""circle"",""red"",""hori"",""left"",[0,-150],[150,0]]",circle,red,hori,left,"[0,-150]","[150,0]",left,1,1.0188,,,,,,001,2025-03-17_13h06.44.443,SL_base,2021.2.3,Win32,60.0024001,,,40,0,40,0,1,,,,,,,,
,,"[""circle"",""red"",""hori"",""left"",[0,150],[-106,-106]]",circle,red,hori,left,"[0,150]","[-106,-106]",left,1,1.2287,,,,,,001,2025-03-17_13h06.44.443,SL_base,2021.2.3,Win32,60.0024001,,,41,0,41,0,1,,,,,,,,
,,"[""circle"",""no_dis"",""hori"",""left"",[99999,99999],[106,-106]]",circle,no_dis,hori,left,"[99999,99999]","[106,-106]",left,1,1.2574,,,,,,001,2025-03-17_13h06.44.443,SL_base,2021.2.3,Win32,60.0024001,,,42,0,42,0,1,,,,,,,,
,,"[""circle"",""green"",""vert"",""up"",[-150,0],[0,150]]",circle,green,vert,up,"[-150,0]","[0,150]",up,1,1.4013,,,,,,001,2025-03-17_13h06.44.443,SL_base,2021.2.3,Win32,60.0024001,,,43,0,43,0,1,,,,,,,,
,,"[""circle"",""no_dis"",""vert"",""up"",[99999,99999],[0,-150]]",circle,no_dis,vert,up,"[99999,99999]","[0,-150]",up,1,1.0859,,,,,,001,2025-03-17_13h06.44.443,SL_base,2021.2.3,Win32,60.0024001,,,44,0,44,0,1,,,,,,,,
,,"[""circle"",""red"",""hori"",""left"",[0,150],[-106,-106]]",circle,red,hori,left,"[0,150]","[-106,-106]",left,1,1.108,,,,,,001,2025-03-17_13h06.44.443,SL_base,2021.2.3,Win32,60.0024001,,,45,0,45,0,1,,,,,,,,
,,"[""circle"",""green"",""vert"",""up"",[0,-150],[106,106]]",circle,green,vert,up,"[0,-150]","[106,106]",up,1,1.0002,,,,,,001,2025-03-17_13h06.44.443,SL_base,2021.2.3,Win32,60.0024001,,,46,0,46,0,1,,,,,,,,
,,"[""circle"",""red"",""hori"",""left"",[106,-106],[0,150]]",circle,red,hori,left,"[106,-106]","[0,150]",left,1,1.4347,,,,,,001,2025-03-17_13h06.44.443,SL_base,2021.2.3,Win32,60.0024001,,,47,0,47,0,1,,,,,,,,
,,"[""diamond"",""no_dis"",""vert"",""up"",[99999,99999],[0,150]]",diamond,no_dis,vert,up,"[99999,99999]","[0,150]",up,1,1.0188,,,,,,001,2025-03-17_13h06.44.443,SL_base,2021.2.3,Win32,60.0024001,,,48,0,48,0,1,,,,,,,,
,,"[""circle"",""red"",""hori"",""left"",[106,-106],[106,106]]",circle,red,hori,left,"[106,-106]","[106,106]",left,1,1.1016,,,,,,001,2025-03-17_13h06.44.443,SL_base,2021.2.3,Win32,60.0024001,,,49,0,49,0,1,,,,,,,,
,,"[""circle"",""red"",""vert"",""up"",[0,-150],[0,150]]",circle,red,vert,up,"[0,-150]","[0,150]",up,1,0.8343,,,,,,001,2025-03-17_13h06.44.443,SL_base,2021.2.3,Win32,60.0024001,,,50,0,50,0,1,,,,,,,,
,,"[""circle"",""green"",""vert"",""up"",[-106,-106],[106,-106]]",circle,green,vert,up,"[-106,-106]","[106,-106]",up,1,1.0172,,,,,,001,2025-03-17_13h06.44.443,SL_base,2021.2.3,Win32,60.0024001,,,51,0,51,0,1,,,,,,,,
,,"[""circle"",""green"",""vert"",""up"",[106,-106],[150,0]]",circle,green,vert,up,"[106,-106]","[150,0]",up,1,1.1683,,,,,,001,2025-03-17_13h06.44.443,SL_base,2021.2.3,Win32,60.0024001,,,52,0,52,0,1,,,,,,,,
,,"[""circle"",""no_dis"",""vert"",""up"",[99999,99999],[0,-150]]",circle,no_dis,vert,up,"[99999,99999]","[0,-150]",up,1,0.9504,,,,,,001,2025-03-17_13h06.44.443,SL_base,2021.2.3,Win32,60.0024001,,,53,0,53,0,1,,,,,,,,
,,"[""diamond"",""green"",""vert"",""up"",[106,-106],[0,150]]",diamond,green,vert,up,"[106,-106]","[0,150]",up,1,1.1973,,,,,,001,2025-03-17_13h06.44.443,SL_base,2021.2.3,Win32,60.0024001,,,54,0,54,0,1,,,,,,,,
,,"[""circle"",""red"",""hori"",""left"",[106,106],[150,0]]",circle,red,hori,left,"[106,106]","[150,0]",left,1,0.9765,,,,,,001,2025-03-17_13h06.44.443,SL_base,2021.2.3,Win32,60.0024001,,,55,0,55,0,1,,,,,,,,
,,"[""circle"",""red"",""hori"",""left"",[0,150],[106,106]]",circle,red,hori,left,"[0,150]","[106,106]",left,1,1.4112,,,,,,001,2025-03-17_13h06.44.443,SL_base,2021.2.3,Win32,60.0024001,,,56,0,56,0,1,,,,,,,,
,,"[""diamond"",""red"",""vert"",""up"",[0,150],[0,-150]]",diamond,red,vert,up,"[0,150]","[0,-150]",up,1,1.104,,,,,,001,2025-03-17_13h06.44.443,SL_base,2021.2.3,Win32,60.0024001,,,57,0,57,0,1,,,,,,,,
,,"[""diamond"",""green"",""vert"",""up"",[106,-106],[0,150]]",diamond,green,vert,up,"[106,-106]","[0,150]",up,1,1.1167,,,,,,001,2025-03-17_13h06.44.443,SL_base,2021.2.3,Win32,60.0024001,,,58,0,58,0,1,,,,,,,,
,,"[""diamond"",""no_dis"",""hori"",""left"",[99999,99999],[-106,-106]]",diamond,no_dis,hori,left,"[99999,99999]","[-106,-106]",left,1,1.0338,,,,,,001,2025-03-17_13h06.44.443,SL_base,2021.2.3,Win32,60.0024001,,,59,0,59,0,1,,,,,,,,
,,"[""diamond"",""red"",""hori"",""left"",[106,-106],[-150,0]]",diamond,red,hori,left,"[106,-106]","[-150,0]",left,1,1.0903,,,,,,001,2025-03-17_13h06.44.443,SL_base,2021.2.3,Win32,60.0024001,,,60,0,60,0,1,,,,,,,,
,,"[""diamond"",""green"",""hori"",""left"",[106,-106],[0,-150]]",diamond,green,hori,left,"[106,-106]","[0,-150]",left,1,1.4322,,,,,,001,2025-03-17_13h06.44.443,SL_base,2021.2.3,Win32,60.0024001,,,61,0,61,0,1,,,,,,,,
,,"[""circle"",""green"",""hori"",""left"",[0,150],[150,0]]",circle,green,hori,left,"[0,150]","[150,0]",left,1,1.2849,,,,,,001,2025-03-17_13h06.44.443,SL_base,2021.2.3,Win32,60.0024001,,,62,0,62,0,1,,,,,,,,
,,"[""circle"",""no_dis"",""vert"",""up"",[99999,99999],[-106,-106]]",circle,no_dis,vert,up,"[99999,99999]","[-106,-106]",up,1,0.9927,,,,,,001,2025-03-17_13h06.44.443,SL_base,2021.2.3,Win32,60.0024001,,,63,0,63,0,1,,,,,,,,
,,"[""diamond"",""red"",""hori"",""left"",[106,-106],[0,-150]]",diamond,red,hori,left,"[106,-106]","[0,-150]",left,1,1.063,,,,,,001,2025-03-17_13h06.44.443,SL_base,2021.2.3,Win32,60.0024001,,,64,0,64,0,1,,,,,,,,
,,"[""diamond"",""green"",""vert"",""up"",[-106,-106],[150,0]]",diamond,green,vert,up,"[-106,-106]","[150,0]",up,1,1.1513,,,,,,001,2025-03-17_13h06.44.443,SL_base,2021.2.3,Win32,60.0024001,,,65,0,65,0,1,,,,,,,,
,,"[""diamond"",""red"",""hori"",""left"",[-106,106],[0,-150]]",diamond,red,hori,left,"[-106,106]","[0,-150]",left,1,1.0316,,,,,,001,2025-03-17_13h06.44.443,SL_base,2021.2.3,Win32,60.0024001,,,66,0,66,0,1,,,,,,,,
,,"[""diamond"",""red"",""vert"",""up"",[-106,-106],[106,106]]",diamond,red,vert,up,"[-106,-106]","[106,106]",up,1,0.9,,,,,,001,2025-03-17_13h06.44.443,SL_base,2021.2.3,Win32,60.0024001,,,67,0,67,0,1,,,,,,,,
,,"[""circle"",""no_dis"",""hori"",""left"",[99999,99999],[-150,0]]",circle,no_dis,hori,left,"[99999,99999]","[-150,0]",left,1,0.904,,,,,,001,2025-03-17_13h06.44.443,SL_base,2021.2.3,Win32,60.0024001,,,68,0,68,0,1,,,,,,,,
,,"[""diamond"",""green"",""vert"",""up"",[-150,0],[0,-150]]",diamond,green,vert,up,"[-150,0]","[0,-150]",up,1,1.1268,,,,,,001,2025-03-17_13h06.44.443,SL_base,2021.2.3,Win32,60.0024001,,,69,0,69,0,1,,,,,,,,
,,"[""diamond"",""no_dis"",""vert"",""up"",[99999,99999],[-106,-106]]",diamond,no_dis,vert,up,"[99999,99999]","[-106,-106]",up,1,0.7698,,,,,,001,2025-03-17_13h06.44.443,SL_base,2021.2.3,Win32,60.0024001,,,70,0,70,0,1,,,,,,,,
,,"[""circle"",""green"",""hori"",""left"",[-106,106],[150,0]]",circle,green,hori,left,"[-106,106]","[150,0]",left,1,1.2201,,,,,,001,2025-03-17_13h06.44.443,SL_base,2021.2.3,Win32,60.0024001,,,71,0,71,0,1,,,,,,,,
,,"[""diamond"",""green"",""hori"",""left"",[106,-106],[-150,0]]",diamond,green,hori,left,"[106,-106]","[-150,0]",left,1,1.1068,,,,,,001,2025-03-17_13h06.44.443,SL_base,2021.2.3,Win32,60.0024001,,,72,0,72,0,1,,,,,,,,
,,"[""diamond"",""red"",""vert"",""up"",[106,-106],[-150,0]]",diamond,red,vert,up,"[106,-106]","[-150,0]",up,1,0.9094,,,,,,001,2025-03-17_13h06.44.443,SL_base,2021.2.3,Win32,60.0024001,,,73,0,73,0,1,,,,,,,,
,,"[""circle"",""red"",""vert"",""up"",[0,-150],[106,-106]]",circle,red,vert,up,"[0,-150]","[106,-106]",up,1,1.0252,,,,,,001,2025-03-17_13h06.44.443,SL_base,2021.2.3,Win32,60.0024001,,,74,0,74,0,1,,,,,,,,
,,"[""diamond"",""green"",""hori"",""left"",[106,106],[-106,106]]",diamond,green,hori,left,"[106,106]","[-106,106]",left,1,1.0839,,,,,,001,2025-03-17_13h06.44.443,SL_base,2021.2.3,Win32,60.0024001,,,75,0,75,0,1,,,,,,,,
,,"[""diamond"",""green"",""hori"",""left"",[150,0],[-106,106]]",diamond,green,hori,left,"[150,0]","[-106,106]",left,1,1.0109,,,,,,001,2025-03-17_13h06.44.443,SL_base,2021.2.3,Win32,60.0024001,,,76,0,76,0,1,,,,,,,,
,,"[""diamond"",""red"",""vert"",""up"",[0,150],[-106,106]]",diamond,red,vert,up,"[0,150]","[-106,106]",up,1,1.1853,,,,,,001,2025-03-17_13h06.44.443,SL_base,2021.2.3,Win32,60.0024001,,,77,0,77,0,1,,,,,,,,
,,"[""diamond"",""green"",""vert"",""up"",[-106,106],[-106,-106]]",diamond,green,vert,up,"[-106,106]","[-106,-106]",up,1,1.1674,,,,,,001,2025-03-17_13h06.44.443,SL_base,2021.2.3,Win32,60.0024001,,,78,0,78,0,1,,,,,,,,
,,"[""diamond"",""red"",""vert"",""up"",[-106,-106],[0,-150]]",diamond,red,vert,up,"[-106,-106]","[0,-150]",up,1,0.8201,,,,,,001,2025-03-17_13h06.44.443,SL_base,2021.2.3,Win32,60.0024001,,,79,0,79,0,1,,,,,,,,
,,"[""diamond"",""green"",""hori"",""left"",[106,-106],[-106,-106]]",diamond,green,hori,left,"[106,-106]","[-106,-106]",left,1,0.7677,,,,,,001,2025-03-17_13h06.44.443,SL_base,2021.2.3,Win32,60.0024001,,,80,0,80,0,1,,,,,,,,
,,"[""diamond"",""red"",""hori"",""left"",[106,-106],[106,106]]",diamond,red,hori,left,"[106,-106]","[106,106]",left,1,0.8555,,,,,,001,2025-03-17_13h06.44.443,SL_base,2021.2.3,Win32,60.0024001,,,81,0,81,0,1,,,,,,,,
,,"[""circle"",""no_dis"",""hori"",""left"",[99999,99999],[0,150]]",circle,no_dis,hori,left,"[99999,99999]","[0,150]",left,1,1.7166,,,,,,001,2025-03-17_13h06.44.443,SL_base,2021.2.3,Win32,60.0024001,,,82,0,82,0,1,,,,,,,,
,,"[""diamond"",""green"",""hori"",""left"",[-106,106],[106,-106]]",diamond,green,hori,left,"[-106,106]","[106,-106]",left,1,1.2441,,,,,,001,2025-03-17_13h06.44.443,SL_base,2021.2.3,Win32,60.0024001,,,83,0,83,0,1,,,,,,,,
,,"[""diamond"",""green"",""hori"",""left"",[106,-106],[-150,0]]",diamond,green,hori,left,"[106,-106]","[-150,0]",left,1,0.8545,,,,,,001,2025-03-17_13h06.44.443,SL_base,2021.2.3,Win32,60.0024001,,,84,0,84,0,1,,,,,,,,
,,"[""circle"",""green"",""hori"",""left"",[-150,0],[106,106]]",circle,green,hori,left,"[-150,0]","[106,106]",left,1,1.0289,,,,,,001,2025-03-17_13h06.44.443,SL_base,2021.2.3,Win32,60.0024001,,,85,0,85,0,1,,,,,,,,
,,"[""diamond"",""green"",""hori"",""left"",[-150,0],[0,-150]]",diamond,green,hori,left,"[-150,0]","[0,-150]",left,1,1.2143,,,,,,001,2025-03-17_13h06.44.443,SL_base,2021.2.3,Win32,60.0024001,,,86,0,86,0,1,,,,,,,,
,,"[""diamond"",""red"",""vert"",""up"",[-106,106],[-106,-106]]",diamond,red,vert,up,"[-106,106]","[-106,-106]",up,1,1.016,,,,,,001,2025-03-17_13h06.44.443,SL_base,2021.2.3,Win32,60.0024001,,,87,0,87,0,1,,,,,,,,
,,"[""circle"",""green"",""vert"",""up"",[150,0],[0,150]]",circle,green,vert,up,"[150,0]","[0,150]",up,1,1.8012,,,,,,001,2025-03-17_13h06.44.443,SL_base,2021.2.3,Win32,60.0024001,,,88,0,88,0,1,,,,,,,,
,,"[""circle"",""green"",""hori"",""left"",[106,-106],[-106,-106]]",circle,green,hori,left,"[106,-106]","[-106,-106]",left,1,1.3186,,,,,,001,2025-03-17_13h06.44.443,SL_base,2021.2.3,Win32,60.0024001,,,89,0,89,0,1,,,,,,,,
,,"[""diamond"",""no_dis"",""vert"",""up"",[99999,99999],[106,106]]",diamond,no_dis,vert,up,"[99999,99999]","[106,106]",up,1,1.5436,,,,,,001,2025-03-17_13h06.44.443,SL_base,2021.2.3,Win32,60.0024001,,,90,0,90,0,1,,,,,,,,
,,"[""diamond"",""green"",""vert"",""up"",[-150,0],[-106,106]]",diamond,green,vert,up,"[-150,0]","[-106,106]",up,1,0.8952,,,,,,001,2025-03-17_13h06.44.443,SL_base,2021.2.3,Win32,60.0024001,,,91,0,91,0,1,,,,,,,,
,,"[""diamond"",""no_dis"",""vert"",""up"",[99999,99999],[0,150]]",diamond,no_dis,vert,up,"[99999,99999]","[0,150]",up,1,1.0428,,,,,,001,2025-03-17_13h06.44.443,SL_base,2021.2.3,Win32,60.0024001,,,92,0,92,0,1,,,,,,,,
,,"[""diamond"",""red"",""vert"",""up"",[106,-106],[-150,0]]",diamond,red,vert,up,"[106,-106]","[-150,0]",up,1,0.9511,,,,,,001,2025-03-17_13h06.44.443,SL_base,2021.2.3,Win32,60.0024001,,,93,0,93,0,1,,,,,,,,
,,"[""diamond"",""red"",""vert"",""up"",[106,-106],[106,106]]",diamond,red,vert,up,"[106,-106]","[106,106]",up,1,0.8409,,,,,,001,2025-03-17_13h06.44.443,SL_base,2021.2.3,Win32,60.0024001,,,94,0,94,0,1,,,,,,,,
,,"[""circle"",""green"",""vert"",""up"",[106,-106],[0,-150]]",circle,green,vert,up,"[106,-106]","[0,-150]",up,1,1.7835,,,,,,001,2025-03-17_13h06.44.443,SL_base,2021.2.3,Win32,60.0024001,,,95,0,95,0,1,,,,,,,,
,,"[""circle"",""green"",""vert"",""up"",[-150,0],[106,-106]]",circle,green,vert,up,"[-150,0]","[106,-106]",up,1,1.3226,,,,,,001,2025-03-17_13h06.44.443,SL_base,2021.2.3,Win32,60.0024001,,,96,0,96,0,1,,,,,,,,
,,"[""circle"",""red"",""vert"",""up"",[106,-106],[0,150]]",circle,red,vert,up,"[106,-106]","[0,150]",up,1,1.1879,,,,,,001,2025-03-17_13h06.44.443,SL_base,2021.2.3,Win32,60.0024001,,,97,0,97,0,1,,,,,,,,
,,"[""circle"",""green"",""hori"",""left"",[0,-150],[106,106]]",circle,green,hori,left,"[0,-150]","[106,106]",left,1,1.1575,,,,,,001,2025-03-17_13h06.44.443,SL_base,2021.2.3,Win32,60.0024001,,,98,0,98,0,1,,,,,,,,
,,"[""circle"",""green"",""hori"",""left"",[0,150],[106,106]]",circle,green,hori,left,"[0,150]","[106,106]",left,1,1.0507,,,,,,001,2025-03-17_13h06.44.443,SL_base,2021.2.3,Win32,60.0024001,,,99,0,99,0,1,,,,,,,,
,,"[""diamond"",""no_dis"",""vert"",""up"",[99999,99999],[-150,0]]",diamond,no_dis,vert,up,"[99999,99999]","[-150,0]",up,1,1.2976,,,,,,001,2025-03-17_13h06.44.443,SL_base,2021.2.3,Win32,60.0024001,,,100,0,100,0,1,,,,,,,,
,,"[""diamond"",""no_dis"",""hori"",""left"",[99999,99999],[0,-150]]",diamond,no_dis,hori,left,"[99999,99999]","[0,-150]",left,1,0.8873,,,,,,001,2025-03-17_13h06.44.443,SL_base,2021.2.3,Win32,60.0024001,,,101,0,101,0,1,,,,,,,,
,,"[""circle"",""no_dis"",""vert"",""up"",[99999,99999],[106,106]]",circle,no_dis,vert,up,"[99999,99999]","[106,106]",up,1,1.0452,,,,,,001,2025-03-17_13h06.44.443,SL_base,2021.2.3,Win32,60.0024001,,,102,0,102,0,1,,,,,,,,
,,"[""circle"",""green"",""vert"",""up"",[106,106],[0,-150]]",circle,green,vert,up,"[106,106]","[0,-150]",up,1,0.963,,,,,,001,2025-03-17_13h06.44.443,SL_base,2021.2.3,Win32,60.0024001,,,103,0,103,0,1,,,,,,,,
,,"[""circle"",""no_dis"",""vert"",""up"",[99999,99999],[0,150]]",circle,no_dis,vert,up,"[99999,99999]","[0,150]",up,1,1.0217,,,,,,001,2025-03-17_13h06.44.443,SL_base,2021.2.3,Win32,60.0024001,,,104,0,104,0,1,,,,,,,,
,,"[""diamond"",""no_dis"",""vert"",""up"",[99999,99999],[150,0]]",diamond,no_dis,vert,up,"[99999,99999]","[150,0]",up,1,1.296,,,,,,001,2025-03-17_13h06.44.443,SL_base,2021.2.3,Win32,60.0024001,,,105,0,105,0,1,,,,,,,,
,,"[""diamond"",""green"",""hori"",""left"",[106,-106],[150,0]]",diamond,green,hori,left,"[106,-106]","[150,0]",left,1,0.9055,,,,,,001,2025-03-17_13h06.44.443,SL_base,2021.2.3,Win32,60.0024001,,,106,0,106,0,1,,,,,,,,
,,"[""circle"",""no_dis"",""vert"",""up"",[99999,99999],[0,-150]]",circle,no_dis,vert,up,"[99999,99999]","[0,-150]",up,1,1.1587,,,,,,001,2025-03-17_13h06.44.443,SL_base,2021.2.3,Win32,60.0024001,,,107,0,107,0,1,,,,,,,,
,,"[""circle"",""no_dis"",""vert"",""up"",[99999,99999],[150,0]]",circle,no_dis,vert,up,"[99999,99999]","[150,0]",up,1,0.9937,,,,,,001,2025-03-17_13h06.44.443,SL_base,2021.2.3,Win32,60.0024001,,,108,0,108,0,1,,,,,,,,
,,"[""circle"",""no_dis"",""hori"",""left"",[99999,99999],[0,150]]",circle,no_dis,hori,left,"[99999,99999]","[0,150]",left,1,1.3522,,,,,,001,2025-03-17_13h06.44.443,SL_base,2021.2.3,Win32,60.0024001,,,109,0,109,0,1,,,,,,,,
,,"[""diamond"",""no_dis"",""vert"",""up"",[99999,99999],[-106,106]]",diamond,no_dis,vert,up,"[99999,99999]","[-106,106]",up,1,1.5737,,,,,,001,2025-03-17_13h06.44.443,SL_base,2021.2.3,Win32,60.0024001,,,110,0,110,0,1,,,,,,,,
,,"[""circle"",""red"",""vert"",""up"",[106,106],[106,-106]]",circle,red,vert,up,"[106,106]","[106,-106]",up,1,1.1578,,,,,,001,2025-03-17_13h06.44.443,SL_base,2021.2.3,Win32,60.0024001,,,111,0,111,0,1,,,,,,,,
,,"[""circle"",""no_dis"",""vert"",""up"",[99999,99999],[150,0]]",circle,no_dis,vert,up,"[99999,99999]","[150,0]",up,1,1.2399,,,,,,001,2025-03-17_13h06.44.443,SL_base,2021.2.3,Win32,60.0024001,,,112,0,112,0,1,,,,,,,,
,,"[""circle"",""green"",""hori"",""left"",[106,-106],[0,150]]",circle,green,hori,left,"[106,-106]","[0,150]",left,1,1.351,,,,,,001,2025-03-17_13h06.44.443,SL_base,2021.2.3,Win32,60.0024001,,,113,0,113,0,1,,,,,,,,
,,"[""diamond"",""red"",""hori"",""left"",[-106,-106],[0,150]]",diamond,red,hori,left,"[-106,-106]","[0,150]",left,1,1.2507,,,,,,001,2025-03-17_13h06.44.443,SL_base,2021.2.3,Win32,60.0024001,,,114,0,114,0,1,,,,,,,,
,,"[""diamond"",""red"",""hori"",""left"",[106,106],[0,150]]",diamond,red,hori,left,"[106,106]","[0,150]",left,1,1.2279,,,,,,001,2025-03-17_13h06.44.443,SL_base,2021.2.3,Win32,60.0024001,,,115,0,115,0,1,,,,,,,,
,,"[""diamond"",""green"",""vert"",""up"",[150,0],[0,150]]",diamond,green,vert,up,"[150,0]","[0,150]",up,1,1.2873,,,,,,001,2025-03-17_13h06.44.443,SL_base,2021.2.3,Win32,60.0024001,,,116,0,116,0,1,,,,,,,,
,,"[""circle"",""green"",""hori"",""left"",[0,-150],[0,150]]",circle,green,hori,left,"[0,-150]","[0,150]",left,1,1.1907,,,,,,001,2025-03-17_13h06.44.443,SL_base,2021.2.3,Win32,60.0024001,,,117,0,117,0,1,,,,,,,,
,,"[""diamond"",""red"",""vert"",""up"",[-106,106],[0,150]]",diamond,red,vert,up,"[-106,106]","[0,150]",up,1,1.5867,,,,,,001,2025-03-17_13h06.44.443,SL_base,2021.2.3,Win32,60.0024001,,,118,0,118,0,1,,,,,,,,
,,"[""circle"",""red"",""hori"",""left"",[106,-106],[-150,0]]",circle,red,hori,left,"[106,-106]","[-150,0]",left,1,1.1787,,,,,,001,2025-03-17_13h06.44.443,SL_base,2021.2.3,Win32,60.0024001,,,119,0,119,0,1,,,,,,,,
,,,,,,,,,,,,,,,,,001,2025-03-17_13h06.44.443,SL_base,2021.2.3,Win32,60.0024001,,,,,,,,3,space,53.4707,2,0,2,0,1
,,"[""circle"",""red"",""vert"",""up"",[0,-150],[0,150]]",circle,red,vert,up,"[0,-150]","[0,150]",up,1,1.5537,,,,,,001,2025-03-17_13h06.44.443,SL_base,2021.2.3,Win32,60.0024001,,,0,0,0,0,1,,,,,,,,
,,"[""circle"",""green"",""vert"",""up"",[106,106],[0,-150]]",circle,green,vert,up,"[106,106]","[0,-150]",up,1,1.2255,,,,,,001,2025-03-17_13h06.44.443,SL_base,2021.2.3,Win32,60.0024001,,,1,0,1,0,1,,,,,,,,
,,"[""circle"",""green"",""vert"",""up"",[-150,0],[106,-106]]",circle,green,vert,up,"[-150,0]","[106,-106]",up,1,1.0009,,,,,,001,2025-03-17_13h06.44.443,SL_base,2021.2.3,Win32,60.0024001,,,2,0,2,0,1,,,,,,,,
,,"[""diamond"",""red"",""vert"",""up"",[-106,-106],[106,106]]",diamond,red,vert,up,"[-106,-106]","[106,106]",up,1,1.1683,,,,,,001,2025-03-17_13h06.44.443,SL_base,2021.2.3,Win32,60.0024001,,,3,0,3,0,1,,,,,,,,
,,"[""diamond"",""green"",""vert"",""up"",[106,-106],[150,0]]",diamond,green,vert,up,"[106,-106]","[150,0]",up,1,1.1134,,,,,,001,2025-03-17_13h06.44.443,SL_base,2021.2.3,Win32,60.0024001,,,4,0,4,0,1,,,,,,,,
,,"[""circle"",""no_dis"",""vert"",""up"",[99999,99999],[-106,-106]]",circle,no_dis,vert,up,"[99999,99999]","[-106,-106]",up,1,0.9391,,,,,,001,2025-03-17_13h06.44.443,SL_base,2021.2.3,Win32,60.0024001,,,5,0,5,0,1,,,,,,,,
,,"[""circle"",""no_dis"",""vert"",""up"",[99999,99999],[0,-150]]",circle,no_dis,vert,up,"[99999,99999]","[0,-150]",up,1,0.9936,,,,,,001,2025-03-17_13h06.44.443,SL_base,2021.2.3,Win32,60.0024001,,,6,0,6,0,1,,,,,,,,
,,"[""circle"",""red"",""hori"",""left"",[0,-150],[150,0]]",circle,red,hori,left,"[0,-150]","[150,0]",left,1,0.8827,,,,,,001,2025-03-17_13h06.44.443,SL_base,2021.2.3,Win32,60.0024001,,,7,0,7,0,1,,,,,,,,
,,"[""diamond"",""green"",""vert"",""up"",[106,-106],[0,150]]",diamond,green,vert,up,"[106,-106]","[0,150]",up,1,0.9191,,,,,,001,2025-03-17_13h06.44.443,SL_base,2021.2.3,Win32,60.0024001,,,8,0,8,0,1,,,,,,,,
,,"[""diamond"",""green"",""hori"",""left"",[106,-106],[0,-150]]",diamond,green,hori,left,"[106,-106]","[0,-150]",left,1,0.8936,,,,,,001,2025-03-17_13h06.44.443,SL_base,2021.2.3,Win32,60.0024001,,,9,0,9,0,1,,,,,,,,
,,"[""diamond"",""green"",""vert"",""up"",[-106,106],[-106,-106]]",diamond,green,vert,up,"[-106,106]","[-106,-106]",up,1,0.8926,,,,,,001,2025-03-17_13h06.44.443,SL_base,2021.2.3,Win32,60.0024001,,,10,0,10,0,1,,,,,,,,
,,"[""circle"",""no_dis"",""vert"",""up"",[99999,99999],[106,106]]",circle,no_dis,vert,up,"[99999,99999]","[106,106]",up,1,1.0286,,,,,,001,2025-03-17_13h06.44.443,SL_base,2021.2.3,Win32,60.0024001,,,11,0,11,0,1,,,,,,,,
,,"[""diamond"",""green"",""hori"",""left"",[150,0],[-106,106]]",diamond,green,hori,left,"[150,0]","[-106,106]",left,1,0.9183,,,,,,001,2025-03-17_13h06.44.443,SL_base,2021.2.3,Win32,60.0024001,,,12,0,12,0,1,,,,,,,,
,,"[""circle"",""green"",""hori"",""left"",[-106,106],[150,0]]",circle,green,hori,left,"[-106,106]","[150,0]",left,1,1.173,,,,,,001,2025-03-17_13h06.44.443,SL_base,2021.2.3,Win32,60.0024001,,,13,0,13,0,1,,,,,,,,
,,"[""diamond"",""red"",""vert"",""up"",[-106,106],[0,150]]",diamond,red,vert,up,"[-106,106]","[0,150]",up,1,1.1337,,,,,,001,2025-03-17_13h06.44.443,SL_base,2021.2.3,Win32,60.0024001,,,14,0,14,0,1,,,,,,,,
,,"[""circle"",""green"",""hori"",""left"",[-150,0],[106,106]]",circle,green,hori,left,"[-150,0]","[106,106]",left,1,1.0009,,,,,,001,2025-03-17_13h06.44.443,SL_base,2021.2.3,Win32,60.0024001,,,15,0,15,0,1,,,,,,,,
,,"[""diamond"",""green"",""hori"",""left"",[106,106],[-106,106]]",diamond,green,hori,left,"[106,106]","[-106,106]",left,1,1.3665,,,,,,001,2025-03-17_13h06.44.443,SL_base,2021.2.3,Win32,60.0024001,,,16,0,16,0,1,,,,,,,,
,,"[""diamond"",""red"",""hori"",""left"",[106,-106],[0,-150]]",diamond,red,hori,left,"[106,-106]","[0,-150]",left,1,1.1615,,,,,,001,2025-03-17_13h06.44.443,SL_base,2021.2.3,Win32,60.0024001,,,17,0,17,0,1,,,,,,,,
,,"[""diamond"",""no_dis"",""vert"",""up"",[99999,99999],[-106,106]]",diamond,no_dis,vert,up,"[99999,99999]","[-106,106]",up,1,1.3561,,,,,,001,2025-03-17_13h06.44.443,SL_base,2021.2.3,Win32,60.0024001,,,18,0,18,0,1,,,,,,,,
,,"[""circle"",""red"",""vert"",""up"",[106,-106],[0,-150]]",circle,red,vert,up,"[106,-106]","[0,-150]",up,1,1.0573,,,,,,001,2025-03-17_13h06.44.443,SL_base,2021.2.3,Win32,60.0024001,,,19,0,19,0,1,,,,,,,,
,,"[""circle"",""red"",""vert"",""up"",[150,0],[-150,0]]",circle,red,vert,up,"[150,0]","[-150,0]",up,1,0.967,,,,,,001,2025-03-17_13h06.44.443,SL_base,2021.2.3,Win32,60.0024001,,,20,0,20,0,1,,,,,,,,
,,"[""circle"",""red"",""vert"",""up"",[-150,0],[106,106]]",circle,red,vert,up,"[-150,0]","[106,106]",up,1,0.9423,,,,,,001,2025-03-17_13h06.44.443,SL_base,2021.2.3,Win32,60.0024001,,,21,0,21,0,1,,,,,,,,
,,"[""circle"",""no_dis"",""vert"",""up"",[99999,99999],[150,0]]",circle,no_dis,vert,up,"[99999,99999]","[150,0]",up,1,0.8571,,,,,,001,2025-03-17_13h06.44.443,SL_base,2021.2.3,Win32,60.0024001,,,22,0,22,0,1,,,,,,,,
,,"[""circle"",""no_dis"",""vert"",""up"",[99999,99999],[0,-150]]",circle,no_dis,vert,up,"[99999,99999]","[0,-150]",up,1,0.9902,,,,,,001,2025-03-17_13h06.44.443,SL_base,2021.2.3,Win32,60.0024001,,,23,0,23,0,1,,,,,,,,
,,"[""diamond"",""no_dis"",""hori"",""left"",[99999,99999],[-150,0]]",diamond,no_dis,hori,left,"[99999,99999]","[-150,0]",left,1,1.1722,,,,,,001,2025-03-17_13h06.44.443,SL_base,2021.2.3,Win32,60.0024001,,,24,0,24,0,1,,,,,,,,
,,"[""diamond"",""green"",""vert"",""up"",[106,106],[150,0]]",diamond,green,vert,up,"[106,106]","[150,0]",up,1,1.051,,,,,,001,2025-03-17_13h06.44.443,SL_base,2021.2.3,Win32,60.0024001,,,25,0,25,0,1,,,,,,,,
,,"[""circle"",""green"",""hori"",""left"",[-106,-106],[106,106]]",circle,green,hori,left,"[-106,-106]","[106,106]",left,1,0.9778,,,,,,001,2025-03-17_13h06.44.443,SL_base,2021.2.3,Win32,60.0024001,,,26,0,26,0,1,,,,,,,,
,,"[""circle"",""no_dis"",""vert"",""up"",[99999,99999],[150,0]]",circle,no_dis,vert,up,"[99999,99999]","[150,0]",up,1,0.853,,,,,,001,2025-03-17_13h06.44.443,SL_base,2021.2.3,Win32,60.0024001,,,27,0,27,0,1,,,,,,,,
,,"[""circle"",""red"",""hori"",""left"",[150,0],[-150,0]]",circle,red,hori,left,"[150,0]","[-150,0]",left,1,1.0593,,,,,,001,2025-03-17_13h06.44.443,SL_base,2021.2.3,Win32,60.0024001,,,28,0,28,0,1,,,,,,,,
,,"[""circle"",""no_dis"",""hori"",""left"",[99999,99999],[106,106]]",circle,no_dis,hori,left,"[99999,99999]","[106,106]",left,1,1.1431,,,,,,001,2025-03-17_13h06.44.443,SL_base,2021.2.3,Win32,60.0024001,,,29,0,29,0,1,,,,,,,,
,,"[""diamond"",""green"",""vert"",""up"",[-150,0],[-106,106]]",diamond,green,vert,up,"[-150,0]","[-106,106]",up,1,1.0853,,,,,,001,2025-03-17_13h06.44.443,SL_base,2021.2.3,Win32,60.0024001,,,30,0,30,0,1,,,,,,,,
,,"[""diamond"",""no_dis"",""vert"",""up"",[99999,99999],[-106,-106]]",diamond,no_dis,vert,up,"[99999,99999]","[-106,-106]",up,1,0.9344,,,,,,001,2025-03-17_13h06.44.443,SL_base,2021.2.3,Win32,60.0024001,,,31,0,31,0,1,,,,,,,,
,,"[""diamond"",""no_dis"",""hori"",""left"",[99999,99999],[0,-150]]",diamond,no_dis,hori,left,"[99999,99999]","[0,-150]",left,1,0.9094,,,,,,001,2025-03-17_13h06.44.443,SL_base,2021.2.3,Win32,60.0024001,,,32,0,32,0,1,,,,,,,,
,,"[""diamond"",""red"",""hori"",""left"",[-106,-106],[0,150]]",diamond,red,hori,left,"[-106,-106]","[0,150]",left,1,0.9919,,,,,,001,2025-03-17_13h06.44.443,SL_base,2021.2.3,Win32,60.0024001,,,33,0,33,0,1,,,,,,,,
,,"[""diamond"",""red"",""vert"",""up"",[-106,-106],[0,-150]]",diamond,red,vert,up,"[-106,-106]","[0,-150]",up,1,1.3962,,,,,,001,2025-03-17_13h06.44.443,SL_base,2021.2.3,Win32,60.0024001,,,34,0,34,0,1,,,,,,,,
,,"[""diamond"",""no_dis"",""hori"",""left"",[99999,99999],[106,-106]]",diamond,no_dis,hori,left,"[99999,99999]","[106,-106]",left,1,1.2824,,,,,,001,2025-03-17_13h06.44.443,SL_base,2021.2.3,Win32,60.0024001,,,35,0,35,0,1,,,,,,,,
,,"[""diamond"",""red"",""vert"",""up"",[0,150],[0,-150]]",diamond,red,vert,up,"[0,150]","[0,-150]",up,1,0.9412,,,,,,001,2025-03-17_13h06.44.443,SL_base,2021.2.3,Win32,60.0024001,,,36,0,36,0,1,,,,,,,,
,,"[""circle"",""no_dis"",""hori"",""left"",[99999,99999],[0,150]]",circle,no_dis,hori,left,"[99999,99999]","[0,150]",left,1,1.6931,,,,,,001,2025-03-17_13h06.44.443,SL_base,2021.2.3,Win32,60.0024001,,,37,0,37,0,1,,,,,,,,
,,"[""diamond"",""no_dis"",""vert"",""up"",[99999,99999],[106,106]]",diamond,no_dis,vert,up,"[99999,99999]","[106,106]",up,1,1.1172,,,,,,001,2025-03-17_13h06.44.443,SL_base,2021.2.3,Win32,60.0024001,,,38,0,38,0,1,,,,,,,,
,,"[""circle"",""green"",""vert"",""up"",[-106,-106],[-150,0]]",circle,green,vert,up,"[-106,-106]","[-150,0]",up,1,1.3059,,,,,,001,2025-03-17_13h06.44.443,SL_base,2021.2.3,Win32,60.0024001,,,39,0,39,0,1,,,,,,,,
,,"[""circle"",""no_dis"",""hori"",""left"",[99999,99999],[-106,106]]",circle,no_dis,hori,left,"[99999,99999]","[-106,106]",left,1,1.0237,,,,,,001,2025-03-17_13h06.44.443,SL_base,2021.2.3,Win32,60.0024001,,,40,0,40,0,1,,,,,,,,
,,"[""circle"",""no_dis"",""hori"",""left"",[99999,99999],[106,-106]]",circle,no_dis,hori,left,"[99999,99999]","[106,-106]",left,1,0.9412,,,,,,001,2025-03-17_13h06.44.443,SL_base,2021.2.3,Win32,60.0024001,,,41,0,41,0,1,,,,,,,,
,,"[""circle"",""green"",""vert"",""up"",[150,0],[0,150]]",circle,green,vert,up,"[150,0]","[0,150]",up,1,1.0035,,,,,,001,2025-03-17_13h06.44.443,SL_base,2021.2.3,Win32,60.0024001,,,42,0,42,0,1,,,,,,,,
,,"[""diamond"",""no_dis"",""hori"",""left"",[99999,99999],[-106,106]]",diamond,no_dis,hori,left,"[99999,99999]","[-106,106]",left,1,1.2308,,,,,,001,2025-03-17_13h06.44.443,SL_base,2021.2.3,Win32,60.0024001,,,43,0,43,0,1,,,,,,,,
,,"[""diamond"",""no_dis"",""vert"",""up"",[99999,99999],[0,150]]",diamond,no_dis,vert,up,"[99999,99999]","[0,150]",up,1,1.1329,,,,,,001,2025-03-17_13h06.44.443,SL_base,2021.2.3,Win32,60.0024001,,,44,0,44,0,1,,,,,,,,
,,"[""diamond"",""green"",""vert"",""up"",[-106,-106],[150,0]]",diamond,green,vert,up,"[-106,-106]","[150,0]",up,1,1.229,,,,,,001,2025-03-17_13h06.44.443,SL_base,2021.2.3,Win32,60.0024001,,,45,0,45,0,1,,,,,,,,
,,"[""diamond"",""red"",""vert"",""up"",[106,-106],[-150,0]]",diamond,red,vert,up,"[106,-106]","[-150,0]",up,1,1.1672,,,,,,001,2025-03-17_13h06.44.443,SL_base,2021.2.3,Win32,60.0024001,,,46,0,46,0,1,,,,,,,,
,,"[""circle"",""red"",""vert"",""up"",[106,-106],[150,0]]",circle,red,vert,up,"[106,-106]","[150,0]",up,1,1.1467,,,,,,001,2025-03-17_13h06.44.443,SL_base,2021.2.3,Win32,60.0024001,,,47,0,47,0,1,,,,,,,,
,,"[""diamond"",""red"",""hori"",""left"",[106,-106],[106,106]]",diamond,red,hori,left,"[106,-106]","[106,106]",left,1,1.3001,,,,,,001,2025-03-17_13h06.44.443,SL_base,2021.2.3,Win32,60.0024001,,,48,0,48,0,1,,,,,,,,
,,"[""diamond"",""green"",""vert"",""up"",[-150,0],[0,-150]]",diamond,green,vert,up,"[-150,0]","[0,-150]",up,1,1.3073,,,,,,001,2025-03-17_13h06.44.443,SL_base,2021.2.3,Win32,60.0024001,,,49,0,49,0,1,,,,,,,,
,,"[""circle"",""no_dis"",""hori"",""left"",[99999,99999],[106,106]]",circle,no_dis,hori,left,"[99999,99999]","[106,106]",left,1,1.0544,,,,,,001,2025-03-17_13h06.44.443,SL_base,2021.2.3,Win32,60.0024001,,,50,0,50,0,1,,,,,,,,
,,"[""diamond"",""red"",""vert"",""up"",[106,-106],[-150,0]]",diamond,red,vert,up,"[106,-106]","[-150,0]",up,1,1.044,,,,,,001,2025-03-17_13h06.44.443,SL_base,2021.2.3,Win32,60.0024001,,,51,0,51,0,1,,,,,,,,
,,"[""diamond"",""red"",""hori"",""left"",[106,-106],[-150,0]]",diamond,red,hori,left,"[106,-106]","[-150,0]",left,1,1.1969,,,,,,001,2025-03-17_13h06.44.443,SL_base,2021.2.3,Win32,60.0024001,,,52,0,52,0,1,,,,,,,,
,,"[""circle"",""green"",""vert"",""up"",[-150,0],[0,150]]",circle,green,vert,up,"[-150,0]","[0,150]",up,1,1.385,,,,,,001,2025-03-17_13h06.44.443,SL_base,2021.2.3,Win32,60.0024001,,,53,0,53,0,1,,,,,,,,
,,"[""diamond"",""red"",""hori"",""left"",[-106,106],[0,-150]]",diamond,red,hori,left,"[-106,106]","[0,-150]",left,1,1.1358,,,,,,001,2025-03-17_13h06.44.443,SL_base,2021.2.3,Win32,60.0024001,,,54,0,54,0,1,,,,,,,,
,,"[""circle"",""no_dis"",""vert"",""up"",[99999,99999],[0,-150]]",circle,no_dis,vert,up,"[99999,99999]","[0,-150]",up,1,1.0396,,,,,,001,2025-03-17_13h06.44.443,SL_base,2021.2.3,Win32,60.0024001,,,55,0,55,0,1,,,,,,,,
,,"[""circle"",""red"",""vert"",""up"",[106,106],[106,-106]]",circle,red,vert,up,"[106,106]","[106,-106]",up,1,1.1517,,,,,,001,2025-03-17_13h06.44.443,SL_base,2021.2.3,Win32,60.0024001,,,56,0,56,0,1,,,,,,,,
,,"[""circle"",""green"",""vert"",""up"",[0,-150],[106,106]]",circle,green,vert,up,"[0,-150]","[106,106]",up,1,1.0879,,,,,,001,2025-03-17_13h06.44.443,SL_base,2021.2.3,Win32,60.0024001,,,57,0,57,0,1,,,,,,,,
,,"[""diamond"",""no_dis"",""hori"",""left"",[99999,99999],[150,0]]",diamond,no_dis,hori,left,"[99999,99999]","[150,0]",left,1,1.0734,,,,,,001,2025-03-17_13h06.44.443,SL_base,2021.2.3,Win32,60.0024001,,,58,0,58,0,1,,,,,,,,
,,"[""circle"",""green"",""hori"",""left"",[0,-150],[0,150]]",circle,green,hori,left,"[0,-150]","[0,150]",left,1,1.6189,,,,,,001,2025-03-17_13h06.44.443,SL_base,2021.2.3,Win32,60.0024001,,,59,0,59,0,1,,,,,,,,
,,"[""circle"",""green"",""vert"",""up"",[0,-150],[106,106]]",circle,green,vert,up,"[0,-150]","[106,106]",up,1,1.2264,,,,,,001,2025-03-17_13h06.44.443,SL_base,2021.2.3,Win32,60.0024001,,,60,0,60,0,1,,,,,,,,
,,"[""circle"",""no_dis"",""vert"",""up"",[99999,99999],[0,150]]",circle,no_dis,vert,up,"[99999,99999]","[0,150]",up,1,0.9619,,,,,,001,2025-03-17_13h06.44.443,SL_base,2021.2.3,Win32,60.0024001,,,61,0,61,0,1,,,,,,,,
,,"[""circle"",""red"",""hori"",""left"",[106,-106],[-150,0]]",circle,red,hori,left,"[106,-106]","[-150,0]",left,1,0.7684,,,,,,001,2025-03-17_13h06.44.443,SL_base,2021.2.3,Win32,60.0024001,,,62,0,62,0,1,,,,,,,,
,,"[""circle"",""green"",""hori"",""left"",[0,-150],[106,106]]",circle,green,hori,left,"[0,-150]","[106,106]",left,1,0.9516,,,,,,001,2025-03-17_13h06.44.443,SL_base,2021.2.3,Win32,60.0024001,,,63,0,63,0,1,,,,,,,,
,,"[""diamond"",""no_dis"",""hori"",""left"",[99999,99999],[-106,-106]]",diamond,no_dis,hori,left,"[99999,99999]","[-106,-106]",left,1,1.1427,,,,,,001,2025-03-17_13h06.44.443,SL_base,2021.2.3,Win32,60.0024001,,,64,0,64,0,1,,,,,,,,
,,"[""circle"",""green"",""vert"",""up"",[106,-106],[150,0]]",circle,green,vert,up,"[106,-106]","[150,0]",up,1,1.8514,,,,,,001,2025-03-17_13h06.44.443,SL_base,2021.2.3,Win32,60.0024001,,,65,0,65,0,1,,,,,,,,
,,"[""diamond"",""green"",""vert"",""up"",[106,-106],[0,150]]",diamond,green,vert,up,"[106,-106]","[0,150]",up,1,1.3326,,,,,,001,2025-03-17_13h06.44.443,SL_base,2021.2.3,Win32,60.0024001,,,66,0,66,0,1,,,,,,,,
,,"[""circle"",""red"",""vert"",""up"",[0,-150],[106,-106]]",circle,red,vert,up,"[0,-150]","[106,-106]",up,1,1.0345,,,,,,001,2025-03-17_13h06.44.443,SL_base,2021.2.3,Win32,60.0024001,,,67,0,67,0,1,,,,,,,,
,,"[""diamond"",""red"",""hori"",""left"",[-106,106],[0,-150]]",diamond,red,hori,left,"[-106,106]","[0,-150]",left,1,1.0657,,,,,,001,2025-03-17_13h06.44.443,SL_base,2021.2.3,Win32,60.0024001,,,68,0,68,0,1,,,,,,,,
,,"[""circle"",""green"",""hori"",""left"",[106,-106],[-106,-106]]",circle,green,hori,left,"[106,-106]","[-106,-106]",left,1,1.0966,,,,,,001,2025-03-17_13h06.44.443,SL_base,2021.2.3,Win32,60.0024001,,,69,0,69,0,1,,,,,,,,
,,"[""diamond"",""no_dis"",""vert"",""up"",[99999,99999],[106,106]]",diamond,no_dis,vert,up,"[99999,99999]","[106,106]",up,1,0.9536,,,,,,001,2025-03-17_13h06.44.443,SL_base,2021.2.3,Win32,60.0024001,,,70,0,70,0,1,,,,,,,,
,,"[""diamond"",""no_dis"",""vert"",""up"",[99999,99999],[-106,106]]",diamond,no_dis,vert,up,"[99999,99999]","[-106,106]",up,1,1.1682,,,,,,001,2025-03-17_13h06.44.443,SL_base,2021.2.3,Win32,60.0024001,,,71,0,71,0,1,,,,,,,,
,,"[""diamond"",""no_dis"",""vert"",""up"",[99999,99999],[106,-106]]",diamond,no_dis,vert,up,"[99999,99999]","[106,-106]",up,1,1.4301,,,,,,001,2025-03-17_13h06.44.443,SL_base,2021.2.3,Win32,60.0024001,,,72,0,72,0,1,,,,,,,,
,,"[""circle"",""red"",""hori"",""left"",[0,150],[-106,-106]]",circle,red,hori,left,"[0,150]","[-106,-106]",left,1,1.534,,,,,,001,2025-03-17_13h06.44.443,SL_base,2021.2.3,Win32,60.0024001,,,73,0,73,0,1,,,,,,,,
,,"[""diamond"",""no_dis"",""hori"",""left"",[99999,99999],[-106,-106]]",diamond,no_dis,hori,left,"[99999,99999]","[-106,-106]",left,1,0.9078,,,,,,001,2025-03-17_13h06.44.443,SL_base,2021.2.3,Win32,60.0024001,,,74,0,74,0,1,,,,,,,,
,,"[""diamond"",""no_dis"",""vert"",""up"",[99999,99999],[0,150]]",diamond,no_dis,vert,up,"[99999,99999]","[0,150]",up,1,1.3967,,,,,,001,2025-03-17_13h06.44.443,SL_base,2021.2.3,Win32,60.0024001,,,75,0,75,0,1,,,,,,,,
,,"[""circle"",""green"",""hori"",""left"",[0,150],[150,0]]",circle,green,hori,left,"[0,150]","[150,0]",left,1,1.1384,,,,,,001,2025-03-17_13h06.44.443,SL_base,2021.2.3,Win32,60.0024001,,,76,0,76,0,1,,,,,,,,
,,"[""circle"",""no_dis"",""hori"",""left"",[99999,99999],[-106,-106]]",circle,no_dis,hori,left,"[99999,99999]","[-106,-106]",left,1,0.9007,,,,,,001,2025-03-17_13h06.44.443,SL_base,2021.2.3,Win32,60.0024001,,,77,0,77,0,1,,,,,,,,
,,"[""diamond"",""red"",""vert"",""up"",[150,0],[-106,106]]",diamond,red,vert,up,"[150,0]","[-106,106]",up,1,1.0498,,,,,,001,2025-03-17_13h06.44.443,SL_base,2021.2.3,Win32,60.0024001,,,78,0,78,0,1,,,,,,,,
,,"[""diamond"",""green"",""hori"",""left"",[106,-106],[-150,0]]",diamond,green,hori,left,"[106,-106]","[-150,0]",left,1,1.0598,,,,,,001,2025-03-17_13h06.44.443,SL_base,2021.2.3,Win32,60.0024001,,,79,0,79,0,1,,,,,,,,
,,"[""diamond"",""green"",""vert"",""up"",[150,0],[0,150]]",diamond,green,vert,up,"[150,0]","[0,150]",up,1,1.3573,,,,,,001,2025-03-17_13h06.44.443,SL_base,2021.2.3,Win32,60.0024001,,,80,0,80,0,1,,,,,,,,
,,"[""circle"",""green"",""hori"",""left"",[0,150],[106,106]]",circle,green,hori,left,"[0,150]","[106,106]",left,1,1.6119,,,,,,001,2025-03-17_13h06.44.443,SL_base,2021.2.3,Win32,60.0024001,,,81,0,81,0,1,,,,,,,,
,,"[""circle"",""no_dis"",""vert"",""up"",[99999,99999],[0,-150]]",circle,no_dis,vert,up,"[99999,99999]","[0,-150]",up,1,0.9928,,,,,,001,2025-03-17_13h06.44.443,SL_base,2021.2.3,Win32,60.0024001,,,82,0,82,0,1,,,,,,,,
,,"[""diamond"",""green"",""hori"",""left"",[106,-106],[150,0]]",diamond,green,hori,left,"[106,-106]","[150,0]",left,1,1.1801,,,,,,001,2025-03-17_13h06.44.443,SL_base,2021.2.3,Win32,60.0024001,,,83,0,83,0,1,,,,,,,,
,,"[""diamond"",""red"",""vert"",""up"",[0,150],[-106,106]]",diamond,red,vert,up,"[0,150]","[-106,106]",up,1,0.9332,,,,,,001,2025-03-17_13h06.44.443,SL_base,2021.2.3,Win32,60.0024001,,,84,0,84,0,1,,,,,,,,
,,"[""diamond"",""red"",""hori"",""left"",[-150,0],[106,-106]]",diamond,red,hori,left,"[-150,0]","[106,-106]",left,1,1.1524,,,,,,001,2025-03-17_13h06.44.443,SL_base,2021.2.3,Win32,60.0024001,,,85,0,85,0,1,,,,,,,,
,,"[""circle"",""green"",""vert"",""up"",[106,-106],[0,-150]]",circle,green,vert,up,"[106,-106]","[0,-150]",up,1,1.2425,,,,,,001,2025-03-17_13h06.44.443,SL_base,2021.2.3,Win32,60.0024001,,,86,0,86,0,1,,,,,,,,
,,"[""circle"",""red"",""vert"",""up"",[106,106],[-150,0]]",circle,red,vert,up,"[106,106]","[-150,0]",up,1,1.223,,,,,,001,2025-03-17_13h06.44.443,SL_base,2021.2.3,Win32,60.0024001,,,87,0,87,0,1,,,,,,,,
,,"[""diamond"",""no_dis"",""hori"",""left"",[99999,99999],[106,-106]]",diamond,no_dis,hori,left,"[99999,99999]","[106,-106]",left,1,1.14,,,,,,001,2025-03-17_13h06.44.443,SL_base,2021.2.3,Win32,60.0024001,,,88,0,88,0,1,,,,,,,,
,,"[""circle"",""red"",""vert"",""up"",[106,106],[-150,0]]",circle,red,vert,up,"[106,106]","[-150,0]",up,1,1.2046,,,,,,001,2025-03-17_13h06.44.443,SL_base,2021.2.3,Win32,60.0024001,,,89,0,89,0,1,,,,,,,,
,,"[""diamond"",""green"",""hori"",""left"",[106,-106],[-150,0]]",diamond,green,hori,left,"[106,-106]","[-150,0]",left,1,1.2916,,,,,,001,2025-03-17_13h06.44.443,SL_base,2021.2.3,Win32,60.0024001,,,90,0,90,0,1,,,,,,,,
,,"[""diamond"",""no_dis"",""vert"",""up"",[99999,99999],[150,0]]",diamond,no_dis,vert,up,"[99999,99999]","[150,0]",up,1,0.8223,,,,,,001,2025-03-17_13h06.44.443,SL_base,2021.2.3,Win32,60.0024001,,,91,0,91,0,1,,,,,,,,
,,"[""diamond"",""red"",""hori"",""left"",[-106,-106],[0,-150]]",diamond,red,hori,left,"[-106,-106]","[0,-150]",left,1,0.9474,,,,,,001,2025-03-17_13h06.44.443,SL_base,2021.2.3,Win32,60.0024001,,,92,0,92,0,1,,,,,,,,
