﻿key_resp.keys,key_resp.rt,trial_para,tar_shape,dis_color_condi,tar_line,cor_resp,dis_loc,tar_loc,resp.keys,resp.corr,trials.thisRepN,trials.thisTrialN,trials.thisN,trials.thisIndex,trials.ran,participant,date,expName,psychopyVersion,OS,frameRate,resp.rt,key_resp_2.keys,key_resp_2.rt,trials_2.thisRepN,trials_2.thisTrialN,trials_2.thisN,trials_2.thisIndex,trials_2.ran,block_num,key_resp_3.keys,key_resp_3.rt,trials_3.thisRepN,trials_3.thisTrialN,trials_3.thisN,trials_3.thisIndex,trials_3.ran
space,21.0173,"[""diamond"",""no_dis"",""hori"",""left"",[99999,99999],[0,-150]]",diamond,no_dis,hori,left,"[99999,99999]","[0,-150]",,0,0,0,0,0,1,001,2025-03-17_15h22.56.327,SL_base,2021.2.3,Win32,59.88023952,,,,,,,,,,,,,,,,
,,"[""circle"",""red"",""vert"",""up"",[106,106],[106,-106]]",circle,red,vert,up,"[106,106]","[106,-106]",up,1,1,0,1,0,1,001,2025-03-17_15h22.56.327,SL_base,2021.2.3,Win32,59.88023952,2.6557,,,,,,,,,,,,,,,
,,"[""diamond"",""red"",""vert"",""up"",[106,-106],[-106,106]]",diamond,red,vert,up,"[106,-106]","[-106,106]",up,1,2,0,2,0,1,001,2025-03-17_15h22.56.327,SL_base,2021.2.3,Win32,59.88023952,1.0516,,,,,,,,,,,,,,,
,,"[""circle"",""red"",""hori"",""left"",[106,106],[0,150]]",circle,red,hori,left,"[106,106]","[0,150]",left,1,3,0,3,0,1,001,2025-03-17_15h22.56.327,SL_base,2021.2.3,Win32,59.88023952,1.6579,,,,,,,,,,,,,,,
,,"[""circle"",""red"",""hori"",""left"",[0,-150],[150,0]]",circle,red,hori,left,"[0,-150]","[150,0]",left,1,4,0,4,0,1,001,2025-03-17_15h22.56.327,SL_base,2021.2.3,Win32,59.88023952,1.4174,,,,,,,,,,,,,,,
,,"[""circle"",""no_dis"",""hori"",""left"",[99999,99999],[0,150]]",circle,no_dis,hori,left,"[99999,99999]","[0,150]",left,1,5,0,5,0,1,001,2025-03-17_15h22.56.327,SL_base,2021.2.3,Win32,59.88023952,1.093,,,,,,,,,,,,,,,
,,"[""diamond"",""red"",""vert"",""up"",[106,106],[-106,106]]",diamond,red,vert,up,"[106,106]","[-106,106]",up,1,6,0,6,0,1,001,2025-03-17_15h22.56.327,SL_base,2021.2.3,Win32,59.88023952,0.8338,,,,,,,,,,,,,,,
,,"[""diamond"",""no_dis"",""hori"",""left"",[99999,99999],[-106,-106]]",diamond,no_dis,hori,left,"[99999,99999]","[-106,-106]",left,1,7,0,7,0,1,001,2025-03-17_15h22.56.327,SL_base,2021.2.3,Win32,59.88023952,1.1331,,,,,,,,,,,,,,,
,,"[""circle"",""red"",""vert"",""up"",[-150,0],[0,-150]]",circle,red,vert,up,"[-150,0]","[0,-150]",up,1,8,0,8,0,1,001,2025-03-17_15h22.56.327,SL_base,2021.2.3,Win32,59.88023952,1.4251,,,,,,,,,,,,,,,
,,"[""diamond"",""green"",""hori"",""left"",[150,0],[-106,106]]",diamond,green,hori,left,"[150,0]","[-106,106]",left,1,9,0,9,0,1,001,2025-03-17_15h22.56.327,SL_base,2021.2.3,Win32,59.88023952,0.9674,,,,,,,,,,,,,,,
,,"[""diamond"",""no_dis"",""hori"",""left"",[99999,99999],[0,-150]]",diamond,no_dis,hori,left,"[99999,99999]","[0,-150]",left,1,,,,,,001,2025-03-17_15h22.56.327,SL_base,2021.2.3,Win32,59.88023952,1.2294,space,5.0173,0,0,0,0,1,,,,,,,,
,,"[""circle"",""red"",""vert"",""up"",[106,106],[106,-106]]",circle,red,vert,up,"[106,106]","[106,-106]",up,1,,,,,,001,2025-03-17_15h22.56.327,SL_base,2021.2.3,Win32,59.88023952,0.9196,,,1,0,1,0,1,,,,,,,,
,,"[""diamond"",""red"",""vert"",""up"",[106,-106],[-106,106]]",diamond,red,vert,up,"[106,-106]","[-106,106]",up,1,,,,,,001,2025-03-17_15h22.56.327,SL_base,2021.2.3,Win32,59.88023952,1.5172,,,2,0,2,0,1,,,,,,,,
,,"[""circle"",""red"",""hori"",""left"",[106,106],[0,150]]",circle,red,hori,left,"[106,106]","[0,150]",left,1,,,,,,001,2025-03-17_15h22.56.327,SL_base,2021.2.3,Win32,59.88023952,0.8299,,,3,0,3,0,1,,,,,,,,
,,"[""circle"",""red"",""hori"",""left"",[0,-150],[150,0]]",circle,red,hori,left,"[0,-150]","[150,0]",left,1,,,,,,001,2025-03-17_15h22.56.327,SL_base,2021.2.3,Win32,59.88023952,1.0509,,,4,0,4,0,1,,,,,,,,
,,"[""circle"",""no_dis"",""hori"",""left"",[99999,99999],[0,150]]",circle,no_dis,hori,left,"[99999,99999]","[0,150]",left,1,,,,,,001,2025-03-17_15h22.56.327,SL_base,2021.2.3,Win32,59.88023952,0.7002,,,5,0,5,0,1,,,,,,,,
,,"[""diamond"",""red"",""vert"",""up"",[106,106],[-106,106]]",diamond,red,vert,up,"[106,106]","[-106,106]",up,1,,,,,,001,2025-03-17_15h22.56.327,SL_base,2021.2.3,Win32,59.88023952,0.9536,,,6,0,6,0,1,,,,,,,,
,,"[""diamond"",""no_dis"",""hori"",""left"",[99999,99999],[-106,-106]]",diamond,no_dis,hori,left,"[99999,99999]","[-106,-106]",left,1,,,,,,001,2025-03-17_15h22.56.327,SL_base,2021.2.3,Win32,59.88023952,1.1534,,,7,0,7,0,1,,,,,,,,
,,"[""circle"",""red"",""vert"",""up"",[-150,0],[0,-150]]",circle,red,vert,up,"[-150,0]","[0,-150]",up,1,,,,,,001,2025-03-17_15h22.56.327,SL_base,2021.2.3,Win32,59.88023952,0.8526,,,8,0,8,0,1,,,,,,,,
,,"[""diamond"",""green"",""hori"",""left"",[150,0],[-106,106]]",diamond,green,hori,left,"[150,0]","[-106,106]",left,1,,,,,,001,2025-03-17_15h22.56.327,SL_base,2021.2.3,Win32,59.88023952,0.95,,,9,0,9,0,1,,,,,,,,
,,"[""diamond"",""red"",""hori"",""left"",[-106,-106],[106,-106]]",diamond,red,hori,left,"[-106,-106]","[106,-106]",left,1,,,,,,001,2025-03-17_15h22.56.327,SL_base,2021.2.3,Win32,59.88023952,1.3866,,,10,0,10,0,1,,,,,,,,
,,"[""diamond"",""green"",""hori"",""left"",[-106,-106],[150,0]]",diamond,green,hori,left,"[-106,-106]","[150,0]",left,1,,,,,,001,2025-03-17_15h22.56.327,SL_base,2021.2.3,Win32,59.88023952,1.5537,,,11,0,11,0,1,,,,,,,,
,,"[""circle"",""red"",""hori"",""left"",[106,106],[0,-150]]",circle,red,hori,left,"[106,106]","[0,-150]",left,1,,,,,,001,2025-03-17_15h22.56.327,SL_base,2021.2.3,Win32,59.88023952,0.8337,,,12,0,12,0,1,,,,,,,,
,,"[""circle"",""no_dis"",""vert"",""up"",[99999,99999],[-106,106]]",circle,no_dis,vert,up,"[99999,99999]","[-106,106]",up,1,,,,,,001,2025-03-17_15h22.56.327,SL_base,2021.2.3,Win32,59.88023952,0.5527,,,13,0,13,0,1,,,,,,,,
,,"[""diamond"",""green"",""vert"",""up"",[0,-150],[-106,106]]",diamond,green,vert,up,"[0,-150]","[-106,106]",left,0,,,,,,001,2025-03-17_15h22.56.327,SL_base,2021.2.3,Win32,59.88023952,0.6077,,,14,0,14,0,1,,,,,,,,
,,"[""circle"",""green"",""vert"",""up"",[106,106],[0,-150]]",circle,green,vert,up,"[106,106]","[0,-150]",up,1,,,,,,001,2025-03-17_15h22.56.327,SL_base,2021.2.3,Win32,59.88023952,1.6234,,,15,0,15,0,1,,,,,,,,
,,"[""diamond"",""green"",""hori"",""left"",[106,106],[106,-106]]",diamond,green,hori,left,"[106,106]","[106,-106]",left,1,,,,,,001,2025-03-17_15h22.56.327,SL_base,2021.2.3,Win32,59.88023952,1.1785,,,16,0,16,0,1,,,,,,,,
,,"[""diamond"",""green"",""vert"",""up"",[106,106],[0,150]]",diamond,green,vert,up,"[106,106]","[0,150]",up,1,,,,,,001,2025-03-17_15h22.56.327,SL_base,2021.2.3,Win32,59.88023952,0.934,,,17,0,17,0,1,,,,,,,,
,,"[""circle"",""red"",""hori"",""left"",[-150,0],[0,150]]",circle,red,hori,left,"[-150,0]","[0,150]",left,1,,,,,,001,2025-03-17_15h22.56.327,SL_base,2021.2.3,Win32,59.88023952,0.8223,,,18,0,18,0,1,,,,,,,,
,,"[""diamond"",""green"",""vert"",""up"",[-106,106],[-150,0]]",diamond,green,vert,up,"[-106,106]","[-150,0]",up,1,,,,,,001,2025-03-17_15h22.56.327,SL_base,2021.2.3,Win32,59.88023952,0.8336,,,19,0,19,0,1,,,,,,,,
,,"[""circle"",""green"",""vert"",""up"",[0,150],[0,-150]]",circle,green,vert,up,"[0,150]","[0,-150]",up,1,,,,,,001,2025-03-17_15h22.56.327,SL_base,2021.2.3,Win32,59.88023952,0.8779,,,20,0,20,0,1,,,,,,,,
,,"[""circle"",""red"",""vert"",""up"",[106,-106],[0,150]]",circle,red,vert,up,"[106,-106]","[0,150]",up,1,,,,,,001,2025-03-17_15h22.56.327,SL_base,2021.2.3,Win32,59.88023952,0.539,,,21,0,21,0,1,,,,,,,,
,,"[""diamond"",""no_dis"",""vert"",""up"",[99999,99999],[150,0]]",diamond,no_dis,vert,up,"[99999,99999]","[150,0]",up,1,,,,,,001,2025-03-17_15h22.56.327,SL_base,2021.2.3,Win32,59.88023952,1.055,,,22,0,22,0,1,,,,,,,,
,,"[""circle"",""no_dis"",""vert"",""up"",[99999,99999],[106,106]]",circle,no_dis,vert,up,"[99999,99999]","[106,106]",up,1,,,,,,001,2025-03-17_15h22.56.327,SL_base,2021.2.3,Win32,59.88023952,0.8536,,,23,0,23,0,1,,,,,,,,
,,"[""diamond"",""no_dis"",""vert"",""up"",[99999,99999],[106,-106]]",diamond,no_dis,vert,up,"[99999,99999]","[106,-106]",up,1,,,,,,001,2025-03-17_15h22.56.327,SL_base,2021.2.3,Win32,59.88023952,0.8692,,,24,0,24,0,1,,,,,,,,
,,"[""diamond"",""red"",""hori"",""left"",[106,106],[0,150]]",diamond,red,hori,left,"[106,106]","[0,150]",left,1,,,,,,001,2025-03-17_15h22.56.327,SL_base,2021.2.3,Win32,59.88023952,0.7002,,,25,0,25,0,1,,,,,,,,
,,"[""circle"",""red"",""hori"",""left"",[0,-150],[106,106]]",circle,red,hori,left,"[0,-150]","[106,106]",left,1,,,,,,001,2025-03-17_15h22.56.327,SL_base,2021.2.3,Win32,59.88023952,1.7339,,,26,0,26,0,1,,,,,,,,
,,"[""diamond"",""red"",""vert"",""up"",[106,106],[-150,0]]",diamond,red,vert,up,"[106,106]","[-150,0]",up,1,,,,,,001,2025-03-17_15h22.56.327,SL_base,2021.2.3,Win32,59.88023952,1.2874,,,27,0,27,0,1,,,,,,,,
,,"[""diamond"",""red"",""vert"",""up"",[106,-106],[0,150]]",diamond,red,vert,up,"[106,-106]","[0,150]",up,1,,,,,,001,2025-03-17_15h22.56.327,SL_base,2021.2.3,Win32,59.88023952,0.8078,,,28,0,28,0,1,,,,,,,,
,,"[""diamond"",""no_dis"",""vert"",""up"",[99999,99999],[-106,106]]",diamond,no_dis,vert,up,"[99999,99999]","[-106,106]",up,1,,,,,,001,2025-03-17_15h22.56.327,SL_base,2021.2.3,Win32,59.88023952,0.8843,,,29,0,29,0,1,,,,,,,,
,,"[""circle"",""no_dis"",""hori"",""left"",[99999,99999],[106,106]]",circle,no_dis,hori,left,"[99999,99999]","[106,106]",left,1,,,,,,001,2025-03-17_15h22.56.327,SL_base,2021.2.3,Win32,59.88023952,0.8338,,,30,0,30,0,1,,,,,,,,
,,"[""diamond"",""green"",""vert"",""up"",[106,106],[-150,0]]",diamond,green,vert,up,"[106,106]","[-150,0]",up,1,,,,,,001,2025-03-17_15h22.56.327,SL_base,2021.2.3,Win32,59.88023952,0.8337,,,31,0,31,0,1,,,,,,,,
,,"[""diamond"",""red"",""hori"",""left"",[0,150],[-150,0]]",diamond,red,hori,left,"[0,150]","[-150,0]",left,1,,,,,,001,2025-03-17_15h22.56.327,SL_base,2021.2.3,Win32,59.88023952,0.8835,,,32,0,32,0,1,,,,,,,,
,,"[""circle"",""no_dis"",""vert"",""up"",[99999,99999],[0,150]]",circle,no_dis,vert,up,"[99999,99999]","[0,150]",up,1,,,,,,001,2025-03-17_15h22.56.327,SL_base,2021.2.3,Win32,59.88023952,0.6838,,,33,0,33,0,1,,,,,,,,
,,"[""circle"",""green"",""hori"",""left"",[0,150],[106,-106]]",circle,green,hori,left,"[0,150]","[106,-106]",left,1,,,,,,001,2025-03-17_15h22.56.327,SL_base,2021.2.3,Win32,59.88023952,1.2231,,,34,0,34,0,1,,,,,,,,
,,"[""circle"",""red"",""hori"",""left"",[106,106],[-106,106]]",circle,red,hori,left,"[106,106]","[-106,106]",left,1,,,,,,001,2025-03-17_15h22.56.327,SL_base,2021.2.3,Win32,59.88023952,1.0673,,,35,0,35,0,1,,,,,,,,
,,"[""circle"",""green"",""hori"",""left"",[-106,106],[0,150]]",circle,green,hori,left,"[-106,106]","[0,150]",left,1,,,,,,001,2025-03-17_15h22.56.327,SL_base,2021.2.3,Win32,59.88023952,0.7703,,,36,0,36,0,1,,,,,,,,
,,"[""circle"",""no_dis"",""vert"",""up"",[99999,99999],[0,150]]",circle,no_dis,vert,up,"[99999,99999]","[0,150]",up,1,,,,,,001,2025-03-17_15h22.56.327,SL_base,2021.2.3,Win32,59.88023952,0.7023,,,37,0,37,0,1,,,,,,,,
,,"[""circle"",""green"",""vert"",""up"",[0,150],[150,0]]",circle,green,vert,up,"[0,150]","[150,0]",up,1,,,,,,001,2025-03-17_15h22.56.327,SL_base,2021.2.3,Win32,59.88023952,1.0097,,,38,0,38,0,1,,,,,,,,
,,"[""diamond"",""no_dis"",""hori"",""left"",[99999,99999],[106,-106]]",diamond,no_dis,hori,left,"[99999,99999]","[106,-106]",left,1,,,,,,001,2025-03-17_15h22.56.327,SL_base,2021.2.3,Win32,59.88023952,0.7172,,,39,0,39,0,1,,,,,,,,
,,"[""circle"",""red"",""hori"",""left"",[106,106],[150,0]]",circle,red,hori,left,"[106,106]","[150,0]",left,1,,,,,,001,2025-03-17_15h22.56.327,SL_base,2021.2.3,Win32,59.88023952,0.783,,,40,0,40,0,1,,,,,,,,
,,"[""diamond"",""red"",""vert"",""up"",[-150,0],[106,106]]",diamond,red,vert,up,"[-150,0]","[106,106]",up,1,,,,,,001,2025-03-17_15h22.56.327,SL_base,2021.2.3,Win32,59.88023952,1.1378,,,41,0,41,0,1,,,,,,,,
,,"[""diamond"",""no_dis"",""hori"",""left"",[99999,99999],[0,-150]]",diamond,no_dis,hori,left,"[99999,99999]","[0,-150]",left,1,,,,,,001,2025-03-17_15h22.56.327,SL_base,2021.2.3,Win32,59.88023952,0.8841,,,42,0,42,0,1,,,,,,,,
,,"[""circle"",""no_dis"",""hori"",""left"",[99999,99999],[-150,0]]",circle,no_dis,hori,left,"[99999,99999]","[-150,0]",left,1,,,,,,001,2025-03-17_15h22.56.327,SL_base,2021.2.3,Win32,59.88023952,2.0161,,,43,0,43,0,1,,,,,,,,
,,"[""circle"",""red"",""vert"",""up"",[0,150],[106,106]]",circle,red,vert,up,"[0,150]","[106,106]",up,1,,,,,,001,2025-03-17_15h22.56.327,SL_base,2021.2.3,Win32,59.88023952,0.8042,,,44,0,44,0,1,,,,,,,,
,,"[""circle"",""no_dis"",""hori"",""left"",[99999,99999],[0,-150]]",circle,no_dis,hori,left,"[99999,99999]","[0,-150]",left,1,,,,,,001,2025-03-17_15h22.56.327,SL_base,2021.2.3,Win32,59.88023952,1.0925,,,45,0,45,0,1,,,,,,,,
,,"[""diamond"",""green"",""hori"",""left"",[106,-106],[-106,106]]",diamond,green,hori,left,"[106,-106]","[-106,106]",left,1,,,,,,001,2025-03-17_15h22.56.327,SL_base,2021.2.3,Win32,59.88023952,0.8843,,,46,0,46,0,1,,,,,,,,
,,"[""diamond"",""red"",""vert"",""up"",[106,106],[-106,106]]",diamond,red,vert,up,"[106,106]","[-106,106]",up,1,,,,,,001,2025-03-17_15h22.56.327,SL_base,2021.2.3,Win32,59.88023952,0.5929,,,47,0,47,0,1,,,,,,,,
,,"[""diamond"",""no_dis"",""hori"",""left"",[99999,99999],[-106,-106]]",diamond,no_dis,hori,left,"[99999,99999]","[-106,-106]",left,1,,,,,,001,2025-03-17_15h22.56.327,SL_base,2021.2.3,Win32,59.88023952,0.8841,,,48,0,48,0,1,,,,,,,,
,,"[""diamond"",""green"",""vert"",""up"",[150,0],[-106,106]]",diamond,green,vert,up,"[150,0]","[-106,106]",up,1,,,,,,001,2025-03-17_15h22.56.327,SL_base,2021.2.3,Win32,59.88023952,1.0507,,,49,0,49,0,1,,,,,,,,
,,"[""diamond"",""no_dis"",""vert"",""up"",[99999,99999],[-150,0]]",diamond,no_dis,vert,up,"[99999,99999]","[-150,0]",up,1,,,,,,001,2025-03-17_15h22.56.327,SL_base,2021.2.3,Win32,59.88023952,1.1025,,,50,0,50,0,1,,,,,,,,
,,"[""diamond"",""red"",""vert"",""up"",[106,106],[106,-106]]",diamond,red,vert,up,"[106,106]","[106,-106]",up,1,,,,,,001,2025-03-17_15h22.56.327,SL_base,2021.2.3,Win32,59.88023952,1.5367,,,51,0,51,0,1,,,,,,,,
,,"[""circle"",""green"",""hori"",""left"",[106,-106],[-106,106]]",circle,green,hori,left,"[106,-106]","[-106,106]",left,1,,,,,,001,2025-03-17_15h22.56.327,SL_base,2021.2.3,Win32,59.88023952,0.9755,,,52,0,52,0,1,,,,,,,,
,,"[""diamond"",""green"",""hori"",""left"",[106,106],[0,150]]",diamond,green,hori,left,"[106,106]","[0,150]",left,1,,,,,,001,2025-03-17_15h22.56.327,SL_base,2021.2.3,Win32,59.88023952,0.8454,,,53,0,53,0,1,,,,,,,,
,,"[""circle"",""green"",""hori"",""left"",[-106,-106],[0,-150]]",circle,green,hori,left,"[-106,-106]","[0,-150]",left,1,,,,,,001,2025-03-17_15h22.56.327,SL_base,2021.2.3,Win32,59.88023952,1.9843,,,54,0,54,0,1,,,,,,,,
,,"[""diamond"",""green"",""hori"",""left"",[-106,106],[-150,0]]",diamond,green,hori,left,"[-106,106]","[-150,0]",left,1,,,,,,001,2025-03-17_15h22.56.327,SL_base,2021.2.3,Win32,59.88023952,2.3567,,,55,0,55,0,1,,,,,,,,
,,"[""diamond"",""red"",""hori"",""left"",[106,-106],[150,0]]",diamond,red,hori,left,"[106,-106]","[150,0]",left,1,,,,,,001,2025-03-17_15h22.56.327,SL_base,2021.2.3,Win32,59.88023952,1.0554,,,56,0,56,0,1,,,,,,,,
,,"[""diamond"",""green"",""hori"",""left"",[-106,-106],[-106,106]]",diamond,green,hori,left,"[-106,-106]","[-106,106]",left,1,,,,,,001,2025-03-17_15h22.56.327,SL_base,2021.2.3,Win32,59.88023952,1.0481,,,57,0,57,0,1,,,,,,,,
,,"[""diamond"",""green"",""vert"",""up"",[0,150],[-106,106]]",diamond,green,vert,up,"[0,150]","[-106,106]",up,1,,,,,,001,2025-03-17_15h22.56.327,SL_base,2021.2.3,Win32,59.88023952,1.006,,,58,0,58,0,1,,,,,,,,
,,"[""circle"",""green"",""vert"",""up"",[106,-106],[-106,106]]",circle,green,vert,up,"[106,-106]","[-106,106]",left,0,,,,,,001,2025-03-17_15h22.56.327,SL_base,2021.2.3,Win32,59.88023952,1.0674,,,59,0,59,0,1,,,,,,,,
,,"[""circle"",""red"",""hori"",""left"",[106,106],[0,150]]",circle,red,hori,left,"[106,106]","[0,150]",left,1,,,,,,001,2025-03-17_15h22.56.327,SL_base,2021.2.3,Win32,59.88023952,1.106,,,60,0,60,0,1,,,,,,,,
,,"[""diamond"",""no_dis"",""vert"",""up"",[99999,99999],[-106,106]]",diamond,no_dis,vert,up,"[99999,99999]","[-106,106]",up,1,,,,,,001,2025-03-17_15h22.56.327,SL_base,2021.2.3,Win32,59.88023952,0.8334,,,61,0,61,0,1,,,,,,,,
,,"[""circle"",""no_dis"",""vert"",""up"",[99999,99999],[-106,106]]",circle,no_dis,vert,up,"[99999,99999]","[-106,106]",up,1,,,,,,001,2025-03-17_15h22.56.327,SL_base,2021.2.3,Win32,59.88023952,0.8675,,,62,0,62,0,1,,,,,,,,
,,"[""circle"",""green"",""hori"",""left"",[0,-150],[106,106]]",circle,green,hori,left,"[0,-150]","[106,106]",left,1,,,,,,001,2025-03-17_15h22.56.327,SL_base,2021.2.3,Win32,59.88023952,1.3526,,,63,0,63,0,1,,,,,,,,
,,"[""circle"",""green"",""vert"",""up"",[-150,0],[-106,-106]]",circle,green,vert,up,"[-150,0]","[-106,-106]",up,1,,,,,,001,2025-03-17_15h22.56.327,SL_base,2021.2.3,Win32,59.88023952,0.9373,,,64,0,64,0,1,,,,,,,,
,,"[""diamond"",""no_dis"",""vert"",""up"",[99999,99999],[-150,0]]",diamond,no_dis,vert,up,"[99999,99999]","[-150,0]",up,1,,,,,,001,2025-03-17_15h22.56.327,SL_base,2021.2.3,Win32,59.88023952,0.8005,,,65,0,65,0,1,,,,,,,,
,,"[""diamond"",""red"",""hori"",""left"",[150,0],[106,-106]]",diamond,red,hori,left,"[150,0]","[106,-106]",left,1,,,,,,001,2025-03-17_15h22.56.327,SL_base,2021.2.3,Win32,59.88023952,0.9338,,,66,0,66,0,1,,,,,,,,
,,"[""diamond"",""green"",""vert"",""up"",[-150,0],[106,106]]",diamond,green,vert,up,"[-150,0]","[106,106]",up,1,,,,,,001,2025-03-17_15h22.56.327,SL_base,2021.2.3,Win32,59.88023952,0.7006,,,67,0,67,0,1,,,,,,,,
,,"[""diamond"",""red"",""hori"",""left"",[-106,-106],[150,0]]",diamond,red,hori,left,"[-106,-106]","[150,0]",left,1,,,,,,001,2025-03-17_15h22.56.327,SL_base,2021.2.3,Win32,59.88023952,1.1,,,68,0,68,0,1,,,,,,,,
,,"[""diamond"",""no_dis"",""vert"",""up"",[99999,99999],[106,106]]",diamond,no_dis,vert,up,"[99999,99999]","[106,106]",up,1,,,,,,001,2025-03-17_15h22.56.327,SL_base,2021.2.3,Win32,59.88023952,0.6091,,,69,0,69,0,1,,,,,,,,
,,"[""circle"",""no_dis"",""vert"",""up"",[99999,99999],[150,0]]",circle,no_dis,vert,up,"[99999,99999]","[150,0]",up,1,,,,,,001,2025-03-17_15h22.56.327,SL_base,2021.2.3,Win32,59.88023952,0.7858,,,70,0,70,0,1,,,,,,,,
,,"[""diamond"",""green"",""vert"",""up"",[106,106],[150,0]]",diamond,green,vert,up,"[106,106]","[150,0]",up,1,,,,,,001,2025-03-17_15h22.56.327,SL_base,2021.2.3,Win32,59.88023952,0.7003,,,71,0,71,0,1,,,,,,,,
,,"[""circle"",""no_dis"",""vert"",""up"",[99999,99999],[106,-106]]",circle,no_dis,vert,up,"[99999,99999]","[106,-106]",up,1,,,,,,001,2025-03-17_15h22.56.327,SL_base,2021.2.3,Win32,59.88023952,0.9006,,,72,0,72,0,1,,,,,,,,
,,"[""circle"",""green"",""vert"",""up"",[106,106],[0,150]]",circle,green,vert,up,"[106,106]","[0,150]",up,1,,,,,,001,2025-03-17_15h22.56.327,SL_base,2021.2.3,Win32,59.88023952,0.9221,,,73,0,73,0,1,,,,,,,,
,,"[""diamond"",""green"",""vert"",""up"",[-106,-106],[-150,0]]",diamond,green,vert,up,"[-106,-106]","[-150,0]",up,1,,,,,,001,2025-03-17_15h22.56.327,SL_base,2021.2.3,Win32,59.88023952,1.0174,,,74,0,74,0,1,,,,,,,,
,,"[""diamond"",""red"",""hori"",""left"",[-150,0],[106,106]]",diamond,red,hori,left,"[-150,0]","[106,106]",left,1,,,,,,001,2025-03-17_15h22.56.327,SL_base,2021.2.3,Win32,59.88023952,0.6862,,,75,0,75,0,1,,,,,,,,
,,"[""circle"",""red"",""vert"",""up"",[106,106],[150,0]]",circle,red,vert,up,"[106,106]","[150,0]",up,1,,,,,,001,2025-03-17_15h22.56.327,SL_base,2021.2.3,Win32,59.88023952,0.9339,,,76,0,76,0,1,,,,,,,,
,,"[""diamond"",""no_dis"",""hori"",""left"",[99999,99999],[-106,106]]",diamond,no_dis,hori,left,"[99999,99999]","[-106,106]",up,0,,,,,,001,2025-03-17_15h22.56.327,SL_base,2021.2.3,Win32,59.88023952,0.8171,,,77,0,77,0,1,,,,,,,,
,,"[""diamond"",""no_dis"",""hori"",""left"",[99999,99999],[150,0]]",diamond,no_dis,hori,left,"[99999,99999]","[150,0]",left,1,,,,,,001,2025-03-17_15h22.56.327,SL_base,2021.2.3,Win32,59.88023952,0.7707,,,78,0,78,0,1,,,,,,,,
,,"[""diamond"",""red"",""hori"",""left"",[-106,-106],[150,0]]",diamond,red,hori,left,"[-106,-106]","[150,0]",left,1,,,,,,001,2025-03-17_15h22.56.327,SL_base,2021.2.3,Win32,59.88023952,0.5518,,,79,0,79,0,1,,,,,,,,
,,"[""circle"",""green"",""hori"",""left"",[106,106],[-106,-106]]",circle,green,hori,left,"[106,106]","[-106,-106]",left,1,,,,,,001,2025-03-17_15h22.56.327,SL_base,2021.2.3,Win32,59.88023952,1.2013,,,80,0,80,0,1,,,,,,,,
,,"[""circle"",""green"",""vert"",""up"",[-106,106],[-106,-106]]",circle,green,vert,up,"[-106,106]","[-106,-106]",up,1,,,,,,001,2025-03-17_15h22.56.327,SL_base,2021.2.3,Win32,59.88023952,0.8513,,,81,0,81,0,1,,,,,,,,
,,"[""circle"",""no_dis"",""hori"",""left"",[99999,99999],[0,-150]]",circle,no_dis,hori,left,"[99999,99999]","[0,-150]",left,1,,,,,,001,2025-03-17_15h22.56.327,SL_base,2021.2.3,Win32,59.88023952,0.6868,,,82,0,82,0,1,,,,,,,,
,,"[""circle"",""red"",""hori"",""left"",[-106,106],[-106,-106]]",circle,red,hori,left,"[-106,106]","[-106,-106]",left,1,,,,,,001,2025-03-17_15h22.56.327,SL_base,2021.2.3,Win32,59.88023952,0.8003,,,83,0,83,0,1,,,,,,,,
,,"[""circle"",""red"",""vert"",""up"",[-106,106],[-106,-106]]",circle,red,vert,up,"[-106,106]","[-106,-106]",left,0,,,,,,001,2025-03-17_15h22.56.327,SL_base,2021.2.3,Win32,59.88023952,0.6341,,,84,0,84,0,1,,,,,,,,
,,"[""circle"",""no_dis"",""hori"",""left"",[99999,99999],[-150,0]]",circle,no_dis,hori,left,"[99999,99999]","[-150,0]",left,1,,,,,,001,2025-03-17_15h22.56.327,SL_base,2021.2.3,Win32,59.88023952,0.7774,,,85,0,85,0,1,,,,,,,,
,,"[""circle"",""green"",""vert"",""up"",[106,106],[-106,-106]]",circle,green,vert,up,"[106,106]","[-106,-106]",up,1,,,,,,001,2025-03-17_15h22.56.327,SL_base,2021.2.3,Win32,59.88023952,1.1832,,,86,0,86,0,1,,,,,,,,
,,"[""diamond"",""no_dis"",""vert"",""up"",[99999,99999],[-106,-106]]",diamond,no_dis,vert,up,"[99999,99999]","[-106,-106]",up,1,,,,,,001,2025-03-17_15h22.56.327,SL_base,2021.2.3,Win32,59.88023952,1.0167,,,87,0,87,0,1,,,,,,,,
,,"[""diamond"",""green"",""hori"",""left"",[-150,0],[150,0]]",diamond,green,hori,left,"[-150,0]","[150,0]",left,1,,,,,,001,2025-03-17_15h22.56.327,SL_base,2021.2.3,Win32,59.88023952,0.5452,,,88,0,88,0,1,,,,,,,,
,,"[""circle"",""green"",""hori"",""left"",[106,106],[150,0]]",circle,green,hori,left,"[106,106]","[150,0]",left,1,,,,,,001,2025-03-17_15h22.56.327,SL_base,2021.2.3,Win32,59.88023952,0.9668,,,89,0,89,0,1,,,,,,,,
,,"[""circle"",""no_dis"",""vert"",""up"",[99999,99999],[150,0]]",circle,no_dis,vert,up,"[99999,99999]","[150,0]",up,1,,,,,,001,2025-03-17_15h22.56.327,SL_base,2021.2.3,Win32,59.88023952,0.5506,,,90,0,90,0,1,,,,,,,,
,,"[""circle"",""no_dis"",""vert"",""up"",[99999,99999],[106,106]]",circle,no_dis,vert,up,"[99999,99999]","[106,106]",up,1,,,,,,001,2025-03-17_15h22.56.327,SL_base,2021.2.3,Win32,59.88023952,0.5426,,,91,0,91,0,1,,,,,,,,
,,"[""circle"",""red"",""hori"",""left"",[150,0],[-150,0]]",circle,red,hori,left,"[150,0]","[-150,0]",left,1,,,,,,001,2025-03-17_15h22.56.327,SL_base,2021.2.3,Win32,59.88023952,0.9002,,,92,0,92,0,1,,,,,,,,
,,"[""circle"",""red"",""vert"",""up"",[0,150],[-106,106]]",circle,red,vert,up,"[0,150]","[-106,106]",up,1,,,,,,001,2025-03-17_15h22.56.327,SL_base,2021.2.3,Win32,59.88023952,0.6387,,,93,0,93,0,1,,,,,,,,
,,"[""diamond"",""green"",""vert"",""up"",[-106,106],[-150,0]]",diamond,green,vert,up,"[-106,106]","[-150,0]",up,1,,,,,,001,2025-03-17_15h22.56.327,SL_base,2021.2.3,Win32,59.88023952,1.1868,,,94,0,94,0,1,,,,,,,,
,,"[""circle"",""green"",""hori"",""left"",[150,0],[106,-106]]",circle,green,hori,left,"[150,0]","[106,-106]",left,1,,,,,,001,2025-03-17_15h22.56.327,SL_base,2021.2.3,Win32,59.88023952,1.0883,,,95,0,95,0,1,,,,,,,,
,,"[""diamond"",""no_dis"",""hori"",""left"",[99999,99999],[-106,-106]]",diamond,no_dis,hori,left,"[99999,99999]","[-106,-106]",left,1,,,,,,001,2025-03-17_15h22.56.327,SL_base,2021.2.3,Win32,59.88023952,1.0005,,,96,0,96,0,1,,,,,,,,
,,"[""circle"",""green"",""hori"",""left"",[106,-106],[0,-150]]",circle,green,hori,left,"[106,-106]","[0,-150]",left,1,,,,,,001,2025-03-17_15h22.56.327,SL_base,2021.2.3,Win32,59.88023952,0.9109,,,97,0,97,0,1,,,,,,,,
,,"[""circle"",""no_dis"",""hori"",""left"",[99999,99999],[150,0]]",circle,no_dis,hori,left,"[99999,99999]","[150,0]",left,1,,,,,,001,2025-03-17_15h22.56.327,SL_base,2021.2.3,Win32,59.88023952,0.6026,,,98,0,98,0,1,,,,,,,,
,,"[""diamond"",""green"",""hori"",""left"",[0,-150],[-106,-106]]",diamond,green,hori,left,"[0,-150]","[-106,-106]",left,1,,,,,,001,2025-03-17_15h22.56.327,SL_base,2021.2.3,Win32,59.88023952,1.0335,,,99,0,99,0,1,,,,,,,,
,,"[""circle"",""red"",""vert"",""up"",[-106,106],[106,106]]",circle,red,vert,up,"[-106,106]","[106,106]",up,1,,,,,,001,2025-03-17_15h22.56.327,SL_base,2021.2.3,Win32,59.88023952,1.1584,,,100,0,100,0,1,,,,,,,,
,,"[""diamond"",""red"",""vert"",""up"",[-106,-106],[0,150]]",diamond,red,vert,up,"[-106,-106]","[0,150]",up,1,,,,,,001,2025-03-17_15h22.56.327,SL_base,2021.2.3,Win32,59.88023952,1.4336,,,101,0,101,0,1,,,,,,,,
,,"[""diamond"",""red"",""hori"",""left"",[-150,0],[-106,-106]]",diamond,red,hori,left,"[-150,0]","[-106,-106]",left,1,,,,,,001,2025-03-17_15h22.56.327,SL_base,2021.2.3,Win32,59.88023952,0.7174,,,102,0,102,0,1,,,,,,,,
,,"[""diamond"",""green"",""hori"",""left"",[150,0],[-150,0]]",diamond,green,hori,left,"[150,0]","[-150,0]",left,1,,,,,,001,2025-03-17_15h22.56.327,SL_base,2021.2.3,Win32,59.88023952,0.5924,,,103,0,103,0,1,,,,,,,,
,,"[""circle"",""red"",""vert"",""up"",[0,150],[150,0]]",circle,red,vert,up,"[0,150]","[150,0]",up,1,,,,,,001,2025-03-17_15h22.56.327,SL_base,2021.2.3,Win32,59.88023952,0.8451,,,104,0,104,0,1,,,,,,,,
,,"[""circle"",""green"",""vert"",""up"",[0,-150],[-106,106]]",circle,green,vert,up,"[0,-150]","[-106,106]",up,1,,,,,,001,2025-03-17_15h22.56.327,SL_base,2021.2.3,Win32,59.88023952,0.6571,,,105,0,105,0,1,,,,,,,,
,,"[""diamond"",""red"",""vert"",""up"",[0,-150],[-106,106]]",diamond,red,vert,up,"[0,-150]","[-106,106]",up,1,,,,,,001,2025-03-17_15h22.56.327,SL_base,2021.2.3,Win32,59.88023952,0.5173,,,106,0,106,0,1,,,,,,,,
,,"[""diamond"",""no_dis"",""vert"",""up"",[99999,99999],[0,150]]",diamond,no_dis,vert,up,"[99999,99999]","[0,150]",up,1,,,,,,001,2025-03-17_15h22.56.327,SL_base,2021.2.3,Win32,59.88023952,0.681,,,107,0,107,0,1,,,,,,,,
,,"[""diamond"",""no_dis"",""vert"",""up"",[99999,99999],[-106,-106]]",diamond,no_dis,vert,up,"[99999,99999]","[-106,-106]",up,1,,,,,,001,2025-03-17_15h22.56.327,SL_base,2021.2.3,Win32,59.88023952,0.7452,,,108,0,108,0,1,,,,,,,,
,,"[""circle"",""no_dis"",""vert"",""up"",[99999,99999],[0,-150]]",circle,no_dis,vert,up,"[99999,99999]","[0,-150]",up,1,,,,,,001,2025-03-17_15h22.56.327,SL_base,2021.2.3,Win32,59.88023952,2.0011,,,109,0,109,0,1,,,,,,,,
,,"[""circle"",""green"",""hori"",""left"",[106,106],[106,-106]]",circle,green,hori,left,"[106,106]","[106,-106]",left,1,,,,,,001,2025-03-17_15h22.56.327,SL_base,2021.2.3,Win32,59.88023952,0.7407,,,110,0,110,0,1,,,,,,,,
,,"[""circle"",""no_dis"",""hori"",""left"",[99999,99999],[106,-106]]",circle,no_dis,hori,left,"[99999,99999]","[106,-106]",left,1,,,,,,001,2025-03-17_15h22.56.327,SL_base,2021.2.3,Win32,59.88023952,0.7336,,,111,0,111,0,1,,,,,,,,
,,"[""circle"",""green"",""vert"",""up"",[150,0],[-150,0]]",circle,green,vert,up,"[150,0]","[-150,0]",up,1,,,,,,001,2025-03-17_15h22.56.327,SL_base,2021.2.3,Win32,59.88023952,0.6362,,,112,0,112,0,1,,,,,,,,
,,"[""diamond"",""no_dis"",""hori"",""left"",[99999,99999],[0,150]]",diamond,no_dis,hori,left,"[99999,99999]","[0,150]",left,1,,,,,,001,2025-03-17_15h22.56.327,SL_base,2021.2.3,Win32,59.88023952,1.1597,,,113,0,113,0,1,,,,,,,,
,,"[""circle"",""no_dis"",""hori"",""left"",[99999,99999],[-150,0]]",circle,no_dis,hori,left,"[99999,99999]","[-150,0]",left,1,,,,,,001,2025-03-17_15h22.56.327,SL_base,2021.2.3,Win32,59.88023952,1.0281,,,114,0,114,0,1,,,,,,,,
,,"[""circle"",""red"",""vert"",""up"",[150,0],[-106,106]]",circle,red,vert,up,"[150,0]","[-106,106]",up,1,,,,,,001,2025-03-17_15h22.56.327,SL_base,2021.2.3,Win32,59.88023952,0.579,,,115,0,115,0,1,,,,,,,,
,,"[""diamond"",""red"",""hori"",""left"",[0,-150],[-150,0]]",diamond,red,hori,left,"[0,-150]","[-150,0]",left,1,,,,,,001,2025-03-17_15h22.56.327,SL_base,2021.2.3,Win32,59.88023952,0.8838,,,116,0,116,0,1,,,,,,,,
,,"[""diamond"",""no_dis"",""hori"",""left"",[99999,99999],[106,106]]",diamond,no_dis,hori,left,"[99999,99999]","[106,106]",left,1,,,,,,001,2025-03-17_15h22.56.327,SL_base,2021.2.3,Win32,59.88023952,1.0253,,,117,0,117,0,1,,,,,,,,
,,"[""diamond"",""red"",""vert"",""up"",[106,106],[-150,0]]",diamond,red,vert,up,"[106,106]","[-150,0]",up,1,,,,,,001,2025-03-17_15h22.56.327,SL_base,2021.2.3,Win32,59.88023952,0.5729,,,118,0,118,0,1,,,,,,,,
,,"[""circle"",""no_dis"",""hori"",""left"",[99999,99999],[106,-106]]",circle,no_dis,hori,left,"[99999,99999]","[106,-106]",left,1,,,,,,001,2025-03-17_15h22.56.327,SL_base,2021.2.3,Win32,59.88023952,0.5777,,,119,0,119,0,1,,,,,,,,
,,,,,,,,,,,,,,,,001,2025-03-17_15h22.56.327,SL_base,2021.2.3,Win32,59.88023952,,,,,,,,,1,space,18.9175,0,0,0,0,1
,,"[""circle"",""green"",""vert"",""up"",[0,150],[150,0]]",circle,green,vert,up,"[0,150]","[150,0]",up,1,,,,,,001,2025-03-17_15h22.56.327,SL_base,2021.2.3,Win32,59.88023952,1.6773,,,0,0,0,0,1,,,,,,,,
,,"[""diamond"",""green"",""vert"",""up"",[150,0],[-106,106]]",diamond,green,vert,up,"[150,0]","[-106,106]",up,1,,,,,,001,2025-03-17_15h22.56.327,SL_base,2021.2.3,Win32,59.88023952,0.9133,,,1,0,1,0,1,,,,,,,,
,,"[""circle"",""green"",""hori"",""left"",[0,150],[106,-106]]",circle,green,hori,left,"[0,150]","[106,-106]",left,1,,,,,,001,2025-03-17_15h22.56.327,SL_base,2021.2.3,Win32,59.88023952,0.6694,,,2,0,2,0,1,,,,,,,,
,,"[""circle"",""red"",""vert"",""up"",[0,150],[150,0]]",circle,red,vert,up,"[0,150]","[150,0]",up,1,,,,,,001,2025-03-17_15h22.56.327,SL_base,2021.2.3,Win32,59.88023952,0.9714,,,3,0,3,0,1,,,,,,,,
,,"[""diamond"",""red"",""hori"",""left"",[0,-150],[-150,0]]",diamond,red,hori,left,"[0,-150]","[-150,0]",left,1,,,,,,001,2025-03-17_15h22.56.327,SL_base,2021.2.3,Win32,59.88023952,0.7336,,,4,0,4,0,1,,,,,,,,
,,"[""diamond"",""green"",""hori"",""left"",[150,0],[-106,106]]",diamond,green,hori,left,"[150,0]","[-106,106]",left,1,,,,,,001,2025-03-17_15h22.56.327,SL_base,2021.2.3,Win32,59.88023952,0.6531,,,5,0,5,0,1,,,,,,,,
,,"[""diamond"",""no_dis"",""hori"",""left"",[99999,99999],[-106,106]]",diamond,no_dis,hori,left,"[99999,99999]","[-106,106]",left,1,,,,,,001,2025-03-17_15h22.56.327,SL_base,2021.2.3,Win32,59.88023952,0.4567,,,6,0,6,0,1,,,,,,,,
,,"[""circle"",""red"",""vert"",""up"",[106,-106],[0,150]]",circle,red,vert,up,"[106,-106]","[0,150]",up,1,,,,,,001,2025-03-17_15h22.56.327,SL_base,2021.2.3,Win32,59.88023952,0.7267,,,7,0,7,0,1,,,,,,,,
,,"[""diamond"",""no_dis"",""vert"",""up"",[99999,99999],[-150,0]]",diamond,no_dis,vert,up,"[99999,99999]","[-150,0]",up,1,,,,,,001,2025-03-17_15h22.56.327,SL_base,2021.2.3,Win32,59.88023952,0.6366,,,8,0,8,0,1,,,,,,,,
,,"[""circle"",""red"",""hori"",""left"",[106,106],[0,150]]",circle,red,hori,left,"[106,106]","[0,150]",left,1,,,,,,001,2025-03-17_15h22.56.327,SL_base,2021.2.3,Win32,59.88023952,0.8004,,,9,0,9,0,1,,,,,,,,
,,"[""diamond"",""red"",""hori"",""left"",[150,0],[106,-106]]",diamond,red,hori,left,"[150,0]","[106,-106]",left,1,,,,,,001,2025-03-17_15h22.56.327,SL_base,2021.2.3,Win32,59.88023952,0.819,,,10,0,10,0,1,,,,,,,,
,,"[""circle"",""green"",""vert"",""up"",[106,106],[0,150]]",circle,green,vert,up,"[106,106]","[0,150]",up,1,,,,,,001,2025-03-17_15h22.56.327,SL_base,2021.2.3,Win32,59.88023952,0.8876,,,11,0,11,0,1,,,,,,,,
,,"[""diamond"",""no_dis"",""vert"",""up"",[99999,99999],[-106,-106]]",diamond,no_dis,vert,up,"[99999,99999]","[-106,-106]",up,1,,,,,,001,2025-03-17_15h22.56.327,SL_base,2021.2.3,Win32,59.88023952,0.7344,,,12,0,12,0,1,,,,,,,,
,,"[""diamond"",""red"",""vert"",""up"",[106,106],[-106,106]]",diamond,red,vert,up,"[106,106]","[-106,106]",up,1,,,,,,001,2025-03-17_15h22.56.327,SL_base,2021.2.3,Win32,59.88023952,0.9202,,,13,0,13,0,1,,,,,,,,
,,"[""circle"",""red"",""hori"",""left"",[106,106],[0,-150]]",circle,red,hori,left,"[106,106]","[0,-150]",left,1,,,,,,001,2025-03-17_15h22.56.327,SL_base,2021.2.3,Win32,59.88023952,0.667,,,14,0,14,0,1,,,,,,,,
,,"[""circle"",""no_dis"",""vert"",""up"",[99999,99999],[150,0]]",circle,no_dis,vert,up,"[99999,99999]","[150,0]",up,1,,,,,,001,2025-03-17_15h22.56.327,SL_base,2021.2.3,Win32,59.88023952,0.6552,,,15,0,15,0,1,,,,,,,,
,,"[""diamond"",""no_dis"",""hori"",""left"",[99999,99999],[106,106]]",diamond,no_dis,hori,left,"[99999,99999]","[106,106]",left,1,,,,,,001,2025-03-17_15h22.56.327,SL_base,2021.2.3,Win32,59.88023952,0.6003,,,16,0,16,0,1,,,,,,,,
,,"[""diamond"",""green"",""hori"",""left"",[106,-106],[-106,106]]",diamond,green,hori,left,"[106,-106]","[-106,106]",up,0,,,,,,001,2025-03-17_15h22.56.327,SL_base,2021.2.3,Win32,59.88023952,0.6172,,,17,0,17,0,1,,,,,,,,
,,"[""circle"",""no_dis"",""hori"",""left"",[99999,99999],[106,-106]]",circle,no_dis,hori,left,"[99999,99999]","[106,-106]",left,1,,,,,,001,2025-03-17_15h22.56.327,SL_base,2021.2.3,Win32,59.88023952,0.8176,,,18,0,18,0,1,,,,,,,,
,,"[""diamond"",""no_dis"",""hori"",""left"",[99999,99999],[150,0]]",diamond,no_dis,hori,left,"[99999,99999]","[150,0]",left,1,,,,,,001,2025-03-17_15h22.56.327,SL_base,2021.2.3,Win32,59.88023952,0.9671,,,19,0,19,0,1,,,,,,,,
,,"[""diamond"",""red"",""hori"",""left"",[-106,-106],[150,0]]",diamond,red,hori,left,"[-106,-106]","[150,0]",left,1,,,,,,001,2025-03-17_15h22.56.327,SL_base,2021.2.3,Win32,59.88023952,1.604,,,20,0,20,0,1,,,,,,,,
,,"[""circle"",""no_dis"",""hori"",""left"",[99999,99999],[0,150]]",circle,no_dis,hori,left,"[99999,99999]","[0,150]",left,1,,,,,,001,2025-03-17_15h22.56.327,SL_base,2021.2.3,Win32,59.88023952,0.6677,,,21,0,21,0,1,,,,,,,,
,,"[""circle"",""green"",""hori"",""left"",[106,106],[150,0]]",circle,green,hori,left,"[106,106]","[150,0]",left,1,,,,,,001,2025-03-17_15h22.56.327,SL_base,2021.2.3,Win32,59.88023952,0.6004,,,22,0,22,0,1,,,,,,,,
,,"[""circle"",""no_dis"",""hori"",""left"",[99999,99999],[-150,0]]",circle,no_dis,hori,left,"[99999,99999]","[-150,0]",left,1,,,,,,001,2025-03-17_15h22.56.327,SL_base,2021.2.3,Win32,59.88023952,0.6508,,,23,0,23,0,1,,,,,,,,
,,"[""circle"",""green"",""vert"",""up"",[-150,0],[-106,-106]]",circle,green,vert,up,"[-150,0]","[-106,-106]",left,0,,,,,,001,2025-03-17_15h22.56.327,SL_base,2021.2.3,Win32,59.88023952,1.2593,,,24,0,24,0,1,,,,,,,,
,,"[""diamond"",""green"",""vert"",""up"",[-106,-106],[-150,0]]",diamond,green,vert,up,"[-106,-106]","[-150,0]",up,1,,,,,,001,2025-03-17_15h22.56.327,SL_base,2021.2.3,Win32,59.88023952,0.8572,,,25,0,25,0,1,,,,,,,,
,,"[""diamond"",""no_dis"",""vert"",""up"",[99999,99999],[-106,106]]",diamond,no_dis,vert,up,"[99999,99999]","[-106,106]",up,1,,,,,,001,2025-03-17_15h22.56.327,SL_base,2021.2.3,Win32,59.88023952,0.8018,,,26,0,26,0,1,,,,,,,,
,,"[""circle"",""red"",""vert"",""up"",[-106,106],[-106,-106]]",circle,red,vert,up,"[-106,106]","[-106,-106]",up,1,,,,,,001,2025-03-17_15h22.56.327,SL_base,2021.2.3,Win32,59.88023952,0.9235,,,27,0,27,0,1,,,,,,,,
,,"[""circle"",""no_dis"",""vert"",""up"",[99999,99999],[-106,106]]",circle,no_dis,vert,up,"[99999,99999]","[-106,106]",up,1,,,,,,001,2025-03-17_15h22.56.327,SL_base,2021.2.3,Win32,59.88023952,0.5508,,,28,0,28,0,1,,,,,,,,
,,"[""circle"",""green"",""hori"",""left"",[106,-106],[-106,106]]",circle,green,hori,left,"[106,-106]","[-106,106]",up,0,,,,,,001,2025-03-17_15h22.56.327,SL_base,2021.2.3,Win32,59.88023952,0.5901,,,29,0,29,0,1,,,,,,,,
,,"[""circle"",""green"",""hori"",""left"",[-106,106],[0,150]]",circle,green,hori,left,"[-106,106]","[0,150]",left,1,,,,,,001,2025-03-17_15h22.56.327,SL_base,2021.2.3,Win32,59.88023952,1.3195,,,30,0,30,0,1,,,,,,,,
,,"[""diamond"",""no_dis"",""hori"",""left"",[99999,99999],[0,150]]",diamond,no_dis,hori,left,"[99999,99999]","[0,150]",left,1,,,,,,001,2025-03-17_15h22.56.327,SL_base,2021.2.3,Win32,59.88023952,1.1173,,,31,0,31,0,1,,,,,,,,
,,"[""diamond"",""green"",""hori"",""left"",[-106,-106],[150,0]]",diamond,green,hori,left,"[-106,-106]","[150,0]",left,1,,,,,,001,2025-03-17_15h22.56.327,SL_base,2021.2.3,Win32,59.88023952,0.8032,,,32,0,32,0,1,,,,,,,,
,,"[""circle"",""red"",""vert"",""up"",[150,0],[-106,106]]",circle,red,vert,up,"[150,0]","[-106,106]",up,1,,,,,,001,2025-03-17_15h22.56.327,SL_base,2021.2.3,Win32,59.88023952,1.0005,,,33,0,33,0,1,,,,,,,,
,,"[""diamond"",""no_dis"",""vert"",""up"",[99999,99999],[150,0]]",diamond,no_dis,vert,up,"[99999,99999]","[150,0]",up,1,,,,,,001,2025-03-17_15h22.56.327,SL_base,2021.2.3,Win32,59.88023952,0.7694,,,34,0,34,0,1,,,,,,,,
,,"[""circle"",""no_dis"",""hori"",""left"",[99999,99999],[-150,0]]",circle,no_dis,hori,left,"[99999,99999]","[-150,0]",left,1,,,,,,001,2025-03-17_15h22.56.327,SL_base,2021.2.3,Win32,59.88023952,0.5538,,,35,0,35,0,1,,,,,,,,
,,"[""circle"",""no_dis"",""hori"",""left"",[99999,99999],[-150,0]]",circle,no_dis,hori,left,"[99999,99999]","[-150,0]",left,1,,,,,,001,2025-03-17_15h22.56.327,SL_base,2021.2.3,Win32,59.88023952,0.6039,,,36,0,36,0,1,,,,,,,,
,,"[""diamond"",""red"",""hori"",""left"",[-106,-106],[150,0]]",diamond,red,hori,left,"[-106,-106]","[150,0]",left,1,,,,,,001,2025-03-17_15h22.56.327,SL_base,2021.2.3,Win32,59.88023952,0.7343,,,37,0,37,0,1,,,,,,,,
,,"[""circle"",""red"",""hori"",""left"",[150,0],[-150,0]]",circle,red,hori,left,"[150,0]","[-150,0]",left,1,,,,,,001,2025-03-17_15h22.56.327,SL_base,2021.2.3,Win32,59.88023952,0.5875,,,38,0,38,0,1,,,,,,,,
,,"[""circle"",""no_dis"",""hori"",""left"",[99999,99999],[150,0]]",circle,no_dis,hori,left,"[99999,99999]","[150,0]",left,1,,,,,,001,2025-03-17_15h22.56.327,SL_base,2021.2.3,Win32,59.88023952,0.5533,,,39,0,39,0,1,,,,,,,,
,,"[""circle"",""green"",""vert"",""up"",[-106,106],[-106,-106]]",circle,green,vert,up,"[-106,106]","[-106,-106]",up,1,,,,,,001,2025-03-17_15h22.56.327,SL_base,2021.2.3,Win32,59.88023952,0.698,,,40,0,40,0,1,,,,,,,,
,,"[""diamond"",""green"",""vert"",""up"",[106,106],[-150,0]]",diamond,green,vert,up,"[106,106]","[-150,0]",up,1,,,,,,001,2025-03-17_15h22.56.327,SL_base,2021.2.3,Win32,59.88023952,0.7502,,,41,0,41,0,1,,,,,,,,
,,"[""circle"",""red"",""hori"",""left"",[0,-150],[150,0]]",circle,red,hori,left,"[0,-150]","[150,0]",left,1,,,,,,001,2025-03-17_15h22.56.327,SL_base,2021.2.3,Win32,59.88023952,0.6431,,,42,0,42,0,1,,,,,,,,
,,"[""diamond"",""green"",""hori"",""left"",[106,106],[106,-106]]",diamond,green,hori,left,"[106,106]","[106,-106]",left,1,,,,,,001,2025-03-17_15h22.56.327,SL_base,2021.2.3,Win32,59.88023952,0.7763,,,43,0,43,0,1,,,,,,,,
,,"[""diamond"",""red"",""vert"",""up"",[106,106],[106,-106]]",diamond,red,vert,up,"[106,106]","[106,-106]",up,1,,,,,,001,2025-03-17_15h22.56.327,SL_base,2021.2.3,Win32,59.88023952,0.893,,,44,0,44,0,1,,,,,,,,
,,"[""circle"",""no_dis"",""vert"",""up"",[99999,99999],[0,150]]",circle,no_dis,vert,up,"[99999,99999]","[0,150]",up,1,,,,,,001,2025-03-17_15h22.56.327,SL_base,2021.2.3,Win32,59.88023952,0.5506,,,45,0,45,0,1,,,,,,,,
,,"[""diamond"",""green"",""hori"",""left"",[-150,0],[150,0]]",diamond,green,hori,left,"[-150,0]","[150,0]",left,1,,,,,,001,2025-03-17_15h22.56.327,SL_base,2021.2.3,Win32,59.88023952,0.7923,,,46,0,46,0,1,,,,,,,,
,,"[""circle"",""red"",""hori"",""left"",[106,106],[150,0]]",circle,red,hori,left,"[106,106]","[150,0]",up,0,,,,,,001,2025-03-17_15h22.56.327,SL_base,2021.2.3,Win32,59.88023952,1.1735,,,47,0,47,0,1,,,,,,,,
,,"[""diamond"",""no_dis"",""vert"",""up"",[99999,99999],[-106,106]]",diamond,no_dis,vert,up,"[99999,99999]","[-106,106]",up,1,,,,,,001,2025-03-17_15h22.56.327,SL_base,2021.2.3,Win32,59.88023952,0.9505,,,48,0,48,0,1,,,,,,,,
,,"[""diamond"",""no_dis"",""hori"",""left"",[99999,99999],[0,-150]]",diamond,no_dis,hori,left,"[99999,99999]","[0,-150]",left,1,,,,,,001,2025-03-17_15h22.56.327,SL_base,2021.2.3,Win32,59.88023952,0.7008,,,49,0,49,0,1,,,,,,,,
,,"[""circle"",""no_dis"",""vert"",""up"",[99999,99999],[106,106]]",circle,no_dis,vert,up,"[99999,99999]","[106,106]",up,1,,,,,,001,2025-03-17_15h22.56.327,SL_base,2021.2.3,Win32,59.88023952,1.0135,,,50,0,50,0,1,,,,,,,,
,,"[""circle"",""red"",""hori"",""left"",[-150,0],[0,150]]",circle,red,hori,left,"[-150,0]","[0,150]",left,1,,,,,,001,2025-03-17_15h22.56.327,SL_base,2021.2.3,Win32,59.88023952,1.6838,,,51,0,51,0,1,,,,,,,,
,,"[""circle"",""red"",""vert"",""up"",[106,106],[150,0]]",circle,red,vert,up,"[106,106]","[150,0]",up,1,,,,,,001,2025-03-17_15h22.56.327,SL_base,2021.2.3,Win32,59.88023952,1.2571,,,52,0,52,0,1,,,,,,,,
,,"[""circle"",""no_dis"",""vert"",""up"",[99999,99999],[0,150]]",circle,no_dis,vert,up,"[99999,99999]","[0,150]",up,1,,,,,,001,2025-03-17_15h22.56.327,SL_base,2021.2.3,Win32,59.88023952,0.6365,,,53,0,53,0,1,,,,,,,,
,,"[""circle"",""green"",""vert"",""up"",[0,150],[0,-150]]",circle,green,vert,up,"[0,150]","[0,-150]",up,1,,,,,,001,2025-03-17_15h22.56.327,SL_base,2021.2.3,Win32,59.88023952,1.5365,,,54,0,54,0,1,,,,,,,,
,,"[""diamond"",""red"",""vert"",""up"",[106,106],[-106,106]]",diamond,red,vert,up,"[106,106]","[-106,106]",up,1,,,,,,001,2025-03-17_15h22.56.327,SL_base,2021.2.3,Win32,59.88023952,1.5425,,,55,0,55,0,1,,,,,,,,
,,"[""diamond"",""green"",""vert"",""up"",[-106,106],[-150,0]]",diamond,green,vert,up,"[-106,106]","[-150,0]",up,1,,,,,,001,2025-03-17_15h22.56.327,SL_base,2021.2.3,Win32,59.88023952,1.1163,,,56,0,56,0,1,,,,,,,,
,,"[""diamond"",""no_dis"",""hori"",""left"",[99999,99999],[106,-106]]",diamond,no_dis,hori,left,"[99999,99999]","[106,-106]",left,1,,,,,,001,2025-03-17_15h22.56.327,SL_base,2021.2.3,Win32,59.88023952,0.8673,,,57,0,57,0,1,,,,,,,,
,,"[""diamond"",""red"",""hori"",""left"",[-150,0],[-106,-106]]",diamond,red,hori,left,"[-150,0]","[-106,-106]",left,1,,,,,,001,2025-03-17_15h22.56.327,SL_base,2021.2.3,Win32,59.88023952,0.9519,,,58,0,58,0,1,,,,,,,,
,,"[""circle"",""green"",""hori"",""left"",[-106,-106],[0,-150]]",circle,green,hori,left,"[-106,-106]","[0,-150]",left,1,,,,,,001,2025-03-17_15h22.56.327,SL_base,2021.2.3,Win32,59.88023952,1.4063,,,59,0,59,0,1,,,,,,,,
,,"[""diamond"",""green"",""hori"",""left"",[0,-150],[-106,-106]]",diamond,green,hori,left,"[0,-150]","[-106,-106]",left,1,,,,,,001,2025-03-17_15h22.56.327,SL_base,2021.2.3,Win32,59.88023952,0.8341,,,60,0,60,0,1,,,,,,,,
,,"[""diamond"",""red"",""hori"",""left"",[-150,0],[106,106]]",diamond,red,hori,left,"[-150,0]","[106,106]",left,1,,,,,,001,2025-03-17_15h22.56.327,SL_base,2021.2.3,Win32,59.88023952,0.6872,,,61,0,61,0,1,,,,,,,,
,,"[""circle"",""green"",""hori"",""left"",[150,0],[106,-106]]",circle,green,hori,left,"[150,0]","[106,-106]",left,1,,,,,,001,2025-03-17_15h22.56.327,SL_base,2021.2.3,Win32,59.88023952,0.7665,,,62,0,62,0,1,,,,,,,,
,,"[""circle"",""red"",""vert"",""up"",[-106,106],[106,106]]",circle,red,vert,up,"[-106,106]","[106,106]",up,1,,,,,,001,2025-03-17_15h22.56.327,SL_base,2021.2.3,Win32,59.88023952,1.3676,,,63,0,63,0,1,,,,,,,,
,,"[""diamond"",""green"",""vert"",""up"",[0,150],[-106,106]]",diamond,green,vert,up,"[0,150]","[-106,106]",up,1,,,,,,001,2025-03-17_15h22.56.327,SL_base,2021.2.3,Win32,59.88023952,1.1673,,,64,0,64,0,1,,,,,,,,
,,"[""diamond"",""no_dis"",""vert"",""up"",[99999,99999],[0,150]]",diamond,no_dis,vert,up,"[99999,99999]","[0,150]",up,1,,,,,,001,2025-03-17_15h22.56.327,SL_base,2021.2.3,Win32,59.88023952,0.6434,,,65,0,65,0,1,,,,,,,,
,,"[""diamond"",""red"",""vert"",""up"",[106,106],[-150,0]]",diamond,red,vert,up,"[106,106]","[-150,0]",up,1,,,,,,001,2025-03-17_15h22.56.327,SL_base,2021.2.3,Win32,59.88023952,0.6891,,,66,0,66,0,1,,,,,,,,
,,"[""diamond"",""green"",""hori"",""left"",[-106,106],[-150,0]]",diamond,green,hori,left,"[-106,106]","[-150,0]",left,1,,,,,,001,2025-03-17_15h22.56.327,SL_base,2021.2.3,Win32,59.88023952,0.6171,,,67,0,67,0,1,,,,,,,,
,,"[""diamond"",""red"",""hori"",""left"",[0,150],[-150,0]]",diamond,red,hori,left,"[0,150]","[-150,0]",left,1,,,,,,001,2025-03-17_15h22.56.327,SL_base,2021.2.3,Win32,59.88023952,1.1025,,,68,0,68,0,1,,,,,,,,
,,"[""circle"",""green"",""vert"",""up"",[106,-106],[-106,106]]",circle,green,vert,up,"[106,-106]","[-106,106]",up,1,,,,,,001,2025-03-17_15h22.56.327,SL_base,2021.2.3,Win32,59.88023952,0.8713,,,69,0,69,0,1,,,,,,,,
,,"[""diamond"",""red"",""hori"",""left"",[106,-106],[150,0]]",diamond,red,hori,left,"[106,-106]","[150,0]",left,1,,,,,,001,2025-03-17_15h22.56.327,SL_base,2021.2.3,Win32,59.88023952,0.876,,,70,0,70,0,1,,,,,,,,
,,"[""circle"",""red"",""hori"",""left"",[106,106],[0,150]]",circle,red,hori,left,"[106,106]","[0,150]",left,1,,,,,,001,2025-03-17_15h22.56.327,SL_base,2021.2.3,Win32,59.88023952,0.7667,,,71,0,71,0,1,,,,,,,,
,,"[""diamond"",""red"",""vert"",""up"",[0,-150],[-106,106]]",diamond,red,vert,up,"[0,-150]","[-106,106]",up,1,,,,,,001,2025-03-17_15h22.56.327,SL_base,2021.2.3,Win32,59.88023952,0.9332,,,72,0,72,0,1,,,,,,,,
,,"[""diamond"",""red"",""vert"",""up"",[106,-106],[-106,106]]",diamond,red,vert,up,"[106,-106]","[-106,106]",up,1,,,,,,001,2025-03-17_15h22.56.327,SL_base,2021.2.3,Win32,59.88023952,0.6338,,,73,0,73,0,1,,,,,,,,
,,"[""circle"",""no_dis"",""vert"",""up"",[99999,99999],[106,106]]",circle,no_dis,vert,up,"[99999,99999]","[106,106]",up,1,,,,,,001,2025-03-17_15h22.56.327,SL_base,2021.2.3,Win32,59.88023952,1.0669,,,74,0,74,0,1,,,,,,,,
,,"[""diamond"",""red"",""hori"",""left"",[-106,-106],[106,-106]]",diamond,red,hori,left,"[-106,-106]","[106,-106]",left,1,,,,,,001,2025-03-17_15h22.56.327,SL_base,2021.2.3,Win32,59.88023952,1.0004,,,75,0,75,0,1,,,,,,,,
,,"[""diamond"",""green"",""vert"",""up"",[106,106],[0,150]]",diamond,green,vert,up,"[106,106]","[0,150]",up,1,,,,,,001,2025-03-17_15h22.56.327,SL_base,2021.2.3,Win32,59.88023952,0.8674,,,76,0,76,0,1,,,,,,,,
,,"[""circle"",""green"",""hori"",""left"",[106,-106],[0,-150]]",circle,green,hori,left,"[106,-106]","[0,-150]",left,1,,,,,,001,2025-03-17_15h22.56.327,SL_base,2021.2.3,Win32,59.88023952,0.8499,,,77,0,77,0,1,,,,,,,,
,,"[""circle"",""green"",""hori"",""left"",[106,106],[106,-106]]",circle,green,hori,left,"[106,106]","[106,-106]",left,1,,,,,,001,2025-03-17_15h22.56.327,SL_base,2021.2.3,Win32,59.88023952,0.6368,,,78,0,78,0,1,,,,,,,,
,,"[""circle"",""red"",""vert"",""up"",[0,150],[-106,106]]",circle,red,vert,up,"[0,150]","[-106,106]",up,1,,,,,,001,2025-03-17_15h22.56.327,SL_base,2021.2.3,Win32,59.88023952,0.917,,,79,0,79,0,1,,,,,,,,
,,"[""circle"",""no_dis"",""vert"",""up"",[99999,99999],[150,0]]",circle,no_dis,vert,up,"[99999,99999]","[150,0]",up,1,,,,,,001,2025-03-17_15h22.56.327,SL_base,2021.2.3,Win32,59.88023952,0.5721,,,80,0,80,0,1,,,,,,,,
,,"[""diamond"",""green"",""hori"",""left"",[106,106],[0,150]]",diamond,green,hori,left,"[106,106]","[0,150]",left,1,,,,,,001,2025-03-17_15h22.56.327,SL_base,2021.2.3,Win32,59.88023952,0.7503,,,81,0,81,0,1,,,,,,,,
,,"[""diamond"",""green"",""vert"",""up"",[0,-150],[-106,106]]",diamond,green,vert,up,"[0,-150]","[-106,106]",up,1,,,,,,001,2025-03-17_15h22.56.327,SL_base,2021.2.3,Win32,59.88023952,0.7112,,,82,0,82,0,1,,,,,,,,
,,"[""diamond"",""no_dis"",""hori"",""left"",[99999,99999],[-106,-106]]",diamond,no_dis,hori,left,"[99999,99999]","[-106,-106]",left,1,,,,,,001,2025-03-17_15h22.56.327,SL_base,2021.2.3,Win32,59.88023952,0.7505,,,83,0,83,0,1,,,,,,,,
,,"[""diamond"",""no_dis"",""vert"",""up"",[99999,99999],[-150,0]]",diamond,no_dis,vert,up,"[99999,99999]","[-150,0]",up,1,,,,,,001,2025-03-17_15h22.56.327,SL_base,2021.2.3,Win32,59.88023952,0.6353,,,84,0,84,0,1,,,,,,,,
,,"[""diamond"",""no_dis"",""vert"",""up"",[99999,99999],[106,-106]]",diamond,no_dis,vert,up,"[99999,99999]","[106,-106]",up,1,,,,,,001,2025-03-17_15h22.56.327,SL_base,2021.2.3,Win32,59.88023952,0.6277,,,85,0,85,0,1,,,,,,,,
,,"[""diamond"",""no_dis"",""hori"",""left"",[99999,99999],[0,-150]]",diamond,no_dis,hori,left,"[99999,99999]","[0,-150]",left,1,,,,,,001,2025-03-17_15h22.56.327,SL_base,2021.2.3,Win32,59.88023952,0.6677,,,86,0,86,0,1,,,,,,,,
,,"[""circle"",""green"",""vert"",""up"",[0,-150],[-106,106]]",circle,green,vert,up,"[0,-150]","[-106,106]",up,1,,,,,,001,2025-03-17_15h22.56.327,SL_base,2021.2.3,Win32,59.88023952,0.6005,,,87,0,87,0,1,,,,,,,,
,,"[""circle"",""no_dis"",""vert"",""up"",[99999,99999],[106,-106]]",circle,no_dis,vert,up,"[99999,99999]","[106,-106]",up,1,,,,,,001,2025-03-17_15h22.56.327,SL_base,2021.2.3,Win32,59.88023952,0.6008,,,88,0,88,0,1,,,,,,,,
,,"[""circle"",""no_dis"",""vert"",""up"",[99999,99999],[-106,106]]",circle,no_dis,vert,up,"[99999,99999]","[-106,106]",up,1,,,,,,001,2025-03-17_15h22.56.327,SL_base,2021.2.3,Win32,59.88023952,0.487,,,89,0,89,0,1,,,,,,,,
,,"[""circle"",""no_dis"",""hori"",""left"",[99999,99999],[0,-150]]",circle,no_dis,hori,left,"[99999,99999]","[0,-150]",left,1,,,,,,001,2025-03-17_15h22.56.327,SL_base,2021.2.3,Win32,59.88023952,0.5839,,,90,0,90,0,1,,,,,,,,
,,"[""diamond"",""green"",""vert"",""up"",[-150,0],[106,106]]",diamond,green,vert,up,"[-150,0]","[106,106]",up,1,,,,,,001,2025-03-17_15h22.56.327,SL_base,2021.2.3,Win32,59.88023952,0.5339,,,91,0,91,0,1,,,,,,,,
,,"[""diamond"",""no_dis"",""vert"",""up"",[99999,99999],[-106,-106]]",diamond,no_dis,vert,up,"[99999,99999]","[-106,-106]",up,1,,,,,,001,2025-03-17_15h22.56.327,SL_base,2021.2.3,Win32,59.88023952,0.6327,,,92,0,92,0,1,,,,,,,,
,,"[""circle"",""green"",""vert"",""up"",[106,106],[-106,-106]]",circle,green,vert,up,"[106,106]","[-106,-106]",up,1,,,,,,001,2025-03-17_15h22.56.327,SL_base,2021.2.3,Win32,59.88023952,0.526,,,93,0,93,0,1,,,,,,,,
,,"[""circle"",""no_dis"",""hori"",""left"",[99999,99999],[106,-106]]",circle,no_dis,hori,left,"[99999,99999]","[106,-106]",left,1,,,,,,001,2025-03-17_15h22.56.327,SL_base,2021.2.3,Win32,59.88023952,0.5621,,,94,0,94,0,1,,,,,,,,
,,"[""circle"",""green"",""vert"",""up"",[106,106],[0,-150]]",circle,green,vert,up,"[106,106]","[0,-150]",up,1,,,,,,001,2025-03-17_15h22.56.327,SL_base,2021.2.3,Win32,59.88023952,0.8671,,,95,0,95,0,1,,,,,,,,
,,"[""diamond"",""green"",""hori"",""left"",[150,0],[-150,0]]",diamond,green,hori,left,"[150,0]","[-150,0]",left,1,,,,,,001,2025-03-17_15h22.56.327,SL_base,2021.2.3,Win32,59.88023952,0.7676,,,96,0,96,0,1,,,,,,,,
,,"[""circle"",""red"",""vert"",""up"",[-150,0],[0,-150]]",circle,red,vert,up,"[-150,0]","[0,-150]",up,1,,,,,,001,2025-03-17_15h22.56.327,SL_base,2021.2.3,Win32,59.88023952,0.8578,,,97,0,97,0,1,,,,,,,,
,,"[""circle"",""green"",""vert"",""up"",[150,0],[-150,0]]",circle,green,vert,up,"[150,0]","[-150,0]",up,1,,,,,,001,2025-03-17_15h22.56.327,SL_base,2021.2.3,Win32,59.88023952,0.6,,,98,0,98,0,1,,,,,,,,
,,"[""diamond"",""no_dis"",""vert"",""up"",[99999,99999],[106,106]]",diamond,no_dis,vert,up,"[99999,99999]","[106,106]",up,1,,,,,,001,2025-03-17_15h22.56.327,SL_base,2021.2.3,Win32,59.88023952,0.6867,,,99,0,99,0,1,,,,,,,,
,,"[""circle"",""red"",""hori"",""left"",[0,-150],[106,106]]",circle,red,hori,left,"[0,-150]","[106,106]",left,1,,,,,,001,2025-03-17_15h22.56.327,SL_base,2021.2.3,Win32,59.88023952,0.9338,,,100,0,100,0,1,,,,,,,,
,,"[""circle"",""red"",""vert"",""up"",[106,106],[106,-106]]",circle,red,vert,up,"[106,106]","[106,-106]",up,1,,,,,,001,2025-03-17_15h22.56.327,SL_base,2021.2.3,Win32,59.88023952,0.7842,,,101,0,101,0,1,,,,,,,,
,,"[""diamond"",""green"",""vert"",""up"",[-106,106],[-150,0]]",diamond,green,vert,up,"[-106,106]","[-150,0]",up,1,,,,,,001,2025-03-17_15h22.56.327,SL_base,2021.2.3,Win32,59.88023952,1.2846,,,102,0,102,0,1,,,,,,,,
,,"[""diamond"",""green"",""vert"",""up"",[106,106],[150,0]]",diamond,green,vert,up,"[106,106]","[150,0]",up,1,,,,,,001,2025-03-17_15h22.56.327,SL_base,2021.2.3,Win32,59.88023952,0.9691,,,103,0,103,0,1,,,,,,,,
,,"[""diamond"",""green"",""hori"",""left"",[-106,-106],[-106,106]]",diamond,green,hori,left,"[-106,-106]","[-106,106]",left,1,,,,,,001,2025-03-17_15h22.56.327,SL_base,2021.2.3,Win32,59.88023952,0.7055,,,104,0,104,0,1,,,,,,,,
,,"[""circle"",""no_dis"",""hori"",""left"",[99999,99999],[0,-150]]",circle,no_dis,hori,left,"[99999,99999]","[0,-150]",left,1,,,,,,001,2025-03-17_15h22.56.327,SL_base,2021.2.3,Win32,59.88023952,0.7887,,,105,0,105,0,1,,,,,,,,
,,"[""circle"",""no_dis"",""hori"",""left"",[99999,99999],[106,106]]",circle,no_dis,hori,left,"[99999,99999]","[106,106]",left,1,,,,,,001,2025-03-17_15h22.56.327,SL_base,2021.2.3,Win32,59.88023952,0.4735,,,106,0,106,0,1,,,,,,,,
,,"[""circle"",""red"",""hori"",""left"",[106,106],[-106,106]]",circle,red,hori,left,"[106,106]","[-106,106]",left,1,,,,,,001,2025-03-17_15h22.56.327,SL_base,2021.2.3,Win32,59.88023952,0.6079,,,107,0,107,0,1,,,,,,,,
,,"[""circle"",""no_dis"",""vert"",""up"",[99999,99999],[0,-150]]",circle,no_dis,vert,up,"[99999,99999]","[0,-150]",up,1,,,,,,001,2025-03-17_15h22.56.327,SL_base,2021.2.3,Win32,59.88023952,0.6838,,,108,0,108,0,1,,,,,,,,
,,"[""diamond"",""red"",""vert"",""up"",[106,106],[-150,0]]",diamond,red,vert,up,"[106,106]","[-150,0]",up,1,,,,,,001,2025-03-17_15h22.56.327,SL_base,2021.2.3,Win32,59.88023952,1.0036,,,109,0,109,0,1,,,,,,,,
,,"[""diamond"",""red"",""vert"",""up"",[-106,-106],[0,150]]",diamond,red,vert,up,"[-106,-106]","[0,150]",up,1,,,,,,001,2025-03-17_15h22.56.327,SL_base,2021.2.3,Win32,59.88023952,0.601,,,110,0,110,0,1,,,,,,,,
,,"[""circle"",""green"",""hori"",""left"",[106,106],[-106,-106]]",circle,green,hori,left,"[106,106]","[-106,-106]",left,1,,,,,,001,2025-03-17_15h22.56.327,SL_base,2021.2.3,Win32,59.88023952,0.6169,,,111,0,111,0,1,,,,,,,,
,,"[""diamond"",""no_dis"",""hori"",""left"",[99999,99999],[-106,-106]]",diamond,no_dis,hori,left,"[99999,99999]","[-106,-106]",left,1,,,,,,001,2025-03-17_15h22.56.327,SL_base,2021.2.3,Win32,59.88023952,0.5507,,,112,0,112,0,1,,,,,,,,
,,"[""diamond"",""red"",""hori"",""left"",[106,106],[0,150]]",diamond,red,hori,left,"[106,106]","[0,150]",left,1,,,,,,001,2025-03-17_15h22.56.327,SL_base,2021.2.3,Win32,59.88023952,0.6338,,,113,0,113,0,1,,,,,,,,
,,"[""diamond"",""no_dis"",""hori"",""left"",[99999,99999],[-106,-106]]",diamond,no_dis,hori,left,"[99999,99999]","[-106,-106]",left,1,,,,,,001,2025-03-17_15h22.56.327,SL_base,2021.2.3,Win32,59.88023952,0.584,,,114,0,114,0,1,,,,,,,,
,,"[""diamond"",""red"",""vert"",""up"",[-150,0],[106,106]]",diamond,red,vert,up,"[-150,0]","[106,106]",up,1,,,,,,001,2025-03-17_15h22.56.327,SL_base,2021.2.3,Win32,59.88023952,0.5675,,,115,0,115,0,1,,,,,,,,
,,"[""circle"",""red"",""hori"",""left"",[-106,106],[-106,-106]]",circle,red,hori,left,"[-106,106]","[-106,-106]",left,1,,,,,,001,2025-03-17_15h22.56.327,SL_base,2021.2.3,Win32,59.88023952,0.6506,,,116,0,116,0,1,,,,,,,,
,,"[""circle"",""green"",""hori"",""left"",[0,-150],[106,106]]",circle,green,hori,left,"[0,-150]","[106,106]",left,1,,,,,,001,2025-03-17_15h22.56.327,SL_base,2021.2.3,Win32,59.88023952,0.9169,,,117,0,117,0,1,,,,,,,,
,,"[""circle"",""red"",""vert"",""up"",[0,150],[106,106]]",circle,red,vert,up,"[0,150]","[106,106]",left,0,,,,,,001,2025-03-17_15h22.56.327,SL_base,2021.2.3,Win32,59.88023952,0.6583,,,118,0,118,0,1,,,,,,,,
,,"[""diamond"",""red"",""vert"",""up"",[106,-106],[0,150]]",diamond,red,vert,up,"[106,-106]","[0,150]",up,1,,,,,,001,2025-03-17_15h22.56.327,SL_base,2021.2.3,Win32,59.88023952,0.9006,,,119,0,119,0,1,,,,,,,,
,,,,,,,,,,,,,,,,001,2025-03-17_15h22.56.327,SL_base,2021.2.3,Win32,59.88023952,,,,,,,,,2,space,32.3879,1,0,1,0,1
,,"[""diamond"",""red"",""vert"",""up"",[-150,0],[106,106]]",diamond,red,vert,up,"[-150,0]","[106,106]",up,1,,,,,,001,2025-03-17_15h22.56.327,SL_base,2021.2.3,Win32,59.88023952,0.5392,,,0,0,0,0,1,,,,,,,,
,,"[""diamond"",""green"",""hori"",""left"",[-106,-106],[-106,106]]",diamond,green,hori,left,"[-106,-106]","[-106,106]",left,1,,,,,,001,2025-03-17_15h22.56.327,SL_base,2021.2.3,Win32,59.88023952,0.5838,,,1,0,1,0,1,,,,,,,,
,,"[""circle"",""no_dis"",""hori"",""left"",[99999,99999],[-150,0]]",circle,no_dis,hori,left,"[99999,99999]","[-150,0]",left,1,,,,,,001,2025-03-17_15h22.56.327,SL_base,2021.2.3,Win32,59.88023952,0.5338,,,2,0,2,0,1,,,,,,,,
,,"[""circle"",""red"",""hori"",""left"",[106,106],[0,150]]",circle,red,hori,left,"[106,106]","[0,150]",left,1,,,,,,001,2025-03-17_15h22.56.327,SL_base,2021.2.3,Win32,59.88023952,0.6508,,,3,0,3,0,1,,,,,,,,
,,"[""diamond"",""no_dis"",""vert"",""up"",[99999,99999],[150,0]]",diamond,no_dis,vert,up,"[99999,99999]","[150,0]",up,1,,,,,,001,2025-03-17_15h22.56.327,SL_base,2021.2.3,Win32,59.88023952,0.8276,,,4,0,4,0,1,,,,,,,,
,,"[""diamond"",""no_dis"",""hori"",""left"",[99999,99999],[0,-150]]",diamond,no_dis,hori,left,"[99999,99999]","[0,-150]",left,1,,,,,,001,2025-03-17_15h22.56.327,SL_base,2021.2.3,Win32,59.88023952,0.8215,,,5,0,5,0,1,,,,,,,,
,,"[""circle"",""green"",""vert"",""up"",[106,-106],[-106,106]]",circle,green,vert,up,"[106,-106]","[-106,106]",up,1,,,,,,001,2025-03-17_15h22.56.327,SL_base,2021.2.3,Win32,59.88023952,0.7892,,,6,0,6,0,1,,,,,,,,
,,"[""circle"",""red"",""hori"",""left"",[106,106],[0,150]]",circle,red,hori,left,"[106,106]","[0,150]",left,1,,,,,,001,2025-03-17_15h22.56.327,SL_base,2021.2.3,Win32,59.88023952,0.9666,,,7,0,7,0,1,,,,,,,,
,,"[""diamond"",""red"",""hori"",""left"",[0,-150],[-150,0]]",diamond,red,hori,left,"[0,-150]","[-150,0]",left,1,,,,,,001,2025-03-17_15h22.56.327,SL_base,2021.2.3,Win32,59.88023952,0.8032,,,8,0,8,0,1,,,,,,,,
,,"[""circle"",""red"",""vert"",""up"",[0,150],[106,106]]",circle,red,vert,up,"[0,150]","[106,106]",up,1,,,,,,001,2025-03-17_15h22.56.327,SL_base,2021.2.3,Win32,59.88023952,0.9006,,,9,0,9,0,1,,,,,,,,
,,"[""diamond"",""red"",""hori"",""left"",[150,0],[106,-106]]",diamond,red,hori,left,"[150,0]","[106,-106]",left,1,,,,,,001,2025-03-17_15h22.56.327,SL_base,2021.2.3,Win32,59.88023952,0.7087,,,10,0,10,0,1,,,,,,,,
,,"[""circle"",""red"",""hori"",""left"",[0,-150],[150,0]]",circle,red,hori,left,"[0,-150]","[150,0]",left,1,,,,,,001,2025-03-17_15h22.56.327,SL_base,2021.2.3,Win32,59.88023952,0.7171,,,11,0,11,0,1,,,,,,,,
,,"[""diamond"",""green"",""vert"",""up"",[0,150],[-106,106]]",diamond,green,vert,up,"[0,150]","[-106,106]",left,0,,,,,,001,2025-03-17_15h22.56.327,SL_base,2021.2.3,Win32,59.88023952,0.8571,,,12,0,12,0,1,,,,,,,,
,,"[""circle"",""no_dis"",""hori"",""left"",[99999,99999],[-150,0]]",circle,no_dis,hori,left,"[99999,99999]","[-150,0]",left,1,,,,,,001,2025-03-17_15h22.56.327,SL_base,2021.2.3,Win32,59.88023952,0.7837,,,13,0,13,0,1,,,,,,,,
,,"[""circle"",""red"",""hori"",""left"",[106,106],[0,-150]]",circle,red,hori,left,"[106,106]","[0,-150]",left,1,,,,,,001,2025-03-17_15h22.56.327,SL_base,2021.2.3,Win32,59.88023952,0.7435,,,14,0,14,0,1,,,,,,,,
,,"[""circle"",""red"",""vert"",""up"",[106,-106],[0,150]]",circle,red,vert,up,"[106,-106]","[0,150]",up,1,,,,,,001,2025-03-17_15h22.56.327,SL_base,2021.2.3,Win32,59.88023952,0.6341,,,15,0,15,0,1,,,,,,,,
,,"[""circle"",""no_dis"",""vert"",""up"",[99999,99999],[106,106]]",circle,no_dis,vert,up,"[99999,99999]","[106,106]",up,1,,,,,,001,2025-03-17_15h22.56.327,SL_base,2021.2.3,Win32,59.88023952,0.5834,,,16,0,16,0,1,,,,,,,,
,,"[""circle"",""no_dis"",""hori"",""left"",[99999,99999],[106,-106]]",circle,no_dis,hori,left,"[99999,99999]","[106,-106]",left,1,,,,,,001,2025-03-17_15h22.56.327,SL_base,2021.2.3,Win32,59.88023952,0.5336,,,17,0,17,0,1,,,,,,,,
,,"[""circle"",""no_dis"",""hori"",""left"",[99999,99999],[106,106]]",circle,no_dis,hori,left,"[99999,99999]","[106,106]",left,1,,,,,,001,2025-03-17_15h22.56.327,SL_base,2021.2.3,Win32,59.88023952,0.4778,,,18,0,18,0,1,,,,,,,,
,,"[""diamond"",""no_dis"",""hori"",""left"",[99999,99999],[-106,-106]]",diamond,no_dis,hori,left,"[99999,99999]","[-106,-106]",left,1,,,,,,001,2025-03-17_15h22.56.327,SL_base,2021.2.3,Win32,59.88023952,0.9287,,,19,0,19,0,1,,,,,,,,
,,"[""diamond"",""green"",""vert"",""up"",[106,106],[0,150]]",diamond,green,vert,up,"[106,106]","[0,150]",up,1,,,,,,001,2025-03-17_15h22.56.327,SL_base,2021.2.3,Win32,59.88023952,0.6983,,,20,0,20,0,1,,,,,,,,
,,"[""circle"",""red"",""hori"",""left"",[106,106],[150,0]]",circle,red,hori,left,"[106,106]","[150,0]",left,1,,,,,,001,2025-03-17_15h22.56.327,SL_base,2021.2.3,Win32,59.88023952,0.7187,,,21,0,21,0,1,,,,,,,,
,,"[""diamond"",""green"",""vert"",""up"",[-106,106],[-150,0]]",diamond,green,vert,up,"[-106,106]","[-150,0]",up,1,,,,,,001,2025-03-17_15h22.56.327,SL_base,2021.2.3,Win32,59.88023952,1.0555,,,22,0,22,0,1,,,,,,,,
,,"[""diamond"",""red"",""hori"",""left"",[0,150],[-150,0]]",diamond,red,hori,left,"[0,150]","[-150,0]",left,1,,,,,,001,2025-03-17_15h22.56.327,SL_base,2021.2.3,Win32,59.88023952,0.6062,,,23,0,23,0,1,,,,,,,,
,,"[""circle"",""no_dis"",""vert"",""up"",[99999,99999],[150,0]]",circle,no_dis,vert,up,"[99999,99999]","[150,0]",up,1,,,,,,001,2025-03-17_15h22.56.327,SL_base,2021.2.3,Win32,59.88023952,1.1561,,,24,0,24,0,1,,,,,,,,
,,"[""diamond"",""green"",""hori"",""left"",[-106,-106],[150,0]]",diamond,green,hori,left,"[-106,-106]","[150,0]",left,1,,,,,,001,2025-03-17_15h22.56.327,SL_base,2021.2.3,Win32,59.88023952,0.6789,,,25,0,25,0,1,,,,,,,,
,,"[""diamond"",""red"",""hori"",""left"",[-106,-106],[150,0]]",diamond,red,hori,left,"[-106,-106]","[150,0]",left,1,,,,,,001,2025-03-17_15h22.56.327,SL_base,2021.2.3,Win32,59.88023952,0.5553,,,26,0,26,0,1,,,,,,,,
,,"[""diamond"",""no_dis"",""vert"",""up"",[99999,99999],[-150,0]]",diamond,no_dis,vert,up,"[99999,99999]","[-150,0]",left,0,,,,,,001,2025-03-17_15h22.56.327,SL_base,2021.2.3,Win32,59.88023952,0.5839,,,27,0,27,0,1,,,,,,,,
,,"[""circle"",""no_dis"",""vert"",""up"",[99999,99999],[0,150]]",circle,no_dis,vert,up,"[99999,99999]","[0,150]",up,1,,,,,,001,2025-03-17_15h22.56.327,SL_base,2021.2.3,Win32,59.88023952,0.5699,,,28,0,28,0,1,,,,,,,,
,,"[""circle"",""red"",""vert"",""up"",[-106,106],[106,106]]",circle,red,vert,up,"[-106,106]","[106,106]",up,1,,,,,,001,2025-03-17_15h22.56.327,SL_base,2021.2.3,Win32,59.88023952,1.951,,,29,0,29,0,1,,,,,,,,
,,"[""diamond"",""green"",""vert"",""up"",[106,106],[-150,0]]",diamond,green,vert,up,"[106,106]","[-150,0]",up,1,,,,,,001,2025-03-17_15h22.56.327,SL_base,2021.2.3,Win32,59.88023952,0.8672,,,30,0,30,0,1,,,,,,,,
,,"[""diamond"",""green"",""hori"",""left"",[150,0],[-150,0]]",diamond,green,hori,left,"[150,0]","[-150,0]",left,1,,,,,,001,2025-03-17_15h22.56.327,SL_base,2021.2.3,Win32,59.88023952,0.5676,,,31,0,31,0,1,,,,,,,,
,,"[""circle"",""green"",""hori"",""left"",[0,-150],[106,106]]",circle,green,hori,left,"[0,-150]","[106,106]",left,1,,,,,,001,2025-03-17_15h22.56.327,SL_base,2021.2.3,Win32,59.88023952,0.6838,,,32,0,32,0,1,,,,,,,,
,,"[""diamond"",""no_dis"",""vert"",""up"",[99999,99999],[-150,0]]",diamond,no_dis,vert,up,"[99999,99999]","[-150,0]",left,0,,,,,,001,2025-03-17_15h22.56.327,SL_base,2021.2.3,Win32,59.88023952,0.5177,,,33,0,33,0,1,,,,,,,,
,,"[""diamond"",""red"",""hori"",""left"",[-150,0],[-106,-106]]",diamond,red,hori,left,"[-150,0]","[-106,-106]",left,1,,,,,,001,2025-03-17_15h22.56.327,SL_base,2021.2.3,Win32,59.88023952,1.1005,,,34,0,34,0,1,,,,,,,,
,,"[""circle"",""no_dis"",""vert"",""up"",[99999,99999],[150,0]]",circle,no_dis,vert,up,"[99999,99999]","[150,0]",up,1,,,,,,001,2025-03-17_15h22.56.327,SL_base,2021.2.3,Win32,59.88023952,0.7006,,,35,0,35,0,1,,,,,,,,
,,"[""circle"",""no_dis"",""hori"",""left"",[99999,99999],[106,-106]]",circle,no_dis,hori,left,"[99999,99999]","[106,-106]",left,1,,,,,,001,2025-03-17_15h22.56.327,SL_base,2021.2.3,Win32,59.88023952,0.5719,,,36,0,36,0,1,,,,,,,,
,,"[""diamond"",""green"",""hori"",""left"",[-150,0],[150,0]]",diamond,green,hori,left,"[-150,0]","[150,0]",left,1,,,,,,001,2025-03-17_15h22.56.327,SL_base,2021.2.3,Win32,59.88023952,0.8067,,,37,0,37,0,1,,,,,,,,
,,"[""circle"",""green"",""hori"",""left"",[106,106],[106,-106]]",circle,green,hori,left,"[106,106]","[106,-106]",left,1,,,,,,001,2025-03-17_15h22.56.327,SL_base,2021.2.3,Win32,59.88023952,0.8369,,,38,0,38,0,1,,,,,,,,
,,"[""circle"",""green"",""hori"",""left"",[-106,-106],[0,-150]]",circle,green,hori,left,"[-106,-106]","[0,-150]",left,1,,,,,,001,2025-03-17_15h22.56.327,SL_base,2021.2.3,Win32,59.88023952,0.6019,,,39,0,39,0,1,,,,,,,,
,,"[""circle"",""green"",""vert"",""up"",[106,106],[0,150]]",circle,green,vert,up,"[106,106]","[0,150]",up,1,,,,,,001,2025-03-17_15h22.56.327,SL_base,2021.2.3,Win32,59.88023952,0.4844,,,40,0,40,0,1,,,,,,,,
,,"[""circle"",""green"",""hori"",""left"",[106,-106],[0,-150]]",circle,green,hori,left,"[106,-106]","[0,-150]",left,1,,,,,,001,2025-03-17_15h22.56.327,SL_base,2021.2.3,Win32,59.88023952,0.627,,,41,0,41,0,1,,,,,,,,
,,"[""diamond"",""no_dis"",""hori"",""left"",[99999,99999],[-106,106]]",diamond,no_dis,hori,left,"[99999,99999]","[-106,106]",left,1,,,,,,001,2025-03-17_15h22.56.327,SL_base,2021.2.3,Win32,59.88023952,1.134,,,42,0,42,0,1,,,,,,,,
,,"[""circle"",""no_dis"",""vert"",""up"",[99999,99999],[-106,106]]",circle,no_dis,vert,up,"[99999,99999]","[-106,106]",up,1,,,,,,001,2025-03-17_15h22.56.327,SL_base,2021.2.3,Win32,59.88023952,0.667,,,43,0,43,0,1,,,,,,,,
,,"[""diamond"",""green"",""hori"",""left"",[150,0],[-106,106]]",diamond,green,hori,left,"[150,0]","[-106,106]",left,1,,,,,,001,2025-03-17_15h22.56.327,SL_base,2021.2.3,Win32,59.88023952,0.5218,,,44,0,44,0,1,,,,,,,,
,,"[""circle"",""green"",""hori"",""left"",[150,0],[106,-106]]",circle,green,hori,left,"[150,0]","[106,-106]",left,1,,,,,,001,2025-03-17_15h22.56.327,SL_base,2021.2.3,Win32,59.88023952,0.6671,,,45,0,45,0,1,,,,,,,,
,,"[""diamond"",""red"",""vert"",""up"",[106,106],[-150,0]]",diamond,red,vert,up,"[106,106]","[-150,0]",up,1,,,,,,001,2025-03-17_15h22.56.327,SL_base,2021.2.3,Win32,59.88023952,0.7172,,,46,0,46,0,1,,,,,,,,
,,"[""diamond"",""red"",""vert"",""up"",[106,106],[-106,106]]",diamond,red,vert,up,"[106,106]","[-106,106]",up,1,,,,,,001,2025-03-17_15h22.56.327,SL_base,2021.2.3,Win32,59.88023952,0.5842,,,47,0,47,0,1,,,,,,,,
,,"[""circle"",""red"",""hori"",""left"",[106,106],[-106,106]]",circle,red,hori,left,"[106,106]","[-106,106]",left,1,,,,,,001,2025-03-17_15h22.56.327,SL_base,2021.2.3,Win32,59.88023952,0.6245,,,48,0,48,0,1,,,,,,,,
,,"[""diamond"",""red"",""vert"",""up"",[106,-106],[-106,106]]",diamond,red,vert,up,"[106,-106]","[-106,106]",up,1,,,,,,001,2025-03-17_15h22.56.327,SL_base,2021.2.3,Win32,59.88023952,0.4717,,,49,0,49,0,1,,,,,,,,
,,"[""circle"",""no_dis"",""hori"",""left"",[99999,99999],[0,-150]]",circle,no_dis,hori,left,"[99999,99999]","[0,-150]",left,1,,,,,,001,2025-03-17_15h22.56.327,SL_base,2021.2.3,Win32,59.88023952,0.6369,,,50,0,50,0,1,,,,,,,,
,,"[""diamond"",""red"",""hori"",""left"",[106,106],[0,150]]",diamond,red,hori,left,"[106,106]","[0,150]",left,1,,,,,,001,2025-03-17_15h22.56.327,SL_base,2021.2.3,Win32,59.88023952,0.7064,,,51,0,51,0,1,,,,,,,,
,,"[""diamond"",""red"",""hori"",""left"",[-106,-106],[106,-106]]",diamond,red,hori,left,"[-106,-106]","[106,-106]",up,0,,,,,,001,2025-03-17_15h22.56.327,SL_base,2021.2.3,Win32,59.88023952,0.8843,,,52,0,52,0,1,,,,,,,,
,,"[""diamond"",""no_dis"",""vert"",""up"",[99999,99999],[0,150]]",diamond,no_dis,vert,up,"[99999,99999]","[0,150]",up,1,,,,,,001,2025-03-17_15h22.56.327,SL_base,2021.2.3,Win32,59.88023952,0.5843,,,53,0,53,0,1,,,,,,,,
,,"[""diamond"",""red"",""vert"",""up"",[106,106],[106,-106]]",diamond,red,vert,up,"[106,106]","[106,-106]",up,1,,,,,,001,2025-03-17_15h22.56.327,SL_base,2021.2.3,Win32,59.88023952,0.8339,,,54,0,54,0,1,,,,,,,,
,,"[""circle"",""red"",""vert"",""up"",[-106,106],[-106,-106]]",circle,red,vert,up,"[-106,106]","[-106,-106]",up,1,,,,,,001,2025-03-17_15h22.56.327,SL_base,2021.2.3,Win32,59.88023952,0.8871,,,55,0,55,0,1,,,,,,,,
,,"[""circle"",""red"",""hori"",""left"",[150,0],[-150,0]]",circle,red,hori,left,"[150,0]","[-150,0]",left,1,,,,,,001,2025-03-17_15h22.56.327,SL_base,2021.2.3,Win32,59.88023952,0.6504,,,56,0,56,0,1,,,,,,,,
,,"[""diamond"",""red"",""vert"",""up"",[0,-150],[-106,106]]",diamond,red,vert,up,"[0,-150]","[-106,106]",left,0,,,,,,001,2025-03-17_15h22.56.327,SL_base,2021.2.3,Win32,59.88023952,0.6413,,,57,0,57,0,1,,,,,,,,
,,"[""diamond"",""green"",""hori"",""left"",[0,-150],[-106,-106]]",diamond,green,hori,left,"[0,-150]","[-106,-106]",left,1,,,,,,001,2025-03-17_15h22.56.327,SL_base,2021.2.3,Win32,59.88023952,0.734,,,58,0,58,0,1,,,,,,,,
,,"[""circle"",""green"",""vert"",""up"",[-106,106],[-106,-106]]",circle,green,vert,up,"[-106,106]","[-106,-106]",up,1,,,,,,001,2025-03-17_15h22.56.327,SL_base,2021.2.3,Win32,59.88023952,1.3837,,,59,0,59,0,1,,,,,,,,
,,"[""diamond"",""red"",""hori"",""left"",[-150,0],[106,106]]",diamond,red,hori,left,"[-150,0]","[106,106]",left,1,,,,,,001,2025-03-17_15h22.56.327,SL_base,2021.2.3,Win32,59.88023952,0.6841,,,60,0,60,0,1,,,,,,,,
,,"[""circle"",""green"",""hori"",""left"",[-106,106],[0,150]]",circle,green,hori,left,"[-106,106]","[0,150]",left,1,,,,,,001,2025-03-17_15h22.56.327,SL_base,2021.2.3,Win32,59.88023952,0.7048,,,61,0,61,0,1,,,,,,,,
,,"[""circle"",""no_dis"",""hori"",""left"",[99999,99999],[0,-150]]",circle,no_dis,hori,left,"[99999,99999]","[0,-150]",left,1,,,,,,001,2025-03-17_15h22.56.327,SL_base,2021.2.3,Win32,59.88023952,1.2011,,,62,0,62,0,1,,,,,,,,
,,"[""circle"",""green"",""hori"",""left"",[106,106],[-106,-106]]",circle,green,hori,left,"[106,106]","[-106,-106]",left,1,,,,,,001,2025-03-17_15h22.56.327,SL_base,2021.2.3,Win32,59.88023952,0.5579,,,63,0,63,0,1,,,,,,,,
,,"[""diamond"",""no_dis"",""hori"",""left"",[99999,99999],[0,150]]",diamond,no_dis,hori,left,"[99999,99999]","[0,150]",left,1,,,,,,001,2025-03-17_15h22.56.327,SL_base,2021.2.3,Win32,59.88023952,0.6843,,,64,0,64,0,1,,,,,,,,
,,"[""diamond"",""no_dis"",""vert"",""up"",[99999,99999],[106,106]]",diamond,no_dis,vert,up,"[99999,99999]","[106,106]",up,1,,,,,,001,2025-03-17_15h22.56.327,SL_base,2021.2.3,Win32,59.88023952,0.8173,,,65,0,65,0,1,,,,,,,,
,,"[""diamond"",""no_dis"",""vert"",""up"",[99999,99999],[-106,106]]",diamond,no_dis,vert,up,"[99999,99999]","[-106,106]",up,1,,,,,,001,2025-03-17_15h22.56.327,SL_base,2021.2.3,Win32,59.88023952,0.8675,,,66,0,66,0,1,,,,,,,,
,,"[""circle"",""green"",""hori"",""left"",[106,-106],[-106,106]]",circle,green,hori,left,"[106,-106]","[-106,106]",up,0,,,,,,001,2025-03-17_15h22.56.327,SL_base,2021.2.3,Win32,59.88023952,0.8075,,,67,0,67,0,1,,,,,,,,
,,"[""circle"",""green"",""vert"",""up"",[-150,0],[-106,-106]]",circle,green,vert,up,"[-150,0]","[-106,-106]",up,1,,,,,,001,2025-03-17_15h22.56.327,SL_base,2021.2.3,Win32,59.88023952,0.8882,,,68,0,68,0,1,,,,,,,,
,,"[""diamond"",""red"",""vert"",""up"",[106,106],[-150,0]]",diamond,red,vert,up,"[106,106]","[-150,0]",up,1,,,,,,001,2025-03-17_15h22.56.327,SL_base,2021.2.3,Win32,59.88023952,0.834,,,69,0,69,0,1,,,,,,,,
,,"[""diamond"",""red"",""vert"",""up"",[-106,-106],[0,150]]",diamond,red,vert,up,"[-106,-106]","[0,150]",up,1,,,,,,001,2025-03-17_15h22.56.327,SL_base,2021.2.3,Win32,59.88023952,0.5603,,,70,0,70,0,1,,,,,,,,
,,"[""diamond"",""no_dis"",""hori"",""left"",[99999,99999],[-106,-106]]",diamond,no_dis,hori,left,"[99999,99999]","[-106,-106]",left,1,,,,,,001,2025-03-17_15h22.56.327,SL_base,2021.2.3,Win32,59.88023952,0.6006,,,71,0,71,0,1,,,,,,,,
,,"[""diamond"",""green"",""hori"",""left"",[106,106],[106,-106]]",diamond,green,hori,left,"[106,106]","[106,-106]",left,1,,,,,,001,2025-03-17_15h22.56.327,SL_base,2021.2.3,Win32,59.88023952,0.834,,,72,0,72,0,1,,,,,,,,
,,"[""diamond"",""red"",""vert"",""up"",[106,106],[-106,106]]",diamond,red,vert,up,"[106,106]","[-106,106]",up,1,,,,,,001,2025-03-17_15h22.56.327,SL_base,2021.2.3,Win32,59.88023952,0.5899,,,73,0,73,0,1,,,,,,,,
,,"[""circle"",""no_dis"",""vert"",""up"",[99999,99999],[-106,106]]",circle,no_dis,vert,up,"[99999,99999]","[-106,106]",left,0,,,,,,001,2025-03-17_15h22.56.327,SL_base,2021.2.3,Win32,59.88023952,0.892,,,74,0,74,0,1,,,,,,,,
,,"[""circle"",""no_dis"",""vert"",""up"",[99999,99999],[106,106]]",circle,no_dis,vert,up,"[99999,99999]","[106,106]",up,1,,,,,,001,2025-03-17_15h22.56.327,SL_base,2021.2.3,Win32,59.88023952,1.2175,,,75,0,75,0,1,,,,,,,,
,,"[""diamond"",""no_dis"",""vert"",""up"",[99999,99999],[106,-106]]",diamond,no_dis,vert,up,"[99999,99999]","[106,-106]",up,1,,,,,,001,2025-03-17_15h22.56.327,SL_base,2021.2.3,Win32,59.88023952,0.6062,,,76,0,76,0,1,,,,,,,,
,,"[""diamond"",""red"",""vert"",""up"",[106,-106],[0,150]]",diamond,red,vert,up,"[106,-106]","[0,150]",up,1,,,,,,001,2025-03-17_15h22.56.327,SL_base,2021.2.3,Win32,59.88023952,0.6506,,,77,0,77,0,1,,,,,,,,
,,"[""circle"",""red"",""vert"",""up"",[106,106],[150,0]]",circle,red,vert,up,"[106,106]","[150,0]",up,1,,,,,,001,2025-03-17_15h22.56.327,SL_base,2021.2.3,Win32,59.88023952,1.1005,,,78,0,78,0,1,,,,,,,,
,,"[""circle"",""no_dis"",""hori"",""left"",[99999,99999],[-150,0]]",circle,no_dis,hori,left,"[99999,99999]","[-150,0]",left,1,,,,,,001,2025-03-17_15h22.56.327,SL_base,2021.2.3,Win32,59.88023952,0.5336,,,79,0,79,0,1,,,,,,,,
,,"[""diamond"",""no_dis"",""vert"",""up"",[99999,99999],[-106,106]]",diamond,no_dis,vert,up,"[99999,99999]","[-106,106]",up,1,,,,,,001,2025-03-17_15h22.56.327,SL_base,2021.2.3,Win32,59.88023952,0.4914,,,80,0,80,0,1,,,,,,,,
,,"[""circle"",""red"",""hori"",""left"",[0,-150],[106,106]]",circle,red,hori,left,"[0,-150]","[106,106]",left,1,,,,,,001,2025-03-17_15h22.56.327,SL_base,2021.2.3,Win32,59.88023952,1.1342,,,81,0,81,0,1,,,,,,,,
,,"[""diamond"",""green"",""hori"",""left"",[-106,106],[-150,0]]",diamond,green,hori,left,"[-106,106]","[-150,0]",left,1,,,,,,001,2025-03-17_15h22.56.327,SL_base,2021.2.3,Win32,59.88023952,0.8675,,,82,0,82,0,1,,,,,,,,
,,"[""circle"",""no_dis"",""vert"",""up"",[99999,99999],[0,150]]",circle,no_dis,vert,up,"[99999,99999]","[0,150]",up,1,,,,,,001,2025-03-17_15h22.56.327,SL_base,2021.2.3,Win32,59.88023952,0.5493,,,83,0,83,0,1,,,,,,,,
,,"[""diamond"",""red"",""hori"",""left"",[106,-106],[150,0]]",diamond,red,hori,left,"[106,-106]","[150,0]",left,1,,,,,,001,2025-03-17_15h22.56.327,SL_base,2021.2.3,Win32,59.88023952,1.0051,,,84,0,84,0,1,,,,,,,,
,,"[""circle"",""green"",""vert"",""up"",[106,106],[-106,-106]]",circle,green,vert,up,"[106,106]","[-106,-106]",up,1,,,,,,001,2025-03-17_15h22.56.327,SL_base,2021.2.3,Win32,59.88023952,0.8671,,,85,0,85,0,1,,,,,,,,
,,"[""circle"",""no_dis"",""vert"",""up"",[99999,99999],[106,-106]]",circle,no_dis,vert,up,"[99999,99999]","[106,-106]",up,1,,,,,,001,2025-03-17_15h22.56.327,SL_base,2021.2.3,Win32,59.88023952,0.7615,,,86,0,86,0,1,,,,,,,,
,,"[""circle"",""red"",""vert"",""up"",[0,150],[-106,106]]",circle,red,vert,up,"[0,150]","[-106,106]",up,1,,,,,,001,2025-03-17_15h22.56.327,SL_base,2021.2.3,Win32,59.88023952,0.8214,,,87,0,87,0,1,,,,,,,,
,,"[""diamond"",""green"",""vert"",""up"",[106,106],[150,0]]",diamond,green,vert,up,"[106,106]","[150,0]",up,1,,,,,,001,2025-03-17_15h22.56.327,SL_base,2021.2.3,Win32,59.88023952,1.1172,,,88,0,88,0,1,,,,,,,,
,,"[""circle"",""green"",""vert"",""up"",[106,106],[0,-150]]",circle,green,vert,up,"[106,106]","[0,-150]",up,1,,,,,,001,2025-03-17_15h22.56.327,SL_base,2021.2.3,Win32,59.88023952,0.8426,,,89,0,89,0,1,,,,,,,,
,,"[""circle"",""red"",""hori"",""left"",[-106,106],[-106,-106]]",circle,red,hori,left,"[-106,106]","[-106,-106]",left,1,,,,,,001,2025-03-17_15h22.56.327,SL_base,2021.2.3,Win32,59.88023952,0.6866,,,90,0,90,0,1,,,,,,,,
,,"[""diamond"",""no_dis"",""vert"",""up"",[99999,99999],[-106,-106]]",diamond,no_dis,vert,up,"[99999,99999]","[-106,-106]",up,1,,,,,,001,2025-03-17_15h22.56.327,SL_base,2021.2.3,Win32,59.88023952,0.8507,,,91,0,91,0,1,,,,,,,,
,,"[""circle"",""red"",""vert"",""up"",[0,150],[150,0]]",circle,red,vert,up,"[0,150]","[150,0]",up,1,,,,,,001,2025-03-17_15h22.56.327,SL_base,2021.2.3,Win32,59.88023952,1.084,,,92,0,92,0,1,,,,,,,,
,,"[""diamond"",""no_dis"",""vert"",""up"",[99999,99999],[-106,-106]]",diamond,no_dis,vert,up,"[99999,99999]","[-106,-106]",up,1,,,,,,001,2025-03-17_15h22.56.327,SL_base,2021.2.3,Win32,59.88023952,0.5897,,,93,0,93,0,1,,,,,,,,
,,"[""circle"",""no_dis"",""hori"",""left"",[99999,99999],[150,0]]",circle,no_dis,hori,left,"[99999,99999]","[150,0]",left,1,,,,,,001,2025-03-17_15h22.56.327,SL_base,2021.2.3,Win32,59.88023952,0.5738,,,94,0,94,0,1,,,,,,,,
,,"[""diamond"",""no_dis"",""hori"",""left"",[99999,99999],[-106,-106]]",diamond,no_dis,hori,left,"[99999,99999]","[-106,-106]",left,1,,,,,,001,2025-03-17_15h22.56.327,SL_base,2021.2.3,Win32,59.88023952,1.2507,,,95,0,95,0,1,,,,,,,,
,,"[""diamond"",""green"",""vert"",""up"",[-106,106],[-150,0]]",diamond,green,vert,up,"[-106,106]","[-150,0]",up,1,,,,,,001,2025-03-17_15h22.56.327,SL_base,2021.2.3,Win32,59.88023952,1.0339,,,96,0,96,0,1,,,,,,,,
,,"[""circle"",""green"",""vert"",""up"",[0,-150],[-106,106]]",circle,green,vert,up,"[0,-150]","[-106,106]",up,1,,,,,,001,2025-03-17_15h22.56.327,SL_base,2021.2.3,Win32,59.88023952,1.7174,,,97,0,97,0,1,,,,,,,,
,,"[""circle"",""green"",""hori"",""left"",[106,106],[150,0]]",circle,green,hori,left,"[106,106]","[150,0]",left,1,,,,,,001,2025-03-17_15h22.56.327,SL_base,2021.2.3,Win32,59.88023952,0.9003,,,98,0,98,0,1,,,,,,,,
,,"[""circle"",""green"",""hori"",""left"",[0,150],[106,-106]]",circle,green,hori,left,"[0,150]","[106,-106]",left,1,,,,,,001,2025-03-17_15h22.56.327,SL_base,2021.2.3,Win32,59.88023952,0.6215,,,99,0,99,0,1,,,,,,,,
,,"[""circle"",""green"",""vert"",""up"",[0,150],[150,0]]",circle,green,vert,up,"[0,150]","[150,0]",up,1,,,,,,001,2025-03-17_15h22.56.327,SL_base,2021.2.3,Win32,59.88023952,0.7172,,,100,0,100,0,1,,,,,,,,
,,"[""circle"",""red"",""vert"",""up"",[150,0],[-106,106]]",circle,red,vert,up,"[150,0]","[-106,106]",up,1,,,,,,001,2025-03-17_15h22.56.327,SL_base,2021.2.3,Win32,59.88023952,0.6006,,,101,0,101,0,1,,,,,,,,
,,"[""circle"",""no_dis"",""hori"",""left"",[99999,99999],[0,150]]",circle,no_dis,hori,left,"[99999,99999]","[0,150]",left,1,,,,,,001,2025-03-17_15h22.56.327,SL_base,2021.2.3,Win32,59.88023952,0.5845,,,102,0,102,0,1,,,,,,,,
,,"[""circle"",""green"",""vert"",""up"",[150,0],[-150,0]]",circle,green,vert,up,"[150,0]","[-150,0]",up,1,,,,,,001,2025-03-17_15h22.56.327,SL_base,2021.2.3,Win32,59.88023952,0.5674,,,103,0,103,0,1,,,,,,,,
,,"[""circle"",""no_dis"",""vert"",""up"",[99999,99999],[0,-150]]",circle,no_dis,vert,up,"[99999,99999]","[0,-150]",up,1,,,,,,001,2025-03-17_15h22.56.327,SL_base,2021.2.3,Win32,59.88023952,0.9006,,,104,0,104,0,1,,,,,,,,
,,"[""diamond"",""no_dis"",""hori"",""left"",[99999,99999],[0,-150]]",diamond,no_dis,hori,left,"[99999,99999]","[0,-150]",left,1,,,,,,001,2025-03-17_15h22.56.327,SL_base,2021.2.3,Win32,59.88023952,1.4669,,,105,0,105,0,1,,,,,,,,
,,"[""circle"",""red"",""hori"",""left"",[-150,0],[0,150]]",circle,red,hori,left,"[-150,0]","[0,150]",left,1,,,,,,001,2025-03-17_15h22.56.327,SL_base,2021.2.3,Win32,59.88023952,1.1505,,,106,0,106,0,1,,,,,,,,
,,"[""diamond"",""red"",""hori"",""left"",[-106,-106],[150,0]]",diamond,red,hori,left,"[-106,-106]","[150,0]",left,1,,,,,,001,2025-03-17_15h22.56.327,SL_base,2021.2.3,Win32,59.88023952,0.7681,,,107,0,107,0,1,,,,,,,,
,,"[""diamond"",""green"",""vert"",""up"",[0,-150],[-106,106]]",diamond,green,vert,up,"[0,-150]","[-106,106]",up,1,,,,,,001,2025-03-17_15h22.56.327,SL_base,2021.2.3,Win32,59.88023952,0.7208,,,108,0,108,0,1,,,,,,,,
,,"[""diamond"",""no_dis"",""hori"",""left"",[99999,99999],[150,0]]",diamond,no_dis,hori,left,"[99999,99999]","[150,0]",left,1,,,,,,001,2025-03-17_15h22.56.327,SL_base,2021.2.3,Win32,59.88023952,0.6589,,,109,0,109,0,1,,,,,,,,
,,"[""diamond"",""green"",""vert"",""up"",[-106,-106],[-150,0]]",diamond,green,vert,up,"[-106,-106]","[-150,0]",up,1,,,,,,001,2025-03-17_15h22.56.327,SL_base,2021.2.3,Win32,59.88023952,1.1716,,,110,0,110,0,1,,,,,,,,
,,"[""diamond"",""green"",""vert"",""up"",[-150,0],[106,106]]",diamond,green,vert,up,"[-150,0]","[106,106]",up,1,,,,,,001,2025-03-17_15h22.56.327,SL_base,2021.2.3,Win32,59.88023952,0.9344,,,111,0,111,0,1,,,,,,,,
,,"[""diamond"",""green"",""vert"",""up"",[150,0],[-106,106]]",diamond,green,vert,up,"[150,0]","[-106,106]",up,1,,,,,,001,2025-03-17_15h22.56.327,SL_base,2021.2.3,Win32,59.88023952,0.5506,,,112,0,112,0,1,,,,,,,,
,,"[""diamond"",""green"",""hori"",""left"",[106,106],[0,150]]",diamond,green,hori,left,"[106,106]","[0,150]",left,1,,,,,,001,2025-03-17_15h22.56.327,SL_base,2021.2.3,Win32,59.88023952,0.8928,,,113,0,113,0,1,,,,,,,,
,,"[""circle"",""red"",""vert"",""up"",[106,106],[106,-106]]",circle,red,vert,up,"[106,106]","[106,-106]",up,1,,,,,,001,2025-03-17_15h22.56.327,SL_base,2021.2.3,Win32,59.88023952,0.9669,,,114,0,114,0,1,,,,,,,,
,,"[""diamond"",""no_dis"",""hori"",""left"",[99999,99999],[106,106]]",diamond,no_dis,hori,left,"[99999,99999]","[106,106]",left,1,,,,,,001,2025-03-17_15h22.56.327,SL_base,2021.2.3,Win32,59.88023952,0.5672,,,115,0,115,0,1,,,,,,,,
,,"[""diamond"",""green"",""hori"",""left"",[106,-106],[-106,106]]",diamond,green,hori,left,"[106,-106]","[-106,106]",left,1,,,,,,001,2025-03-17_15h22.56.327,SL_base,2021.2.3,Win32,59.88023952,0.8339,,,116,0,116,0,1,,,,,,,,
,,"[""diamond"",""no_dis"",""hori"",""left"",[99999,99999],[106,-106]]",diamond,no_dis,hori,left,"[99999,99999]","[106,-106]",left,1,,,,,,001,2025-03-17_15h22.56.327,SL_base,2021.2.3,Win32,59.88023952,0.8337,,,117,0,117,0,1,,,,,,,,
,,"[""circle"",""red"",""vert"",""up"",[-150,0],[0,-150]]",circle,red,vert,up,"[-150,0]","[0,-150]",up,1,,,,,,001,2025-03-17_15h22.56.327,SL_base,2021.2.3,Win32,59.88023952,1.2552,,,118,0,118,0,1,,,,,,,,
,,"[""circle"",""green"",""vert"",""up"",[0,150],[0,-150]]",circle,green,vert,up,"[0,150]","[0,-150]",up,1,,,,,,001,2025-03-17_15h22.56.327,SL_base,2021.2.3,Win32,59.88023952,0.5618,,,119,0,119,0,1,,,,,,,,
,,,,,,,,,,,,,,,,001,2025-03-17_15h22.56.327,SL_base,2021.2.3,Win32,59.88023952,,,,,,,,,3,space,46.2607,2,0,2,0,1
,,"[""diamond"",""no_dis"",""vert"",""up"",[99999,99999],[106,-106]]",diamond,no_dis,vert,up,"[99999,99999]","[106,-106]",up,1,,,,,,001,2025-03-17_15h22.56.327,SL_base,2021.2.3,Win32,59.88023952,0.7508,,,0,0,0,0,1,,,,,,,,
,,"[""diamond"",""red"",""vert"",""up"",[106,106],[106,-106]]",diamond,red,vert,up,"[106,106]","[106,-106]",up,1,,,,,,001,2025-03-17_15h22.56.327,SL_base,2021.2.3,Win32,59.88023952,1.2498,,,1,0,1,0,1,,,,,,,,
,,"[""circle"",""green"",""hori"",""left"",[106,-106],[0,-150]]",circle,green,hori,left,"[106,-106]","[0,-150]",left,1,,,,,,001,2025-03-17_15h22.56.327,SL_base,2021.2.3,Win32,59.88023952,0.7836,,,2,0,2,0,1,,,,,,,,
,,"[""circle"",""green"",""hori"",""left"",[106,106],[106,-106]]",circle,green,hori,left,"[106,106]","[106,-106]",left,1,,,,,,001,2025-03-17_15h22.56.327,SL_base,2021.2.3,Win32,59.88023952,0.5335,,,3,0,3,0,1,,,,,,,,
,,"[""circle"",""green"",""vert"",""up"",[0,150],[150,0]]",circle,green,vert,up,"[0,150]","[150,0]",up,1,,,,,,001,2025-03-17_15h22.56.327,SL_base,2021.2.3,Win32,59.88023952,0.4976,,,4,0,4,0,1,,,,,,,,
,,"[""circle"",""no_dis"",""vert"",""up"",[99999,99999],[0,150]]",circle,no_dis,vert,up,"[99999,99999]","[0,150]",up,1,,,,,,001,2025-03-17_15h22.56.327,SL_base,2021.2.3,Win32,59.88023952,0.4841,,,5,0,5,0,1,,,,,,,,
,,"[""diamond"",""no_dis"",""hori"",""left"",[99999,99999],[0,-150]]",diamond,no_dis,hori,left,"[99999,99999]","[0,-150]",left,1,,,,,,001,2025-03-17_15h22.56.327,SL_base,2021.2.3,Win32,59.88023952,0.6636,,,6,0,6,0,1,,,,,,,,
,,"[""circle"",""red"",""hori"",""left"",[106,106],[-106,106]]",circle,red,hori,left,"[106,106]","[-106,106]",left,1,,,,,,001,2025-03-17_15h22.56.327,SL_base,2021.2.3,Win32,59.88023952,0.6342,,,7,0,7,0,1,,,,,,,,
,,"[""diamond"",""red"",""vert"",""up"",[106,106],[-106,106]]",diamond,red,vert,up,"[106,106]","[-106,106]",up,1,,,,,,001,2025-03-17_15h22.56.327,SL_base,2021.2.3,Win32,59.88023952,0.7342,,,8,0,8,0,1,,,,,,,,
,,"[""diamond"",""red"",""hori"",""left"",[-106,-106],[106,-106]]",diamond,red,hori,left,"[-106,-106]","[106,-106]",left,1,,,,,,001,2025-03-17_15h22.56.327,SL_base,2021.2.3,Win32,59.88023952,0.6835,,,9,0,9,0,1,,,,,,,,
,,"[""circle"",""green"",""hori"",""left"",[-106,106],[0,150]]",circle,green,hori,left,"[-106,106]","[0,150]",left,1,,,,,,001,2025-03-17_15h22.56.327,SL_base,2021.2.3,Win32,59.88023952,1.0337,,,10,0,10,0,1,,,,,,,,
,,"[""circle"",""no_dis"",""vert"",""up"",[99999,99999],[150,0]]",circle,no_dis,vert,up,"[99999,99999]","[150,0]",up,1,,,,,,001,2025-03-17_15h22.56.327,SL_base,2021.2.3,Win32,59.88023952,0.6504,,,11,0,11,0,1,,,,,,,,
,,"[""diamond"",""green"",""vert"",""up"",[-106,106],[-150,0]]",diamond,green,vert,up,"[-106,106]","[-150,0]",up,1,,,,,,001,2025-03-17_15h22.56.327,SL_base,2021.2.3,Win32,59.88023952,1.0339,,,12,0,12,0,1,,,,,,,,
,,"[""circle"",""red"",""vert"",""up"",[-106,106],[106,106]]",circle,red,vert,up,"[-106,106]","[106,106]",up,1,,,,,,001,2025-03-17_15h22.56.327,SL_base,2021.2.3,Win32,59.88023952,0.806,,,13,0,13,0,1,,,,,,,,
,,"[""diamond"",""no_dis"",""hori"",""left"",[99999,99999],[-106,-106]]",diamond,no_dis,hori,left,"[99999,99999]","[-106,-106]",up,0,,,,,,001,2025-03-17_15h22.56.327,SL_base,2021.2.3,Win32,59.88023952,0.7335,,,14,0,14,0,1,,,,,,,,
,,"[""circle"",""no_dis"",""vert"",""up"",[99999,99999],[0,-150]]",circle,no_dis,vert,up,"[99999,99999]","[0,-150]",up,1,,,,,,001,2025-03-17_15h22.56.327,SL_base,2021.2.3,Win32,59.88023952,0.898,,,15,0,15,0,1,,,,,,,,
,,"[""diamond"",""green"",""hori"",""left"",[106,106],[106,-106]]",diamond,green,hori,left,"[106,106]","[106,-106]",left,1,,,,,,001,2025-03-17_15h22.56.327,SL_base,2021.2.3,Win32,59.88023952,0.867,,,16,0,16,0,1,,,,,,,,
,,"[""diamond"",""no_dis"",""vert"",""up"",[99999,99999],[-150,0]]",diamond,no_dis,vert,up,"[99999,99999]","[-150,0]",up,1,,,,,,001,2025-03-17_15h22.56.327,SL_base,2021.2.3,Win32,59.88023952,0.517,,,17,0,17,0,1,,,,,,,,
,,"[""circle"",""green"",""vert"",""up"",[0,150],[0,-150]]",circle,green,vert,up,"[0,150]","[0,-150]",up,1,,,,,,001,2025-03-17_15h22.56.327,SL_base,2021.2.3,Win32,59.88023952,0.884,,,18,0,18,0,1,,,,,,,,
,,"[""diamond"",""red"",""hori"",""left"",[-150,0],[106,106]]",diamond,red,hori,left,"[-150,0]","[106,106]",left,1,,,,,,001,2025-03-17_15h22.56.327,SL_base,2021.2.3,Win32,59.88023952,1.1421,,,19,0,19,0,1,,,,,,,,
,,"[""circle"",""green"",""vert"",""up"",[0,-150],[-106,106]]",circle,green,vert,up,"[0,-150]","[-106,106]",up,1,,,,,,001,2025-03-17_15h22.56.327,SL_base,2021.2.3,Win32,59.88023952,0.8337,,,20,0,20,0,1,,,,,,,,
,,"[""circle"",""no_dis"",""hori"",""left"",[99999,99999],[0,-150]]",circle,no_dis,hori,left,"[99999,99999]","[0,-150]",left,1,,,,,,001,2025-03-17_15h22.56.327,SL_base,2021.2.3,Win32,59.88023952,0.6541,,,21,0,21,0,1,,,,,,,,
,,"[""diamond"",""red"",""vert"",""up"",[106,106],[-106,106]]",diamond,red,vert,up,"[106,106]","[-106,106]",up,1,,,,,,001,2025-03-17_15h22.56.327,SL_base,2021.2.3,Win32,59.88023952,0.6839,,,22,0,22,0,1,,,,,,,,
,,"[""circle"",""green"",""vert"",""up"",[106,106],[0,150]]",circle,green,vert,up,"[106,106]","[0,150]",up,1,,,,,,001,2025-03-17_15h22.56.327,SL_base,2021.2.3,Win32,59.88023952,1.1552,,,23,0,23,0,1,,,,,,,,
,,"[""diamond"",""green"",""hori"",""left"",[0,-150],[-106,-106]]",diamond,green,hori,left,"[0,-150]","[-106,-106]",left,1,,,,,,001,2025-03-17_15h22.56.327,SL_base,2021.2.3,Win32,59.88023952,0.6839,,,24,0,24,0,1,,,,,,,,
,,"[""diamond"",""green"",""hori"",""left"",[150,0],[-150,0]]",diamond,green,hori,left,"[150,0]","[-150,0]",left,1,,,,,,001,2025-03-17_15h22.56.327,SL_base,2021.2.3,Win32,59.88023952,0.5543,,,25,0,25,0,1,,,,,,,,
,,"[""circle"",""green"",""vert"",""up"",[106,-106],[-106,106]]",circle,green,vert,up,"[106,-106]","[-106,106]",up,1,,,,,,001,2025-03-17_15h22.56.327,SL_base,2021.2.3,Win32,59.88023952,1.0405,,,26,0,26,0,1,,,,,,,,
,,"[""circle"",""green"",""vert"",""up"",[-106,106],[-106,-106]]",circle,green,vert,up,"[-106,106]","[-106,-106]",up,1,,,,,,001,2025-03-17_15h22.56.327,SL_base,2021.2.3,Win32,59.88023952,0.6582,,,27,0,27,0,1,,,,,,,,
,,"[""diamond"",""green"",""vert"",""up"",[-106,106],[-150,0]]",diamond,green,vert,up,"[-106,106]","[-150,0]",up,1,,,,,,001,2025-03-17_15h22.56.327,SL_base,2021.2.3,Win32,59.88023952,1.0336,,,28,0,28,0,1,,,,,,,,
,,"[""circle"",""green"",""hori"",""left"",[150,0],[106,-106]]",circle,green,hori,left,"[150,0]","[106,-106]",left,1,,,,,,001,2025-03-17_15h22.56.327,SL_base,2021.2.3,Win32,59.88023952,0.6883,,,29,0,29,0,1,,,,,,,,
,,"[""diamond"",""no_dis"",""vert"",""up"",[99999,99999],[-150,0]]",diamond,no_dis,vert,up,"[99999,99999]","[-150,0]",up,1,,,,,,001,2025-03-17_15h22.56.327,SL_base,2021.2.3,Win32,59.88023952,0.5678,,,30,0,30,0,1,,,,,,,,
,,"[""diamond"",""red"",""hori"",""left"",[0,150],[-150,0]]",diamond,red,hori,left,"[0,150]","[-150,0]",left,1,,,,,,001,2025-03-17_15h22.56.327,SL_base,2021.2.3,Win32,59.88023952,0.6507,,,31,0,31,0,1,,,,,,,,
,,"[""diamond"",""red"",""vert"",""up"",[-150,0],[106,106]]",diamond,red,vert,up,"[-150,0]","[106,106]",up,1,,,,,,001,2025-03-17_15h22.56.327,SL_base,2021.2.3,Win32,59.88023952,0.8174,,,32,0,32,0,1,,,,,,,,
,,"[""circle"",""green"",""hori"",""left"",[0,-150],[106,106]]",circle,green,hori,left,"[0,-150]","[106,106]",left,1,,,,,,001,2025-03-17_15h22.56.327,SL_base,2021.2.3,Win32,59.88023952,0.8172,,,33,0,33,0,1,,,,,,,,
,,"[""diamond"",""green"",""vert"",""up"",[0,-150],[-106,106]]",diamond,green,vert,up,"[0,-150]","[-106,106]",up,1,,,,,,001,2025-03-17_15h22.56.327,SL_base,2021.2.3,Win32,59.88023952,0.701,,,34,0,34,0,1,,,,,,,,
,,"[""circle"",""no_dis"",""hori"",""left"",[99999,99999],[106,106]]",circle,no_dis,hori,left,"[99999,99999]","[106,106]",left,1,,,,,,001,2025-03-17_15h22.56.327,SL_base,2021.2.3,Win32,59.88023952,0.5668,,,35,0,35,0,1,,,,,,,,
,,"[""circle"",""red"",""hori"",""left"",[0,-150],[106,106]]",circle,red,hori,left,"[0,-150]","[106,106]",left,1,,,,,,001,2025-03-17_15h22.56.327,SL_base,2021.2.3,Win32,59.88023952,0.7836,,,36,0,36,0,1,,,,,,,,
,,"[""circle"",""red"",""hori"",""left"",[106,106],[0,-150]]",circle,red,hori,left,"[106,106]","[0,-150]",left,1,,,,,,001,2025-03-17_15h22.56.327,SL_base,2021.2.3,Win32,59.88023952,0.6503,,,37,0,37,0,1,,,,,,,,
,,"[""diamond"",""no_dis"",""hori"",""left"",[99999,99999],[0,150]]",diamond,no_dis,hori,left,"[99999,99999]","[0,150]",left,1,,,,,,001,2025-03-17_15h22.56.327,SL_base,2021.2.3,Win32,59.88023952,0.7336,,,38,0,38,0,1,,,,,,,,
,,"[""circle"",""no_dis"",""hori"",""left"",[99999,99999],[106,-106]]",circle,no_dis,hori,left,"[99999,99999]","[106,-106]",left,1,,,,,,001,2025-03-17_15h22.56.327,SL_base,2021.2.3,Win32,59.88023952,0.6007,,,39,0,39,0,1,,,,,,,,
,,"[""diamond"",""red"",""hori"",""left"",[-150,0],[-106,-106]]",diamond,red,hori,left,"[-150,0]","[-106,-106]",left,1,,,,,,001,2025-03-17_15h22.56.327,SL_base,2021.2.3,Win32,59.88023952,0.8719,,,40,0,40,0,1,,,,,,,,
,,"[""circle"",""red"",""hori"",""left"",[-150,0],[0,150]]",circle,red,hori,left,"[-150,0]","[0,150]",left,1,,,,,,001,2025-03-17_15h22.56.327,SL_base,2021.2.3,Win32,59.88023952,0.5064,,,41,0,41,0,1,,,,,,,,
,,"[""diamond"",""no_dis"",""hori"",""left"",[99999,99999],[106,-106]]",diamond,no_dis,hori,left,"[99999,99999]","[106,-106]",left,1,,,,,,001,2025-03-17_15h22.56.327,SL_base,2021.2.3,Win32,59.88023952,0.6844,,,42,0,42,0,1,,,,,,,,
,,"[""circle"",""red"",""vert"",""up"",[-106,106],[-106,-106]]",circle,red,vert,up,"[-106,106]","[-106,-106]",up,1,,,,,,001,2025-03-17_15h22.56.327,SL_base,2021.2.3,Win32,59.88023952,0.7507,,,43,0,43,0,1,,,,,,,,
,,"[""circle"",""green"",""vert"",""up"",[106,106],[-106,-106]]",circle,green,vert,up,"[106,106]","[-106,-106]",up,1,,,,,,001,2025-03-17_15h22.56.327,SL_base,2021.2.3,Win32,59.88023952,0.8342,,,44,0,44,0,1,,,,,,,,
,,"[""diamond"",""red"",""vert"",""up"",[0,-150],[-106,106]]",diamond,red,vert,up,"[0,-150]","[-106,106]",up,1,,,,,,001,2025-03-17_15h22.56.327,SL_base,2021.2.3,Win32,59.88023952,1.1505,,,45,0,45,0,1,,,,,,,,
,,"[""diamond"",""green"",""vert"",""up"",[0,150],[-106,106]]",diamond,green,vert,up,"[0,150]","[-106,106]",up,1,,,,,,001,2025-03-17_15h22.56.327,SL_base,2021.2.3,Win32,59.88023952,0.6111,,,46,0,46,0,1,,,,,,,,
,,"[""diamond"",""green"",""hori"",""left"",[-106,-106],[-106,106]]",diamond,green,hori,left,"[-106,-106]","[-106,106]",left,1,,,,,,001,2025-03-17_15h22.56.327,SL_base,2021.2.3,Win32,59.88023952,0.6008,,,47,0,47,0,1,,,,,,,,
,,"[""circle"",""no_dis"",""vert"",""up"",[99999,99999],[-106,106]]",circle,no_dis,vert,up,"[99999,99999]","[-106,106]",left,0,,,,,,001,2025-03-17_15h22.56.327,SL_base,2021.2.3,Win32,59.88023952,0.7176,,,48,0,48,0,1,,,,,,,,
,,"[""diamond"",""no_dis"",""hori"",""left"",[99999,99999],[-106,-106]]",diamond,no_dis,hori,left,"[99999,99999]","[-106,-106]",left,1,,,,,,001,2025-03-17_15h22.56.327,SL_base,2021.2.3,Win32,59.88023952,1.0052,,,49,0,49,0,1,,,,,,,,
,,"[""diamond"",""red"",""hori"",""left"",[106,-106],[150,0]]",diamond,red,hori,left,"[106,-106]","[150,0]",left,1,,,,,,001,2025-03-17_15h22.56.327,SL_base,2021.2.3,Win32,59.88023952,1.017,,,50,0,50,0,1,,,,,,,,
,,"[""diamond"",""green"",""hori"",""left"",[-106,-106],[150,0]]",diamond,green,hori,left,"[-106,-106]","[150,0]",left,1,,,,,,001,2025-03-17_15h22.56.327,SL_base,2021.2.3,Win32,59.88023952,0.7071,,,51,0,51,0,1,,,,,,,,
,,"[""diamond"",""green"",""vert"",""up"",[106,106],[150,0]]",diamond,green,vert,up,"[106,106]","[150,0]",up,1,,,,,,001,2025-03-17_15h22.56.327,SL_base,2021.2.3,Win32,59.88023952,0.7524,,,52,0,52,0,1,,,,,,,,
,,"[""diamond"",""red"",""vert"",""up"",[-106,-106],[0,150]]",diamond,red,vert,up,"[-106,-106]","[0,150]",up,1,,,,,,001,2025-03-17_15h22.56.327,SL_base,2021.2.3,Win32,59.88023952,0.5612,,,53,0,53,0,1,,,,,,,,
,,"[""circle"",""green"",""vert"",""up"",[150,0],[-150,0]]",circle,green,vert,up,"[150,0]","[-150,0]",up,1,,,,,,001,2025-03-17_15h22.56.327,SL_base,2021.2.3,Win32,59.88023952,1.1035,,,54,0,54,0,1,,,,,,,,
,,"[""diamond"",""green"",""vert"",""up"",[-106,-106],[-150,0]]",diamond,green,vert,up,"[-106,-106]","[-150,0]",up,1,,,,,,001,2025-03-17_15h22.56.327,SL_base,2021.2.3,Win32,59.88023952,0.6836,,,55,0,55,0,1,,,,,,,,
,,"[""diamond"",""red"",""vert"",""up"",[106,-106],[-106,106]]",diamond,red,vert,up,"[106,-106]","[-106,106]",up,1,,,,,,001,2025-03-17_15h22.56.327,SL_base,2021.2.3,Win32,59.88023952,0.5673,,,56,0,56,0,1,,,,,,,,
,,"[""circle"",""no_dis"",""vert"",""up"",[99999,99999],[-106,106]]",circle,no_dis,vert,up,"[99999,99999]","[-106,106]",up,1,,,,,,001,2025-03-17_15h22.56.327,SL_base,2021.2.3,Win32,59.88023952,1.4102,,,57,0,57,0,1,,,,,,,,
,,"[""circle"",""red"",""hori"",""left"",[-106,106],[-106,-106]]",circle,red,hori,left,"[-106,106]","[-106,-106]",left,1,,,,,,001,2025-03-17_15h22.56.327,SL_base,2021.2.3,Win32,59.88023952,1.0669,,,58,0,58,0,1,,,,,,,,
,,"[""circle"",""red"",""hori"",""left"",[0,-150],[150,0]]",circle,red,hori,left,"[0,-150]","[150,0]",left,1,,,,,,001,2025-03-17_15h22.56.327,SL_base,2021.2.3,Win32,59.88023952,0.4874,,,59,0,59,0,1,,,,,,,,
,,"[""circle"",""no_dis"",""vert"",""up"",[99999,99999],[106,106]]",circle,no_dis,vert,up,"[99999,99999]","[106,106]",up,1,,,,,,001,2025-03-17_15h22.56.327,SL_base,2021.2.3,Win32,59.88023952,0.4878,,,60,0,60,0,1,,,,,,,,
,,"[""circle"",""no_dis"",""hori"",""left"",[99999,99999],[0,-150]]",circle,no_dis,hori,left,"[99999,99999]","[0,-150]",left,1,,,,,,001,2025-03-17_15h22.56.327,SL_base,2021.2.3,Win32,59.88023952,0.6208,,,61,0,61,0,1,,,,,,,,
,,"[""diamond"",""green"",""hori"",""left"",[150,0],[-106,106]]",diamond,green,hori,left,"[150,0]","[-106,106]",left,1,,,,,,001,2025-03-17_15h22.56.327,SL_base,2021.2.3,Win32,59.88023952,0.8569,,,62,0,62,0,1,,,,,,,,
,,"[""diamond"",""no_dis"",""hori"",""left"",[99999,99999],[106,106]]",diamond,no_dis,hori,left,"[99999,99999]","[106,106]",left,1,,,,,,001,2025-03-17_15h22.56.327,SL_base,2021.2.3,Win32,59.88023952,0.6166,,,63,0,63,0,1,,,,,,,,
,,"[""circle"",""green"",""vert"",""up"",[-150,0],[-106,-106]]",circle,green,vert,up,"[-150,0]","[-106,-106]",up,1,,,,,,001,2025-03-17_15h22.56.327,SL_base,2021.2.3,Win32,59.88023952,1.1837,,,64,0,64,0,1,,,,,,,,
,,"[""circle"",""red"",""hori"",""left"",[150,0],[-150,0]]",circle,red,hori,left,"[150,0]","[-150,0]",left,1,,,,,,001,2025-03-17_15h22.56.327,SL_base,2021.2.3,Win32,59.88023952,0.5336,,,65,0,65,0,1,,,,,,,,
,,"[""diamond"",""green"",""vert"",""up"",[106,106],[-150,0]]",diamond,green,vert,up,"[106,106]","[-150,0]",up,1,,,,,,001,2025-03-17_15h22.56.327,SL_base,2021.2.3,Win32,59.88023952,0.7015,,,66,0,66,0,1,,,,,,,,
,,"[""diamond"",""green"",""hori"",""left"",[-106,106],[-150,0]]",diamond,green,hori,left,"[-106,106]","[-150,0]",left,1,,,,,,001,2025-03-17_15h22.56.327,SL_base,2021.2.3,Win32,59.88023952,0.5904,,,67,0,67,0,1,,,,,,,,
,,"[""diamond"",""red"",""vert"",""up"",[106,106],[-150,0]]",diamond,red,vert,up,"[106,106]","[-150,0]",up,1,,,,,,001,2025-03-17_15h22.56.327,SL_base,2021.2.3,Win32,59.88023952,0.8341,,,68,0,68,0,1,,,,,,,,
,,"[""circle"",""no_dis"",""hori"",""left"",[99999,99999],[-150,0]]",circle,no_dis,hori,left,"[99999,99999]","[-150,0]",left,1,,,,,,001,2025-03-17_15h22.56.327,SL_base,2021.2.3,Win32,59.88023952,0.984,,,69,0,69,0,1,,,,,,,,
,,"[""diamond"",""green"",""vert"",""up"",[106,106],[0,150]]",diamond,green,vert,up,"[106,106]","[0,150]",up,1,,,,,,001,2025-03-17_15h22.56.327,SL_base,2021.2.3,Win32,59.88023952,0.6337,,,70,0,70,0,1,,,,,,,,
,,"[""diamond"",""green"",""vert"",""up"",[150,0],[-106,106]]",diamond,green,vert,up,"[150,0]","[-106,106]",up,1,,,,,,001,2025-03-17_15h22.56.327,SL_base,2021.2.3,Win32,59.88023952,1.006,,,71,0,71,0,1,,,,,,,,
,,"[""diamond"",""red"",""hori"",""left"",[-106,-106],[150,0]]",diamond,red,hori,left,"[-106,-106]","[150,0]",left,1,,,,,,001,2025-03-17_15h22.56.327,SL_base,2021.2.3,Win32,59.88023952,0.7339,,,72,0,72,0,1,,,,,,,,
,,"[""circle"",""red"",""hori"",""left"",[106,106],[0,150]]",circle,red,hori,left,"[106,106]","[0,150]",left,1,,,,,,001,2025-03-17_15h22.56.327,SL_base,2021.2.3,Win32,59.88023952,0.8878,,,73,0,73,0,1,,,,,,,,
,,"[""circle"",""red"",""hori"",""left"",[106,106],[150,0]]",circle,red,hori,left,"[106,106]","[150,0]",left,1,,,,,,001,2025-03-17_15h22.56.327,SL_base,2021.2.3,Win32,59.88023952,0.7338,,,74,0,74,0,1,,,,,,,,
,,"[""circle"",""red"",""vert"",""up"",[150,0],[-106,106]]",circle,red,vert,up,"[150,0]","[-106,106]",up,1,,,,,,001,2025-03-17_15h22.56.327,SL_base,2021.2.3,Win32,59.88023952,0.5593,,,75,0,75,0,1,,,,,,,,
,,"[""circle"",""red"",""vert"",""up"",[106,106],[150,0]]",circle,red,vert,up,"[106,106]","[150,0]",up,1,,,,,,001,2025-03-17_15h22.56.327,SL_base,2021.2.3,Win32,59.88023952,0.7524,,,76,0,76,0,1,,,,,,,,
,,"[""circle"",""green"",""hori"",""left"",[106,-106],[-106,106]]",circle,green,hori,left,"[106,-106]","[-106,106]",left,1,,,,,,001,2025-03-17_15h22.56.327,SL_base,2021.2.3,Win32,59.88023952,0.5665,,,77,0,77,0,1,,,,,,,,
,,"[""circle"",""green"",""hori"",""left"",[-106,-106],[0,-150]]",circle,green,hori,left,"[-106,-106]","[0,-150]",left,1,,,,,,001,2025-03-17_15h22.56.327,SL_base,2021.2.3,Win32,59.88023952,0.7502,,,78,0,78,0,1,,,,,,,,
,,"[""circle"",""green"",""hori"",""left"",[0,150],[106,-106]]",circle,green,hori,left,"[0,150]","[106,-106]",left,1,,,,,,001,2025-03-17_15h22.56.327,SL_base,2021.2.3,Win32,59.88023952,0.471,,,79,0,79,0,1,,,,,,,,
,,"[""circle"",""red"",""vert"",""up"",[106,-106],[0,150]]",circle,red,vert,up,"[106,-106]","[0,150]",up,1,,,,,,001,2025-03-17_15h22.56.327,SL_base,2021.2.3,Win32,59.88023952,0.5007,,,80,0,80,0,1,,,,,,,,
,,"[""diamond"",""no_dis"",""hori"",""left"",[99999,99999],[150,0]]",diamond,no_dis,hori,left,"[99999,99999]","[150,0]",left,1,,,,,,001,2025-03-17_15h22.56.327,SL_base,2021.2.3,Win32,59.88023952,0.7673,,,81,0,81,0,1,,,,,,,,
,,"[""diamond"",""no_dis"",""hori"",""left"",[99999,99999],[-106,106]]",diamond,no_dis,hori,left,"[99999,99999]","[-106,106]",left,1,,,,,,001,2025-03-17_15h22.56.327,SL_base,2021.2.3,Win32,59.88023952,0.4887,,,82,0,82,0,1,,,,,,,,
,,"[""circle"",""no_dis"",""hori"",""left"",[99999,99999],[-150,0]]",circle,no_dis,hori,left,"[99999,99999]","[-150,0]",left,1,,,,,,001,2025-03-17_15h22.56.327,SL_base,2021.2.3,Win32,59.88023952,0.671,,,83,0,83,0,1,,,,,,,,
,,"[""diamond"",""green"",""hori"",""left"",[106,106],[0,150]]",diamond,green,hori,left,"[106,106]","[0,150]",left,1,,,,,,001,2025-03-17_15h22.56.327,SL_base,2021.2.3,Win32,59.88023952,0.751,,,84,0,84,0,1,,,,,,,,
,,"[""diamond"",""red"",""hori"",""left"",[150,0],[106,-106]]",diamond,red,hori,left,"[150,0]","[106,-106]",left,1,,,,,,001,2025-03-17_15h22.56.327,SL_base,2021.2.3,Win32,59.88023952,0.7115,,,85,0,85,0,1,,,,,,,,
,,"[""circle"",""no_dis"",""hori"",""left"",[99999,99999],[106,-106]]",circle,no_dis,hori,left,"[99999,99999]","[106,-106]",up,0,,,,,,001,2025-03-17_15h22.56.327,SL_base,2021.2.3,Win32,59.88023952,0.8548,,,86,0,86,0,1,,,,,,,,
,,"[""diamond"",""red"",""hori"",""left"",[-106,-106],[150,0]]",diamond,red,hori,left,"[-106,-106]","[150,0]",left,1,,,,,,001,2025-03-17_15h22.56.327,SL_base,2021.2.3,Win32,59.88023952,1.1811,,,87,0,87,0,1,,,,,,,,
,,"[""diamond"",""green"",""vert"",""up"",[-150,0],[106,106]]",diamond,green,vert,up,"[-150,0]","[106,106]",up,1,,,,,,001,2025-03-17_15h22.56.327,SL_base,2021.2.3,Win32,59.88023952,0.936,,,88,0,88,0,1,,,,,,,,
,,"[""circle"",""green"",""vert"",""up"",[106,106],[0,-150]]",circle,green,vert,up,"[106,106]","[0,-150]",up,1,,,,,,001,2025-03-17_15h22.56.327,SL_base,2021.2.3,Win32,59.88023952,0.8172,,,89,0,89,0,1,,,,,,,,
,,"[""circle"",""red"",""vert"",""up"",[0,150],[-106,106]]",circle,red,vert,up,"[0,150]","[-106,106]",up,1,,,,,,001,2025-03-17_15h22.56.327,SL_base,2021.2.3,Win32,59.88023952,0.8178,,,90,0,90,0,1,,,,,,,,
