﻿key_resp.keys,key_resp.rt,trial_para,tar_shape,dis_color_condi,tar_line,cor_resp,dis_loc,tar_loc,resp.keys,resp.corr,resp.rt,trials.thisRepN,trials.thisTrialN,trials.thisN,trials.thisIndex,trials.ran,participant,date,expName,psychopyVersion,OS,frameRate,key_resp_2.keys,key_resp_2.rt,trials_2.thisRepN,trials_2.thisTrialN,trials_2.thisN,trials_2.thisIndex,trials_2.ran,block_num,key_resp_3.keys,key_resp_3.rt,trials_3.thisRepN,trials_3.thisTrialN,trials_3.thisN,trials_3.thisIndex,trials_3.ran
space,31.721,"[""diamond"",""no_dis"",""hori"",""left"",[99999,99999],[106,106]]",diamond,no_dis,hori,left,"[99999,99999]","[106,106]",left,1,2.0469,0,0,0,0,1,001,2025-03-11_14h26.42.344,SL_base,2021.2.3,Win32,59.88023952,,,,,,,,,,,,,,,
,,"[""circle"",""red"",""hori"",""left"",[-106,-106],[150,0]]",circle,red,hori,left,"[-106,-106]","[150,0]",up,0,1.4182,1,0,1,0,1,001,2025-03-11_14h26.42.344,SL_base,2021.2.3,Win32,59.88023952,,,,,,,,,,,,,,,
,,"[""circle"",""red"",""hori"",""left"",[-150,0],[-106,-106]]",circle,red,hori,left,"[-150,0]","[-106,-106]",left,1,2.3189,2,0,2,0,1,001,2025-03-11_14h26.42.344,SL_base,2021.2.3,Win32,59.88023952,,,,,,,,,,,,,,,
,,"[""diamond"",""green"",""hori"",""left"",[0,150],[-150,0]]",diamond,green,hori,left,"[0,150]","[-150,0]",up,0,2.6513,3,0,3,0,1,001,2025-03-11_14h26.42.344,SL_base,2021.2.3,Win32,59.88023952,,,,,,,,,,,,,,,
,,"[""circle"",""red"",""vert"",""up"",[150,0],[-106,106]]",circle,red,vert,up,"[150,0]","[-106,106]",up,1,2.4862,4,0,4,0,1,001,2025-03-11_14h26.42.344,SL_base,2021.2.3,Win32,59.88023952,,,,,,,,,,,,,,,
,,"[""diamond"",""red"",""vert"",""up"",[106,-106],[-106,-106]]",diamond,red,vert,up,"[106,-106]","[-106,-106]",up,1,2.4622,5,0,5,0,1,001,2025-03-11_14h26.42.344,SL_base,2021.2.3,Win32,59.88023952,,,,,,,,,,,,,,,
,,"[""circle"",""no_dis"",""vert"",""up"",[99999,99999],[-106,106]]",circle,no_dis,vert,up,"[99999,99999]","[-106,106]",,0,,6,0,6,0,1,001,2025-03-11_14h26.42.344,SL_base,2021.2.3,Win32,59.88023952,,,,,,,,,,,,,,,
,,"[""diamond"",""no_dis"",""vert"",""up"",[99999,99999],[106,106]]",diamond,no_dis,vert,up,"[99999,99999]","[106,106]",up,1,1.8217,7,0,7,0,1,001,2025-03-11_14h26.42.344,SL_base,2021.2.3,Win32,59.88023952,,,,,,,,,,,,,,,
,,"[""circle"",""red"",""vert"",""up"",[-150,0],[-106,-106]]",circle,red,vert,up,"[-150,0]","[-106,-106]",up,1,2.2503,8,0,8,0,1,001,2025-03-11_14h26.42.344,SL_base,2021.2.3,Win32,59.88023952,,,,,,,,,,,,,,,
,,"[""diamond"",""green"",""hori"",""left"",[106,-106],[106,106]]",diamond,green,hori,left,"[106,-106]","[106,106]",left,1,1.5946,9,0,9,0,1,001,2025-03-11_14h26.42.344,SL_base,2021.2.3,Win32,59.88023952,,,,,,,,,,,,,,,
,,"[""diamond"",""no_dis"",""hori"",""left"",[99999,99999],[106,106]]",diamond,no_dis,hori,left,"[99999,99999]","[106,106]",left,1,1.6684,,,,,,001,2025-03-11_14h26.42.344,SL_base,2021.2.3,Win32,59.88023952,space,2.5874,0,0,0,0,1,,,,,,,,
,,"[""circle"",""red"",""hori"",""left"",[-106,-106],[150,0]]",circle,red,hori,left,"[-106,-106]","[150,0]",up,0,1.8502,,,,,,001,2025-03-11_14h26.42.344,SL_base,2021.2.3,Win32,59.88023952,,,1,0,1,0,1,,,,,,,,
,,"[""circle"",""red"",""hori"",""left"",[-150,0],[-106,-106]]",circle,red,hori,left,"[-150,0]","[-106,-106]",left,1,2.3212,,,,,,001,2025-03-11_14h26.42.344,SL_base,2021.2.3,Win32,59.88023952,,,2,0,2,0,1,,,,,,,,
,,"[""diamond"",""green"",""hori"",""left"",[0,150],[-150,0]]",diamond,green,hori,left,"[0,150]","[-150,0]",left,1,2.3812,,,,,,001,2025-03-11_14h26.42.344,SL_base,2021.2.3,Win32,59.88023952,,,3,0,3,0,1,,,,,,,,
,,"[""circle"",""red"",""vert"",""up"",[150,0],[-106,106]]",circle,red,vert,up,"[150,0]","[-106,106]",up,1,1.9152,,,,,,001,2025-03-11_14h26.42.344,SL_base,2021.2.3,Win32,59.88023952,,,4,0,4,0,1,,,,,,,,
,,"[""diamond"",""red"",""vert"",""up"",[106,-106],[-106,-106]]",diamond,red,vert,up,"[106,-106]","[-106,-106]",up,1,1.6613,,,,,,001,2025-03-11_14h26.42.344,SL_base,2021.2.3,Win32,59.88023952,,,5,0,5,0,1,,,,,,,,
,,"[""circle"",""no_dis"",""vert"",""up"",[99999,99999],[-106,106]]",circle,no_dis,vert,up,"[99999,99999]","[-106,106]",up,1,1.7369,,,,,,001,2025-03-11_14h26.42.344,SL_base,2021.2.3,Win32,59.88023952,,,6,0,6,0,1,,,,,,,,
,,"[""diamond"",""no_dis"",""vert"",""up"",[99999,99999],[106,106]]",diamond,no_dis,vert,up,"[99999,99999]","[106,106]",up,1,2.487,,,,,,001,2025-03-11_14h26.42.344,SL_base,2021.2.3,Win32,59.88023952,,,7,0,7,0,1,,,,,,,,
,,"[""circle"",""red"",""vert"",""up"",[-150,0],[-106,-106]]",circle,red,vert,up,"[-150,0]","[-106,-106]",up,1,1.8986,,,,,,001,2025-03-11_14h26.42.344,SL_base,2021.2.3,Win32,59.88023952,,,8,0,8,0,1,,,,,,,,
,,"[""diamond"",""green"",""hori"",""left"",[106,-106],[106,106]]",diamond,green,hori,left,"[106,-106]","[106,106]",left,1,2.5645,,,,,,001,2025-03-11_14h26.42.344,SL_base,2021.2.3,Win32,59.88023952,,,9,0,9,0,1,,,,,,,,
,,"[""diamond"",""red"",""hori"",""left"",[150,0],[-150,0]]",diamond,red,hori,left,"[150,0]","[-150,0]",left,1,1.8616,,,,,,001,2025-03-11_14h26.42.344,SL_base,2021.2.3,Win32,59.88023952,,,10,0,10,0,1,,,,,,,,
,,"[""diamond"",""green"",""vert"",""up"",[-150,0],[0,-150]]",diamond,green,vert,up,"[-150,0]","[0,-150]",up,1,1.7278,,,,,,001,2025-03-11_14h26.42.344,SL_base,2021.2.3,Win32,59.88023952,,,11,0,11,0,1,,,,,,,,
,,"[""circle"",""red"",""vert"",""up"",[150,0],[-150,0]]",circle,red,vert,up,"[150,0]","[-150,0]",up,1,2.0357,,,,,,001,2025-03-11_14h26.42.344,SL_base,2021.2.3,Win32,59.88023952,,,12,0,12,0,1,,,,,,,,
,,"[""diamond"",""red"",""vert"",""up"",[106,-106],[-150,0]]",diamond,red,vert,up,"[106,-106]","[-150,0]",up,1,2.8311,,,,,,001,2025-03-11_14h26.42.344,SL_base,2021.2.3,Win32,59.88023952,,,13,0,13,0,1,,,,,,,,
,,"[""circle"",""no_dis"",""vert"",""up"",[99999,99999],[106,106]]",circle,no_dis,vert,up,"[99999,99999]","[106,106]",up,1,1.8684,,,,,,001,2025-03-11_14h26.42.344,SL_base,2021.2.3,Win32,59.88023952,,,14,0,14,0,1,,,,,,,,
,,"[""diamond"",""no_dis"",""vert"",""up"",[99999,99999],[-106,-106]]",diamond,no_dis,vert,up,"[99999,99999]","[-106,-106]",up,1,2.2277,,,,,,001,2025-03-11_14h26.42.344,SL_base,2021.2.3,Win32,59.88023952,,,15,0,15,0,1,,,,,,,,
,,"[""circle"",""green"",""vert"",""up"",[-150,0],[106,106]]",circle,green,vert,up,"[-150,0]","[106,106]",up,1,2.7616,,,,,,001,2025-03-11_14h26.42.344,SL_base,2021.2.3,Win32,59.88023952,,,16,0,16,0,1,,,,,,,,
,,"[""circle"",""no_dis"",""vert"",""up"",[99999,99999],[0,-150]]",circle,no_dis,vert,up,"[99999,99999]","[0,-150]",,0,,,,,,,001,2025-03-11_14h26.42.344,SL_base,2021.2.3,Win32,59.88023952,,,17,0,17,0,1,,,,,,,,
,,"[""diamond"",""no_dis"",""vert"",""up"",[99999,99999],[150,0]]",diamond,no_dis,vert,up,"[99999,99999]","[150,0]",,0,,,,,,,001,2025-03-11_14h26.42.344,SL_base,2021.2.3,Win32,59.88023952,,,18,0,18,0,1,,,,,,,,
,,"[""circle"",""red"",""hori"",""left"",[-106,-106],[106,106]]",circle,red,hori,left,"[-106,-106]","[106,106]",left,1,2.85,,,,,,001,2025-03-11_14h26.42.344,SL_base,2021.2.3,Win32,59.88023952,,,19,0,19,0,1,,,,,,,,
,,"[""circle"",""red"",""vert"",""up"",[106,-106],[106,106]]",circle,red,vert,up,"[106,-106]","[106,106]",,0,,,,,,,001,2025-03-11_14h26.42.344,SL_base,2021.2.3,Win32,59.88023952,,,20,0,20,0,1,,,,,,,,
,,"[""circle"",""green"",""vert"",""up"",[106,-106],[-106,106]]",circle,green,vert,up,"[106,-106]","[-106,106]",up,1,2.016,,,,,,001,2025-03-11_14h26.42.344,SL_base,2021.2.3,Win32,59.88023952,,,21,0,21,0,1,,,,,,,,
,,"[""diamond"",""green"",""vert"",""up"",[106,-106],[0,150]]",diamond,green,vert,up,"[106,-106]","[0,150]",up,1,2.5317,,,,,,001,2025-03-11_14h26.42.344,SL_base,2021.2.3,Win32,59.88023952,,,22,0,22,0,1,,,,,,,,
,,"[""diamond"",""green"",""vert"",""up"",[106,-106],[150,0]]",diamond,green,vert,up,"[106,-106]","[150,0]",up,1,1.8353,,,,,,001,2025-03-11_14h26.42.344,SL_base,2021.2.3,Win32,59.88023952,,,23,0,23,0,1,,,,,,,,
,,"[""circle"",""no_dis"",""hori"",""left"",[99999,99999],[106,-106]]",circle,no_dis,hori,left,"[99999,99999]","[106,-106]",up,0,2.2029,,,,,,001,2025-03-11_14h26.42.344,SL_base,2021.2.3,Win32,59.88023952,,,24,0,24,0,1,,,,,,,,
,,"[""diamond"",""green"",""hori"",""left"",[106,106],[-106,-106]]",diamond,green,hori,left,"[106,106]","[-106,-106]",left,1,2.5311,,,,,,001,2025-03-11_14h26.42.344,SL_base,2021.2.3,Win32,59.88023952,,,25,0,25,0,1,,,,,,,,
,,"[""circle"",""green"",""hori"",""left"",[-106,-106],[-106,106]]",circle,green,hori,left,"[-106,-106]","[-106,106]",,0,,,,,,,001,2025-03-11_14h26.42.344,SL_base,2021.2.3,Win32,59.88023952,,,26,0,26,0,1,,,,,,,,
,,"[""diamond"",""no_dis"",""vert"",""up"",[99999,99999],[106,-106]]",diamond,no_dis,vert,up,"[99999,99999]","[106,-106]",up,1,1.2621,,,,,,001,2025-03-11_14h26.42.344,SL_base,2021.2.3,Win32,59.88023952,,,27,0,27,0,1,,,,,,,,
,,"[""diamond"",""green"",""vert"",""up"",[150,0],[-106,-106]]",diamond,green,vert,up,"[150,0]","[-106,-106]",up,1,2.1675,,,,,,001,2025-03-11_14h26.42.344,SL_base,2021.2.3,Win32,59.88023952,,,28,0,28,0,1,,,,,,,,
,,"[""diamond"",""no_dis"",""hori"",""left"",[99999,99999],[106,-106]]",diamond,no_dis,hori,left,"[99999,99999]","[106,-106]",left,1,2.0728,,,,,,001,2025-03-11_14h26.42.344,SL_base,2021.2.3,Win32,59.88023952,,,29,0,29,0,1,,,,,,,,
,,"[""circle"",""green"",""hori"",""left"",[0,150],[-150,0]]",circle,green,hori,left,"[0,150]","[-150,0]",left,1,1.8207,,,,,,001,2025-03-11_14h26.42.344,SL_base,2021.2.3,Win32,59.88023952,,,30,0,30,0,1,,,,,,,,
,,"[""circle"",""red"",""vert"",""up"",[106,-106],[0,150]]",circle,red,vert,up,"[106,-106]","[0,150]",,0,,,,,,,001,2025-03-11_14h26.42.344,SL_base,2021.2.3,Win32,59.88023952,,,31,0,31,0,1,,,,,,,,
,,"[""circle"",""red"",""vert"",""up"",[106,-106],[150,0]]",circle,red,vert,up,"[106,-106]","[150,0]",up,1,1.4467,,,,,,001,2025-03-11_14h26.42.344,SL_base,2021.2.3,Win32,59.88023952,,,32,0,32,0,1,,,,,,,,
,,"[""circle"",""green"",""vert"",""up"",[0,-150],[0,150]]",circle,green,vert,up,"[0,-150]","[0,150]",up,1,2.2041,,,,,,001,2025-03-11_14h26.42.344,SL_base,2021.2.3,Win32,59.88023952,,,33,0,33,0,1,,,,,,,,
,,"[""circle"",""no_dis"",""vert"",""up"",[99999,99999],[150,0]]",circle,no_dis,vert,up,"[99999,99999]","[150,0]",up,1,1.3846,,,,,,001,2025-03-11_14h26.42.344,SL_base,2021.2.3,Win32,59.88023952,,,34,0,34,0,1,,,,,,,,
,,"[""diamond"",""red"",""hori"",""left"",[-106,106],[150,0]]",diamond,red,hori,left,"[-106,106]","[150,0]",left,1,1.5683,,,,,,001,2025-03-11_14h26.42.344,SL_base,2021.2.3,Win32,59.88023952,,,35,0,35,0,1,,,,,,,,
,,"[""circle"",""no_dis"",""hori"",""left"",[99999,99999],[0,-150]]",circle,no_dis,hori,left,"[99999,99999]","[0,-150]",left,1,2.5181,,,,,,001,2025-03-11_14h26.42.344,SL_base,2021.2.3,Win32,59.88023952,,,36,0,36,0,1,,,,,,,,
,,"[""circle"",""green"",""hori"",""left"",[106,-106],[0,-150]]",circle,green,hori,left,"[106,-106]","[0,-150]",up,0,2.1967,,,,,,001,2025-03-11_14h26.42.344,SL_base,2021.2.3,Win32,59.88023952,,,37,0,37,0,1,,,,,,,,
,,"[""diamond"",""no_dis"",""hori"",""left"",[99999,99999],[106,-106]]",diamond,no_dis,hori,left,"[99999,99999]","[106,-106]",left,1,2.2333,,,,,,001,2025-03-11_14h26.42.344,SL_base,2021.2.3,Win32,59.88023952,,,38,0,38,0,1,,,,,,,,
,,"[""diamond"",""red"",""hori"",""left"",[106,-106],[-106,-106]]",diamond,red,hori,left,"[106,-106]","[-106,-106]",left,1,2.9681,,,,,,001,2025-03-11_14h26.42.344,SL_base,2021.2.3,Win32,59.88023952,,,39,0,39,0,1,,,,,,,,
,,"[""diamond"",""red"",""vert"",""up"",[106,106],[0,-150]]",diamond,red,vert,up,"[106,106]","[0,-150]",up,1,1.5462,,,,,,001,2025-03-11_14h26.42.344,SL_base,2021.2.3,Win32,59.88023952,,,40,0,40,0,1,,,,,,,,
,,"[""diamond"",""no_dis"",""hori"",""left"",[99999,99999],[-106,-106]]",diamond,no_dis,hori,left,"[99999,99999]","[-106,-106]",left,1,2.2044,,,,,,001,2025-03-11_14h26.42.344,SL_base,2021.2.3,Win32,59.88023952,,,41,0,41,0,1,,,,,,,,
,,"[""diamond"",""no_dis"",""vert"",""up"",[99999,99999],[0,-150]]",diamond,no_dis,vert,up,"[99999,99999]","[0,-150]",up,1,2.4337,,,,,,001,2025-03-11_14h26.42.344,SL_base,2021.2.3,Win32,59.88023952,,,42,0,42,0,1,,,,,,,,
,,"[""diamond"",""green"",""hori"",""left"",[106,-106],[-106,106]]",diamond,green,hori,left,"[106,-106]","[-106,106]",up,0,2.0796,,,,,,001,2025-03-11_14h26.42.344,SL_base,2021.2.3,Win32,59.88023952,,,43,0,43,0,1,,,,,,,,
,,"[""diamond"",""red"",""vert"",""up"",[106,-106],[106,106]]",diamond,red,vert,up,"[106,-106]","[106,106]",up,1,2.1329,,,,,,001,2025-03-11_14h26.42.344,SL_base,2021.2.3,Win32,59.88023952,,,44,0,44,0,1,,,,,,,,
,,"[""diamond"",""red"",""hori"",""left"",[106,106],[106,-106]]",diamond,red,hori,left,"[106,106]","[106,-106]",left,1,2.2514,,,,,,001,2025-03-11_14h26.42.344,SL_base,2021.2.3,Win32,59.88023952,,,45,0,45,0,1,,,,,,,,
,,"[""diamond"",""no_dis"",""hori"",""left"",[99999,99999],[-150,0]]",diamond,no_dis,hori,left,"[99999,99999]","[-150,0]",left,1,2.5806,,,,,,001,2025-03-11_14h26.42.344,SL_base,2021.2.3,Win32,59.88023952,,,46,0,46,0,1,,,,,,,,
,,"[""diamond"",""green"",""vert"",""up"",[0,-150],[0,150]]",diamond,green,vert,up,"[0,-150]","[0,150]",up,1,1.6737,,,,,,001,2025-03-11_14h26.42.344,SL_base,2021.2.3,Win32,59.88023952,,,47,0,47,0,1,,,,,,,,
,,"[""diamond"",""red"",""hori"",""left"",[106,-106],[0,-150]]",diamond,red,hori,left,"[106,-106]","[0,-150]",left,1,1.7074,,,,,,001,2025-03-11_14h26.42.344,SL_base,2021.2.3,Win32,59.88023952,,,48,0,48,0,1,,,,,,,,
,,"[""diamond"",""no_dis"",""hori"",""left"",[99999,99999],[-106,106]]",diamond,no_dis,hori,left,"[99999,99999]","[-106,106]",up,0,1.5312,,,,,,001,2025-03-11_14h26.42.344,SL_base,2021.2.3,Win32,59.88023952,,,49,0,49,0,1,,,,,,,,
,,"[""diamond"",""green"",""hori"",""left"",[106,-106],[-106,-106]]",diamond,green,hori,left,"[106,-106]","[-106,-106]",left,1,1.771,,,,,,001,2025-03-11_14h26.42.344,SL_base,2021.2.3,Win32,59.88023952,,,50,0,50,0,1,,,,,,,,
,,"[""circle"",""green"",""vert"",""up"",[-106,-106],[-150,0]]",circle,green,vert,up,"[-106,-106]","[-150,0]",up,1,1.7139,,,,,,001,2025-03-11_14h26.42.344,SL_base,2021.2.3,Win32,59.88023952,,,51,0,51,0,1,,,,,,,,
,,"[""circle"",""no_dis"",""hori"",""left"",[99999,99999],[0,150]]",circle,no_dis,hori,left,"[99999,99999]","[0,150]",left,1,2.2901,,,,,,001,2025-03-11_14h26.42.344,SL_base,2021.2.3,Win32,59.88023952,,,52,0,52,0,1,,,,,,,,
,,"[""diamond"",""green"",""vert"",""up"",[-106,-106],[-150,0]]",diamond,green,vert,up,"[-106,-106]","[-150,0]",up,1,1.7466,,,,,,001,2025-03-11_14h26.42.344,SL_base,2021.2.3,Win32,59.88023952,,,53,0,53,0,1,,,,,,,,
,,"[""diamond"",""no_dis"",""hori"",""left"",[99999,99999],[150,0]]",diamond,no_dis,hori,left,"[99999,99999]","[150,0]",left,1,1.2874,,,,,,001,2025-03-11_14h26.42.344,SL_base,2021.2.3,Win32,59.88023952,,,54,0,54,0,1,,,,,,,,
,,"[""diamond"",""no_dis"",""vert"",""up"",[99999,99999],[-106,-106]]",diamond,no_dis,vert,up,"[99999,99999]","[-106,-106]",up,1,1.3069,,,,,,001,2025-03-11_14h26.42.344,SL_base,2021.2.3,Win32,59.88023952,,,55,0,55,0,1,,,,,,,,
,,"[""circle"",""no_dis"",""hori"",""left"",[99999,99999],[-150,0]]",circle,no_dis,hori,left,"[99999,99999]","[-150,0]",left,1,1.9393,,,,,,001,2025-03-11_14h26.42.344,SL_base,2021.2.3,Win32,59.88023952,,,56,0,56,0,1,,,,,,,,
,,"[""diamond"",""red"",""hori"",""left"",[106,-106],[-106,106]]",diamond,red,hori,left,"[106,-106]","[-106,106]",left,1,2.1988,,,,,,001,2025-03-11_14h26.42.344,SL_base,2021.2.3,Win32,59.88023952,,,57,0,57,0,1,,,,,,,,
,,"[""circle"",""red"",""hori"",""left"",[150,0],[106,106]]",circle,red,hori,left,"[150,0]","[106,106]",left,1,1.7183,,,,,,001,2025-03-11_14h26.42.344,SL_base,2021.2.3,Win32,59.88023952,,,58,0,58,0,1,,,,,,,,
,,"[""circle"",""red"",""hori"",""left"",[150,0],[-106,-106]]",circle,red,hori,left,"[150,0]","[-106,-106]",left,1,1.6506,,,,,,001,2025-03-11_14h26.42.344,SL_base,2021.2.3,Win32,59.88023952,,,59,0,59,0,1,,,,,,,,
,,"[""circle"",""green"",""hori"",""left"",[0,-150],[106,106]]",circle,green,hori,left,"[0,-150]","[106,106]",left,1,2.1136,,,,,,001,2025-03-11_14h26.42.344,SL_base,2021.2.3,Win32,59.88023952,,,60,0,60,0,1,,,,,,,,
,,"[""circle"",""green"",""hori"",""left"",[0,150],[-106,-106]]",circle,green,hori,left,"[0,150]","[-106,-106]",left,1,1.5178,,,,,,001,2025-03-11_14h26.42.344,SL_base,2021.2.3,Win32,59.88023952,,,61,0,61,0,1,,,,,,,,
,,"[""diamond"",""green"",""vert"",""up"",[0,-150],[-150,0]]",diamond,green,vert,up,"[0,-150]","[-150,0]",up,1,2.1363,,,,,,001,2025-03-11_14h26.42.344,SL_base,2021.2.3,Win32,59.88023952,,,62,0,62,0,1,,,,,,,,
,,"[""diamond"",""red"",""vert"",""up"",[-106,106],[-106,-106]]",diamond,red,vert,up,"[-106,106]","[-106,-106]",up,1,1.8008,,,,,,001,2025-03-11_14h26.42.344,SL_base,2021.2.3,Win32,59.88023952,,,63,0,63,0,1,,,,,,,,
,,"[""circle"",""red"",""hori"",""left"",[106,-106],[150,0]]",circle,red,hori,left,"[106,-106]","[150,0]",left,1,2.086,,,,,,001,2025-03-11_14h26.42.344,SL_base,2021.2.3,Win32,59.88023952,,,64,0,64,0,1,,,,,,,,
,,"[""circle"",""green"",""hori"",""left"",[-150,0],[106,106]]",circle,green,hori,left,"[-150,0]","[106,106]",left,1,1.9349,,,,,,001,2025-03-11_14h26.42.344,SL_base,2021.2.3,Win32,59.88023952,,,65,0,65,0,1,,,,,,,,
,,"[""diamond"",""red"",""vert"",""up"",[150,0],[0,-150]]",diamond,red,vert,up,"[150,0]","[0,-150]",up,1,2.1341,,,,,,001,2025-03-11_14h26.42.344,SL_base,2021.2.3,Win32,59.88023952,,,66,0,66,0,1,,,,,,,,
,,"[""circle"",""red"",""hori"",""left"",[150,0],[0,150]]",circle,red,hori,left,"[150,0]","[0,150]",up,0,2.2158,,,,,,001,2025-03-11_14h26.42.344,SL_base,2021.2.3,Win32,59.88023952,,,67,0,67,0,1,,,,,,,,
,,"[""diamond"",""red"",""vert"",""up"",[-106,-106],[0,150]]",diamond,red,vert,up,"[-106,-106]","[0,150]",left,0,0.9501,,,,,,001,2025-03-11_14h26.42.344,SL_base,2021.2.3,Win32,59.88023952,,,68,0,68,0,1,,,,,,,,
,,"[""diamond"",""green"",""vert"",""up"",[0,150],[106,-106]]",diamond,green,vert,up,"[0,150]","[106,-106]",up,1,1.5788,,,,,,001,2025-03-11_14h26.42.344,SL_base,2021.2.3,Win32,59.88023952,,,69,0,69,0,1,,,,,,,,
,,"[""diamond"",""no_dis"",""hori"",""left"",[99999,99999],[106,106]]",diamond,no_dis,hori,left,"[99999,99999]","[106,106]",left,1,2.2237,,,,,,001,2025-03-11_14h26.42.344,SL_base,2021.2.3,Win32,59.88023952,,,70,0,70,0,1,,,,,,,,
,,"[""circle"",""no_dis"",""vert"",""up"",[99999,99999],[0,-150]]",circle,no_dis,vert,up,"[99999,99999]","[0,-150]",up,1,1.7516,,,,,,001,2025-03-11_14h26.42.344,SL_base,2021.2.3,Win32,59.88023952,,,71,0,71,0,1,,,,,,,,
,,"[""circle"",""no_dis"",""vert"",""up"",[99999,99999],[0,150]]",circle,no_dis,vert,up,"[99999,99999]","[0,150]",left,0,1.9681,,,,,,001,2025-03-11_14h26.42.344,SL_base,2021.2.3,Win32,59.88023952,,,72,0,72,0,1,,,,,,,,
,,"[""circle"",""red"",""hori"",""left"",[-106,106],[0,150]]",circle,red,hori,left,"[-106,106]","[0,150]",left,1,1.0342,,,,,,001,2025-03-11_14h26.42.344,SL_base,2021.2.3,Win32,59.88023952,,,73,0,73,0,1,,,,,,,,
,,"[""diamond"",""green"",""vert"",""up"",[106,-106],[0,150]]",diamond,green,vert,up,"[106,-106]","[0,150]",up,1,1.0144,,,,,,001,2025-03-11_14h26.42.344,SL_base,2021.2.3,Win32,59.88023952,,,74,0,74,0,1,,,,,,,,
,,"[""circle"",""red"",""vert"",""up"",[-150,0],[150,0]]",circle,red,vert,up,"[-150,0]","[150,0]",left,0,1.884,,,,,,001,2025-03-11_14h26.42.344,SL_base,2021.2.3,Win32,59.88023952,,,75,0,75,0,1,,,,,,,,
,,"[""circle"",""red"",""vert"",""up"",[106,106],[-150,0]]",circle,red,vert,up,"[106,106]","[-150,0]",up,1,2.4185,,,,,,001,2025-03-11_14h26.42.344,SL_base,2021.2.3,Win32,59.88023952,,,76,0,76,0,1,,,,,,,,
,,"[""diamond"",""red"",""vert"",""up"",[-106,106],[106,-106]]",diamond,red,vert,up,"[-106,106]","[106,-106]",left,0,2.0662,,,,,,001,2025-03-11_14h26.42.344,SL_base,2021.2.3,Win32,59.88023952,,,77,0,77,0,1,,,,,,,,
,,"[""circle"",""green"",""vert"",""up"",[0,-150],[106,106]]",circle,green,vert,up,"[0,-150]","[106,106]",up,1,1.72,,,,,,001,2025-03-11_14h26.42.344,SL_base,2021.2.3,Win32,59.88023952,,,78,0,78,0,1,,,,,,,,
,,"[""diamond"",""red"",""hori"",""left"",[106,106],[106,-106]]",diamond,red,hori,left,"[106,106]","[106,-106]",left,1,1.952,,,,,,001,2025-03-11_14h26.42.344,SL_base,2021.2.3,Win32,59.88023952,,,79,0,79,0,1,,,,,,,,
,,"[""circle"",""no_dis"",""hori"",""left"",[99999,99999],[-106,-106]]",circle,no_dis,hori,left,"[99999,99999]","[-106,-106]",left,1,2.277,,,,,,001,2025-03-11_14h26.42.344,SL_base,2021.2.3,Win32,59.88023952,,,80,0,80,0,1,,,,,,,,
,,"[""circle"",""green"",""vert"",""up"",[-106,106],[150,0]]",circle,green,vert,up,"[-106,106]","[150,0]",up,1,1.5897,,,,,,001,2025-03-11_14h26.42.344,SL_base,2021.2.3,Win32,59.88023952,,,81,0,81,0,1,,,,,,,,
,,"[""diamond"",""red"",""vert"",""up"",[0,150],[106,106]]",diamond,red,vert,up,"[0,150]","[106,106]",,0,,,,,,,001,2025-03-11_14h26.42.344,SL_base,2021.2.3,Win32,59.88023952,,,82,0,82,0,1,,,,,,,,
,,"[""circle"",""green"",""vert"",""up"",[106,-106],[106,106]]",circle,green,vert,up,"[106,-106]","[106,106]",up,1,1.8928,,,,,,001,2025-03-11_14h26.42.344,SL_base,2021.2.3,Win32,59.88023952,,,83,0,83,0,1,,,,,,,,
,,"[""diamond"",""red"",""hori"",""left"",[-106,-106],[0,-150]]",diamond,red,hori,left,"[-106,-106]","[0,-150]",left,1,1.9659,,,,,,001,2025-03-11_14h26.42.344,SL_base,2021.2.3,Win32,59.88023952,,,84,0,84,0,1,,,,,,,,
,,"[""circle"",""no_dis"",""hori"",""left"",[99999,99999],[106,106]]",circle,no_dis,hori,left,"[99999,99999]","[106,106]",left,1,1.8658,,,,,,001,2025-03-11_14h26.42.344,SL_base,2021.2.3,Win32,59.88023952,,,85,0,85,0,1,,,,,,,,
,,"[""circle"",""green"",""hori"",""left"",[-106,106],[106,-106]]",circle,green,hori,left,"[-106,106]","[106,-106]",up,0,1.4513,,,,,,001,2025-03-11_14h26.42.344,SL_base,2021.2.3,Win32,59.88023952,,,86,0,86,0,1,,,,,,,,
,,"[""circle"",""no_dis"",""vert"",""up"",[99999,99999],[-106,106]]",circle,no_dis,vert,up,"[99999,99999]","[-106,106]",left,0,0.9167,,,,,,001,2025-03-11_14h26.42.344,SL_base,2021.2.3,Win32,59.88023952,,,87,0,87,0,1,,,,,,,,
,,"[""circle"",""green"",""vert"",""up"",[106,106],[-106,106]]",circle,green,vert,up,"[106,106]","[-106,106]",left,0,2.1179,,,,,,001,2025-03-11_14h26.42.344,SL_base,2021.2.3,Win32,59.88023952,,,88,0,88,0,1,,,,,,,,
,,"[""circle"",""green"",""vert"",""up"",[106,-106],[0,150]]",circle,green,vert,up,"[106,-106]","[0,150]",up,1,1.6974,,,,,,001,2025-03-11_14h26.42.344,SL_base,2021.2.3,Win32,59.88023952,,,89,0,89,0,1,,,,,,,,
,,"[""circle"",""red"",""hori"",""left"",[-106,106],[106,106]]",circle,red,hori,left,"[-106,106]","[106,106]",left,1,2.3092,,,,,,001,2025-03-11_14h26.42.344,SL_base,2021.2.3,Win32,59.88023952,,,90,0,90,0,1,,,,,,,,
,,"[""circle"",""red"",""hori"",""left"",[106,-106],[0,-150]]",circle,red,hori,left,"[106,-106]","[0,-150]",left,1,1.5567,,,,,,001,2025-03-11_14h26.42.344,SL_base,2021.2.3,Win32,59.88023952,,,91,0,91,0,1,,,,,,,,
,,"[""diamond"",""red"",""vert"",""up"",[0,150],[106,-106]]",diamond,red,vert,up,"[0,150]","[106,-106]",up,1,1.5742,,,,,,001,2025-03-11_14h26.42.344,SL_base,2021.2.3,Win32,59.88023952,,,92,0,92,0,1,,,,,,,,
,,"[""diamond"",""no_dis"",""vert"",""up"",[99999,99999],[150,0]]",diamond,no_dis,vert,up,"[99999,99999]","[150,0]",up,1,1.8648,,,,,,001,2025-03-11_14h26.42.344,SL_base,2021.2.3,Win32,59.88023952,,,93,0,93,0,1,,,,,,,,
,,"[""circle"",""no_dis"",""hori"",""left"",[99999,99999],[-106,106]]",circle,no_dis,hori,left,"[99999,99999]","[-106,106]",left,1,1.6198,,,,,,001,2025-03-11_14h26.42.344,SL_base,2021.2.3,Win32,59.88023952,,,94,0,94,0,1,,,,,,,,
,,"[""diamond"",""red"",""hori"",""left"",[0,-150],[-106,106]]",diamond,red,hori,left,"[0,-150]","[-106,106]",left,1,2.0277,,,,,,001,2025-03-11_14h26.42.344,SL_base,2021.2.3,Win32,59.88023952,,,95,0,95,0,1,,,,,,,,
,,"[""circle"",""no_dis"",""vert"",""up"",[99999,99999],[150,0]]",circle,no_dis,vert,up,"[99999,99999]","[150,0]",up,1,1.423,,,,,,001,2025-03-11_14h26.42.344,SL_base,2021.2.3,Win32,59.88023952,,,96,0,96,0,1,,,,,,,,
,,"[""circle"",""red"",""vert"",""up"",[0,150],[-106,106]]",circle,red,vert,up,"[0,150]","[-106,106]",up,1,1.7356,,,,,,001,2025-03-11_14h26.42.344,SL_base,2021.2.3,Win32,59.88023952,,,97,0,97,0,1,,,,,,,,
,,"[""circle"",""no_dis"",""hori"",""left"",[99999,99999],[0,150]]",circle,no_dis,hori,left,"[99999,99999]","[0,150]",left,1,1.116,,,,,,001,2025-03-11_14h26.42.344,SL_base,2021.2.3,Win32,59.88023952,,,98,0,98,0,1,,,,,,,,
,,"[""circle"",""no_dis"",""vert"",""up"",[99999,99999],[-150,0]]",circle,no_dis,vert,up,"[99999,99999]","[-150,0]",up,1,1.184,,,,,,001,2025-03-11_14h26.42.344,SL_base,2021.2.3,Win32,59.88023952,,,99,0,99,0,1,,,,,,,,
,,"[""diamond"",""green"",""hori"",""left"",[106,-106],[0,150]]",diamond,green,hori,left,"[106,-106]","[0,150]",up,0,1.6497,,,,,,001,2025-03-11_14h26.42.344,SL_base,2021.2.3,Win32,59.88023952,,,100,0,100,0,1,,,,,,,,
,,"[""circle"",""green"",""vert"",""up"",[0,-150],[-106,106]]",circle,green,vert,up,"[0,-150]","[-106,106]",up,1,1.6544,,,,,,001,2025-03-11_14h26.42.344,SL_base,2021.2.3,Win32,59.88023952,,,101,0,101,0,1,,,,,,,,
,,"[""diamond"",""no_dis"",""hori"",""left"",[99999,99999],[0,150]]",diamond,no_dis,hori,left,"[99999,99999]","[0,150]",left,1,1.0784,,,,,,001,2025-03-11_14h26.42.344,SL_base,2021.2.3,Win32,59.88023952,,,102,0,102,0,1,,,,,,,,
,,"[""diamond"",""no_dis"",""vert"",""up"",[99999,99999],[106,-106]]",diamond,no_dis,vert,up,"[99999,99999]","[106,-106]",up,1,1.3018,,,,,,001,2025-03-11_14h26.42.344,SL_base,2021.2.3,Win32,59.88023952,,,103,0,103,0,1,,,,,,,,
,,"[""circle"",""no_dis"",""hori"",""left"",[99999,99999],[0,-150]]",circle,no_dis,hori,left,"[99999,99999]","[0,-150]",left,1,1.1204,,,,,,001,2025-03-11_14h26.42.344,SL_base,2021.2.3,Win32,59.88023952,,,104,0,104,0,1,,,,,,,,
,,"[""diamond"",""red"",""hori"",""left"",[106,106],[-106,-106]]",diamond,red,hori,left,"[106,106]","[-106,-106]",left,1,1.5333,,,,,,001,2025-03-11_14h26.42.344,SL_base,2021.2.3,Win32,59.88023952,,,105,0,105,0,1,,,,,,,,
,,"[""diamond"",""green"",""vert"",""up"",[0,-150],[106,-106]]",diamond,green,vert,up,"[0,-150]","[106,-106]",up,1,1.3019,,,,,,001,2025-03-11_14h26.42.344,SL_base,2021.2.3,Win32,59.88023952,,,106,0,106,0,1,,,,,,,,
,,"[""circle"",""no_dis"",""hori"",""left"",[99999,99999],[-106,106]]",circle,no_dis,hori,left,"[99999,99999]","[-106,106]",left,1,1.6666,,,,,,001,2025-03-11_14h26.42.344,SL_base,2021.2.3,Win32,59.88023952,,,107,0,107,0,1,,,,,,,,
,,"[""diamond"",""green"",""hori"",""left"",[106,106],[0,150]]",diamond,green,hori,left,"[106,106]","[0,150]",left,1,1.4669,,,,,,001,2025-03-11_14h26.42.344,SL_base,2021.2.3,Win32,59.88023952,,,108,0,108,0,1,,,,,,,,
,,"[""circle"",""green"",""hori"",""left"",[-150,0],[-106,106]]",circle,green,hori,left,"[-150,0]","[-106,106]",left,1,1.9642,,,,,,001,2025-03-11_14h26.42.344,SL_base,2021.2.3,Win32,59.88023952,,,109,0,109,0,1,,,,,,,,
,,"[""diamond"",""green"",""hori"",""left"",[-150,0],[150,0]]",diamond,green,hori,left,"[-150,0]","[150,0]",,0,,,,,,,001,2025-03-11_14h26.42.344,SL_base,2021.2.3,Win32,59.88023952,,,110,0,110,0,1,,,,,,,,
,,"[""diamond"",""no_dis"",""vert"",""up"",[99999,99999],[-150,0]]",diamond,no_dis,vert,up,"[99999,99999]","[-150,0]",up,1,2.1178,,,,,,001,2025-03-11_14h26.42.344,SL_base,2021.2.3,Win32,59.88023952,,,111,0,111,0,1,,,,,,,,
,,"[""diamond"",""green"",""hori"",""left"",[-106,-106],[-106,106]]",diamond,green,hori,left,"[-106,-106]","[-106,106]",up,0,2.3242,,,,,,001,2025-03-11_14h26.42.344,SL_base,2021.2.3,Win32,59.88023952,,,112,0,112,0,1,,,,,,,,
,,"[""circle"",""no_dis"",""vert"",""up"",[99999,99999],[0,150]]",circle,no_dis,vert,up,"[99999,99999]","[0,150]",up,1,1.339,,,,,,001,2025-03-11_14h26.42.344,SL_base,2021.2.3,Win32,59.88023952,,,113,0,113,0,1,,,,,,,,
,,"[""circle"",""green"",""hori"",""left"",[106,-106],[-106,-106]]",circle,green,hori,left,"[106,-106]","[-106,-106]",left,1,1.7824,,,,,,001,2025-03-11_14h26.42.344,SL_base,2021.2.3,Win32,59.88023952,,,114,0,114,0,1,,,,,,,,
,,"[""diamond"",""no_dis"",""vert"",""up"",[99999,99999],[-106,-106]]",diamond,no_dis,vert,up,"[99999,99999]","[-106,-106]",up,1,1.3479,,,,,,001,2025-03-11_14h26.42.344,SL_base,2021.2.3,Win32,59.88023952,,,115,0,115,0,1,,,,,,,,
,,"[""diamond"",""no_dis"",""hori"",""left"",[99999,99999],[-150,0]]",diamond,no_dis,hori,left,"[99999,99999]","[-150,0]",left,1,1.6682,,,,,,001,2025-03-11_14h26.42.344,SL_base,2021.2.3,Win32,59.88023952,,,116,0,116,0,1,,,,,,,,
,,"[""circle"",""green"",""hori"",""left"",[-106,106],[-106,-106]]",circle,green,hori,left,"[-106,106]","[-106,-106]",left,1,2.2544,,,,,,001,2025-03-11_14h26.42.344,SL_base,2021.2.3,Win32,59.88023952,,,117,0,117,0,1,,,,,,,,
,,"[""diamond"",""green"",""hori"",""left"",[0,150],[0,-150]]",diamond,green,hori,left,"[0,150]","[0,-150]",left,1,1.6003,,,,,,001,2025-03-11_14h26.42.344,SL_base,2021.2.3,Win32,59.88023952,,,118,0,118,0,1,,,,,,,,
,,"[""circle"",""red"",""vert"",""up"",[106,-106],[-106,106]]",circle,red,vert,up,"[106,-106]","[-106,106]",up,1,2.0347,,,,,,001,2025-03-11_14h26.42.344,SL_base,2021.2.3,Win32,59.88023952,,,119,0,119,0,1,,,,,,,,
,,,,,,,,,,,,,,,,,001,2025-03-11_14h26.42.344,SL_base,2021.2.3,Win32,59.88023952,,,,,,,,1,space,1.7524,0,0,0,0,1
,,"[""circle"",""red"",""hori"",""left"",[150,0],[-106,-106]]",circle,red,hori,left,"[150,0]","[-106,-106]",left,1,1.5259,,,,,,001,2025-03-11_14h26.42.344,SL_base,2021.2.3,Win32,59.88023952,,,0,0,0,0,1,,,,,,,,
,,"[""circle"",""red"",""hori"",""left"",[-106,-106],[106,106]]",circle,red,hori,left,"[-106,-106]","[106,106]",up,0,1.3504,,,,,,001,2025-03-11_14h26.42.344,SL_base,2021.2.3,Win32,59.88023952,,,1,0,1,0,1,,,,,,,,
,,"[""circle"",""no_dis"",""vert"",""up"",[99999,99999],[-106,106]]",circle,no_dis,vert,up,"[99999,99999]","[-106,106]",left,0,0.7361,,,,,,001,2025-03-11_14h26.42.344,SL_base,2021.2.3,Win32,59.88023952,,,2,0,2,0,1,,,,,,,,
,,"[""diamond"",""green"",""vert"",""up"",[150,0],[-106,-106]]",diamond,green,vert,up,"[150,0]","[-106,-106]",left,0,0.8671,,,,,,001,2025-03-11_14h26.42.344,SL_base,2021.2.3,Win32,59.88023952,,,3,0,3,0,1,,,,,,,,
,,"[""diamond"",""green"",""hori"",""left"",[106,-106],[-106,-106]]",diamond,green,hori,left,"[106,-106]","[-106,-106]",up,0,0.3191,,,,,,001,2025-03-11_14h26.42.344,SL_base,2021.2.3,Win32,59.88023952,,,4,0,4,0,1,,,,,,,,
,,"[""diamond"",""no_dis"",""hori"",""left"",[99999,99999],[106,-106]]",diamond,no_dis,hori,left,"[99999,99999]","[106,-106]",up,0,0.2632,,,,,,001,2025-03-11_14h26.42.344,SL_base,2021.2.3,Win32,59.88023952,,,5,0,5,0,1,,,,,,,,
,,"[""circle"",""no_dis"",""hori"",""left"",[99999,99999],[-106,-106]]",circle,no_dis,hori,left,"[99999,99999]","[-106,-106]",up,0,0.3021,,,,,,001,2025-03-11_14h26.42.344,SL_base,2021.2.3,Win32,59.88023952,,,6,0,6,0,1,,,,,,,,
,,"[""diamond"",""no_dis"",""hori"",""left"",[99999,99999],[-150,0]]",diamond,no_dis,hori,left,"[99999,99999]","[-150,0]",up,0,0.2675,,,,,,001,2025-03-11_14h26.42.344,SL_base,2021.2.3,Win32,59.88023952,,,7,0,7,0,1,,,,,,,,
,,"[""diamond"",""red"",""hori"",""left"",[106,-106],[-106,106]]",diamond,red,hori,left,"[106,-106]","[-106,106]",up,0,0.1957,,,,,,001,2025-03-11_14h26.42.344,SL_base,2021.2.3,Win32,59.88023952,,,8,0,8,0,1,,,,,,,,
,,"[""circle"",""green"",""vert"",""up"",[0,-150],[106,106]]",circle,green,vert,up,"[0,-150]","[106,106]",up,1,0.0174,,,,,,001,2025-03-11_14h26.42.344,SL_base,2021.2.3,Win32,59.88023952,,,9,0,9,0,1,,,,,,,,
,,"[""diamond"",""no_dis"",""hori"",""left"",[99999,99999],[-150,0]]",diamond,no_dis,hori,left,"[99999,99999]","[-150,0]",up,0,1.0403,,,,,,001,2025-03-11_14h26.42.344,SL_base,2021.2.3,Win32,59.88023952,,,10,0,10,0,1,,,,,,,,
,,"[""circle"",""no_dis"",""vert"",""up"",[99999,99999],[0,-150]]",circle,no_dis,vert,up,"[99999,99999]","[0,-150]",left,0,1.7011,,,,,,001,2025-03-11_14h26.42.344,SL_base,2021.2.3,Win32,59.88023952,,,11,0,11,0,1,,,,,,,,
,,"[""circle"",""red"",""hori"",""left"",[150,0],[0,150]]",circle,red,hori,left,"[150,0]","[0,150]",up,0,1.8675,,,,,,001,2025-03-11_14h26.42.344,SL_base,2021.2.3,Win32,59.88023952,,,12,0,12,0,1,,,,,,,,
,,"[""diamond"",""green"",""vert"",""up"",[106,-106],[0,150]]",diamond,green,vert,up,"[106,-106]","[0,150]",left,0,0.7976,,,,,,001,2025-03-11_14h26.42.344,SL_base,2021.2.3,Win32,59.88023952,,,13,0,13,0,1,,,,,,,,
,,"[""diamond"",""no_dis"",""hori"",""left"",[99999,99999],[106,-106]]",diamond,no_dis,hori,left,"[99999,99999]","[106,-106]",left,1,1.7336,,,,,,001,2025-03-11_14h26.42.344,SL_base,2021.2.3,Win32,59.88023952,,,14,0,14,0,1,,,,,,,,
,,"[""diamond"",""green"",""hori"",""left"",[-106,-106],[-106,106]]",diamond,green,hori,left,"[-106,-106]","[-106,106]",up,0,1.8344,,,,,,001,2025-03-11_14h26.42.344,SL_base,2021.2.3,Win32,59.88023952,,,15,0,15,0,1,,,,,,,,
,,"[""circle"",""green"",""hori"",""left"",[-106,-106],[-106,106]]",circle,green,hori,left,"[-106,-106]","[-106,106]",left,1,2.3524,,,,,,001,2025-03-11_14h26.42.344,SL_base,2021.2.3,Win32,59.88023952,,,16,0,16,0,1,,,,,,,,
,,"[""circle"",""green"",""vert"",""up"",[0,-150],[-106,106]]",circle,green,vert,up,"[0,-150]","[-106,106]",up,1,1.9684,,,,,,001,2025-03-11_14h26.42.344,SL_base,2021.2.3,Win32,59.88023952,,,17,0,17,0,1,,,,,,,,
,,"[""circle"",""green"",""vert"",""up"",[-106,106],[150,0]]",circle,green,vert,up,"[-106,106]","[150,0]",up,1,1.6853,,,,,,001,2025-03-11_14h26.42.344,SL_base,2021.2.3,Win32,59.88023952,,,18,0,18,0,1,,,,,,,,
,,"[""circle"",""no_dis"",""vert"",""up"",[99999,99999],[-106,106]]",circle,no_dis,vert,up,"[99999,99999]","[-106,106]",up,1,1.1178,,,,,,001,2025-03-11_14h26.42.344,SL_base,2021.2.3,Win32,59.88023952,,,19,0,19,0,1,,,,,,,,
,,"[""circle"",""green"",""hori"",""left"",[0,-150],[106,106]]",circle,green,hori,left,"[0,-150]","[106,106]",left,1,1.0847,,,,,,001,2025-03-11_14h26.42.344,SL_base,2021.2.3,Win32,59.88023952,,,20,0,20,0,1,,,,,,,,
,,"[""diamond"",""red"",""hori"",""left"",[150,0],[-150,0]]",diamond,red,hori,left,"[150,0]","[-150,0]",left,1,1.7512,,,,,,001,2025-03-11_14h26.42.344,SL_base,2021.2.3,Win32,59.88023952,,,21,0,21,0,1,,,,,,,,
,,"[""circle"",""red"",""hori"",""left"",[-106,-106],[150,0]]",circle,red,hori,left,"[-106,-106]","[150,0]",left,1,1.339,,,,,,001,2025-03-11_14h26.42.344,SL_base,2021.2.3,Win32,59.88023952,,,22,0,22,0,1,,,,,,,,
,,"[""diamond"",""green"",""hori"",""left"",[0,150],[0,-150]]",diamond,green,hori,left,"[0,150]","[0,-150]",left,1,1.5427,,,,,,001,2025-03-11_14h26.42.344,SL_base,2021.2.3,Win32,59.88023952,,,23,0,23,0,1,,,,,,,,
,,"[""circle"",""no_dis"",""hori"",""left"",[99999,99999],[0,-150]]",circle,no_dis,hori,left,"[99999,99999]","[0,-150]",left,1,1.3339,,,,,,001,2025-03-11_14h26.42.344,SL_base,2021.2.3,Win32,59.88023952,,,24,0,24,0,1,,,,,,,,
,,"[""circle"",""red"",""vert"",""up"",[106,-106],[0,150]]",circle,red,vert,up,"[106,-106]","[0,150]",up,1,1.6611,,,,,,001,2025-03-11_14h26.42.344,SL_base,2021.2.3,Win32,59.88023952,,,25,0,25,0,1,,,,,,,,
,,"[""diamond"",""red"",""vert"",""up"",[-106,106],[-106,-106]]",diamond,red,vert,up,"[-106,106]","[-106,-106]",up,1,1.7353,,,,,,001,2025-03-11_14h26.42.344,SL_base,2021.2.3,Win32,59.88023952,,,26,0,26,0,1,,,,,,,,
,,"[""circle"",""green"",""vert"",""up"",[106,106],[-106,106]]",circle,green,vert,up,"[106,106]","[-106,106]",up,1,2.1997,,,,,,001,2025-03-11_14h26.42.344,SL_base,2021.2.3,Win32,59.88023952,,,27,0,27,0,1,,,,,,,,
,,"[""circle"",""no_dis"",""vert"",""up"",[99999,99999],[0,150]]",circle,no_dis,vert,up,"[99999,99999]","[0,150]",up,1,1.9765,,,,,,001,2025-03-11_14h26.42.344,SL_base,2021.2.3,Win32,59.88023952,,,28,0,28,0,1,,,,,,,,
,,"[""circle"",""red"",""vert"",""up"",[106,-106],[-106,106]]",circle,red,vert,up,"[106,-106]","[-106,106]",left,0,2.3354,,,,,,001,2025-03-11_14h26.42.344,SL_base,2021.2.3,Win32,59.88023952,,,29,0,29,0,1,,,,,,,,
,,"[""circle"",""red"",""vert"",""up"",[150,0],[-106,106]]",circle,red,vert,up,"[150,0]","[-106,106]",up,1,2.2342,,,,,,001,2025-03-11_14h26.42.344,SL_base,2021.2.3,Win32,59.88023952,,,30,0,30,0,1,,,,,,,,
,,"[""circle"",""green"",""hori"",""left"",[-150,0],[106,106]]",circle,green,hori,left,"[-150,0]","[106,106]",up,0,2.6513,,,,,,001,2025-03-11_14h26.42.344,SL_base,2021.2.3,Win32,59.88023952,,,31,0,31,0,1,,,,,,,,
,,"[""circle"",""red"",""vert"",""up"",[0,150],[-106,106]]",circle,red,vert,up,"[0,150]","[-106,106]",,0,,,,,,,001,2025-03-11_14h26.42.344,SL_base,2021.2.3,Win32,59.88023952,,,32,0,32,0,1,,,,,,,,
,,"[""diamond"",""red"",""vert"",""up"",[0,150],[106,106]]",diamond,red,vert,up,"[0,150]","[106,106]",up,1,2.1507,,,,,,001,2025-03-11_14h26.42.344,SL_base,2021.2.3,Win32,59.88023952,,,33,0,33,0,1,,,,,,,,
,,"[""circle"",""no_dis"",""hori"",""left"",[99999,99999],[-106,106]]",circle,no_dis,hori,left,"[99999,99999]","[-106,106]",left,1,1.2701,,,,,,001,2025-03-11_14h26.42.344,SL_base,2021.2.3,Win32,59.88023952,,,34,0,34,0,1,,,,,,,,
,,"[""circle"",""no_dis"",""vert"",""up"",[99999,99999],[106,106]]",circle,no_dis,vert,up,"[99999,99999]","[106,106]",up,1,2.2858,,,,,,001,2025-03-11_14h26.42.344,SL_base,2021.2.3,Win32,59.88023952,,,35,0,35,0,1,,,,,,,,
,,"[""circle"",""no_dis"",""vert"",""up"",[99999,99999],[150,0]]",circle,no_dis,vert,up,"[99999,99999]","[150,0]",up,1,1.9666,,,,,,001,2025-03-11_14h26.42.344,SL_base,2021.2.3,Win32,59.88023952,,,36,0,36,0,1,,,,,,,,
,,"[""circle"",""green"",""hori"",""left"",[106,-106],[-106,-106]]",circle,green,hori,left,"[106,-106]","[-106,-106]",left,1,2.4213,,,,,,001,2025-03-11_14h26.42.344,SL_base,2021.2.3,Win32,59.88023952,,,37,0,37,0,1,,,,,,,,
,,"[""diamond"",""green"",""vert"",""up"",[0,150],[106,-106]]",diamond,green,vert,up,"[0,150]","[106,-106]",up,1,1.4539,,,,,,001,2025-03-11_14h26.42.344,SL_base,2021.2.3,Win32,59.88023952,,,38,0,38,0,1,,,,,,,,
,,"[""diamond"",""red"",""hori"",""left"",[-106,-106],[0,-150]]",diamond,red,hori,left,"[-106,-106]","[0,-150]",left,1,2.3508,,,,,,001,2025-03-11_14h26.42.344,SL_base,2021.2.3,Win32,59.88023952,,,39,0,39,0,1,,,,,,,,
,,"[""circle"",""no_dis"",""hori"",""left"",[99999,99999],[0,150]]",circle,no_dis,hori,left,"[99999,99999]","[0,150]",up,0,1.9198,,,,,,001,2025-03-11_14h26.42.344,SL_base,2021.2.3,Win32,59.88023952,,,40,0,40,0,1,,,,,,,,
,,"[""diamond"",""no_dis"",""hori"",""left"",[99999,99999],[106,106]]",diamond,no_dis,hori,left,"[99999,99999]","[106,106]",left,1,1.3935,,,,,,001,2025-03-11_14h26.42.344,SL_base,2021.2.3,Win32,59.88023952,,,41,0,41,0,1,,,,,,,,
,,"[""diamond"",""no_dis"",""vert"",""up"",[99999,99999],[-106,-106]]",diamond,no_dis,vert,up,"[99999,99999]","[-106,-106]",up,1,1.535,,,,,,001,2025-03-11_14h26.42.344,SL_base,2021.2.3,Win32,59.88023952,,,42,0,42,0,1,,,,,,,,
,,"[""diamond"",""no_dis"",""vert"",""up"",[99999,99999],[-106,-106]]",diamond,no_dis,vert,up,"[99999,99999]","[-106,-106]",up,1,1.7009,,,,,,001,2025-03-11_14h26.42.344,SL_base,2021.2.3,Win32,59.88023952,,,43,0,43,0,1,,,,,,,,
,,"[""circle"",""red"",""vert"",""up"",[106,-106],[150,0]]",circle,red,vert,up,"[106,-106]","[150,0]",up,1,1.7495,,,,,,001,2025-03-11_14h26.42.344,SL_base,2021.2.3,Win32,59.88023952,,,44,0,44,0,1,,,,,,,,
,,"[""circle"",""red"",""vert"",""up"",[-150,0],[150,0]]",circle,red,vert,up,"[-150,0]","[150,0]",left,0,1.7,,,,,,001,2025-03-11_14h26.42.344,SL_base,2021.2.3,Win32,59.88023952,,,45,0,45,0,1,,,,,,,,
,,"[""circle"",""no_dis"",""hori"",""left"",[99999,99999],[106,-106]]",circle,no_dis,hori,left,"[99999,99999]","[106,-106]",up,0,2.4329,,,,,,001,2025-03-11_14h26.42.344,SL_base,2021.2.3,Win32,59.88023952,,,46,0,46,0,1,,,,,,,,
,,"[""diamond"",""no_dis"",""vert"",""up"",[99999,99999],[-106,-106]]",diamond,no_dis,vert,up,"[99999,99999]","[-106,-106]",up,1,2.2209,,,,,,001,2025-03-11_14h26.42.344,SL_base,2021.2.3,Win32,59.88023952,,,47,0,47,0,1,,,,,,,,
,,"[""diamond"",""green"",""hori"",""left"",[106,-106],[-106,106]]",diamond,green,hori,left,"[106,-106]","[-106,106]",left,1,2.268,,,,,,001,2025-03-11_14h26.42.344,SL_base,2021.2.3,Win32,59.88023952,,,48,0,48,0,1,,,,,,,,
,,"[""diamond"",""red"",""vert"",""up"",[0,150],[106,-106]]",diamond,red,vert,up,"[0,150]","[106,-106]",up,1,1.3328,,,,,,001,2025-03-11_14h26.42.344,SL_base,2021.2.3,Win32,59.88023952,,,49,0,49,0,1,,,,,,,,
,,"[""circle"",""no_dis"",""hori"",""left"",[99999,99999],[0,-150]]",circle,no_dis,hori,left,"[99999,99999]","[0,-150]",left,1,1.3537,,,,,,001,2025-03-11_14h26.42.344,SL_base,2021.2.3,Win32,59.88023952,,,50,0,50,0,1,,,,,,,,
,,"[""diamond"",""red"",""hori"",""left"",[106,106],[106,-106]]",diamond,red,hori,left,"[106,106]","[106,-106]",left,1,1.8024,,,,,,001,2025-03-11_14h26.42.344,SL_base,2021.2.3,Win32,59.88023952,,,51,0,51,0,1,,,,,,,,
,,"[""circle"",""red"",""vert"",""up"",[150,0],[-150,0]]",circle,red,vert,up,"[150,0]","[-150,0]",up,1,1.3335,,,,,,001,2025-03-11_14h26.42.344,SL_base,2021.2.3,Win32,59.88023952,,,52,0,52,0,1,,,,,,,,
,,"[""diamond"",""red"",""hori"",""left"",[106,106],[-106,-106]]",diamond,red,hori,left,"[106,106]","[-106,-106]",left,1,1.794,,,,,,001,2025-03-11_14h26.42.344,SL_base,2021.2.3,Win32,59.88023952,,,53,0,53,0,1,,,,,,,,
,,"[""diamond"",""red"",""vert"",""up"",[106,-106],[-150,0]]",diamond,red,vert,up,"[106,-106]","[-150,0]",up,1,1.9463,,,,,,001,2025-03-11_14h26.42.344,SL_base,2021.2.3,Win32,59.88023952,,,54,0,54,0,1,,,,,,,,
,,"[""diamond"",""red"",""vert"",""up"",[-106,106],[106,-106]]",diamond,red,vert,up,"[-106,106]","[106,-106]",up,1,1.3797,,,,,,001,2025-03-11_14h26.42.344,SL_base,2021.2.3,Win32,59.88023952,,,55,0,55,0,1,,,,,,,,
,,"[""diamond"",""green"",""hori"",""left"",[106,106],[-106,-106]]",diamond,green,hori,left,"[106,106]","[-106,-106]",left,1,1.5452,,,,,,001,2025-03-11_14h26.42.344,SL_base,2021.2.3,Win32,59.88023952,,,56,0,56,0,1,,,,,,,,
,,"[""circle"",""green"",""vert"",""up"",[106,-106],[106,106]]",circle,green,vert,up,"[106,-106]","[106,106]",up,1,1.3339,,,,,,001,2025-03-11_14h26.42.344,SL_base,2021.2.3,Win32,59.88023952,,,57,0,57,0,1,,,,,,,,
,,"[""circle"",""no_dis"",""hori"",""left"",[99999,99999],[106,106]]",circle,no_dis,hori,left,"[99999,99999]","[106,106]",left,1,1.9789,,,,,,001,2025-03-11_14h26.42.344,SL_base,2021.2.3,Win32,59.88023952,,,58,0,58,0,1,,,,,,,,
,,"[""circle"",""green"",""vert"",""up"",[106,-106],[-106,106]]",circle,green,vert,up,"[106,-106]","[-106,106]",up,1,1.2163,,,,,,001,2025-03-11_14h26.42.344,SL_base,2021.2.3,Win32,59.88023952,,,59,0,59,0,1,,,,,,,,
,,"[""circle"",""green"",""vert"",""up"",[106,-106],[0,150]]",circle,green,vert,up,"[106,-106]","[0,150]",up,1,1.1843,,,,,,001,2025-03-11_14h26.42.344,SL_base,2021.2.3,Win32,59.88023952,,,60,0,60,0,1,,,,,,,,
,,"[""diamond"",""red"",""hori"",""left"",[106,106],[106,-106]]",diamond,red,hori,left,"[106,106]","[106,-106]",left,1,1.6339,,,,,,001,2025-03-11_14h26.42.344,SL_base,2021.2.3,Win32,59.88023952,,,61,0,61,0,1,,,,,,,,
,,"[""diamond"",""green"",""hori"",""left"",[0,150],[-150,0]]",diamond,green,hori,left,"[0,150]","[-150,0]",up,0,1.9112,,,,,,001,2025-03-11_14h26.42.344,SL_base,2021.2.3,Win32,59.88023952,,,62,0,62,0,1,,,,,,,,
,,"[""diamond"",""no_dis"",""hori"",""left"",[99999,99999],[-106,106]]",diamond,no_dis,hori,left,"[99999,99999]","[-106,106]",left,1,1.4192,,,,,,001,2025-03-11_14h26.42.344,SL_base,2021.2.3,Win32,59.88023952,,,63,0,63,0,1,,,,,,,,
,,"[""diamond"",""green"",""hori"",""left"",[106,-106],[106,106]]",diamond,green,hori,left,"[106,-106]","[106,106]",left,1,2.4334,,,,,,001,2025-03-11_14h26.42.344,SL_base,2021.2.3,Win32,59.88023952,,,64,0,64,0,1,,,,,,,,
,,"[""diamond"",""green"",""hori"",""left"",[106,-106],[0,150]]",diamond,green,hori,left,"[106,-106]","[0,150]",left,1,1.1014,,,,,,001,2025-03-11_14h26.42.344,SL_base,2021.2.3,Win32,59.88023952,,,65,0,65,0,1,,,,,,,,
,,"[""circle"",""no_dis"",""hori"",""left"",[99999,99999],[-106,106]]",circle,no_dis,hori,left,"[99999,99999]","[-106,106]",left,1,1.0671,,,,,,001,2025-03-11_14h26.42.344,SL_base,2021.2.3,Win32,59.88023952,,,66,0,66,0,1,,,,,,,,
,,"[""diamond"",""no_dis"",""hori"",""left"",[99999,99999],[0,150]]",diamond,no_dis,hori,left,"[99999,99999]","[0,150]",left,1,2.184,,,,,,001,2025-03-11_14h26.42.344,SL_base,2021.2.3,Win32,59.88023952,,,67,0,67,0,1,,,,,,,,
,,"[""diamond"",""red"",""hori"",""left"",[0,-150],[-106,106]]",diamond,red,hori,left,"[0,-150]","[-106,106]",left,1,1.1328,,,,,,001,2025-03-11_14h26.42.344,SL_base,2021.2.3,Win32,59.88023952,,,68,0,68,0,1,,,,,,,,
,,"[""diamond"",""red"",""vert"",""up"",[106,106],[0,-150]]",diamond,red,vert,up,"[106,106]","[0,-150]",up,1,1.4587,,,,,,001,2025-03-11_14h26.42.344,SL_base,2021.2.3,Win32,59.88023952,,,69,0,69,0,1,,,,,,,,
,,"[""diamond"",""no_dis"",""hori"",""left"",[99999,99999],[-106,-106]]",diamond,no_dis,hori,left,"[99999,99999]","[-106,-106]",left,1,1.4189,,,,,,001,2025-03-11_14h26.42.344,SL_base,2021.2.3,Win32,59.88023952,,,70,0,70,0,1,,,,,,,,
,,"[""diamond"",""green"",""vert"",""up"",[106,-106],[0,150]]",diamond,green,vert,up,"[106,-106]","[0,150]",up,1,1.2831,,,,,,001,2025-03-11_14h26.42.344,SL_base,2021.2.3,Win32,59.88023952,,,71,0,71,0,1,,,,,,,,
,,"[""circle"",""red"",""hori"",""left"",[-106,106],[106,106]]",circle,red,hori,left,"[-106,106]","[106,106]",left,1,2.0985,,,,,,001,2025-03-11_14h26.42.344,SL_base,2021.2.3,Win32,59.88023952,,,72,0,72,0,1,,,,,,,,
,,"[""diamond"",""green"",""vert"",""up"",[0,-150],[0,150]]",diamond,green,vert,up,"[0,-150]","[0,150]",up,1,1.7292,,,,,,001,2025-03-11_14h26.42.344,SL_base,2021.2.3,Win32,59.88023952,,,73,0,73,0,1,,,,,,,,
,,"[""diamond"",""red"",""vert"",""up"",[-106,-106],[0,150]]",diamond,red,vert,up,"[-106,-106]","[0,150]",up,1,1.7724,,,,,,001,2025-03-11_14h26.42.344,SL_base,2021.2.3,Win32,59.88023952,,,74,0,74,0,1,,,,,,,,
,,"[""circle"",""green"",""hori"",""left"",[0,150],[-150,0]]",circle,green,hori,left,"[0,150]","[-150,0]",left,1,1.4855,,,,,,001,2025-03-11_14h26.42.344,SL_base,2021.2.3,Win32,59.88023952,,,75,0,75,0,1,,,,,,,,
,,"[""circle"",""green"",""hori"",""left"",[-150,0],[-106,106]]",circle,green,hori,left,"[-150,0]","[-106,106]",up,0,1.8752,,,,,,001,2025-03-11_14h26.42.344,SL_base,2021.2.3,Win32,59.88023952,,,76,0,76,0,1,,,,,,,,
,,"[""circle"",""green"",""vert"",""up"",[0,-150],[0,150]]",circle,green,vert,up,"[0,-150]","[0,150]",up,1,1.9436,,,,,,001,2025-03-11_14h26.42.344,SL_base,2021.2.3,Win32,59.88023952,,,77,0,77,0,1,,,,,,,,
,,"[""circle"",""green"",""vert"",""up"",[-150,0],[106,106]]",circle,green,vert,up,"[-150,0]","[106,106]",left,0,2.2501,,,,,,001,2025-03-11_14h26.42.344,SL_base,2021.2.3,Win32,59.88023952,,,78,0,78,0,1,,,,,,,,
,,"[""diamond"",""red"",""vert"",""up"",[106,-106],[106,106]]",diamond,red,vert,up,"[106,-106]","[106,106]",up,1,1.4663,,,,,,001,2025-03-11_14h26.42.344,SL_base,2021.2.3,Win32,59.88023952,,,79,0,79,0,1,,,,,,,,
,,"[""diamond"",""no_dis"",""vert"",""up"",[99999,99999],[150,0]]",diamond,no_dis,vert,up,"[99999,99999]","[150,0]",up,1,1.5667,,,,,,001,2025-03-11_14h26.42.344,SL_base,2021.2.3,Win32,59.88023952,,,80,0,80,0,1,,,,,,,,
,,"[""diamond"",""green"",""vert"",""up"",[0,-150],[106,-106]]",diamond,green,vert,up,"[0,-150]","[106,-106]",up,1,1.2509,,,,,,001,2025-03-11_14h26.42.344,SL_base,2021.2.3,Win32,59.88023952,,,81,0,81,0,1,,,,,,,,
,,"[""circle"",""green"",""hori"",""left"",[106,-106],[0,-150]]",circle,green,hori,left,"[106,-106]","[0,-150]",left,1,2.3373,,,,,,001,2025-03-11_14h26.42.344,SL_base,2021.2.3,Win32,59.88023952,,,82,0,82,0,1,,,,,,,,
,,"[""diamond"",""green"",""vert"",""up"",[0,-150],[-150,0]]",diamond,green,vert,up,"[0,-150]","[-150,0]",up,1,2.1599,,,,,,001,2025-03-11_14h26.42.344,SL_base,2021.2.3,Win32,59.88023952,,,83,0,83,0,1,,,,,,,,
,,"[""diamond"",""no_dis"",""hori"",""left"",[99999,99999],[150,0]]",diamond,no_dis,hori,left,"[99999,99999]","[150,0]",left,1,2.0655,,,,,,001,2025-03-11_14h26.42.344,SL_base,2021.2.3,Win32,59.88023952,,,84,0,84,0,1,,,,,,,,
,,"[""circle"",""red"",""vert"",""up"",[106,106],[-150,0]]",circle,red,vert,up,"[106,106]","[-150,0]",up,1,2.2654,,,,,,001,2025-03-11_14h26.42.344,SL_base,2021.2.3,Win32,59.88023952,,,85,0,85,0,1,,,,,,,,
,,"[""diamond"",""no_dis"",""vert"",""up"",[99999,99999],[0,-150]]",diamond,no_dis,vert,up,"[99999,99999]","[0,-150]",up,1,1.8502,,,,,,001,2025-03-11_14h26.42.344,SL_base,2021.2.3,Win32,59.88023952,,,86,0,86,0,1,,,,,,,,
,,"[""circle"",""red"",""vert"",""up"",[-150,0],[-106,-106]]",circle,red,vert,up,"[-150,0]","[-106,-106]",up,1,1.5533,,,,,,001,2025-03-11_14h26.42.344,SL_base,2021.2.3,Win32,59.88023952,,,87,0,87,0,1,,,,,,,,
,,"[""diamond"",""no_dis"",""vert"",""up"",[99999,99999],[106,-106]]",diamond,no_dis,vert,up,"[99999,99999]","[106,-106]",up,1,1.767,,,,,,001,2025-03-11_14h26.42.344,SL_base,2021.2.3,Win32,59.88023952,,,88,0,88,0,1,,,,,,,,
,,"[""diamond"",""green"",""vert"",""up"",[-150,0],[0,-150]]",diamond,green,vert,up,"[-150,0]","[0,-150]",up,1,1.4169,,,,,,001,2025-03-11_14h26.42.344,SL_base,2021.2.3,Win32,59.88023952,,,89,0,89,0,1,,,,,,,,
,,"[""circle"",""no_dis"",""hori"",""left"",[99999,99999],[-150,0]]",circle,no_dis,hori,left,"[99999,99999]","[-150,0]",left,1,1.6397,,,,,,001,2025-03-11_14h26.42.344,SL_base,2021.2.3,Win32,59.88023952,,,90,0,90,0,1,,,,,,,,
,,"[""diamond"",""green"",""vert"",""up"",[-106,-106],[-150,0]]",diamond,green,vert,up,"[-106,-106]","[-150,0]",up,1,2.2993,,,,,,001,2025-03-11_14h26.42.344,SL_base,2021.2.3,Win32,59.88023952,,,91,0,91,0,1,,,,,,,,
,,"[""diamond"",""green"",""hori"",""left"",[-150,0],[150,0]]",diamond,green,hori,left,"[-150,0]","[150,0]",left,1,1.7656,,,,,,001,2025-03-11_14h26.42.344,SL_base,2021.2.3,Win32,59.88023952,,,92,0,92,0,1,,,,,,,,
,,"[""diamond"",""green"",""hori"",""left"",[106,106],[0,150]]",diamond,green,hori,left,"[106,106]","[0,150]",left,1,2.0668,,,,,,001,2025-03-11_14h26.42.344,SL_base,2021.2.3,Win32,59.88023952,,,93,0,93,0,1,,,,,,,,
,,"[""diamond"",""no_dis"",""vert"",""up"",[99999,99999],[106,106]]",diamond,no_dis,vert,up,"[99999,99999]","[106,106]",up,1,1.755,,,,,,001,2025-03-11_14h26.42.344,SL_base,2021.2.3,Win32,59.88023952,,,94,0,94,0,1,,,,,,,,
,,"[""circle"",""no_dis"",""vert"",""up"",[99999,99999],[0,-150]]",circle,no_dis,vert,up,"[99999,99999]","[0,-150]",left,0,2.1835,,,,,,001,2025-03-11_14h26.42.344,SL_base,2021.2.3,Win32,59.88023952,,,95,0,95,0,1,,,,,,,,
,,"[""circle"",""no_dis"",""vert"",""up"",[99999,99999],[0,150]]",circle,no_dis,vert,up,"[99999,99999]","[0,150]",up,1,0.5511,,,,,,001,2025-03-11_14h26.42.344,SL_base,2021.2.3,Win32,59.88023952,,,96,0,96,0,1,,,,,,,,
,,"[""circle"",""red"",""hori"",""left"",[106,-106],[0,-150]]",circle,red,hori,left,"[106,-106]","[0,-150]",left,1,1.685,,,,,,001,2025-03-11_14h26.42.344,SL_base,2021.2.3,Win32,59.88023952,,,97,0,97,0,1,,,,,,,,
,,"[""diamond"",""red"",""hori"",""left"",[106,-106],[0,-150]]",diamond,red,hori,left,"[106,-106]","[0,-150]",up,0,1.9377,,,,,,001,2025-03-11_14h26.42.344,SL_base,2021.2.3,Win32,59.88023952,,,98,0,98,0,1,,,,,,,,
,,"[""diamond"",""no_dis"",""vert"",""up"",[99999,99999],[106,-106]]",diamond,no_dis,vert,up,"[99999,99999]","[106,-106]",up,1,1.0553,,,,,,001,2025-03-11_14h26.42.344,SL_base,2021.2.3,Win32,59.88023952,,,99,0,99,0,1,,,,,,,,
,,"[""diamond"",""red"",""hori"",""left"",[106,-106],[-106,-106]]",diamond,red,hori,left,"[106,-106]","[-106,-106]",left,1,1.8452,,,,,,001,2025-03-11_14h26.42.344,SL_base,2021.2.3,Win32,59.88023952,,,100,0,100,0,1,,,,,,,,
,,"[""circle"",""red"",""hori"",""left"",[-106,106],[0,150]]",circle,red,hori,left,"[-106,106]","[0,150]",left,1,1.5645,,,,,,001,2025-03-11_14h26.42.344,SL_base,2021.2.3,Win32,59.88023952,,,101,0,101,0,1,,,,,,,,
,,"[""circle"",""green"",""vert"",""up"",[-106,-106],[-150,0]]",circle,green,vert,up,"[-106,-106]","[-150,0]",up,1,1.9003,,,,,,001,2025-03-11_14h26.42.344,SL_base,2021.2.3,Win32,59.88023952,,,102,0,102,0,1,,,,,,,,
,,"[""circle"",""green"",""hori"",""left"",[-106,106],[106,-106]]",circle,green,hori,left,"[-106,106]","[106,-106]",left,1,1.5458,,,,,,001,2025-03-11_14h26.42.344,SL_base,2021.2.3,Win32,59.88023952,,,103,0,103,0,1,,,,,,,,
,,"[""circle"",""red"",""hori"",""left"",[106,-106],[150,0]]",circle,red,hori,left,"[106,-106]","[150,0]",left,1,1.7018,,,,,,001,2025-03-11_14h26.42.344,SL_base,2021.2.3,Win32,59.88023952,,,104,0,104,0,1,,,,,,,,
,,"[""circle"",""no_dis"",""vert"",""up"",[99999,99999],[150,0]]",circle,no_dis,vert,up,"[99999,99999]","[150,0]",left,0,1.6135,,,,,,001,2025-03-11_14h26.42.344,SL_base,2021.2.3,Win32,59.88023952,,,105,0,105,0,1,,,,,,,,
,,"[""circle"",""green"",""hori"",""left"",[0,150],[-106,-106]]",circle,green,hori,left,"[0,150]","[-106,-106]",left,1,1.7735,,,,,,001,2025-03-11_14h26.42.344,SL_base,2021.2.3,Win32,59.88023952,,,106,0,106,0,1,,,,,,,,
,,"[""circle"",""no_dis"",""hori"",""left"",[99999,99999],[0,150]]",circle,no_dis,hori,left,"[99999,99999]","[0,150]",left,1,1.6835,,,,,,001,2025-03-11_14h26.42.344,SL_base,2021.2.3,Win32,59.88023952,,,107,0,107,0,1,,,,,,,,
,,"[""diamond"",""no_dis"",""vert"",""up"",[99999,99999],[-150,0]]",diamond,no_dis,vert,up,"[99999,99999]","[-150,0]",up,1,1.9047,,,,,,001,2025-03-11_14h26.42.344,SL_base,2021.2.3,Win32,59.88023952,,,108,0,108,0,1,,,,,,,,
,,"[""diamond"",""green"",""vert"",""up"",[106,-106],[150,0]]",diamond,green,vert,up,"[106,-106]","[150,0]",up,1,1.4652,,,,,,001,2025-03-11_14h26.42.344,SL_base,2021.2.3,Win32,59.88023952,,,109,0,109,0,1,,,,,,,,
,,"[""circle"",""red"",""vert"",""up"",[106,-106],[106,106]]",circle,red,vert,up,"[106,-106]","[106,106]",up,1,2.1348,,,,,,001,2025-03-11_14h26.42.344,SL_base,2021.2.3,Win32,59.88023952,,,110,0,110,0,1,,,,,,,,
,,"[""circle"",""green"",""hori"",""left"",[-106,106],[-106,-106]]",circle,green,hori,left,"[-106,106]","[-106,-106]",left,1,1.8831,,,,,,001,2025-03-11_14h26.42.344,SL_base,2021.2.3,Win32,59.88023952,,,111,0,111,0,1,,,,,,,,
,,"[""circle"",""red"",""hori"",""left"",[150,0],[106,106]]",circle,red,hori,left,"[150,0]","[106,106]",left,1,1.6997,,,,,,001,2025-03-11_14h26.42.344,SL_base,2021.2.3,Win32,59.88023952,,,112,0,112,0,1,,,,,,,,
,,"[""diamond"",""no_dis"",""hori"",""left"",[99999,99999],[106,106]]",diamond,no_dis,hori,left,"[99999,99999]","[106,106]",left,1,1.6315,,,,,,001,2025-03-11_14h26.42.344,SL_base,2021.2.3,Win32,59.88023952,,,113,0,113,0,1,,,,,,,,
,,"[""circle"",""no_dis"",""vert"",""up"",[99999,99999],[-150,0]]",circle,no_dis,vert,up,"[99999,99999]","[-150,0]",up,1,1.5662,,,,,,001,2025-03-11_14h26.42.344,SL_base,2021.2.3,Win32,59.88023952,,,114,0,114,0,1,,,,,,,,
,,"[""diamond"",""red"",""vert"",""up"",[150,0],[0,-150]]",diamond,red,vert,up,"[150,0]","[0,-150]",up,1,1.968,,,,,,001,2025-03-11_14h26.42.344,SL_base,2021.2.3,Win32,59.88023952,,,115,0,115,0,1,,,,,,,,
,,"[""diamond"",""red"",""vert"",""up"",[106,-106],[-106,-106]]",diamond,red,vert,up,"[106,-106]","[-106,-106]",up,1,1.2486,,,,,,001,2025-03-11_14h26.42.344,SL_base,2021.2.3,Win32,59.88023952,,,116,0,116,0,1,,,,,,,,
,,"[""circle"",""red"",""hori"",""left"",[-150,0],[-106,-106]]",circle,red,hori,left,"[-150,0]","[-106,-106]",left,1,1.1874,,,,,,001,2025-03-11_14h26.42.344,SL_base,2021.2.3,Win32,59.88023952,,,117,0,117,0,1,,,,,,,,
,,"[""diamond"",""no_dis"",""vert"",""up"",[99999,99999],[150,0]]",diamond,no_dis,vert,up,"[99999,99999]","[150,0]",up,1,1.4726,,,,,,001,2025-03-11_14h26.42.344,SL_base,2021.2.3,Win32,59.88023952,,,118,0,118,0,1,,,,,,,,
,,"[""diamond"",""red"",""hori"",""left"",[-106,106],[150,0]]",diamond,red,hori,left,"[-106,106]","[150,0]",left,1,1.7312,,,,,,001,2025-03-11_14h26.42.344,SL_base,2021.2.3,Win32,59.88023952,,,119,0,119,0,1,,,,,,,,
,,,,,,,,,,,,,,,,,001,2025-03-11_14h26.42.344,SL_base,2021.2.3,Win32,59.88023952,,,,,,,,2,space,112.9032,1,0,1,0,1
,,"[""diamond"",""green"",""vert"",""up"",[-106,-106],[-150,0]]",diamond,green,vert,up,"[-106,-106]","[-150,0]",left,0,2.1007,,,,,,001,2025-03-11_14h26.42.344,SL_base,2021.2.3,Win32,59.88023952,,,0,0,0,0,1,,,,,,,,
,,"[""diamond"",""no_dis"",""hori"",""left"",[99999,99999],[-106,-106]]",diamond,no_dis,hori,left,"[99999,99999]","[-106,-106]",left,1,1.7572,,,,,,001,2025-03-11_14h26.42.344,SL_base,2021.2.3,Win32,59.88023952,,,1,0,1,0,1,,,,,,,,
,,"[""circle"",""red"",""hori"",""left"",[150,0],[106,106]]",circle,red,hori,left,"[150,0]","[106,106]",left,1,1.9224,,,,,,001,2025-03-11_14h26.42.344,SL_base,2021.2.3,Win32,59.88023952,,,2,0,2,0,1,,,,,,,,
,,"[""circle"",""green"",""hori"",""left"",[-106,106],[-106,-106]]",circle,green,hori,left,"[-106,106]","[-106,-106]",left,1,1.4999,,,,,,001,2025-03-11_14h26.42.344,SL_base,2021.2.3,Win32,59.88023952,,,3,0,3,0,1,,,,,,,,
,,"[""diamond"",""green"",""vert"",""up"",[106,-106],[0,150]]",diamond,green,vert,up,"[106,-106]","[0,150]",up,1,1.1485,,,,,,001,2025-03-11_14h26.42.344,SL_base,2021.2.3,Win32,59.88023952,,,4,0,4,0,1,,,,,,,,
,,"[""circle"",""red"",""vert"",""up"",[106,-106],[150,0]]",circle,red,vert,up,"[106,-106]","[150,0]",up,1,1.2356,,,,,,001,2025-03-11_14h26.42.344,SL_base,2021.2.3,Win32,59.88023952,,,5,0,5,0,1,,,,,,,,
,,"[""diamond"",""green"",""hori"",""left"",[106,-106],[-106,-106]]",diamond,green,hori,left,"[106,-106]","[-106,-106]",left,1,1.4837,,,,,,001,2025-03-11_14h26.42.344,SL_base,2021.2.3,Win32,59.88023952,,,6,0,6,0,1,,,,,,,,
,,"[""circle"",""red"",""vert"",""up"",[-150,0],[-106,-106]]",circle,red,vert,up,"[-150,0]","[-106,-106]",left,0,1.4685,,,,,,001,2025-03-11_14h26.42.344,SL_base,2021.2.3,Win32,59.88023952,,,7,0,7,0,1,,,,,,,,
,,"[""circle"",""no_dis"",""hori"",""left"",[99999,99999],[-106,-106]]",circle,no_dis,hori,left,"[99999,99999]","[-106,-106]",left,1,1.1207,,,,,,001,2025-03-11_14h26.42.344,SL_base,2021.2.3,Win32,59.88023952,,,8,0,8,0,1,,,,,,,,
,,"[""circle"",""no_dis"",""vert"",""up"",[99999,99999],[150,0]]",circle,no_dis,vert,up,"[99999,99999]","[150,0]",up,1,0.8826,,,,,,001,2025-03-11_14h26.42.344,SL_base,2021.2.3,Win32,59.88023952,,,9,0,9,0,1,,,,,,,,
,,"[""diamond"",""no_dis"",""hori"",""left"",[99999,99999],[106,106]]",diamond,no_dis,hori,left,"[99999,99999]","[106,106]",left,1,1.2708,,,,,,001,2025-03-11_14h26.42.344,SL_base,2021.2.3,Win32,59.88023952,,,10,0,10,0,1,,,,,,,,
,,"[""diamond"",""red"",""hori"",""left"",[150,0],[-150,0]]",diamond,red,hori,left,"[150,0]","[-150,0]",left,1,1.0333,,,,,,001,2025-03-11_14h26.42.344,SL_base,2021.2.3,Win32,59.88023952,,,11,0,11,0,1,,,,,,,,
,,"[""circle"",""no_dis"",""hori"",""left"",[99999,99999],[106,-106]]",circle,no_dis,hori,left,"[99999,99999]","[106,-106]",left,1,1.1339,,,,,,001,2025-03-11_14h26.42.344,SL_base,2021.2.3,Win32,59.88023952,,,12,0,12,0,1,,,,,,,,
,,"[""circle"",""red"",""vert"",""up"",[106,-106],[-106,106]]",circle,red,vert,up,"[106,-106]","[-106,106]",up,1,1.0837,,,,,,001,2025-03-11_14h26.42.344,SL_base,2021.2.3,Win32,59.88023952,,,13,0,13,0,1,,,,,,,,
,,"[""diamond"",""green"",""vert"",""up"",[106,-106],[0,150]]",diamond,green,vert,up,"[106,-106]","[0,150]",left,0,1.0249,,,,,,001,2025-03-11_14h26.42.344,SL_base,2021.2.3,Win32,59.88023952,,,14,0,14,0,1,,,,,,,,
,,"[""diamond"",""red"",""hori"",""left"",[106,-106],[-106,-106]]",diamond,red,hori,left,"[106,-106]","[-106,-106]",left,1,1.4831,,,,,,001,2025-03-11_14h26.42.344,SL_base,2021.2.3,Win32,59.88023952,,,15,0,15,0,1,,,,,,,,
,,"[""circle"",""green"",""hori"",""left"",[106,-106],[-106,-106]]",circle,green,hori,left,"[106,-106]","[-106,-106]",up,0,0.9486,,,,,,001,2025-03-11_14h26.42.344,SL_base,2021.2.3,Win32,59.88023952,,,16,0,16,0,1,,,,,,,,
,,"[""diamond"",""red"",""vert"",""up"",[-106,-106],[0,150]]",diamond,red,vert,up,"[-106,-106]","[0,150]",up,1,1.6186,,,,,,001,2025-03-11_14h26.42.344,SL_base,2021.2.3,Win32,59.88023952,,,17,0,17,0,1,,,,,,,,
,,"[""diamond"",""green"",""hori"",""left"",[0,150],[-150,0]]",diamond,green,hori,left,"[0,150]","[-150,0]",left,1,0.9496,,,,,,001,2025-03-11_14h26.42.344,SL_base,2021.2.3,Win32,59.88023952,,,18,0,18,0,1,,,,,,,,
,,"[""diamond"",""red"",""hori"",""left"",[-106,-106],[0,-150]]",diamond,red,hori,left,"[-106,-106]","[0,-150]",left,1,1.872,,,,,,001,2025-03-11_14h26.42.344,SL_base,2021.2.3,Win32,59.88023952,,,19,0,19,0,1,,,,,,,,
,,"[""circle"",""red"",""hori"",""left"",[-106,-106],[150,0]]",circle,red,hori,left,"[-106,-106]","[150,0]",left,1,1.2195,,,,,,001,2025-03-11_14h26.42.344,SL_base,2021.2.3,Win32,59.88023952,,,20,0,20,0,1,,,,,,,,
,,"[""circle"",""no_dis"",""vert"",""up"",[99999,99999],[0,-150]]",circle,no_dis,vert,up,"[99999,99999]","[0,-150]",up,1,1.7177,,,,,,001,2025-03-11_14h26.42.344,SL_base,2021.2.3,Win32,59.88023952,,,21,0,21,0,1,,,,,,,,
,,"[""diamond"",""red"",""vert"",""up"",[150,0],[0,-150]]",diamond,red,vert,up,"[150,0]","[0,-150]",up,1,1.7384,,,,,,001,2025-03-11_14h26.42.344,SL_base,2021.2.3,Win32,59.88023952,,,22,0,22,0,1,,,,,,,,
,,"[""diamond"",""no_dis"",""vert"",""up"",[99999,99999],[-106,-106]]",diamond,no_dis,vert,up,"[99999,99999]","[-106,-106]",up,1,1.1226,,,,,,001,2025-03-11_14h26.42.344,SL_base,2021.2.3,Win32,59.88023952,,,23,0,23,0,1,,,,,,,,
,,"[""diamond"",""green"",""hori"",""left"",[106,-106],[-106,106]]",diamond,green,hori,left,"[106,-106]","[-106,106]",left,1,1.4578,,,,,,001,2025-03-11_14h26.42.344,SL_base,2021.2.3,Win32,59.88023952,,,24,0,24,0,1,,,,,,,,
,,"[""diamond"",""no_dis"",""hori"",""left"",[99999,99999],[106,-106]]",diamond,no_dis,hori,left,"[99999,99999]","[106,-106]",left,1,1.51,,,,,,001,2025-03-11_14h26.42.344,SL_base,2021.2.3,Win32,59.88023952,,,25,0,25,0,1,,,,,,,,
,,"[""circle"",""green"",""vert"",""up"",[106,-106],[106,106]]",circle,green,vert,up,"[106,-106]","[106,106]",up,1,1.899,,,,,,001,2025-03-11_14h26.42.344,SL_base,2021.2.3,Win32,59.88023952,,,26,0,26,0,1,,,,,,,,
,,"[""diamond"",""green"",""vert"",""up"",[0,150],[106,-106]]",diamond,green,vert,up,"[0,150]","[106,-106]",up,1,1.6483,,,,,,001,2025-03-11_14h26.42.344,SL_base,2021.2.3,Win32,59.88023952,,,27,0,27,0,1,,,,,,,,
,,"[""diamond"",""red"",""vert"",""up"",[-106,106],[106,-106]]",diamond,red,vert,up,"[-106,106]","[106,-106]",up,1,1.2333,,,,,,001,2025-03-11_14h26.42.344,SL_base,2021.2.3,Win32,59.88023952,,,28,0,28,0,1,,,,,,,,
,,"[""circle"",""green"",""vert"",""up"",[106,-106],[0,150]]",circle,green,vert,up,"[106,-106]","[0,150]",up,1,2.3171,,,,,,001,2025-03-11_14h26.42.344,SL_base,2021.2.3,Win32,59.88023952,,,29,0,29,0,1,,,,,,,,
,,"[""circle"",""no_dis"",""vert"",""up"",[99999,99999],[-150,0]]",circle,no_dis,vert,up,"[99999,99999]","[-150,0]",up,1,1.5014,,,,,,001,2025-03-11_14h26.42.344,SL_base,2021.2.3,Win32,59.88023952,,,30,0,30,0,1,,,,,,,,
,,"[""circle"",""no_dis"",""hori"",""left"",[99999,99999],[0,-150]]",circle,no_dis,hori,left,"[99999,99999]","[0,-150]",up,0,1.3908,,,,,,001,2025-03-11_14h26.42.344,SL_base,2021.2.3,Win32,59.88023952,,,31,0,31,0,1,,,,,,,,
,,"[""diamond"",""red"",""vert"",""up"",[0,150],[106,-106]]",diamond,red,vert,up,"[0,150]","[106,-106]",up,1,1.2702,,,,,,001,2025-03-11_14h26.42.344,SL_base,2021.2.3,Win32,59.88023952,,,32,0,32,0,1,,,,,,,,
,,"[""circle"",""red"",""hori"",""left"",[150,0],[0,150]]",circle,red,hori,left,"[150,0]","[0,150]",left,1,1.7515,,,,,,001,2025-03-11_14h26.42.344,SL_base,2021.2.3,Win32,59.88023952,,,33,0,33,0,1,,,,,,,,
,,"[""diamond"",""no_dis"",""hori"",""left"",[99999,99999],[-150,0]]",diamond,no_dis,hori,left,"[99999,99999]","[-150,0]",left,1,1.5465,,,,,,001,2025-03-11_14h26.42.344,SL_base,2021.2.3,Win32,59.88023952,,,34,0,34,0,1,,,,,,,,
,,"[""diamond"",""red"",""hori"",""left"",[-106,106],[150,0]]",diamond,red,hori,left,"[-106,106]","[150,0]",left,1,1.289,,,,,,001,2025-03-11_14h26.42.344,SL_base,2021.2.3,Win32,59.88023952,,,35,0,35,0,1,,,,,,,,
,,"[""diamond"",""red"",""vert"",""up"",[106,-106],[106,106]]",diamond,red,vert,up,"[106,-106]","[106,106]",up,1,1.389,,,,,,001,2025-03-11_14h26.42.344,SL_base,2021.2.3,Win32,59.88023952,,,36,0,36,0,1,,,,,,,,
,,"[""circle"",""no_dis"",""vert"",""up"",[99999,99999],[106,106]]",circle,no_dis,vert,up,"[99999,99999]","[106,106]",up,1,1.3223,,,,,,001,2025-03-11_14h26.42.344,SL_base,2021.2.3,Win32,59.88023952,,,37,0,37,0,1,,,,,,,,
,,"[""circle"",""no_dis"",""vert"",""up"",[99999,99999],[150,0]]",circle,no_dis,vert,up,"[99999,99999]","[150,0]",up,1,1.1237,,,,,,001,2025-03-11_14h26.42.344,SL_base,2021.2.3,Win32,59.88023952,,,38,0,38,0,1,,,,,,,,
,,"[""circle"",""no_dis"",""vert"",""up"",[99999,99999],[-106,106]]",circle,no_dis,vert,up,"[99999,99999]","[-106,106]",up,1,1.3001,,,,,,001,2025-03-11_14h26.42.344,SL_base,2021.2.3,Win32,59.88023952,,,39,0,39,0,1,,,,,,,,
,,"[""circle"",""no_dis"",""vert"",""up"",[99999,99999],[0,-150]]",circle,no_dis,vert,up,"[99999,99999]","[0,-150]",up,1,1.357,,,,,,001,2025-03-11_14h26.42.344,SL_base,2021.2.3,Win32,59.88023952,,,40,0,40,0,1,,,,,,,,
,,"[""diamond"",""green"",""vert"",""up"",[-150,0],[0,-150]]",diamond,green,vert,up,"[-150,0]","[0,-150]",up,1,1.6363,,,,,,001,2025-03-11_14h26.42.344,SL_base,2021.2.3,Win32,59.88023952,,,41,0,41,0,1,,,,,,,,
,,"[""circle"",""red"",""vert"",""up"",[0,150],[-106,106]]",circle,red,vert,up,"[0,150]","[-106,106]",up,1,2.4683,,,,,,001,2025-03-11_14h26.42.344,SL_base,2021.2.3,Win32,59.88023952,,,42,0,42,0,1,,,,,,,,
,,"[""circle"",""green"",""vert"",""up"",[0,-150],[-106,106]]",circle,green,vert,up,"[0,-150]","[-106,106]",up,1,1.3867,,,,,,001,2025-03-11_14h26.42.344,SL_base,2021.2.3,Win32,59.88023952,,,43,0,43,0,1,,,,,,,,
,,"[""circle"",""no_dis"",""vert"",""up"",[99999,99999],[0,150]]",circle,no_dis,vert,up,"[99999,99999]","[0,150]",up,1,1.8781,,,,,,001,2025-03-11_14h26.42.344,SL_base,2021.2.3,Win32,59.88023952,,,44,0,44,0,1,,,,,,,,
,,"[""circle"",""green"",""vert"",""up"",[-106,-106],[-150,0]]",circle,green,vert,up,"[-106,-106]","[-150,0]",up,1,1.1993,,,,,,001,2025-03-11_14h26.42.344,SL_base,2021.2.3,Win32,59.88023952,,,45,0,45,0,1,,,,,,,,
,,"[""diamond"",""red"",""hori"",""left"",[106,106],[106,-106]]",diamond,red,hori,left,"[106,106]","[106,-106]",left,1,1.7208,,,,,,001,2025-03-11_14h26.42.344,SL_base,2021.2.3,Win32,59.88023952,,,46,0,46,0,1,,,,,,,,
,,"[""circle"",""green"",""hori"",""left"",[-106,-106],[-106,106]]",circle,green,hori,left,"[-106,-106]","[-106,106]",left,1,1.7715,,,,,,001,2025-03-11_14h26.42.344,SL_base,2021.2.3,Win32,59.88023952,,,47,0,47,0,1,,,,,,,,
,,"[""diamond"",""no_dis"",""vert"",""up"",[99999,99999],[-106,-106]]",diamond,no_dis,vert,up,"[99999,99999]","[-106,-106]",up,1,1.3265,,,,,,001,2025-03-11_14h26.42.344,SL_base,2021.2.3,Win32,59.88023952,,,48,0,48,0,1,,,,,,,,
,,"[""diamond"",""green"",""hori"",""left"",[0,150],[0,-150]]",diamond,green,hori,left,"[0,150]","[0,-150]",left,1,1.8676,,,,,,001,2025-03-11_14h26.42.344,SL_base,2021.2.3,Win32,59.88023952,,,49,0,49,0,1,,,,,,,,
,,"[""diamond"",""no_dis"",""vert"",""up"",[99999,99999],[0,-150]]",diamond,no_dis,vert,up,"[99999,99999]","[0,-150]",up,1,1.9503,,,,,,001,2025-03-11_14h26.42.344,SL_base,2021.2.3,Win32,59.88023952,,,50,0,50,0,1,,,,,,,,
,,"[""circle"",""no_dis"",""vert"",""up"",[99999,99999],[0,150]]",circle,no_dis,vert,up,"[99999,99999]","[0,150]",up,1,1.3454,,,,,,001,2025-03-11_14h26.42.344,SL_base,2021.2.3,Win32,59.88023952,,,51,0,51,0,1,,,,,,,,
,,"[""diamond"",""green"",""vert"",""up"",[0,-150],[106,-106]]",diamond,green,vert,up,"[0,-150]","[106,-106]",up,1,1.1858,,,,,,001,2025-03-11_14h26.42.344,SL_base,2021.2.3,Win32,59.88023952,,,52,0,52,0,1,,,,,,,,
,,"[""circle"",""red"",""hori"",""left"",[150,0],[-106,-106]]",circle,red,hori,left,"[150,0]","[-106,-106]",left,1,1.1508,,,,,,001,2025-03-11_14h26.42.344,SL_base,2021.2.3,Win32,59.88023952,,,53,0,53,0,1,,,,,,,,
,,"[""diamond"",""green"",""vert"",""up"",[150,0],[-106,-106]]",diamond,green,vert,up,"[150,0]","[-106,-106]",up,1,1.0343,,,,,,001,2025-03-11_14h26.42.344,SL_base,2021.2.3,Win32,59.88023952,,,54,0,54,0,1,,,,,,,,
,,"[""circle"",""red"",""hori"",""left"",[106,-106],[150,0]]",circle,red,hori,left,"[106,-106]","[150,0]",left,1,1.7196,,,,,,001,2025-03-11_14h26.42.344,SL_base,2021.2.3,Win32,59.88023952,,,55,0,55,0,1,,,,,,,,
,,"[""diamond"",""green"",""hori"",""left"",[-106,-106],[-106,106]]",diamond,green,hori,left,"[-106,-106]","[-106,106]",left,1,1.52,,,,,,001,2025-03-11_14h26.42.344,SL_base,2021.2.3,Win32,59.88023952,,,56,0,56,0,1,,,,,,,,
,,"[""diamond"",""no_dis"",""hori"",""left"",[99999,99999],[-150,0]]",diamond,no_dis,hori,left,"[99999,99999]","[-150,0]",left,1,1.5841,,,,,,001,2025-03-11_14h26.42.344,SL_base,2021.2.3,Win32,59.88023952,,,57,0,57,0,1,,,,,,,,
,,"[""diamond"",""no_dis"",""hori"",""left"",[99999,99999],[150,0]]",diamond,no_dis,hori,left,"[99999,99999]","[150,0]",left,1,1.3339,,,,,,001,2025-03-11_14h26.42.344,SL_base,2021.2.3,Win32,59.88023952,,,58,0,58,0,1,,,,,,,,
,,"[""diamond"",""green"",""hori"",""left"",[106,-106],[0,150]]",diamond,green,hori,left,"[106,-106]","[0,150]",left,1,1.6065,,,,,,001,2025-03-11_14h26.42.344,SL_base,2021.2.3,Win32,59.88023952,,,59,0,59,0,1,,,,,,,,
,,"[""diamond"",""no_dis"",""vert"",""up"",[99999,99999],[150,0]]",diamond,no_dis,vert,up,"[99999,99999]","[150,0]",up,1,1.2099,,,,,,001,2025-03-11_14h26.42.344,SL_base,2021.2.3,Win32,59.88023952,,,60,0,60,0,1,,,,,,,,
,,"[""diamond"",""no_dis"",""vert"",""up"",[99999,99999],[-150,0]]",diamond,no_dis,vert,up,"[99999,99999]","[-150,0]",up,1,1.1515,,,,,,001,2025-03-11_14h26.42.344,SL_base,2021.2.3,Win32,59.88023952,,,61,0,61,0,1,,,,,,,,
,,"[""diamond"",""no_dis"",""hori"",""left"",[99999,99999],[106,-106]]",diamond,no_dis,hori,left,"[99999,99999]","[106,-106]",left,1,1.0113,,,,,,001,2025-03-11_14h26.42.344,SL_base,2021.2.3,Win32,59.88023952,,,62,0,62,0,1,,,,,,,,
,,"[""diamond"",""green"",""vert"",""up"",[106,-106],[150,0]]",diamond,green,vert,up,"[106,-106]","[150,0]",up,1,1.3033,,,,,,001,2025-03-11_14h26.42.344,SL_base,2021.2.3,Win32,59.88023952,,,63,0,63,0,1,,,,,,,,
,,"[""diamond"",""no_dis"",""hori"",""left"",[99999,99999],[0,150]]",diamond,no_dis,hori,left,"[99999,99999]","[0,150]",left,1,1.0172,,,,,,001,2025-03-11_14h26.42.344,SL_base,2021.2.3,Win32,59.88023952,,,64,0,64,0,1,,,,,,,,
,,"[""diamond"",""red"",""hori"",""left"",[106,106],[-106,-106]]",diamond,red,hori,left,"[106,106]","[-106,-106]",left,1,1.4882,,,,,,001,2025-03-11_14h26.42.344,SL_base,2021.2.3,Win32,59.88023952,,,65,0,65,0,1,,,,,,,,
,,"[""circle"",""green"",""hori"",""left"",[-150,0],[-106,106]]",circle,green,hori,left,"[-150,0]","[-106,106]",left,1,1.5538,,,,,,001,2025-03-11_14h26.42.344,SL_base,2021.2.3,Win32,59.88023952,,,66,0,66,0,1,,,,,,,,
,,"[""circle"",""red"",""hori"",""left"",[-106,106],[0,150]]",circle,red,hori,left,"[-106,106]","[0,150]",left,1,1.9046,,,,,,001,2025-03-11_14h26.42.344,SL_base,2021.2.3,Win32,59.88023952,,,67,0,67,0,1,,,,,,,,
,,"[""circle"",""red"",""vert"",""up"",[150,0],[-150,0]]",circle,red,vert,up,"[150,0]","[-150,0]",up,1,1.1063,,,,,,001,2025-03-11_14h26.42.344,SL_base,2021.2.3,Win32,59.88023952,,,68,0,68,0,1,,,,,,,,
,,"[""circle"",""green"",""hori"",""left"",[0,-150],[106,106]]",circle,green,hori,left,"[0,-150]","[106,106]",left,1,1.9863,,,,,,001,2025-03-11_14h26.42.344,SL_base,2021.2.3,Win32,59.88023952,,,69,0,69,0,1,,,,,,,,
,,"[""circle"",""red"",""vert"",""up"",[106,106],[-150,0]]",circle,red,vert,up,"[106,106]","[-150,0]",up,1,1.3705,,,,,,001,2025-03-11_14h26.42.344,SL_base,2021.2.3,Win32,59.88023952,,,70,0,70,0,1,,,,,,,,
,,"[""diamond"",""no_dis"",""hori"",""left"",[99999,99999],[-106,106]]",diamond,no_dis,hori,left,"[99999,99999]","[-106,106]",left,1,1.9833,,,,,,001,2025-03-11_14h26.42.344,SL_base,2021.2.3,Win32,59.88023952,,,71,0,71,0,1,,,,,,,,
,,"[""diamond"",""no_dis"",""vert"",""up"",[99999,99999],[106,106]]",diamond,no_dis,vert,up,"[99999,99999]","[106,106]",up,1,1.2,,,,,,001,2025-03-11_14h26.42.344,SL_base,2021.2.3,Win32,59.88023952,,,72,0,72,0,1,,,,,,,,
,,"[""diamond"",""red"",""vert"",""up"",[106,-106],[-150,0]]",diamond,red,vert,up,"[106,-106]","[-150,0]",up,1,1.3274,,,,,,001,2025-03-11_14h26.42.344,SL_base,2021.2.3,Win32,59.88023952,,,73,0,73,0,1,,,,,,,,
,,"[""circle"",""red"",""hori"",""left"",[106,-106],[0,-150]]",circle,red,hori,left,"[106,-106]","[0,-150]",left,1,1.384,,,,,,001,2025-03-11_14h26.42.344,SL_base,2021.2.3,Win32,59.88023952,,,74,0,74,0,1,,,,,,,,
,,"[""diamond"",""red"",""hori"",""left"",[106,-106],[-106,106]]",diamond,red,hori,left,"[106,-106]","[-106,106]",left,1,1.5007,,,,,,001,2025-03-11_14h26.42.344,SL_base,2021.2.3,Win32,59.88023952,,,75,0,75,0,1,,,,,,,,
,,"[""diamond"",""green"",""hori"",""left"",[-150,0],[150,0]]",diamond,green,hori,left,"[-150,0]","[150,0]",left,1,1.5345,,,,,,001,2025-03-11_14h26.42.344,SL_base,2021.2.3,Win32,59.88023952,,,76,0,76,0,1,,,,,,,,
,,"[""circle"",""red"",""hori"",""left"",[-106,-106],[106,106]]",circle,red,hori,left,"[-106,-106]","[106,106]",left,1,1.3187,,,,,,001,2025-03-11_14h26.42.344,SL_base,2021.2.3,Win32,59.88023952,,,77,0,77,0,1,,,,,,,,
,,"[""circle"",""green"",""hori"",""left"",[0,150],[-106,-106]]",circle,green,hori,left,"[0,150]","[-106,-106]",left,1,1.0852,,,,,,001,2025-03-11_14h26.42.344,SL_base,2021.2.3,Win32,59.88023952,,,78,0,78,0,1,,,,,,,,
,,"[""diamond"",""green"",""vert"",""up"",[0,-150],[0,150]]",diamond,green,vert,up,"[0,-150]","[0,150]",up,1,1.4829,,,,,,001,2025-03-11_14h26.42.344,SL_base,2021.2.3,Win32,59.88023952,,,79,0,79,0,1,,,,,,,,
,,"[""circle"",""red"",""hori"",""left"",[-150,0],[-106,-106]]",circle,red,hori,left,"[-150,0]","[-106,-106]",left,1,2.2865,,,,,,001,2025-03-11_14h26.42.344,SL_base,2021.2.3,Win32,59.88023952,,,80,0,80,0,1,,,,,,,,
,,"[""diamond"",""red"",""vert"",""up"",[0,150],[106,106]]",diamond,red,vert,up,"[0,150]","[106,106]",up,1,1.1807,,,,,,001,2025-03-11_14h26.42.344,SL_base,2021.2.3,Win32,59.88023952,,,81,0,81,0,1,,,,,,,,
,,"[""diamond"",""red"",""hori"",""left"",[106,-106],[0,-150]]",diamond,red,hori,left,"[106,-106]","[0,-150]",left,1,2.3874,,,,,,001,2025-03-11_14h26.42.344,SL_base,2021.2.3,Win32,59.88023952,,,82,0,82,0,1,,,,,,,,
,,"[""circle"",""red"",""vert"",""up"",[-150,0],[150,0]]",circle,red,vert,up,"[-150,0]","[150,0]",up,1,1.3101,,,,,,001,2025-03-11_14h26.42.344,SL_base,2021.2.3,Win32,59.88023952,,,83,0,83,0,1,,,,,,,,
,,"[""diamond"",""green"",""vert"",""up"",[0,-150],[-150,0]]",diamond,green,vert,up,"[0,-150]","[-150,0]",left,0,1.7849,,,,,,001,2025-03-11_14h26.42.344,SL_base,2021.2.3,Win32,59.88023952,,,84,0,84,0,1,,,,,,,,
,,"[""circle"",""green"",""vert"",""up"",[106,106],[-106,106]]",circle,green,vert,up,"[106,106]","[-106,106]",left,0,1.1229,,,,,,001,2025-03-11_14h26.42.344,SL_base,2021.2.3,Win32,59.88023952,,,85,0,85,0,1,,,,,,,,
,,"[""circle"",""green"",""hori"",""left"",[-150,0],[106,106]]",circle,green,hori,left,"[-150,0]","[106,106]",left,1,2.3348,,,,,,001,2025-03-11_14h26.42.344,SL_base,2021.2.3,Win32,59.88023952,,,86,0,86,0,1,,,,,,,,
,,"[""diamond"",""no_dis"",""vert"",""up"",[99999,99999],[106,-106]]",diamond,no_dis,vert,up,"[99999,99999]","[106,-106]",up,1,1.256,,,,,,001,2025-03-11_14h26.42.344,SL_base,2021.2.3,Win32,59.88023952,,,87,0,87,0,1,,,,,,,,
,,"[""diamond"",""red"",""vert"",""up"",[106,106],[0,-150]]",diamond,red,vert,up,"[106,106]","[0,-150]",up,1,1.1692,,,,,,001,2025-03-11_14h26.42.344,SL_base,2021.2.3,Win32,59.88023952,,,88,0,88,0,1,,,,,,,,
,,"[""diamond"",""green"",""hori"",""left"",[106,106],[-106,-106]]",diamond,green,hori,left,"[106,106]","[-106,-106]",left,1,1.2203,,,,,,001,2025-03-11_14h26.42.344,SL_base,2021.2.3,Win32,59.88023952,,,89,0,89,0,1,,,,,,,,
,,"[""diamond"",""green"",""hori"",""left"",[106,-106],[106,106]]",diamond,green,hori,left,"[106,-106]","[106,106]",left,1,1.1217,,,,,,001,2025-03-11_14h26.42.344,SL_base,2021.2.3,Win32,59.88023952,,,90,0,90,0,1,,,,,,,,
,,"[""circle"",""no_dis"",""vert"",""up"",[99999,99999],[-106,106]]",circle,no_dis,vert,up,"[99999,99999]","[-106,106]",up,1,2.3301,,,,,,001,2025-03-11_14h26.42.344,SL_base,2021.2.3,Win32,59.88023952,,,91,0,91,0,1,,,,,,,,
,,"[""diamond"",""no_dis"",""vert"",""up"",[99999,99999],[106,-106]]",diamond,no_dis,vert,up,"[99999,99999]","[106,-106]",up,1,1.931,,,,,,001,2025-03-11_14h26.42.344,SL_base,2021.2.3,Win32,59.88023952,,,92,0,92,0,1,,,,,,,,
,,"[""circle"",""green"",""vert"",""up"",[-150,0],[106,106]]",circle,green,vert,up,"[-150,0]","[106,106]",up,1,2.0189,,,,,,001,2025-03-11_14h26.42.344,SL_base,2021.2.3,Win32,59.88023952,,,93,0,93,0,1,,,,,,,,
,,"[""circle"",""green"",""vert"",""up"",[-106,106],[150,0]]",circle,green,vert,up,"[-106,106]","[150,0]",up,1,1.5792,,,,,,001,2025-03-11_14h26.42.344,SL_base,2021.2.3,Win32,59.88023952,,,94,0,94,0,1,,,,,,,,
,,"[""circle"",""green"",""vert"",""up"",[0,-150],[0,150]]",circle,green,vert,up,"[0,-150]","[0,150]",up,1,1.8083,,,,,,001,2025-03-11_14h26.42.344,SL_base,2021.2.3,Win32,59.88023952,,,95,0,95,0,1,,,,,,,,
,,"[""circle"",""no_dis"",""hori"",""left"",[99999,99999],[-150,0]]",circle,no_dis,hori,left,"[99999,99999]","[-150,0]",left,1,1.0587,,,,,,001,2025-03-11_14h26.42.344,SL_base,2021.2.3,Win32,59.88023952,,,96,0,96,0,1,,,,,,,,
,,"[""diamond"",""red"",""hori"",""left"",[0,-150],[-106,106]]",diamond,red,hori,left,"[0,-150]","[-106,106]",up,0,2.5508,,,,,,001,2025-03-11_14h26.42.344,SL_base,2021.2.3,Win32,59.88023952,,,97,0,97,0,1,,,,,,,,
,,"[""circle"",""green"",""hori"",""left"",[106,-106],[0,-150]]",circle,green,hori,left,"[106,-106]","[0,-150]",left,1,1.4029,,,,,,001,2025-03-11_14h26.42.344,SL_base,2021.2.3,Win32,59.88023952,,,98,0,98,0,1,,,,,,,,
,,"[""diamond"",""red"",""hori"",""left"",[106,106],[106,-106]]",diamond,red,hori,left,"[106,106]","[106,-106]",left,1,1.6393,,,,,,001,2025-03-11_14h26.42.344,SL_base,2021.2.3,Win32,59.88023952,,,99,0,99,0,1,,,,,,,,
,,"[""circle"",""no_dis"",""hori"",""left"",[99999,99999],[-106,106]]",circle,no_dis,hori,left,"[99999,99999]","[-106,106]",left,1,2.0283,,,,,,001,2025-03-11_14h26.42.344,SL_base,2021.2.3,Win32,59.88023952,,,100,0,100,0,1,,,,,,,,
,,"[""circle"",""green"",""hori"",""left"",[-106,106],[106,-106]]",circle,green,hori,left,"[-106,106]","[106,-106]",up,0,1.6373,,,,,,001,2025-03-11_14h26.42.344,SL_base,2021.2.3,Win32,59.88023952,,,101,0,101,0,1,,,,,,,,
,,"[""circle"",""green"",""vert"",""up"",[0,-150],[106,106]]",circle,green,vert,up,"[0,-150]","[106,106]",up,1,1.2913,,,,,,001,2025-03-11_14h26.42.344,SL_base,2021.2.3,Win32,59.88023952,,,102,0,102,0,1,,,,,,,,
,,"[""circle"",""green"",""hori"",""left"",[0,150],[-150,0]]",circle,green,hori,left,"[0,150]","[-150,0]",left,1,1.8907,,,,,,001,2025-03-11_14h26.42.344,SL_base,2021.2.3,Win32,59.88023952,,,103,0,103,0,1,,,,,,,,
,,"[""diamond"",""no_dis"",""vert"",""up"",[99999,99999],[150,0]]",diamond,no_dis,vert,up,"[99999,99999]","[150,0]",up,1,1.2811,,,,,,001,2025-03-11_14h26.42.344,SL_base,2021.2.3,Win32,59.88023952,,,104,0,104,0,1,,,,,,,,
,,"[""diamond"",""red"",""vert"",""up"",[106,-106],[-106,-106]]",diamond,red,vert,up,"[106,-106]","[-106,-106]",up,1,1.453,,,,,,001,2025-03-11_14h26.42.344,SL_base,2021.2.3,Win32,59.88023952,,,105,0,105,0,1,,,,,,,,
,,"[""circle"",""red"",""vert"",""up"",[106,-106],[0,150]]",circle,red,vert,up,"[106,-106]","[0,150]",left,0,1.5569,,,,,,001,2025-03-11_14h26.42.344,SL_base,2021.2.3,Win32,59.88023952,,,106,0,106,0,1,,,,,,,,
,,"[""circle"",""no_dis"",""hori"",""left"",[99999,99999],[0,150]]",circle,no_dis,hori,left,"[99999,99999]","[0,150]",left,1,2.2687,,,,,,001,2025-03-11_14h26.42.344,SL_base,2021.2.3,Win32,59.88023952,,,107,0,107,0,1,,,,,,,,
,,"[""circle"",""no_dis"",""hori"",""left"",[99999,99999],[0,150]]",circle,no_dis,hori,left,"[99999,99999]","[0,150]",left,1,1.3883,,,,,,001,2025-03-11_14h26.42.344,SL_base,2021.2.3,Win32,59.88023952,,,108,0,108,0,1,,,,,,,,
,,"[""circle"",""red"",""vert"",""up"",[150,0],[-106,106]]",circle,red,vert,up,"[150,0]","[-106,106]",up,1,1.6281,,,,,,001,2025-03-11_14h26.42.344,SL_base,2021.2.3,Win32,59.88023952,,,109,0,109,0,1,,,,,,,,
,,"[""circle"",""green"",""vert"",""up"",[106,-106],[-106,106]]",circle,green,vert,up,"[106,-106]","[-106,106]",up,1,2.044,,,,,,001,2025-03-11_14h26.42.344,SL_base,2021.2.3,Win32,59.88023952,,,110,0,110,0,1,,,,,,,,
,,"[""diamond"",""no_dis"",""vert"",""up"",[99999,99999],[-106,-106]]",diamond,no_dis,vert,up,"[99999,99999]","[-106,-106]",up,1,1.4848,,,,,,001,2025-03-11_14h26.42.344,SL_base,2021.2.3,Win32,59.88023952,,,111,0,111,0,1,,,,,,,,
,,"[""circle"",""no_dis"",""hori"",""left"",[99999,99999],[0,-150]]",circle,no_dis,hori,left,"[99999,99999]","[0,-150]",left,1,1.7498,,,,,,001,2025-03-11_14h26.42.344,SL_base,2021.2.3,Win32,59.88023952,,,112,0,112,0,1,,,,,,,,
,,"[""circle"",""no_dis"",""hori"",""left"",[99999,99999],[-106,106]]",circle,no_dis,hori,left,"[99999,99999]","[-106,106]",left,1,1.8245,,,,,,001,2025-03-11_14h26.42.344,SL_base,2021.2.3,Win32,59.88023952,,,113,0,113,0,1,,,,,,,,
,,"[""circle"",""red"",""hori"",""left"",[-106,106],[106,106]]",circle,red,hori,left,"[-106,106]","[106,106]",,0,,,,,,,001,2025-03-11_14h26.42.344,SL_base,2021.2.3,Win32,59.88023952,,,114,0,114,0,1,,,,,,,,
,,"[""diamond"",""no_dis"",""hori"",""left"",[99999,99999],[106,106]]",diamond,no_dis,hori,left,"[99999,99999]","[106,106]",left,1,2.099,,,,,,001,2025-03-11_14h26.42.344,SL_base,2021.2.3,Win32,59.88023952,,,115,0,115,0,1,,,,,,,,
,,"[""diamond"",""red"",""vert"",""up"",[-106,106],[-106,-106]]",diamond,red,vert,up,"[-106,106]","[-106,-106]",up,1,2.4561,,,,,,001,2025-03-11_14h26.42.344,SL_base,2021.2.3,Win32,59.88023952,,,116,0,116,0,1,,,,,,,,
,,"[""circle"",""red"",""vert"",""up"",[106,-106],[106,106]]",circle,red,vert,up,"[106,-106]","[106,106]",up,1,1.3176,,,,,,001,2025-03-11_14h26.42.344,SL_base,2021.2.3,Win32,59.88023952,,,117,0,117,0,1,,,,,,,,
,,"[""circle"",""no_dis"",""hori"",""left"",[99999,99999],[106,106]]",circle,no_dis,hori,left,"[99999,99999]","[106,106]",left,1,0.9409,,,,,,001,2025-03-11_14h26.42.344,SL_base,2021.2.3,Win32,59.88023952,,,118,0,118,0,1,,,,,,,,
,,"[""diamond"",""green"",""hori"",""left"",[106,106],[0,150]]",diamond,green,hori,left,"[106,106]","[0,150]",left,1,2.2688,,,,,,001,2025-03-11_14h26.42.344,SL_base,2021.2.3,Win32,59.88023952,,,119,0,119,0,1,,,,,,,,
,,,,,,,,,,,,,,,,,001,2025-03-11_14h26.42.344,SL_base,2021.2.3,Win32,59.88023952,,,,,,,,3,space,177.9708,2,0,2,0,1
,,"[""diamond"",""no_dis"",""vert"",""up"",[99999,99999],[-106,-106]]",diamond,no_dis,vert,up,"[99999,99999]","[-106,-106]",left,0,1.4757,,,,,,001,2025-03-11_14h26.42.344,SL_base,2021.2.3,Win32,59.88023952,,,0,0,0,0,1,,,,,,,,
,,"[""diamond"",""green"",""hori"",""left"",[-150,0],[150,0]]",diamond,green,hori,left,"[-150,0]","[150,0]",left,1,2.0855,,,,,,001,2025-03-11_14h26.42.344,SL_base,2021.2.3,Win32,59.88023952,,,1,0,1,0,1,,,,,,,,
,,"[""circle"",""red"",""vert"",""up"",[-150,0],[150,0]]",circle,red,vert,up,"[-150,0]","[150,0]",up,1,1.057,,,,,,001,2025-03-11_14h26.42.344,SL_base,2021.2.3,Win32,59.88023952,,,2,0,2,0,1,,,,,,,,
,,"[""circle"",""green"",""vert"",""up"",[-150,0],[106,106]]",circle,green,vert,up,"[-150,0]","[106,106]",up,1,2.0851,,,,,,001,2025-03-11_14h26.42.344,SL_base,2021.2.3,Win32,59.88023952,,,3,0,3,0,1,,,,,,,,
,,"[""circle"",""no_dis"",""hori"",""left"",[99999,99999],[-150,0]]",circle,no_dis,hori,left,"[99999,99999]","[-150,0]",left,1,0.9659,,,,,,001,2025-03-11_14h26.42.344,SL_base,2021.2.3,Win32,59.88023952,,,4,0,4,0,1,,,,,,,,
,,"[""diamond"",""red"",""hori"",""left"",[106,106],[-106,-106]]",diamond,red,hori,left,"[106,106]","[-106,-106]",up,0,0.8871,,,,,,001,2025-03-11_14h26.42.344,SL_base,2021.2.3,Win32,59.88023952,,,5,0,5,0,1,,,,,,,,
,,"[""diamond"",""no_dis"",""vert"",""up"",[99999,99999],[106,-106]]",diamond,no_dis,vert,up,"[99999,99999]","[106,-106]",left,0,0.7657,,,,,,001,2025-03-11_14h26.42.344,SL_base,2021.2.3,Win32,59.88023952,,,6,0,6,0,1,,,,,,,,
,,"[""diamond"",""no_dis"",""vert"",""up"",[99999,99999],[150,0]]",diamond,no_dis,vert,up,"[99999,99999]","[150,0]",up,1,0.8793,,,,,,001,2025-03-11_14h26.42.344,SL_base,2021.2.3,Win32,59.88023952,,,7,0,7,0,1,,,,,,,,
,,"[""circle"",""green"",""vert"",""up"",[106,-106],[-106,106]]",circle,green,vert,up,"[106,-106]","[-106,106]",left,0,1.2014,,,,,,001,2025-03-11_14h26.42.344,SL_base,2021.2.3,Win32,59.88023952,,,8,0,8,0,1,,,,,,,,
,,"[""circle"",""green"",""vert"",""up"",[0,-150],[106,106]]",circle,green,vert,up,"[0,-150]","[106,106]",up,1,0.8506,,,,,,001,2025-03-11_14h26.42.344,SL_base,2021.2.3,Win32,59.88023952,,,9,0,9,0,1,,,,,,,,
,,"[""circle"",""no_dis"",""vert"",""up"",[99999,99999],[0,150]]",circle,no_dis,vert,up,"[99999,99999]","[0,150]",up,1,1.0348,,,,,,001,2025-03-11_14h26.42.344,SL_base,2021.2.3,Win32,59.88023952,,,10,0,10,0,1,,,,,,,,
,,"[""circle"",""no_dis"",""hori"",""left"",[99999,99999],[0,150]]",circle,no_dis,hori,left,"[99999,99999]","[0,150]",left,1,1.3843,,,,,,001,2025-03-11_14h26.42.344,SL_base,2021.2.3,Win32,59.88023952,,,11,0,11,0,1,,,,,,,,
,,"[""circle"",""green"",""vert"",""up"",[0,-150],[0,150]]",circle,green,vert,up,"[0,-150]","[0,150]",up,1,1.0333,,,,,,001,2025-03-11_14h26.42.344,SL_base,2021.2.3,Win32,59.88023952,,,12,0,12,0,1,,,,,,,,
,,"[""diamond"",""red"",""vert"",""up"",[-106,106],[106,-106]]",diamond,red,vert,up,"[-106,106]","[106,-106]",up,1,1.6755,,,,,,001,2025-03-11_14h26.42.344,SL_base,2021.2.3,Win32,59.88023952,,,13,0,13,0,1,,,,,,,,
,,"[""circle"",""green"",""hori"",""left"",[0,-150],[106,106]]",circle,green,hori,left,"[0,-150]","[106,106]",left,1,1.6953,,,,,,001,2025-03-11_14h26.42.344,SL_base,2021.2.3,Win32,59.88023952,,,14,0,14,0,1,,,,,,,,
,,"[""diamond"",""green"",""vert"",""up"",[-150,0],[0,-150]]",diamond,green,vert,up,"[-150,0]","[0,-150]",up,1,1.4851,,,,,,001,2025-03-11_14h26.42.344,SL_base,2021.2.3,Win32,59.88023952,,,15,0,15,0,1,,,,,,,,
,,"[""diamond"",""green"",""vert"",""up"",[106,-106],[0,150]]",diamond,green,vert,up,"[106,-106]","[0,150]",up,1,1.0761,,,,,,001,2025-03-11_14h26.42.344,SL_base,2021.2.3,Win32,59.88023952,,,16,0,16,0,1,,,,,,,,
,,"[""circle"",""red"",""hori"",""left"",[-106,106],[106,106]]",circle,red,hori,left,"[-106,106]","[106,106]",left,1,0.7671,,,,,,001,2025-03-11_14h26.42.344,SL_base,2021.2.3,Win32,59.88023952,,,17,0,17,0,1,,,,,,,,
,,"[""circle"",""red"",""vert"",""up"",[106,-106],[0,150]]",circle,red,vert,up,"[106,-106]","[0,150]",up,1,0.9688,,,,,,001,2025-03-11_14h26.42.344,SL_base,2021.2.3,Win32,59.88023952,,,18,0,18,0,1,,,,,,,,
,,"[""diamond"",""green"",""hori"",""left"",[106,-106],[-106,-106]]",diamond,green,hori,left,"[106,-106]","[-106,-106]",left,1,1.2869,,,,,,001,2025-03-11_14h26.42.344,SL_base,2021.2.3,Win32,59.88023952,,,19,0,19,0,1,,,,,,,,
,,"[""circle"",""no_dis"",""hori"",""left"",[99999,99999],[-106,106]]",circle,no_dis,hori,left,"[99999,99999]","[-106,106]",up,0,1.1662,,,,,,001,2025-03-11_14h26.42.344,SL_base,2021.2.3,Win32,59.88023952,,,20,0,20,0,1,,,,,,,,
,,"[""circle"",""no_dis"",""hori"",""left"",[99999,99999],[-106,-106]]",circle,no_dis,hori,left,"[99999,99999]","[-106,-106]",left,1,0.8222,,,,,,001,2025-03-11_14h26.42.344,SL_base,2021.2.3,Win32,59.88023952,,,21,0,21,0,1,,,,,,,,
,,"[""diamond"",""green"",""hori"",""left"",[0,150],[0,-150]]",diamond,green,hori,left,"[0,150]","[0,-150]",left,1,1.4838,,,,,,001,2025-03-11_14h26.42.344,SL_base,2021.2.3,Win32,59.88023952,,,22,0,22,0,1,,,,,,,,
,,"[""diamond"",""red"",""hori"",""left"",[106,106],[106,-106]]",diamond,red,hori,left,"[106,106]","[106,-106]",left,1,1.0549,,,,,,001,2025-03-11_14h26.42.344,SL_base,2021.2.3,Win32,59.88023952,,,23,0,23,0,1,,,,,,,,
,,"[""circle"",""no_dis"",""vert"",""up"",[99999,99999],[0,150]]",circle,no_dis,vert,up,"[99999,99999]","[0,150]",up,1,1.3751,,,,,,001,2025-03-11_14h26.42.344,SL_base,2021.2.3,Win32,59.88023952,,,24,0,24,0,1,,,,,,,,
,,"[""circle"",""green"",""hori"",""left"",[0,150],[-106,-106]]",circle,green,hori,left,"[0,150]","[-106,-106]",left,1,0.9808,,,,,,001,2025-03-11_14h26.42.344,SL_base,2021.2.3,Win32,59.88023952,,,25,0,25,0,1,,,,,,,,
,,"[""diamond"",""green"",""vert"",""up"",[0,-150],[0,150]]",diamond,green,vert,up,"[0,-150]","[0,150]",up,1,0.8015,,,,,,001,2025-03-11_14h26.42.344,SL_base,2021.2.3,Win32,59.88023952,,,26,0,26,0,1,,,,,,,,
,,"[""diamond"",""no_dis"",""hori"",""left"",[99999,99999],[150,0]]",diamond,no_dis,hori,left,"[99999,99999]","[150,0]",left,1,0.8568,,,,,,001,2025-03-11_14h26.42.344,SL_base,2021.2.3,Win32,59.88023952,,,27,0,27,0,1,,,,,,,,
,,"[""diamond"",""red"",""hori"",""left"",[-106,-106],[0,-150]]",diamond,red,hori,left,"[-106,-106]","[0,-150]",left,1,1.5366,,,,,,001,2025-03-11_14h26.42.344,SL_base,2021.2.3,Win32,59.88023952,,,28,0,28,0,1,,,,,,,,
,,"[""circle"",""red"",""hori"",""left"",[150,0],[0,150]]",circle,red,hori,left,"[150,0]","[0,150]",left,1,2.1276,,,,,,001,2025-03-11_14h26.42.344,SL_base,2021.2.3,Win32,59.88023952,,,29,0,29,0,1,,,,,,,,
,,"[""diamond"",""no_dis"",""hori"",""left"",[99999,99999],[-106,106]]",diamond,no_dis,hori,left,"[99999,99999]","[-106,106]",left,1,1.5242,,,,,,001,2025-03-11_14h26.42.344,SL_base,2021.2.3,Win32,59.88023952,,,30,0,30,0,1,,,,,,,,
,,"[""diamond"",""green"",""vert"",""up"",[106,-106],[0,150]]",diamond,green,vert,up,"[106,-106]","[0,150]",up,1,2.3376,,,,,,001,2025-03-11_14h26.42.344,SL_base,2021.2.3,Win32,59.88023952,,,31,0,31,0,1,,,,,,,,
,,"[""diamond"",""red"",""hori"",""left"",[106,-106],[0,-150]]",diamond,red,hori,left,"[106,-106]","[0,-150]",left,1,1.6575,,,,,,001,2025-03-11_14h26.42.344,SL_base,2021.2.3,Win32,59.88023952,,,32,0,32,0,1,,,,,,,,
,,"[""diamond"",""no_dis"",""hori"",""left"",[99999,99999],[-150,0]]",diamond,no_dis,hori,left,"[99999,99999]","[-150,0]",left,1,1.2879,,,,,,001,2025-03-11_14h26.42.344,SL_base,2021.2.3,Win32,59.88023952,,,33,0,33,0,1,,,,,,,,
,,"[""diamond"",""red"",""hori"",""left"",[106,106],[106,-106]]",diamond,red,hori,left,"[106,106]","[106,-106]",left,1,0.954,,,,,,001,2025-03-11_14h26.42.344,SL_base,2021.2.3,Win32,59.88023952,,,34,0,34,0,1,,,,,,,,
,,"[""circle"",""no_dis"",""vert"",""up"",[99999,99999],[0,-150]]",circle,no_dis,vert,up,"[99999,99999]","[0,-150]",up,1,0.957,,,,,,001,2025-03-11_14h26.42.344,SL_base,2021.2.3,Win32,59.88023952,,,35,0,35,0,1,,,,,,,,
,,"[""circle"",""red"",""vert"",""up"",[150,0],[-106,106]]",circle,red,vert,up,"[150,0]","[-106,106]",up,1,1.0023,,,,,,001,2025-03-11_14h26.42.344,SL_base,2021.2.3,Win32,59.88023952,,,36,0,36,0,1,,,,,,,,
,,"[""circle"",""no_dis"",""vert"",""up"",[99999,99999],[150,0]]",circle,no_dis,vert,up,"[99999,99999]","[150,0]",left,0,0.8836,,,,,,001,2025-03-11_14h26.42.344,SL_base,2021.2.3,Win32,59.88023952,,,37,0,37,0,1,,,,,,,,
,,"[""circle"",""green"",""hori"",""left"",[-150,0],[-106,106]]",circle,green,hori,left,"[-150,0]","[-106,106]",up,0,0.5427,,,,,,001,2025-03-11_14h26.42.344,SL_base,2021.2.3,Win32,59.88023952,,,38,0,38,0,1,,,,,,,,
,,"[""diamond"",""no_dis"",""vert"",""up"",[99999,99999],[106,106]]",diamond,no_dis,vert,up,"[99999,99999]","[106,106]",up,1,0.7513,,,,,,001,2025-03-11_14h26.42.344,SL_base,2021.2.3,Win32,59.88023952,,,39,0,39,0,1,,,,,,,,
,,"[""diamond"",""red"",""vert"",""up"",[0,150],[106,106]]",diamond,red,vert,up,"[0,150]","[106,106]",up,1,1.0013,,,,,,001,2025-03-11_14h26.42.344,SL_base,2021.2.3,Win32,59.88023952,,,40,0,40,0,1,,,,,,,,
,,"[""circle"",""no_dis"",""hori"",""left"",[99999,99999],[0,-150]]",circle,no_dis,hori,left,"[99999,99999]","[0,-150]",left,1,0.9057,,,,,,001,2025-03-11_14h26.42.344,SL_base,2021.2.3,Win32,59.88023952,,,41,0,41,0,1,,,,,,,,
,,"[""circle"",""red"",""hori"",""left"",[150,0],[-106,-106]]",circle,red,hori,left,"[150,0]","[-106,-106]",left,1,1.3153,,,,,,001,2025-03-11_14h26.42.344,SL_base,2021.2.3,Win32,59.88023952,,,42,0,42,0,1,,,,,,,,
,,"[""circle"",""no_dis"",""vert"",""up"",[99999,99999],[-106,106]]",circle,no_dis,vert,up,"[99999,99999]","[-106,106]",up,1,1.0177,,,,,,001,2025-03-11_14h26.42.344,SL_base,2021.2.3,Win32,59.88023952,,,43,0,43,0,1,,,,,,,,
,,"[""circle"",""green"",""hori"",""left"",[-106,106],[106,-106]]",circle,green,hori,left,"[-106,106]","[106,-106]",left,1,0.8496,,,,,,001,2025-03-11_14h26.42.344,SL_base,2021.2.3,Win32,59.88023952,,,44,0,44,0,1,,,,,,,,
,,"[""circle"",""green"",""hori"",""left"",[-150,0],[106,106]]",circle,green,hori,left,"[-150,0]","[106,106]",left,1,0.9192,,,,,,001,2025-03-11_14h26.42.344,SL_base,2021.2.3,Win32,59.88023952,,,45,0,45,0,1,,,,,,,,
,,"[""circle"",""red"",""hori"",""left"",[-106,-106],[150,0]]",circle,red,hori,left,"[-106,-106]","[150,0]",left,1,2.0676,,,,,,001,2025-03-11_14h26.42.344,SL_base,2021.2.3,Win32,59.88023952,,,46,0,46,0,1,,,,,,,,
,,"[""diamond"",""no_dis"",""hori"",""left"",[99999,99999],[-150,0]]",diamond,no_dis,hori,left,"[99999,99999]","[-150,0]",left,1,1.1361,,,,,,001,2025-03-11_14h26.42.344,SL_base,2021.2.3,Win32,59.88023952,,,47,0,47,0,1,,,,,,,,
,,"[""circle"",""green"",""vert"",""up"",[-106,-106],[-150,0]]",circle,green,vert,up,"[-106,-106]","[-150,0]",up,1,1.2179,,,,,,001,2025-03-11_14h26.42.344,SL_base,2021.2.3,Win32,59.88023952,,,48,0,48,0,1,,,,,,,,
,,"[""diamond"",""no_dis"",""hori"",""left"",[99999,99999],[106,-106]]",diamond,no_dis,hori,left,"[99999,99999]","[106,-106]",left,1,1.6094,,,,,,001,2025-03-11_14h26.42.344,SL_base,2021.2.3,Win32,59.88023952,,,49,0,49,0,1,,,,,,,,
,,"[""circle"",""red"",""vert"",""up"",[106,106],[-150,0]]",circle,red,vert,up,"[106,106]","[-150,0]",up,1,1.5595,,,,,,001,2025-03-11_14h26.42.344,SL_base,2021.2.3,Win32,59.88023952,,,50,0,50,0,1,,,,,,,,
,,"[""diamond"",""green"",""hori"",""left"",[106,106],[0,150]]",diamond,green,hori,left,"[106,106]","[0,150]",left,1,1.3618,,,,,,001,2025-03-11_14h26.42.344,SL_base,2021.2.3,Win32,59.88023952,,,51,0,51,0,1,,,,,,,,
,,"[""diamond"",""no_dis"",""hori"",""left"",[99999,99999],[-106,-106]]",diamond,no_dis,hori,left,"[99999,99999]","[-106,-106]",left,1,0.9728,,,,,,001,2025-03-11_14h26.42.344,SL_base,2021.2.3,Win32,59.88023952,,,52,0,52,0,1,,,,,,,,
,,"[""circle"",""green"",""hori"",""left"",[-106,-106],[-106,106]]",circle,green,hori,left,"[-106,-106]","[-106,106]",left,1,1.1011,,,,,,001,2025-03-11_14h26.42.344,SL_base,2021.2.3,Win32,59.88023952,,,53,0,53,0,1,,,,,,,,
,,"[""circle"",""green"",""vert"",""up"",[0,-150],[-106,106]]",circle,green,vert,up,"[0,-150]","[-106,106]",up,1,1.1319,,,,,,001,2025-03-11_14h26.42.344,SL_base,2021.2.3,Win32,59.88023952,,,54,0,54,0,1,,,,,,,,
,,"[""circle"",""red"",""hori"",""left"",[-106,-106],[106,106]]",circle,red,hori,left,"[-106,-106]","[106,106]",up,0,1.018,,,,,,001,2025-03-11_14h26.42.344,SL_base,2021.2.3,Win32,59.88023952,,,55,0,55,0,1,,,,,,,,
,,"[""diamond"",""green"",""hori"",""left"",[106,-106],[0,150]]",diamond,green,hori,left,"[106,-106]","[0,150]",left,1,1.4676,,,,,,001,2025-03-11_14h26.42.344,SL_base,2021.2.3,Win32,59.88023952,,,56,0,56,0,1,,,,,,,,
,,"[""circle"",""no_dis"",""hori"",""left"",[99999,99999],[0,150]]",circle,no_dis,hori,left,"[99999,99999]","[0,150]",left,1,1.2184,,,,,,001,2025-03-11_14h26.42.344,SL_base,2021.2.3,Win32,59.88023952,,,57,0,57,0,1,,,,,,,,
,,"[""circle"",""no_dis"",""hori"",""left"",[99999,99999],[106,-106]]",circle,no_dis,hori,left,"[99999,99999]","[106,-106]",left,1,1.0604,,,,,,001,2025-03-11_14h26.42.344,SL_base,2021.2.3,Win32,59.88023952,,,58,0,58,0,1,,,,,,,,
,,"[""diamond"",""green"",""vert"",""up"",[-106,-106],[-150,0]]",diamond,green,vert,up,"[-106,-106]","[-150,0]",left,0,0.8333,,,,,,001,2025-03-11_14h26.42.344,SL_base,2021.2.3,Win32,59.88023952,,,59,0,59,0,1,,,,,,,,
,,"[""circle"",""red"",""vert"",""up"",[106,-106],[150,0]]",circle,red,vert,up,"[106,-106]","[150,0]",up,1,1.1354,,,,,,001,2025-03-11_14h26.42.344,SL_base,2021.2.3,Win32,59.88023952,,,60,0,60,0,1,,,,,,,,
,,"[""diamond"",""green"",""hori"",""left"",[106,106],[-106,-106]]",diamond,green,hori,left,"[106,106]","[-106,-106]",left,1,1.3585,,,,,,001,2025-03-11_14h26.42.344,SL_base,2021.2.3,Win32,59.88023952,,,61,0,61,0,1,,,,,,,,
,,"[""circle"",""red"",""hori"",""left"",[-106,106],[0,150]]",circle,red,hori,left,"[-106,106]","[0,150]",up,0,1.139,,,,,,001,2025-03-11_14h26.42.344,SL_base,2021.2.3,Win32,59.88023952,,,62,0,62,0,1,,,,,,,,
,,"[""diamond"",""red"",""hori"",""left"",[106,-106],[-106,-106]]",diamond,red,hori,left,"[106,-106]","[-106,-106]",left,1,0.4504,,,,,,001,2025-03-11_14h26.42.344,SL_base,2021.2.3,Win32,59.88023952,,,63,0,63,0,1,,,,,,,,
,,"[""circle"",""no_dis"",""vert"",""up"",[99999,99999],[106,106]]",circle,no_dis,vert,up,"[99999,99999]","[106,106]",up,1,1.821,,,,,,001,2025-03-11_14h26.42.344,SL_base,2021.2.3,Win32,59.88023952,,,64,0,64,0,1,,,,,,,,
,,"[""diamond"",""green"",""vert"",""up"",[0,-150],[-150,0]]",diamond,green,vert,up,"[0,-150]","[-150,0]",up,1,1.3337,,,,,,001,2025-03-11_14h26.42.344,SL_base,2021.2.3,Win32,59.88023952,,,65,0,65,0,1,,,,,,,,
,,"[""circle"",""green"",""hori"",""left"",[106,-106],[0,-150]]",circle,green,hori,left,"[106,-106]","[0,-150]",left,1,1.1163,,,,,,001,2025-03-11_14h26.42.344,SL_base,2021.2.3,Win32,59.88023952,,,66,0,66,0,1,,,,,,,,
,,"[""diamond"",""red"",""vert"",""up"",[-106,106],[-106,-106]]",diamond,red,vert,up,"[-106,106]","[-106,-106]",up,1,1.1576,,,,,,001,2025-03-11_14h26.42.344,SL_base,2021.2.3,Win32,59.88023952,,,67,0,67,0,1,,,,,,,,
,,"[""circle"",""green"",""hori"",""left"",[0,150],[-150,0]]",circle,green,hori,left,"[0,150]","[-150,0]",left,1,1.0187,,,,,,001,2025-03-11_14h26.42.344,SL_base,2021.2.3,Win32,59.88023952,,,68,0,68,0,1,,,,,,,,
,,"[""circle"",""no_dis"",""vert"",""up"",[99999,99999],[-106,106]]",circle,no_dis,vert,up,"[99999,99999]","[-106,106]",up,1,0.992,,,,,,001,2025-03-11_14h26.42.344,SL_base,2021.2.3,Win32,59.88023952,,,69,0,69,0,1,,,,,,,,
,,"[""diamond"",""green"",""vert"",""up"",[150,0],[-106,-106]]",diamond,green,vert,up,"[150,0]","[-106,-106]",up,1,1.1576,,,,,,001,2025-03-11_14h26.42.344,SL_base,2021.2.3,Win32,59.88023952,,,70,0,70,0,1,,,,,,,,
,,"[""circle"",""no_dis"",""hori"",""left"",[99999,99999],[0,-150]]",circle,no_dis,hori,left,"[99999,99999]","[0,-150]",left,1,1.0042,,,,,,001,2025-03-11_14h26.42.344,SL_base,2021.2.3,Win32,59.88023952,,,71,0,71,0,1,,,,,,,,
,,"[""circle"",""no_dis"",""vert"",""up"",[99999,99999],[150,0]]",circle,no_dis,vert,up,"[99999,99999]","[150,0]",up,1,0.8258,,,,,,001,2025-03-11_14h26.42.344,SL_base,2021.2.3,Win32,59.88023952,,,72,0,72,0,1,,,,,,,,
,,"[""diamond"",""no_dis"",""vert"",""up"",[99999,99999],[106,-106]]",diamond,no_dis,vert,up,"[99999,99999]","[106,-106]",up,1,1.2038,,,,,,001,2025-03-11_14h26.42.344,SL_base,2021.2.3,Win32,59.88023952,,,73,0,73,0,1,,,,,,,,
,,"[""diamond"",""green"",""hori"",""left"",[-106,-106],[-106,106]]",diamond,green,hori,left,"[-106,-106]","[-106,106]",left,1,1.3456,,,,,,001,2025-03-11_14h26.42.344,SL_base,2021.2.3,Win32,59.88023952,,,74,0,74,0,1,,,,,,,,
,,"[""diamond"",""no_dis"",""hori"",""left"",[99999,99999],[106,106]]",diamond,no_dis,hori,left,"[99999,99999]","[106,106]",left,1,0.9345,,,,,,001,2025-03-11_14h26.42.344,SL_base,2021.2.3,Win32,59.88023952,,,75,0,75,0,1,,,,,,,,
,,"[""diamond"",""no_dis"",""vert"",""up"",[99999,99999],[-106,-106]]",diamond,no_dis,vert,up,"[99999,99999]","[-106,-106]",up,1,0.9157,,,,,,001,2025-03-11_14h26.42.344,SL_base,2021.2.3,Win32,59.88023952,,,76,0,76,0,1,,,,,,,,
,,"[""diamond"",""green"",""vert"",""up"",[0,-150],[106,-106]]",diamond,green,vert,up,"[0,-150]","[106,-106]",up,1,0.9512,,,,,,001,2025-03-11_14h26.42.344,SL_base,2021.2.3,Win32,59.88023952,,,77,0,77,0,1,,,,,,,,
,,"[""diamond"",""green"",""vert"",""up"",[0,150],[106,-106]]",diamond,green,vert,up,"[0,150]","[106,-106]",up,1,0.9208,,,,,,001,2025-03-11_14h26.42.344,SL_base,2021.2.3,Win32,59.88023952,,,78,0,78,0,1,,,,,,,,
,,"[""circle"",""red"",""vert"",""up"",[-150,0],[-106,-106]]",circle,red,vert,up,"[-150,0]","[-106,-106]",up,1,1.3187,,,,,,001,2025-03-11_14h26.42.344,SL_base,2021.2.3,Win32,59.88023952,,,79,0,79,0,1,,,,,,,,
,,"[""circle"",""green"",""vert"",""up"",[-106,106],[150,0]]",circle,green,vert,up,"[-106,106]","[150,0]",up,1,1.6378,,,,,,001,2025-03-11_14h26.42.344,SL_base,2021.2.3,Win32,59.88023952,,,80,0,80,0,1,,,,,,,,
,,"[""diamond"",""no_dis"",""vert"",""up"",[99999,99999],[-150,0]]",diamond,no_dis,vert,up,"[99999,99999]","[-150,0]",up,1,1.3907,,,,,,001,2025-03-11_14h26.42.344,SL_base,2021.2.3,Win32,59.88023952,,,81,0,81,0,1,,,,,,,,
,,"[""diamond"",""no_dis"",""vert"",""up"",[99999,99999],[150,0]]",diamond,no_dis,vert,up,"[99999,99999]","[150,0]",up,1,0.836,,,,,,001,2025-03-11_14h26.42.344,SL_base,2021.2.3,Win32,59.88023952,,,82,0,82,0,1,,,,,,,,
,,"[""circle"",""red"",""vert"",""up"",[150,0],[-150,0]]",circle,red,vert,up,"[150,0]","[-150,0]",up,1,1.6759,,,,,,001,2025-03-11_14h26.42.344,SL_base,2021.2.3,Win32,59.88023952,,,83,0,83,0,1,,,,,,,,
,,"[""diamond"",""red"",""vert"",""up"",[106,-106],[-150,0]]",diamond,red,vert,up,"[106,-106]","[-150,0]",up,1,1.1314,,,,,,001,2025-03-11_14h26.42.344,SL_base,2021.2.3,Win32,59.88023952,,,84,0,84,0,1,,,,,,,,
,,"[""circle"",""no_dis"",""vert"",""up"",[99999,99999],[-150,0]]",circle,no_dis,vert,up,"[99999,99999]","[-150,0]",up,1,1.1668,,,,,,001,2025-03-11_14h26.42.344,SL_base,2021.2.3,Win32,59.88023952,,,85,0,85,0,1,,,,,,,,
,,"[""diamond"",""red"",""vert"",""up"",[106,-106],[106,106]]",diamond,red,vert,up,"[106,-106]","[106,106]",left,0,1.1894,,,,,,001,2025-03-11_14h26.42.344,SL_base,2021.2.3,Win32,59.88023952,,,86,0,86,0,1,,,,,,,,
,,"[""diamond"",""no_dis"",""vert"",""up"",[99999,99999],[-106,-106]]",diamond,no_dis,vert,up,"[99999,99999]","[-106,-106]",up,1,1.8672,,,,,,001,2025-03-11_14h26.42.344,SL_base,2021.2.3,Win32,59.88023952,,,87,0,87,0,1,,,,,,,,
,,"[""diamond"",""red"",""hori"",""left"",[0,-150],[-106,106]]",diamond,red,hori,left,"[0,-150]","[-106,106]",left,1,1.0722,,,,,,001,2025-03-11_14h26.42.344,SL_base,2021.2.3,Win32,59.88023952,,,88,0,88,0,1,,,,,,,,
,,"[""diamond"",""no_dis"",""hori"",""left"",[99999,99999],[106,106]]",diamond,no_dis,hori,left,"[99999,99999]","[106,106]",left,1,1.0014,,,,,,001,2025-03-11_14h26.42.344,SL_base,2021.2.3,Win32,59.88023952,,,89,0,89,0,1,,,,,,,,
