﻿key_resp.keys,key_resp.rt,trial_para,tar_shape,dis_color_condi,tar_line,cor_resp,dis_loc,tar_loc,resp.keys,resp.corr,resp.rt,trials.thisRepN,trials.thisTrialN,trials.thisN,trials.thisIndex,trials.ran,participant,date,expName,psychopyVersion,OS,frameRate,key_resp_2.keys,key_resp_2.rt,trials_2.thisRepN,trials_2.thisTrialN,trials_2.thisN,trials_2.thisIndex,trials_2.ran,block_num,key_resp_3.keys,key_resp_3.rt,trials_3.thisRepN,trials_3.thisTrialN,trials_3.thisN,trials_3.thisIndex,trials_3.ran
space,197.3437,"[""circle"",""red"",""hori"",""left"",[106,-106],[0,-150]]",circle,red,hori,left,"[106,-106]","[0,-150]",left,1,1.6663,0,0,0,0,1,001,2025-03-10_17h38.31.991,SL_base,2021.2.3,Win32,142.8571429,,,,,,,,,,,,,,,
,,"[""diamond"",""red"",""vert"",""up"",[-150,0],[0,150]]",diamond,red,vert,up,"[-150,0]","[0,150]",,0,,1,0,1,0,1,001,2025-03-10_17h38.31.991,SL_base,2021.2.3,Win32,142.8571429,,,,,,,,,,,,,,,
,,"[""diamond"",""green"",""hori"",""left"",[106,106],[-106,-106]]",diamond,green,hori,left,"[106,106]","[-106,-106]",up,0,1.4658,2,0,2,0,1,001,2025-03-10_17h38.31.991,SL_base,2021.2.3,Win32,142.8571429,,,,,,,,,,,,,,,
,,"[""diamond"",""no_dis"",""vert"",""up"",[99999,99999],[0,-150]]",diamond,no_dis,vert,up,"[99999,99999]","[0,-150]",up,1,2.2006,3,0,3,0,1,001,2025-03-10_17h38.31.991,SL_base,2021.2.3,Win32,142.8571429,,,,,,,,,,,,,,,
,,"[""diamond"",""green"",""vert"",""up"",[0,150],[150,0]]",diamond,green,vert,up,"[0,150]","[150,0]",left,0,1.9429,4,0,4,0,1,001,2025-03-10_17h38.31.991,SL_base,2021.2.3,Win32,142.8571429,,,,,,,,,,,,,,,
,,"[""circle"",""red"",""vert"",""up"",[-150,0],[0,150]]",circle,red,vert,up,"[-150,0]","[0,150]",up,1,2.5475,5,0,5,0,1,001,2025-03-10_17h38.31.991,SL_base,2021.2.3,Win32,142.8571429,,,,,,,,,,,,,,,
,,"[""diamond"",""green"",""hori"",""left"",[0,150],[-150,0]]",diamond,green,hori,left,"[0,150]","[-150,0]",left,1,2.882,6,0,6,0,1,001,2025-03-10_17h38.31.991,SL_base,2021.2.3,Win32,142.8571429,,,,,,,,,,,,,,,
,,"[""circle"",""no_dis"",""hori"",""left"",[99999,99999],[150,0]]",circle,no_dis,hori,left,"[99999,99999]","[150,0]",left,1,1.991,7,0,7,0,1,001,2025-03-10_17h38.31.991,SL_base,2021.2.3,Win32,142.8571429,,,,,,,,,,,,,,,
,,"[""circle"",""no_dis"",""vert"",""up"",[99999,99999],[-150,0]]",circle,no_dis,vert,up,"[99999,99999]","[-150,0]",left,0,2.7684,8,0,8,0,1,001,2025-03-10_17h38.31.991,SL_base,2021.2.3,Win32,142.8571429,,,,,,,,,,,,,,,
,,"[""diamond"",""red"",""hori"",""left"",[106,106],[-150,0]]",diamond,red,hori,left,"[106,106]","[-150,0]",left,1,0.9968,9,0,9,0,1,001,2025-03-10_17h38.31.991,SL_base,2021.2.3,Win32,142.8571429,,,,,,,,,,,,,,,
,,"[""circle"",""red"",""hori"",""left"",[106,-106],[0,-150]]",circle,red,hori,left,"[106,-106]","[0,-150]",left,1,0.7754,,,,,,001,2025-03-10_17h38.31.991,SL_base,2021.2.3,Win32,142.8571429,space,13.3696,0,0,0,0,1,,,,,,,,
,,"[""diamond"",""red"",""vert"",""up"",[-150,0],[0,150]]",diamond,red,vert,up,"[-150,0]","[0,150]",,0,,,,,,,001,2025-03-10_17h38.31.991,SL_base,2021.2.3,Win32,142.8571429,,,1,0,1,0,1,,,,,,,,
,,"[""diamond"",""green"",""hori"",""left"",[106,106],[-106,-106]]",diamond,green,hori,left,"[106,106]","[-106,-106]",left,1,2.2268,,,,,,001,2025-03-10_17h38.31.991,SL_base,2021.2.3,Win32,142.8571429,,,2,0,2,0,1,,,,,,,,
,,"[""diamond"",""no_dis"",""vert"",""up"",[99999,99999],[0,-150]]",diamond,no_dis,vert,up,"[99999,99999]","[0,-150]",up,1,2.4857,,,,,,001,2025-03-10_17h38.31.991,SL_base,2021.2.3,Win32,142.8571429,,,3,0,3,0,1,,,,,,,,
,,"[""diamond"",""green"",""vert"",""up"",[0,150],[150,0]]",diamond,green,vert,up,"[0,150]","[150,0]",up,1,1.2059,,,,,,001,2025-03-10_17h38.31.991,SL_base,2021.2.3,Win32,142.8571429,,,4,0,4,0,1,,,,,,,,
,,"[""circle"",""red"",""vert"",""up"",[-150,0],[0,150]]",circle,red,vert,up,"[-150,0]","[0,150]",up,1,1.4854,,,,,,001,2025-03-10_17h38.31.991,SL_base,2021.2.3,Win32,142.8571429,,,5,0,5,0,1,,,,,,,,
,,"[""diamond"",""green"",""hori"",""left"",[0,150],[-150,0]]",diamond,green,hori,left,"[0,150]","[-150,0]",left,1,2.003,,,,,,001,2025-03-10_17h38.31.991,SL_base,2021.2.3,Win32,142.8571429,,,6,0,6,0,1,,,,,,,,
,,"[""circle"",""no_dis"",""hori"",""left"",[99999,99999],[150,0]]",circle,no_dis,hori,left,"[99999,99999]","[150,0]",left,1,0.7428,,,,,,001,2025-03-10_17h38.31.991,SL_base,2021.2.3,Win32,142.8571429,,,7,0,7,0,1,,,,,,,,
,,"[""circle"",""no_dis"",""vert"",""up"",[99999,99999],[-150,0]]",circle,no_dis,vert,up,"[99999,99999]","[-150,0]",up,1,0.9932,,,,,,001,2025-03-10_17h38.31.991,SL_base,2021.2.3,Win32,142.8571429,,,8,0,8,0,1,,,,,,,,
,,"[""diamond"",""red"",""hori"",""left"",[106,106],[-150,0]]",diamond,red,hori,left,"[106,106]","[-150,0]",left,1,0.1161,,,,,,001,2025-03-10_17h38.31.991,SL_base,2021.2.3,Win32,142.8571429,,,9,0,9,0,1,,,,,,,,
,,"[""circle"",""red"",""vert"",""up"",[106,-106],[0,150]]",circle,red,vert,up,"[106,-106]","[0,150]",left,0,0.9184,,,,,,001,2025-03-10_17h38.31.991,SL_base,2021.2.3,Win32,142.8571429,,,10,0,10,0,1,,,,,,,,
,,"[""circle"",""red"",""hori"",""left"",[-150,0],[150,0]]",circle,red,hori,left,"[-150,0]","[150,0]",left,1,2.264,,,,,,001,2025-03-10_17h38.31.991,SL_base,2021.2.3,Win32,142.8571429,,,11,0,11,0,1,,,,,,,,
,,"[""circle"",""red"",""vert"",""up"",[-150,0],[106,106]]",circle,red,vert,up,"[-150,0]","[106,106]",up,1,1.3467,,,,,,001,2025-03-10_17h38.31.991,SL_base,2021.2.3,Win32,142.8571429,,,12,0,12,0,1,,,,,,,,
,,"[""circle"",""green"",""hori"",""left"",[-150,0],[0,-150]]",circle,green,hori,left,"[-150,0]","[0,-150]",left,1,0.7139,,,,,,001,2025-03-10_17h38.31.991,SL_base,2021.2.3,Win32,142.8571429,,,13,0,13,0,1,,,,,,,,
,,"[""diamond"",""red"",""hori"",""left"",[-150,0],[-106,106]]",diamond,red,hori,left,"[-150,0]","[-106,106]",left,1,1.2074,,,,,,001,2025-03-10_17h38.31.991,SL_base,2021.2.3,Win32,142.8571429,,,14,0,14,0,1,,,,,,,,
,,"[""circle"",""no_dis"",""vert"",""up"",[99999,99999],[-106,106]]",circle,no_dis,vert,up,"[99999,99999]","[-106,106]",up,1,1.1659,,,,,,001,2025-03-10_17h38.31.991,SL_base,2021.2.3,Win32,142.8571429,,,15,0,15,0,1,,,,,,,,
,,"[""circle"",""green"",""vert"",""up"",[-150,0],[106,106]]",circle,green,vert,up,"[-150,0]","[106,106]",up,1,1.0823,,,,,,001,2025-03-10_17h38.31.991,SL_base,2021.2.3,Win32,142.8571429,,,16,0,16,0,1,,,,,,,,
,,"[""diamond"",""red"",""vert"",""up"",[0,150],[-106,106]]",diamond,red,vert,up,"[0,150]","[-106,106]",up,1,1.414,,,,,,001,2025-03-10_17h38.31.991,SL_base,2021.2.3,Win32,142.8571429,,,17,0,17,0,1,,,,,,,,
,,"[""circle"",""red"",""hori"",""left"",[-150,0],[150,0]]",circle,red,hori,left,"[-150,0]","[150,0]",left,1,1.112,,,,,,001,2025-03-10_17h38.31.991,SL_base,2021.2.3,Win32,142.8571429,,,18,0,18,0,1,,,,,,,,
,,"[""diamond"",""red"",""vert"",""up"",[-106,106],[106,-106]]",diamond,red,vert,up,"[-106,106]","[106,-106]",up,1,0.888,,,,,,001,2025-03-10_17h38.31.991,SL_base,2021.2.3,Win32,142.8571429,,,19,0,19,0,1,,,,,,,,
,,"[""diamond"",""green"",""hori"",""left"",[150,0],[-106,106]]",diamond,green,hori,left,"[150,0]","[-106,106]",left,1,1.2708,,,,,,001,2025-03-10_17h38.31.991,SL_base,2021.2.3,Win32,142.8571429,,,20,0,20,0,1,,,,,,,,
,,"[""circle"",""green"",""hori"",""left"",[-106,-106],[-150,0]]",circle,green,hori,left,"[-106,-106]","[-150,0]",left,1,1.2385,,,,,,001,2025-03-10_17h38.31.991,SL_base,2021.2.3,Win32,142.8571429,,,21,0,21,0,1,,,,,,,,
,,"[""diamond"",""red"",""vert"",""up"",[106,106],[0,-150]]",diamond,red,vert,up,"[106,106]","[0,-150]",up,1,1.0342,,,,,,001,2025-03-10_17h38.31.991,SL_base,2021.2.3,Win32,142.8571429,,,22,0,22,0,1,,,,,,,,
,,"[""diamond"",""green"",""vert"",""up"",[-150,0],[106,-106]]",diamond,green,vert,up,"[-150,0]","[106,-106]",up,1,1.1565,,,,,,001,2025-03-10_17h38.31.991,SL_base,2021.2.3,Win32,142.8571429,,,23,0,23,0,1,,,,,,,,
,,"[""circle"",""red"",""hori"",""left"",[106,106],[150,0]]",circle,red,hori,left,"[106,106]","[150,0]",left,1,1.3648,,,,,,001,2025-03-10_17h38.31.991,SL_base,2021.2.3,Win32,142.8571429,,,24,0,24,0,1,,,,,,,,
,,"[""diamond"",""red"",""vert"",""up"",[150,0],[-106,-106]]",diamond,red,vert,up,"[150,0]","[-106,-106]",up,1,1.6219,,,,,,001,2025-03-10_17h38.31.991,SL_base,2021.2.3,Win32,142.8571429,,,25,0,25,0,1,,,,,,,,
,,"[""diamond"",""no_dis"",""vert"",""up"",[99999,99999],[0,-150]]",diamond,no_dis,vert,up,"[99999,99999]","[0,-150]",up,1,0.8382,,,,,,001,2025-03-10_17h38.31.991,SL_base,2021.2.3,Win32,142.8571429,,,26,0,26,0,1,,,,,,,,
,,"[""circle"",""no_dis"",""vert"",""up"",[99999,99999],[106,106]]",circle,no_dis,vert,up,"[99999,99999]","[106,106]",up,1,1.1873,,,,,,001,2025-03-10_17h38.31.991,SL_base,2021.2.3,Win32,142.8571429,,,27,0,27,0,1,,,,,,,,
,,"[""circle"",""no_dis"",""vert"",""up"",[99999,99999],[0,-150]]",circle,no_dis,vert,up,"[99999,99999]","[0,-150]",up,1,1.1007,,,,,,001,2025-03-10_17h38.31.991,SL_base,2021.2.3,Win32,142.8571429,,,28,0,28,0,1,,,,,,,,
,,"[""circle"",""green"",""vert"",""up"",[150,0],[-106,106]]",circle,green,vert,up,"[150,0]","[-106,106]",up,1,1.4121,,,,,,001,2025-03-10_17h38.31.991,SL_base,2021.2.3,Win32,142.8571429,,,29,0,29,0,1,,,,,,,,
,,"[""circle"",""red"",""vert"",""up"",[-106,-106],[0,-150]]",circle,red,vert,up,"[-106,-106]","[0,-150]",up,1,1.5416,,,,,,001,2025-03-10_17h38.31.991,SL_base,2021.2.3,Win32,142.8571429,,,30,0,30,0,1,,,,,,,,
,,"[""circle"",""red"",""vert"",""up"",[106,106],[-150,0]]",circle,red,vert,up,"[106,106]","[-150,0]",up,1,0.9136,,,,,,001,2025-03-10_17h38.31.991,SL_base,2021.2.3,Win32,142.8571429,,,31,0,31,0,1,,,,,,,,
,,"[""diamond"",""red"",""vert"",""up"",[150,0],[0,-150]]",diamond,red,vert,up,"[150,0]","[0,-150]",up,1,1.4983,,,,,,001,2025-03-10_17h38.31.991,SL_base,2021.2.3,Win32,142.8571429,,,32,0,32,0,1,,,,,,,,
,,"[""circle"",""no_dis"",""vert"",""up"",[99999,99999],[0,150]]",circle,no_dis,vert,up,"[99999,99999]","[0,150]",up,1,1.5091,,,,,,001,2025-03-10_17h38.31.991,SL_base,2021.2.3,Win32,142.8571429,,,33,0,33,0,1,,,,,,,,
,,"[""circle"",""no_dis"",""hori"",""left"",[99999,99999],[0,150]]",circle,no_dis,hori,left,"[99999,99999]","[0,150]",left,1,1.2285,,,,,,001,2025-03-10_17h38.31.991,SL_base,2021.2.3,Win32,142.8571429,,,34,0,34,0,1,,,,,,,,
,,"[""diamond"",""red"",""hori"",""left"",[-106,-106],[0,150]]",diamond,red,hori,left,"[-106,-106]","[0,150]",left,1,1.3768,,,,,,001,2025-03-10_17h38.31.991,SL_base,2021.2.3,Win32,142.8571429,,,35,0,35,0,1,,,,,,,,
,,"[""circle"",""green"",""vert"",""up"",[106,-106],[150,0]]",circle,green,vert,up,"[106,-106]","[150,0]",up,1,2.2902,,,,,,001,2025-03-10_17h38.31.991,SL_base,2021.2.3,Win32,142.8571429,,,36,0,36,0,1,,,,,,,,
,,"[""circle"",""no_dis"",""hori"",""left"",[99999,99999],[106,106]]",circle,no_dis,hori,left,"[99999,99999]","[106,106]",left,1,0.7676,,,,,,001,2025-03-10_17h38.31.991,SL_base,2021.2.3,Win32,142.8571429,,,37,0,37,0,1,,,,,,,,
,,"[""circle"",""red"",""hori"",""left"",[-106,-106],[106,106]]",circle,red,hori,left,"[-106,-106]","[106,106]",left,1,1.0723,,,,,,001,2025-03-10_17h38.31.991,SL_base,2021.2.3,Win32,142.8571429,,,38,0,38,0,1,,,,,,,,
,,"[""diamond"",""red"",""vert"",""up"",[0,-150],[0,150]]",diamond,red,vert,up,"[0,-150]","[0,150]",left,0,0.6158,,,,,,001,2025-03-10_17h38.31.991,SL_base,2021.2.3,Win32,142.8571429,,,39,0,39,0,1,,,,,,,,
,,"[""circle"",""green"",""hori"",""left"",[106,106],[-106,-106]]",circle,green,hori,left,"[106,106]","[-106,-106]",left,1,0.7693,,,,,,001,2025-03-10_17h38.31.991,SL_base,2021.2.3,Win32,142.8571429,,,40,0,40,0,1,,,,,,,,
,,"[""circle"",""red"",""hori"",""left"",[0,150],[0,-150]]",circle,red,hori,left,"[0,150]","[0,-150]",left,1,1.1537,,,,,,001,2025-03-10_17h38.31.991,SL_base,2021.2.3,Win32,142.8571429,,,41,0,41,0,1,,,,,,,,
,,"[""diamond"",""red"",""hori"",""left"",[-150,0],[106,106]]",diamond,red,hori,left,"[-150,0]","[106,106]",left,1,1.5403,,,,,,001,2025-03-10_17h38.31.991,SL_base,2021.2.3,Win32,142.8571429,,,42,0,42,0,1,,,,,,,,
,,"[""circle"",""green"",""hori"",""left"",[-150,0],[0,-150]]",circle,green,hori,left,"[-150,0]","[0,-150]",left,1,1.9865,,,,,,001,2025-03-10_17h38.31.991,SL_base,2021.2.3,Win32,142.8571429,,,43,0,43,0,1,,,,,,,,
,,"[""diamond"",""green"",""hori"",""left"",[0,-150],[-106,-106]]",diamond,green,hori,left,"[0,-150]","[-106,-106]",left,1,1.3493,,,,,,001,2025-03-10_17h38.31.991,SL_base,2021.2.3,Win32,142.8571429,,,44,0,44,0,1,,,,,,,,
,,"[""diamond"",""no_dis"",""vert"",""up"",[99999,99999],[0,-150]]",diamond,no_dis,vert,up,"[99999,99999]","[0,-150]",up,1,1.1469,,,,,,001,2025-03-10_17h38.31.991,SL_base,2021.2.3,Win32,142.8571429,,,45,0,45,0,1,,,,,,,,
,,"[""diamond"",""no_dis"",""vert"",""up"",[99999,99999],[-106,-106]]",diamond,no_dis,vert,up,"[99999,99999]","[-106,-106]",up,1,1.6422,,,,,,001,2025-03-10_17h38.31.991,SL_base,2021.2.3,Win32,142.8571429,,,46,0,46,0,1,,,,,,,,
,,"[""circle"",""green"",""hori"",""left"",[-106,106],[0,-150]]",circle,green,hori,left,"[-106,106]","[0,-150]",left,1,1.0208,,,,,,001,2025-03-10_17h38.31.991,SL_base,2021.2.3,Win32,142.8571429,,,47,0,47,0,1,,,,,,,,
,,"[""diamond"",""red"",""hori"",""left"",[-106,-106],[0,150]]",diamond,red,hori,left,"[-106,-106]","[0,150]",left,1,1.1924,,,,,,001,2025-03-10_17h38.31.991,SL_base,2021.2.3,Win32,142.8571429,,,48,0,48,0,1,,,,,,,,
,,"[""diamond"",""no_dis"",""hori"",""left"",[99999,99999],[150,0]]",diamond,no_dis,hori,left,"[99999,99999]","[150,0]",left,1,0.8342,,,,,,001,2025-03-10_17h38.31.991,SL_base,2021.2.3,Win32,142.8571429,,,49,0,49,0,1,,,,,,,,
,,"[""diamond"",""green"",""hori"",""left"",[0,-150],[0,150]]",diamond,green,hori,left,"[0,-150]","[0,150]",left,1,0.7612,,,,,,001,2025-03-10_17h38.31.991,SL_base,2021.2.3,Win32,142.8571429,,,50,0,50,0,1,,,,,,,,
,,"[""diamond"",""red"",""hori"",""left"",[106,-106],[0,-150]]",diamond,red,hori,left,"[106,-106]","[0,-150]",left,1,1.498,,,,,,001,2025-03-10_17h38.31.991,SL_base,2021.2.3,Win32,142.8571429,,,51,0,51,0,1,,,,,,,,
,,"[""diamond"",""green"",""hori"",""left"",[0,150],[150,0]]",diamond,green,hori,left,"[0,150]","[150,0]",left,1,0.7578,,,,,,001,2025-03-10_17h38.31.991,SL_base,2021.2.3,Win32,142.8571429,,,52,0,52,0,1,,,,,,,,
,,"[""diamond"",""no_dis"",""hori"",""left"",[99999,99999],[106,-106]]",diamond,no_dis,hori,left,"[99999,99999]","[106,-106]",left,1,0.9251,,,,,,001,2025-03-10_17h38.31.991,SL_base,2021.2.3,Win32,142.8571429,,,53,0,53,0,1,,,,,,,,
,,"[""diamond"",""red"",""vert"",""up"",[-150,0],[0,150]]",diamond,red,vert,up,"[-150,0]","[0,150]",up,1,1.7506,,,,,,001,2025-03-10_17h38.31.991,SL_base,2021.2.3,Win32,142.8571429,,,54,0,54,0,1,,,,,,,,
,,"[""circle"",""red"",""hori"",""left"",[-150,0],[-106,106]]",circle,red,hori,left,"[-150,0]","[-106,106]",left,1,1.0944,,,,,,001,2025-03-10_17h38.31.991,SL_base,2021.2.3,Win32,142.8571429,,,55,0,55,0,1,,,,,,,,
,,"[""diamond"",""no_dis"",""hori"",""left"",[99999,99999],[-106,106]]",diamond,no_dis,hori,left,"[99999,99999]","[-106,106]",left,1,1.2209,,,,,,001,2025-03-10_17h38.31.991,SL_base,2021.2.3,Win32,142.8571429,,,56,0,56,0,1,,,,,,,,
,,"[""diamond"",""green"",""vert"",""up"",[-106,106],[-106,-106]]",diamond,green,vert,up,"[-106,106]","[-106,-106]",up,1,1.2622,,,,,,001,2025-03-10_17h38.31.991,SL_base,2021.2.3,Win32,142.8571429,,,57,0,57,0,1,,,,,,,,
,,"[""circle"",""green"",""vert"",""up"",[-150,0],[-106,-106]]",circle,green,vert,up,"[-150,0]","[-106,-106]",up,1,1.1061,,,,,,001,2025-03-10_17h38.31.991,SL_base,2021.2.3,Win32,142.8571429,,,58,0,58,0,1,,,,,,,,
,,"[""diamond"",""green"",""vert"",""up"",[106,-106],[-150,0]]",diamond,green,vert,up,"[106,-106]","[-150,0]",up,1,1.3912,,,,,,001,2025-03-10_17h38.31.991,SL_base,2021.2.3,Win32,142.8571429,,,59,0,59,0,1,,,,,,,,
,,"[""diamond"",""green"",""hori"",""left"",[106,106],[-106,106]]",diamond,green,hori,left,"[106,106]","[-106,106]",left,1,1.2658,,,,,,001,2025-03-10_17h38.31.991,SL_base,2021.2.3,Win32,142.8571429,,,60,0,60,0,1,,,,,,,,
,,"[""diamond"",""red"",""hori"",""left"",[0,150],[106,106]]",diamond,red,hori,left,"[0,150]","[106,106]",left,1,1.2374,,,,,,001,2025-03-10_17h38.31.991,SL_base,2021.2.3,Win32,142.8571429,,,61,0,61,0,1,,,,,,,,
,,"[""diamond"",""red"",""vert"",""up"",[0,-150],[106,-106]]",diamond,red,vert,up,"[0,-150]","[106,-106]",up,1,1.6296,,,,,,001,2025-03-10_17h38.31.991,SL_base,2021.2.3,Win32,142.8571429,,,62,0,62,0,1,,,,,,,,
,,"[""circle"",""no_dis"",""hori"",""left"",[99999,99999],[0,150]]",circle,no_dis,hori,left,"[99999,99999]","[0,150]",left,1,1.6668,,,,,,001,2025-03-10_17h38.31.991,SL_base,2021.2.3,Win32,142.8571429,,,63,0,63,0,1,,,,,,,,
,,"[""circle"",""red"",""hori"",""left"",[-150,0],[0,-150]]",circle,red,hori,left,"[-150,0]","[0,-150]",left,1,1.4504,,,,,,001,2025-03-10_17h38.31.991,SL_base,2021.2.3,Win32,142.8571429,,,64,0,64,0,1,,,,,,,,
,,"[""diamond"",""no_dis"",""vert"",""up"",[99999,99999],[0,150]]",diamond,no_dis,vert,up,"[99999,99999]","[0,150]",up,1,1.3125,,,,,,001,2025-03-10_17h38.31.991,SL_base,2021.2.3,Win32,142.8571429,,,65,0,65,0,1,,,,,,,,
,,"[""diamond"",""red"",""hori"",""left"",[-106,106],[150,0]]",diamond,red,hori,left,"[-106,106]","[150,0]",left,1,1.0539,,,,,,001,2025-03-10_17h38.31.991,SL_base,2021.2.3,Win32,142.8571429,,,66,0,66,0,1,,,,,,,,
,,"[""circle"",""red"",""vert"",""up"",[-106,-106],[0,-150]]",circle,red,vert,up,"[-106,-106]","[0,-150]",up,1,1.0579,,,,,,001,2025-03-10_17h38.31.991,SL_base,2021.2.3,Win32,142.8571429,,,67,0,67,0,1,,,,,,,,
,,"[""circle"",""no_dis"",""hori"",""left"",[99999,99999],[150,0]]",circle,no_dis,hori,left,"[99999,99999]","[150,0]",left,1,1.0508,,,,,,001,2025-03-10_17h38.31.991,SL_base,2021.2.3,Win32,142.8571429,,,68,0,68,0,1,,,,,,,,
,,"[""diamond"",""no_dis"",""hori"",""left"",[99999,99999],[-106,106]]",diamond,no_dis,hori,left,"[99999,99999]","[-106,106]",left,1,1.0424,,,,,,001,2025-03-10_17h38.31.991,SL_base,2021.2.3,Win32,142.8571429,,,69,0,69,0,1,,,,,,,,
,,"[""diamond"",""no_dis"",""vert"",""up"",[99999,99999],[0,150]]",diamond,no_dis,vert,up,"[99999,99999]","[0,150]",up,1,0.9457,,,,,,001,2025-03-10_17h38.31.991,SL_base,2021.2.3,Win32,142.8571429,,,70,0,70,0,1,,,,,,,,
,,"[""diamond"",""green"",""hori"",""left"",[-150,0],[106,106]]",diamond,green,hori,left,"[-150,0]","[106,106]",left,1,0.9121,,,,,,001,2025-03-10_17h38.31.991,SL_base,2021.2.3,Win32,142.8571429,,,71,0,71,0,1,,,,,,,,
,,"[""circle"",""green"",""hori"",""left"",[-150,0],[-106,106]]",circle,green,hori,left,"[-150,0]","[-106,106]",left,1,1.0901,,,,,,001,2025-03-10_17h38.31.991,SL_base,2021.2.3,Win32,142.8571429,,,72,0,72,0,1,,,,,,,,
,,"[""circle"",""green"",""vert"",""up"",[106,-106],[150,0]]",circle,green,vert,up,"[106,-106]","[150,0]",up,1,0.9257,,,,,,001,2025-03-10_17h38.31.991,SL_base,2021.2.3,Win32,142.8571429,,,73,0,73,0,1,,,,,,,,
,,"[""diamond"",""green"",""vert"",""up"",[150,0],[-106,-106]]",diamond,green,vert,up,"[150,0]","[-106,-106]",up,1,0.9872,,,,,,001,2025-03-10_17h38.31.991,SL_base,2021.2.3,Win32,142.8571429,,,74,0,74,0,1,,,,,,,,
,,"[""circle"",""green"",""vert"",""up"",[150,0],[-106,106]]",circle,green,vert,up,"[150,0]","[-106,106]",up,1,1.9608,,,,,,001,2025-03-10_17h38.31.991,SL_base,2021.2.3,Win32,142.8571429,,,75,0,75,0,1,,,,,,,,
,,"[""diamond"",""no_dis"",""vert"",""up"",[99999,99999],[-150,0]]",diamond,no_dis,vert,up,"[99999,99999]","[-150,0]",up,1,1.3276,,,,,,001,2025-03-10_17h38.31.991,SL_base,2021.2.3,Win32,142.8571429,,,76,0,76,0,1,,,,,,,,
,,"[""circle"",""no_dis"",""hori"",""left"",[99999,99999],[-106,-106]]",circle,no_dis,hori,left,"[99999,99999]","[-106,-106]",left,1,0.9951,,,,,,001,2025-03-10_17h38.31.991,SL_base,2021.2.3,Win32,142.8571429,,,77,0,77,0,1,,,,,,,,
,,"[""diamond"",""green"",""hori"",""left"",[-150,0],[-106,-106]]",diamond,green,hori,left,"[-150,0]","[-106,-106]",left,1,1.6297,,,,,,001,2025-03-10_17h38.31.991,SL_base,2021.2.3,Win32,142.8571429,,,78,0,78,0,1,,,,,,,,
,,"[""circle"",""red"",""hori"",""left"",[150,0],[0,-150]]",circle,red,hori,left,"[150,0]","[0,-150]",left,1,1.7596,,,,,,001,2025-03-10_17h38.31.991,SL_base,2021.2.3,Win32,142.8571429,,,79,0,79,0,1,,,,,,,,
,,"[""circle"",""red"",""vert"",""up"",[-150,0],[106,106]]",circle,red,vert,up,"[-150,0]","[106,106]",up,1,1.043,,,,,,001,2025-03-10_17h38.31.991,SL_base,2021.2.3,Win32,142.8571429,,,80,0,80,0,1,,,,,,,,
,,"[""circle"",""no_dis"",""hori"",""left"",[99999,99999],[-106,-106]]",circle,no_dis,hori,left,"[99999,99999]","[-106,-106]",left,1,0.8397,,,,,,001,2025-03-10_17h38.31.991,SL_base,2021.2.3,Win32,142.8571429,,,81,0,81,0,1,,,,,,,,
,,"[""circle"",""green"",""hori"",""left"",[-150,0],[0,150]]",circle,green,hori,left,"[-150,0]","[0,150]",up,0,1.8898,,,,,,001,2025-03-10_17h38.31.991,SL_base,2021.2.3,Win32,142.8571429,,,82,0,82,0,1,,,,,,,,
,,"[""circle"",""green"",""hori"",""left"",[0,-150],[150,0]]",circle,green,hori,left,"[0,-150]","[150,0]",left,1,0.8943,,,,,,001,2025-03-10_17h38.31.991,SL_base,2021.2.3,Win32,142.8571429,,,83,0,83,0,1,,,,,,,,
,,"[""circle"",""green"",""hori"",""left"",[-150,0],[-106,-106]]",circle,green,hori,left,"[-150,0]","[-106,-106]",left,1,1.5335,,,,,,001,2025-03-10_17h38.31.991,SL_base,2021.2.3,Win32,142.8571429,,,84,0,84,0,1,,,,,,,,
,,"[""circle"",""no_dis"",""hori"",""left"",[99999,99999],[150,0]]",circle,no_dis,hori,left,"[99999,99999]","[150,0]",left,1,0.728,,,,,,001,2025-03-10_17h38.31.991,SL_base,2021.2.3,Win32,142.8571429,,,85,0,85,0,1,,,,,,,,
,,"[""diamond"",""red"",""hori"",""left"",[-106,106],[0,-150]]",diamond,red,hori,left,"[-106,106]","[0,-150]",left,1,1.3962,,,,,,001,2025-03-10_17h38.31.991,SL_base,2021.2.3,Win32,142.8571429,,,86,0,86,0,1,,,,,,,,
,,"[""diamond"",""no_dis"",""vert"",""up"",[99999,99999],[106,106]]",diamond,no_dis,vert,up,"[99999,99999]","[106,106]",up,1,1.2757,,,,,,001,2025-03-10_17h38.31.991,SL_base,2021.2.3,Win32,142.8571429,,,87,0,87,0,1,,,,,,,,
,,"[""circle"",""no_dis"",""vert"",""up"",[99999,99999],[-106,106]]",circle,no_dis,vert,up,"[99999,99999]","[-106,106]",up,1,1.3298,,,,,,001,2025-03-10_17h38.31.991,SL_base,2021.2.3,Win32,142.8571429,,,88,0,88,0,1,,,,,,,,
,,"[""diamond"",""no_dis"",""vert"",""up"",[99999,99999],[150,0]]",diamond,no_dis,vert,up,"[99999,99999]","[150,0]",up,1,1.2872,,,,,,001,2025-03-10_17h38.31.991,SL_base,2021.2.3,Win32,142.8571429,,,89,0,89,0,1,,,,,,,,
,,"[""circle"",""no_dis"",""vert"",""up"",[99999,99999],[-150,0]]",circle,no_dis,vert,up,"[99999,99999]","[-150,0]",up,1,1.7626,,,,,,001,2025-03-10_17h38.31.991,SL_base,2021.2.3,Win32,142.8571429,,,90,0,90,0,1,,,,,,,,
,,"[""circle"",""no_dis"",""hori"",""left"",[99999,99999],[-106,-106]]",circle,no_dis,hori,left,"[99999,99999]","[-106,-106]",left,1,1.0522,,,,,,001,2025-03-10_17h38.31.991,SL_base,2021.2.3,Win32,142.8571429,,,91,0,91,0,1,,,,,,,,
,,"[""circle"",""green"",""vert"",""up"",[-106,-106],[106,-106]]",circle,green,vert,up,"[-106,-106]","[106,-106]",up,1,1.0861,,,,,,001,2025-03-10_17h38.31.991,SL_base,2021.2.3,Win32,142.8571429,,,92,0,92,0,1,,,,,,,,
,,"[""circle"",""green"",""vert"",""up"",[-106,-106],[0,-150]]",circle,green,vert,up,"[-106,-106]","[0,-150]",up,1,1.3672,,,,,,001,2025-03-10_17h38.31.991,SL_base,2021.2.3,Win32,142.8571429,,,93,0,93,0,1,,,,,,,,
,,"[""circle"",""red"",""vert"",""up"",[-106,106],[-150,0]]",circle,red,vert,up,"[-106,106]","[-150,0]",up,1,0.9866,,,,,,001,2025-03-10_17h38.31.991,SL_base,2021.2.3,Win32,142.8571429,,,94,0,94,0,1,,,,,,,,
,,"[""diamond"",""no_dis"",""hori"",""left"",[99999,99999],[106,-106]]",diamond,no_dis,hori,left,"[99999,99999]","[106,-106]",left,1,1.1534,,,,,,001,2025-03-10_17h38.31.991,SL_base,2021.2.3,Win32,142.8571429,,,95,0,95,0,1,,,,,,,,
,,"[""diamond"",""green"",""vert"",""up"",[0,-150],[-106,106]]",diamond,green,vert,up,"[0,-150]","[-106,106]",up,1,0.7312,,,,,,001,2025-03-10_17h38.31.991,SL_base,2021.2.3,Win32,142.8571429,,,96,0,96,0,1,,,,,,,,
,,"[""circle"",""green"",""vert"",""up"",[-106,106],[106,106]]",circle,green,vert,up,"[-106,106]","[106,106]",up,1,0.6452,,,,,,001,2025-03-10_17h38.31.991,SL_base,2021.2.3,Win32,142.8571429,,,97,0,97,0,1,,,,,,,,
,,"[""diamond"",""red"",""vert"",""up"",[106,106],[150,0]]",diamond,red,vert,up,"[106,106]","[150,0]",up,1,1.5168,,,,,,001,2025-03-10_17h38.31.991,SL_base,2021.2.3,Win32,142.8571429,,,98,0,98,0,1,,,,,,,,
,,"[""diamond"",""no_dis"",""hori"",""left"",[99999,99999],[106,-106]]",diamond,no_dis,hori,left,"[99999,99999]","[106,-106]",left,1,1.2371,,,,,,001,2025-03-10_17h38.31.991,SL_base,2021.2.3,Win32,142.8571429,,,99,0,99,0,1,,,,,,,,
,,"[""diamond"",""red"",""hori"",""left"",[150,0],[-106,-106]]",diamond,red,hori,left,"[150,0]","[-106,-106]",left,1,1.4666,,,,,,001,2025-03-10_17h38.31.991,SL_base,2021.2.3,Win32,142.8571429,,,100,0,100,0,1,,,,,,,,
,,"[""circle"",""green"",""hori"",""left"",[106,-106],[-150,0]]",circle,green,hori,left,"[106,-106]","[-150,0]",left,1,0.7246,,,,,,001,2025-03-10_17h38.31.991,SL_base,2021.2.3,Win32,142.8571429,,,101,0,101,0,1,,,,,,,,
,,"[""circle"",""red"",""hori"",""left"",[0,-150],[106,-106]]",circle,red,hori,left,"[0,-150]","[106,-106]",left,1,1.1057,,,,,,001,2025-03-10_17h38.31.991,SL_base,2021.2.3,Win32,142.8571429,,,102,0,102,0,1,,,,,,,,
,,"[""circle"",""red"",""vert"",""up"",[0,-150],[106,-106]]",circle,red,vert,up,"[0,-150]","[106,-106]",up,1,1.9499,,,,,,001,2025-03-10_17h38.31.991,SL_base,2021.2.3,Win32,142.8571429,,,103,0,103,0,1,,,,,,,,
,,"[""diamond"",""green"",""vert"",""up"",[106,-106],[-106,-106]]",diamond,green,vert,up,"[106,-106]","[-106,-106]",up,1,1.7697,,,,,,001,2025-03-10_17h38.31.991,SL_base,2021.2.3,Win32,142.8571429,,,104,0,104,0,1,,,,,,,,
,,"[""circle"",""no_dis"",""vert"",""up"",[99999,99999],[-150,0]]",circle,no_dis,vert,up,"[99999,99999]","[-150,0]",up,1,0.6941,,,,,,001,2025-03-10_17h38.31.991,SL_base,2021.2.3,Win32,142.8571429,,,105,0,105,0,1,,,,,,,,
,,"[""diamond"",""green"",""vert"",""up"",[-150,0],[106,-106]]",diamond,green,vert,up,"[-150,0]","[106,-106]",up,1,1.9635,,,,,,001,2025-03-10_17h38.31.991,SL_base,2021.2.3,Win32,142.8571429,,,106,0,106,0,1,,,,,,,,
,,"[""diamond"",""no_dis"",""hori"",""left"",[99999,99999],[-106,-106]]",diamond,no_dis,hori,left,"[99999,99999]","[-106,-106]",left,1,1.9723,,,,,,001,2025-03-10_17h38.31.991,SL_base,2021.2.3,Win32,142.8571429,,,107,0,107,0,1,,,,,,,,
,,"[""diamond"",""no_dis"",""hori"",""left"",[99999,99999],[-150,0]]",diamond,no_dis,hori,left,"[99999,99999]","[-150,0]",left,1,0.8164,,,,,,001,2025-03-10_17h38.31.991,SL_base,2021.2.3,Win32,142.8571429,,,108,0,108,0,1,,,,,,,,
,,"[""circle"",""red"",""vert"",""up"",[0,150],[106,-106]]",circle,red,vert,up,"[0,150]","[106,-106]",up,1,1.4369,,,,,,001,2025-03-10_17h38.31.991,SL_base,2021.2.3,Win32,142.8571429,,,109,0,109,0,1,,,,,,,,
,,"[""circle"",""no_dis"",""vert"",""up"",[99999,99999],[-106,106]]",circle,no_dis,vert,up,"[99999,99999]","[-106,106]",up,1,0.9105,,,,,,001,2025-03-10_17h38.31.991,SL_base,2021.2.3,Win32,142.8571429,,,110,0,110,0,1,,,,,,,,
,,"[""diamond"",""no_dis"",""vert"",""up"",[99999,99999],[0,-150]]",diamond,no_dis,vert,up,"[99999,99999]","[0,-150]",left,0,0.8758,,,,,,001,2025-03-10_17h38.31.991,SL_base,2021.2.3,Win32,142.8571429,,,111,0,111,0,1,,,,,,,,
,,"[""circle"",""no_dis"",""vert"",""up"",[99999,99999],[106,-106]]",circle,no_dis,vert,up,"[99999,99999]","[106,-106]",up,1,1.4171,,,,,,001,2025-03-10_17h38.31.991,SL_base,2021.2.3,Win32,142.8571429,,,112,0,112,0,1,,,,,,,,
,,"[""diamond"",""no_dis"",""hori"",""left"",[99999,99999],[106,106]]",diamond,no_dis,hori,left,"[99999,99999]","[106,106]",left,1,1.3464,,,,,,001,2025-03-10_17h38.31.991,SL_base,2021.2.3,Win32,142.8571429,,,113,0,113,0,1,,,,,,,,
,,"[""circle"",""green"",""vert"",""up"",[-150,0],[0,-150]]",circle,green,vert,up,"[-150,0]","[0,-150]",up,1,0.7568,,,,,,001,2025-03-10_17h38.31.991,SL_base,2021.2.3,Win32,142.8571429,,,114,0,114,0,1,,,,,,,,
,,"[""diamond"",""green"",""vert"",""up"",[0,150],[106,106]]",diamond,green,vert,up,"[0,150]","[106,106]",up,1,0.9082,,,,,,001,2025-03-10_17h38.31.991,SL_base,2021.2.3,Win32,142.8571429,,,115,0,115,0,1,,,,,,,,
,,"[""diamond"",""green"",""hori"",""left"",[-106,106],[-150,0]]",diamond,green,hori,left,"[-106,106]","[-150,0]",left,1,0.8836,,,,,,001,2025-03-10_17h38.31.991,SL_base,2021.2.3,Win32,142.8571429,,,116,0,116,0,1,,,,,,,,
,,"[""circle"",""no_dis"",""hori"",""left"",[99999,99999],[106,106]]",circle,no_dis,hori,left,"[99999,99999]","[106,106]",left,1,0.7212,,,,,,001,2025-03-10_17h38.31.991,SL_base,2021.2.3,Win32,142.8571429,,,117,0,117,0,1,,,,,,,,
,,"[""diamond"",""green"",""vert"",""up"",[-150,0],[0,150]]",diamond,green,vert,up,"[-150,0]","[0,150]",up,1,1.1757,,,,,,001,2025-03-10_17h38.31.991,SL_base,2021.2.3,Win32,142.8571429,,,118,0,118,0,1,,,,,,,,
,,"[""diamond"",""no_dis"",""hori"",""left"",[99999,99999],[106,-106]]",diamond,no_dis,hori,left,"[99999,99999]","[106,-106]",left,1,0.7827,,,,,,001,2025-03-10_17h38.31.991,SL_base,2021.2.3,Win32,142.8571429,,,119,0,119,0,1,,,,,,,,
,,,,,,,,,,,,,,,,,001,2025-03-10_17h38.31.991,SL_base,2021.2.3,Win32,142.8571429,,,,,,,,1,space,130.3123,0,0,0,0,1
,,"[""circle"",""red"",""hori"",""left"",[-150,0],[0,-150]]",circle,red,hori,left,"[-150,0]","[0,-150]",left,1,0.8545,,,,,,001,2025-03-10_17h38.31.991,SL_base,2021.2.3,Win32,142.8571429,,,0,0,0,0,1,,,,,,,,
,,"[""diamond"",""green"",""hori"",""left"",[0,-150],[-106,-106]]",diamond,green,hori,left,"[0,-150]","[-106,-106]",left,1,0.8869,,,,,,001,2025-03-10_17h38.31.991,SL_base,2021.2.3,Win32,142.8571429,,,1,0,1,0,1,,,,,,,,
,,"[""circle"",""red"",""hori"",""left"",[0,-150],[106,-106]]",circle,red,hori,left,"[0,-150]","[106,-106]",left,1,0.9799,,,,,,001,2025-03-10_17h38.31.991,SL_base,2021.2.3,Win32,142.8571429,,,2,0,2,0,1,,,,,,,,
,,"[""diamond"",""no_dis"",""vert"",""up"",[99999,99999],[150,0]]",diamond,no_dis,vert,up,"[99999,99999]","[150,0]",up,1,1.07,,,,,,001,2025-03-10_17h38.31.991,SL_base,2021.2.3,Win32,142.8571429,,,3,0,3,0,1,,,,,,,,
,,"[""circle"",""green"",""vert"",""up"",[106,-106],[150,0]]",circle,green,vert,up,"[106,-106]","[150,0]",up,1,0.841,,,,,,001,2025-03-10_17h38.31.991,SL_base,2021.2.3,Win32,142.8571429,,,4,0,4,0,1,,,,,,,,
,,"[""diamond"",""red"",""hori"",""left"",[-106,106],[150,0]]",diamond,red,hori,left,"[-106,106]","[150,0]",up,0,1.0698,,,,,,001,2025-03-10_17h38.31.991,SL_base,2021.2.3,Win32,142.8571429,,,5,0,5,0,1,,,,,,,,
,,"[""diamond"",""no_dis"",""vert"",""up"",[99999,99999],[-150,0]]",diamond,no_dis,vert,up,"[99999,99999]","[-150,0]",up,1,1.1805,,,,,,001,2025-03-10_17h38.31.991,SL_base,2021.2.3,Win32,142.8571429,,,6,0,6,0,1,,,,,,,,
,,"[""diamond"",""green"",""hori"",""left"",[0,-150],[0,150]]",diamond,green,hori,left,"[0,-150]","[0,150]",left,1,0.8057,,,,,,001,2025-03-10_17h38.31.991,SL_base,2021.2.3,Win32,142.8571429,,,7,0,7,0,1,,,,,,,,
,,"[""diamond"",""no_dis"",""hori"",""left"",[99999,99999],[106,-106]]",diamond,no_dis,hori,left,"[99999,99999]","[106,-106]",left,1,0.8897,,,,,,001,2025-03-10_17h38.31.991,SL_base,2021.2.3,Win32,142.8571429,,,8,0,8,0,1,,,,,,,,
,,"[""diamond"",""green"",""vert"",""up"",[0,-150],[-106,106]]",diamond,green,vert,up,"[0,-150]","[-106,106]",up,1,1.1089,,,,,,001,2025-03-10_17h38.31.991,SL_base,2021.2.3,Win32,142.8571429,,,9,0,9,0,1,,,,,,,,
,,"[""diamond"",""red"",""hori"",""left"",[-150,0],[106,106]]",diamond,red,hori,left,"[-150,0]","[106,106]",left,1,0.7988,,,,,,001,2025-03-10_17h38.31.991,SL_base,2021.2.3,Win32,142.8571429,,,10,0,10,0,1,,,,,,,,
,,"[""diamond"",""no_dis"",""hori"",""left"",[99999,99999],[-106,106]]",diamond,no_dis,hori,left,"[99999,99999]","[-106,106]",left,1,1.3174,,,,,,001,2025-03-10_17h38.31.991,SL_base,2021.2.3,Win32,142.8571429,,,11,0,11,0,1,,,,,,,,
,,"[""diamond"",""red"",""vert"",""up"",[106,106],[150,0]]",diamond,red,vert,up,"[106,106]","[150,0]",up,1,1.6735,,,,,,001,2025-03-10_17h38.31.991,SL_base,2021.2.3,Win32,142.8571429,,,12,0,12,0,1,,,,,,,,
,,"[""diamond"",""red"",""vert"",""up"",[0,-150],[0,150]]",diamond,red,vert,up,"[0,-150]","[0,150]",up,1,0.8106,,,,,,001,2025-03-10_17h38.31.991,SL_base,2021.2.3,Win32,142.8571429,,,13,0,13,0,1,,,,,,,,
,,"[""circle"",""red"",""vert"",""up"",[106,106],[-150,0]]",circle,red,vert,up,"[106,106]","[-150,0]",up,1,1.3489,,,,,,001,2025-03-10_17h38.31.991,SL_base,2021.2.3,Win32,142.8571429,,,14,0,14,0,1,,,,,,,,
,,"[""circle"",""no_dis"",""hori"",""left"",[99999,99999],[106,106]]",circle,no_dis,hori,left,"[99999,99999]","[106,106]",left,1,1.2367,,,,,,001,2025-03-10_17h38.31.991,SL_base,2021.2.3,Win32,142.8571429,,,15,0,15,0,1,,,,,,,,
,,"[""circle"",""no_dis"",""vert"",""up"",[99999,99999],[106,-106]]",circle,no_dis,vert,up,"[99999,99999]","[106,-106]",up,1,1.6193,,,,,,001,2025-03-10_17h38.31.991,SL_base,2021.2.3,Win32,142.8571429,,,16,0,16,0,1,,,,,,,,
,,"[""diamond"",""no_dis"",""vert"",""up"",[99999,99999],[0,-150]]",diamond,no_dis,vert,up,"[99999,99999]","[0,-150]",up,1,1.6197,,,,,,001,2025-03-10_17h38.31.991,SL_base,2021.2.3,Win32,142.8571429,,,17,0,17,0,1,,,,,,,,
,,"[""circle"",""green"",""vert"",""up"",[-150,0],[-106,-106]]",circle,green,vert,up,"[-150,0]","[-106,-106]",up,1,0.8058,,,,,,001,2025-03-10_17h38.31.991,SL_base,2021.2.3,Win32,142.8571429,,,18,0,18,0,1,,,,,,,,
,,"[""circle"",""green"",""hori"",""left"",[-106,-106],[-150,0]]",circle,green,hori,left,"[-106,-106]","[-150,0]",left,1,0.8233,,,,,,001,2025-03-10_17h38.31.991,SL_base,2021.2.3,Win32,142.8571429,,,19,0,19,0,1,,,,,,,,
,,"[""circle"",""no_dis"",""hori"",""left"",[99999,99999],[-106,-106]]",circle,no_dis,hori,left,"[99999,99999]","[-106,-106]",left,1,0.7156,,,,,,001,2025-03-10_17h38.31.991,SL_base,2021.2.3,Win32,142.8571429,,,20,0,20,0,1,,,,,,,,
,,"[""circle"",""green"",""vert"",""up"",[150,0],[-106,106]]",circle,green,vert,up,"[150,0]","[-106,106]",up,1,0.7461,,,,,,001,2025-03-10_17h38.31.991,SL_base,2021.2.3,Win32,142.8571429,,,21,0,21,0,1,,,,,,,,
,,"[""circle"",""no_dis"",""hori"",""left"",[99999,99999],[106,106]]",circle,no_dis,hori,left,"[99999,99999]","[106,106]",left,1,0.564,,,,,,001,2025-03-10_17h38.31.991,SL_base,2021.2.3,Win32,142.8571429,,,22,0,22,0,1,,,,,,,,
,,"[""diamond"",""green"",""hori"",""left"",[0,150],[150,0]]",diamond,green,hori,left,"[0,150]","[150,0]",left,1,1.3266,,,,,,001,2025-03-10_17h38.31.991,SL_base,2021.2.3,Win32,142.8571429,,,23,0,23,0,1,,,,,,,,
,,"[""circle"",""green"",""vert"",""up"",[106,-106],[150,0]]",circle,green,vert,up,"[106,-106]","[150,0]",up,1,1.6687,,,,,,001,2025-03-10_17h38.31.991,SL_base,2021.2.3,Win32,142.8571429,,,24,0,24,0,1,,,,,,,,
,,"[""circle"",""green"",""vert"",""up"",[-106,-106],[0,-150]]",circle,green,vert,up,"[-106,-106]","[0,-150]",up,1,2.2038,,,,,,001,2025-03-10_17h38.31.991,SL_base,2021.2.3,Win32,142.8571429,,,25,0,25,0,1,,,,,,,,
,,"[""diamond"",""red"",""hori"",""left"",[106,-106],[0,-150]]",diamond,red,hori,left,"[106,-106]","[0,-150]",left,1,1.4442,,,,,,001,2025-03-10_17h38.31.991,SL_base,2021.2.3,Win32,142.8571429,,,26,0,26,0,1,,,,,,,,
,,"[""circle"",""no_dis"",""hori"",""left"",[99999,99999],[150,0]]",circle,no_dis,hori,left,"[99999,99999]","[150,0]",left,1,0.9597,,,,,,001,2025-03-10_17h38.31.991,SL_base,2021.2.3,Win32,142.8571429,,,27,0,27,0,1,,,,,,,,
,,"[""diamond"",""red"",""hori"",""left"",[106,106],[-150,0]]",diamond,red,hori,left,"[106,106]","[-150,0]",left,1,1.239,,,,,,001,2025-03-10_17h38.31.991,SL_base,2021.2.3,Win32,142.8571429,,,28,0,28,0,1,,,,,,,,
,,"[""diamond"",""green"",""vert"",""up"",[106,-106],[-106,-106]]",diamond,green,vert,up,"[106,-106]","[-106,-106]",up,1,0.8196,,,,,,001,2025-03-10_17h38.31.991,SL_base,2021.2.3,Win32,142.8571429,,,29,0,29,0,1,,,,,,,,
,,"[""circle"",""no_dis"",""hori"",""left"",[99999,99999],[-106,-106]]",circle,no_dis,hori,left,"[99999,99999]","[-106,-106]",left,1,0.7055,,,,,,001,2025-03-10_17h38.31.991,SL_base,2021.2.3,Win32,142.8571429,,,30,0,30,0,1,,,,,,,,
,,"[""circle"",""red"",""vert"",""up"",[-150,0],[0,150]]",circle,red,vert,up,"[-150,0]","[0,150]",up,1,0.7777,,,,,,001,2025-03-10_17h38.31.991,SL_base,2021.2.3,Win32,142.8571429,,,31,0,31,0,1,,,,,,,,
,,"[""circle"",""no_dis"",""hori"",""left"",[99999,99999],[0,150]]",circle,no_dis,hori,left,"[99999,99999]","[0,150]",left,1,1.0903,,,,,,001,2025-03-10_17h38.31.991,SL_base,2021.2.3,Win32,142.8571429,,,32,0,32,0,1,,,,,,,,
,,"[""circle"",""red"",""hori"",""left"",[0,150],[0,-150]]",circle,red,hori,left,"[0,150]","[0,-150]",left,1,1.1329,,,,,,001,2025-03-10_17h38.31.991,SL_base,2021.2.3,Win32,142.8571429,,,33,0,33,0,1,,,,,,,,
,,"[""circle"",""no_dis"",""vert"",""up"",[99999,99999],[-106,106]]",circle,no_dis,vert,up,"[99999,99999]","[-106,106]",up,1,0.6945,,,,,,001,2025-03-10_17h38.31.991,SL_base,2021.2.3,Win32,142.8571429,,,34,0,34,0,1,,,,,,,,
,,"[""diamond"",""no_dis"",""vert"",""up"",[99999,99999],[0,-150]]",diamond,no_dis,vert,up,"[99999,99999]","[0,-150]",up,1,0.9659,,,,,,001,2025-03-10_17h38.31.991,SL_base,2021.2.3,Win32,142.8571429,,,35,0,35,0,1,,,,,,,,
,,"[""circle"",""red"",""vert"",""up"",[-150,0],[106,106]]",circle,red,vert,up,"[-150,0]","[106,106]",up,1,1.1743,,,,,,001,2025-03-10_17h38.31.991,SL_base,2021.2.3,Win32,142.8571429,,,36,0,36,0,1,,,,,,,,
,,"[""diamond"",""green"",""vert"",""up"",[106,-106],[-150,0]]",diamond,green,vert,up,"[106,-106]","[-150,0]",up,1,1.6406,,,,,,001,2025-03-10_17h38.31.991,SL_base,2021.2.3,Win32,142.8571429,,,37,0,37,0,1,,,,,,,,
,,"[""diamond"",""red"",""hori"",""left"",[0,150],[106,106]]",diamond,red,hori,left,"[0,150]","[106,106]",left,1,0.7987,,,,,,001,2025-03-10_17h38.31.991,SL_base,2021.2.3,Win32,142.8571429,,,38,0,38,0,1,,,,,,,,
,,"[""circle"",""green"",""hori"",""left"",[0,-150],[150,0]]",circle,green,hori,left,"[0,-150]","[150,0]",left,1,0.7176,,,,,,001,2025-03-10_17h38.31.991,SL_base,2021.2.3,Win32,142.8571429,,,39,0,39,0,1,,,,,,,,
,,"[""diamond"",""green"",""hori"",""left"",[-150,0],[-106,-106]]",diamond,green,hori,left,"[-150,0]","[-106,-106]",left,1,1.0011,,,,,,001,2025-03-10_17h38.31.991,SL_base,2021.2.3,Win32,142.8571429,,,40,0,40,0,1,,,,,,,,
,,"[""diamond"",""no_dis"",""vert"",""up"",[99999,99999],[0,150]]",diamond,no_dis,vert,up,"[99999,99999]","[0,150]",up,1,1.7294,,,,,,001,2025-03-10_17h38.31.991,SL_base,2021.2.3,Win32,142.8571429,,,41,0,41,0,1,,,,,,,,
,,"[""circle"",""green"",""hori"",""left"",[-106,106],[0,-150]]",circle,green,hori,left,"[-106,106]","[0,-150]",left,1,0.7637,,,,,,001,2025-03-10_17h38.31.991,SL_base,2021.2.3,Win32,142.8571429,,,42,0,42,0,1,,,,,,,,
,,"[""diamond"",""green"",""vert"",""up"",[0,150],[106,106]]",diamond,green,vert,up,"[0,150]","[106,106]",up,1,1.2616,,,,,,001,2025-03-10_17h38.31.991,SL_base,2021.2.3,Win32,142.8571429,,,43,0,43,0,1,,,,,,,,
,,"[""diamond"",""green"",""vert"",""up"",[-150,0],[0,150]]",diamond,green,vert,up,"[-150,0]","[0,150]",up,1,0.9998,,,,,,001,2025-03-10_17h38.31.991,SL_base,2021.2.3,Win32,142.8571429,,,44,0,44,0,1,,,,,,,,
,,"[""circle"",""red"",""hori"",""left"",[-106,-106],[106,106]]",circle,red,hori,left,"[-106,-106]","[106,106]",left,1,1.488,,,,,,001,2025-03-10_17h38.31.991,SL_base,2021.2.3,Win32,142.8571429,,,45,0,45,0,1,,,,,,,,
,,"[""diamond"",""red"",""vert"",""up"",[0,-150],[106,-106]]",diamond,red,vert,up,"[0,-150]","[106,-106]",up,1,1.6252,,,,,,001,2025-03-10_17h38.31.991,SL_base,2021.2.3,Win32,142.8571429,,,46,0,46,0,1,,,,,,,,
,,"[""circle"",""red"",""vert"",""up"",[-106,-106],[0,-150]]",circle,red,vert,up,"[-106,-106]","[0,-150]",up,1,1.7373,,,,,,001,2025-03-10_17h38.31.991,SL_base,2021.2.3,Win32,142.8571429,,,47,0,47,0,1,,,,,,,,
,,"[""circle"",""red"",""hori"",""left"",[-150,0],[150,0]]",circle,red,hori,left,"[-150,0]","[150,0]",left,1,1.1044,,,,,,001,2025-03-10_17h38.31.991,SL_base,2021.2.3,Win32,142.8571429,,,48,0,48,0,1,,,,,,,,
,,"[""diamond"",""green"",""vert"",""up"",[150,0],[-106,-106]]",diamond,green,vert,up,"[150,0]","[-106,-106]",left,0,1.424,,,,,,001,2025-03-10_17h38.31.991,SL_base,2021.2.3,Win32,142.8571429,,,49,0,49,0,1,,,,,,,,
,,"[""circle"",""no_dis"",""vert"",""up"",[99999,99999],[-150,0]]",circle,no_dis,vert,up,"[99999,99999]","[-150,0]",up,1,1.6202,,,,,,001,2025-03-10_17h38.31.991,SL_base,2021.2.3,Win32,142.8571429,,,50,0,50,0,1,,,,,,,,
,,"[""circle"",""no_dis"",""hori"",""left"",[99999,99999],[0,150]]",circle,no_dis,hori,left,"[99999,99999]","[0,150]",left,1,0.9559,,,,,,001,2025-03-10_17h38.31.991,SL_base,2021.2.3,Win32,142.8571429,,,51,0,51,0,1,,,,,,,,
,,"[""diamond"",""red"",""hori"",""left"",[-150,0],[-106,106]]",diamond,red,hori,left,"[-150,0]","[-106,106]",left,1,1.8345,,,,,,001,2025-03-10_17h38.31.991,SL_base,2021.2.3,Win32,142.8571429,,,52,0,52,0,1,,,,,,,,
,,"[""diamond"",""green"",""hori"",""left"",[-150,0],[106,106]]",diamond,green,hori,left,"[-150,0]","[106,106]",left,1,0.7158,,,,,,001,2025-03-10_17h38.31.991,SL_base,2021.2.3,Win32,142.8571429,,,53,0,53,0,1,,,,,,,,
,,"[""diamond"",""no_dis"",""vert"",""up"",[99999,99999],[-106,-106]]",diamond,no_dis,vert,up,"[99999,99999]","[-106,-106]",up,1,1.7364,,,,,,001,2025-03-10_17h38.31.991,SL_base,2021.2.3,Win32,142.8571429,,,54,0,54,0,1,,,,,,,,
,,"[""diamond"",""green"",""vert"",""up"",[-150,0],[106,-106]]",diamond,green,vert,up,"[-150,0]","[106,-106]",up,1,0.8441,,,,,,001,2025-03-10_17h38.31.991,SL_base,2021.2.3,Win32,142.8571429,,,55,0,55,0,1,,,,,,,,
,,"[""circle"",""green"",""hori"",""left"",[-150,0],[-106,106]]",circle,green,hori,left,"[-150,0]","[-106,106]",left,1,0.727,,,,,,001,2025-03-10_17h38.31.991,SL_base,2021.2.3,Win32,142.8571429,,,56,0,56,0,1,,,,,,,,
,,"[""diamond"",""no_dis"",""hori"",""left"",[99999,99999],[106,-106]]",diamond,no_dis,hori,left,"[99999,99999]","[106,-106]",left,1,0.6709,,,,,,001,2025-03-10_17h38.31.991,SL_base,2021.2.3,Win32,142.8571429,,,57,0,57,0,1,,,,,,,,
,,"[""diamond"",""green"",""hori"",""left"",[106,106],[-106,-106]]",diamond,green,hori,left,"[106,106]","[-106,-106]",left,1,0.7516,,,,,,001,2025-03-10_17h38.31.991,SL_base,2021.2.3,Win32,142.8571429,,,58,0,58,0,1,,,,,,,,
,,"[""circle"",""green"",""hori"",""left"",[-150,0],[0,-150]]",circle,green,hori,left,"[-150,0]","[0,-150]",left,1,0.8609,,,,,,001,2025-03-10_17h38.31.991,SL_base,2021.2.3,Win32,142.8571429,,,59,0,59,0,1,,,,,,,,
,,"[""diamond"",""no_dis"",""hori"",""left"",[99999,99999],[106,106]]",diamond,no_dis,hori,left,"[99999,99999]","[106,106]",left,1,0.7855,,,,,,001,2025-03-10_17h38.31.991,SL_base,2021.2.3,Win32,142.8571429,,,60,0,60,0,1,,,,,,,,
,,"[""diamond"",""green"",""hori"",""left"",[-106,106],[-150,0]]",diamond,green,hori,left,"[-106,106]","[-150,0]",left,1,0.9108,,,,,,001,2025-03-10_17h38.31.991,SL_base,2021.2.3,Win32,142.8571429,,,61,0,61,0,1,,,,,,,,
,,"[""diamond"",""green"",""hori"",""left"",[106,106],[-106,106]]",diamond,green,hori,left,"[106,106]","[-106,106]",left,1,1.0134,,,,,,001,2025-03-10_17h38.31.991,SL_base,2021.2.3,Win32,142.8571429,,,62,0,62,0,1,,,,,,,,
,,"[""diamond"",""red"",""hori"",""left"",[-106,-106],[0,150]]",diamond,red,hori,left,"[-106,-106]","[0,150]",left,1,0.6946,,,,,,001,2025-03-10_17h38.31.991,SL_base,2021.2.3,Win32,142.8571429,,,63,0,63,0,1,,,,,,,,
,,"[""circle"",""red"",""vert"",""up"",[0,-150],[106,-106]]",circle,red,vert,up,"[0,-150]","[106,-106]",up,1,1.6506,,,,,,001,2025-03-10_17h38.31.991,SL_base,2021.2.3,Win32,142.8571429,,,64,0,64,0,1,,,,,,,,
,,"[""diamond"",""no_dis"",""hori"",""left"",[99999,99999],[106,-106]]",diamond,no_dis,hori,left,"[99999,99999]","[106,-106]",left,1,1.1533,,,,,,001,2025-03-10_17h38.31.991,SL_base,2021.2.3,Win32,142.8571429,,,65,0,65,0,1,,,,,,,,
,,"[""circle"",""red"",""hori"",""left"",[106,-106],[0,-150]]",circle,red,hori,left,"[106,-106]","[0,-150]",left,1,1.5366,,,,,,001,2025-03-10_17h38.31.991,SL_base,2021.2.3,Win32,142.8571429,,,66,0,66,0,1,,,,,,,,
,,"[""diamond"",""no_dis"",""hori"",""left"",[99999,99999],[-106,106]]",diamond,no_dis,hori,left,"[99999,99999]","[-106,106]",left,1,1.2917,,,,,,001,2025-03-10_17h38.31.991,SL_base,2021.2.3,Win32,142.8571429,,,67,0,67,0,1,,,,,,,,
,,"[""circle"",""no_dis"",""vert"",""up"",[99999,99999],[-106,106]]",circle,no_dis,vert,up,"[99999,99999]","[-106,106]",up,1,0.6601,,,,,,001,2025-03-10_17h38.31.991,SL_base,2021.2.3,Win32,142.8571429,,,68,0,68,0,1,,,,,,,,
,,"[""diamond"",""red"",""vert"",""up"",[150,0],[-106,-106]]",diamond,red,vert,up,"[150,0]","[-106,-106]",up,1,1.0905,,,,,,001,2025-03-10_17h38.31.991,SL_base,2021.2.3,Win32,142.8571429,,,69,0,69,0,1,,,,,,,,
,,"[""circle"",""no_dis"",""vert"",""up"",[99999,99999],[106,106]]",circle,no_dis,vert,up,"[99999,99999]","[106,106]",up,1,2.0909,,,,,,001,2025-03-10_17h38.31.991,SL_base,2021.2.3,Win32,142.8571429,,,70,0,70,0,1,,,,,,,,
,,"[""diamond"",""no_dis"",""hori"",""left"",[99999,99999],[106,-106]]",diamond,no_dis,hori,left,"[99999,99999]","[106,-106]",left,1,1.007,,,,,,001,2025-03-10_17h38.31.991,SL_base,2021.2.3,Win32,142.8571429,,,71,0,71,0,1,,,,,,,,
,,"[""circle"",""no_dis"",""vert"",""up"",[99999,99999],[0,150]]",circle,no_dis,vert,up,"[99999,99999]","[0,150]",up,1,0.8827,,,,,,001,2025-03-10_17h38.31.991,SL_base,2021.2.3,Win32,142.8571429,,,72,0,72,0,1,,,,,,,,
,,"[""diamond"",""no_dis"",""vert"",""up"",[99999,99999],[0,-150]]",diamond,no_dis,vert,up,"[99999,99999]","[0,-150]",up,1,1.1696,,,,,,001,2025-03-10_17h38.31.991,SL_base,2021.2.3,Win32,142.8571429,,,73,0,73,0,1,,,,,,,,
,,"[""circle"",""red"",""vert"",""up"",[0,150],[106,-106]]",circle,red,vert,up,"[0,150]","[106,-106]",up,1,0.833,,,,,,001,2025-03-10_17h38.31.991,SL_base,2021.2.3,Win32,142.8571429,,,74,0,74,0,1,,,,,,,,
,,"[""circle"",""no_dis"",""vert"",""up"",[99999,99999],[-150,0]]",circle,no_dis,vert,up,"[99999,99999]","[-150,0]",left,0,0.9561,,,,,,001,2025-03-10_17h38.31.991,SL_base,2021.2.3,Win32,142.8571429,,,75,0,75,0,1,,,,,,,,
,,"[""diamond"",""green"",""vert"",""up"",[-150,0],[106,-106]]",diamond,green,vert,up,"[-150,0]","[106,-106]",up,1,0.7965,,,,,,001,2025-03-10_17h38.31.991,SL_base,2021.2.3,Win32,142.8571429,,,76,0,76,0,1,,,,,,,,
,,"[""circle"",""no_dis"",""vert"",""up"",[99999,99999],[-150,0]]",circle,no_dis,vert,up,"[99999,99999]","[-150,0]",up,1,0.9582,,,,,,001,2025-03-10_17h38.31.991,SL_base,2021.2.3,Win32,142.8571429,,,77,0,77,0,1,,,,,,,,
,,"[""diamond"",""red"",""hori"",""left"",[-106,106],[0,-150]]",diamond,red,hori,left,"[-106,106]","[0,-150]",left,1,1.0203,,,,,,001,2025-03-10_17h38.31.991,SL_base,2021.2.3,Win32,142.8571429,,,78,0,78,0,1,,,,,,,,
,,"[""diamond"",""no_dis"",""vert"",""up"",[99999,99999],[0,150]]",diamond,no_dis,vert,up,"[99999,99999]","[0,150]",up,1,1.049,,,,,,001,2025-03-10_17h38.31.991,SL_base,2021.2.3,Win32,142.8571429,,,79,0,79,0,1,,,,,,,,
,,"[""circle"",""green"",""hori"",""left"",[106,106],[-106,-106]]",circle,green,hori,left,"[106,106]","[-106,-106]",left,1,0.9308,,,,,,001,2025-03-10_17h38.31.991,SL_base,2021.2.3,Win32,142.8571429,,,80,0,80,0,1,,,,,,,,
,,"[""circle"",""green"",""vert"",""up"",[-106,-106],[106,-106]]",circle,green,vert,up,"[-106,-106]","[106,-106]",up,1,1.1665,,,,,,001,2025-03-10_17h38.31.991,SL_base,2021.2.3,Win32,142.8571429,,,81,0,81,0,1,,,,,,,,
,,"[""diamond"",""red"",""vert"",""up"",[-106,106],[106,-106]]",diamond,red,vert,up,"[-106,106]","[106,-106]",up,1,1.5481,,,,,,001,2025-03-10_17h38.31.991,SL_base,2021.2.3,Win32,142.8571429,,,82,0,82,0,1,,,,,,,,
,,"[""diamond"",""green"",""vert"",""up"",[0,150],[150,0]]",diamond,green,vert,up,"[0,150]","[150,0]",up,1,1.323,,,,,,001,2025-03-10_17h38.31.991,SL_base,2021.2.3,Win32,142.8571429,,,83,0,83,0,1,,,,,,,,
,,"[""circle"",""red"",""hori"",""left"",[106,106],[150,0]]",circle,red,hori,left,"[106,106]","[150,0]",left,1,1.1042,,,,,,001,2025-03-10_17h38.31.991,SL_base,2021.2.3,Win32,142.8571429,,,84,0,84,0,1,,,,,,,,
,,"[""diamond"",""red"",""vert"",""up"",[106,106],[0,-150]]",diamond,red,vert,up,"[106,106]","[0,-150]",up,1,1.3401,,,,,,001,2025-03-10_17h38.31.991,SL_base,2021.2.3,Win32,142.8571429,,,85,0,85,0,1,,,,,,,,
,,"[""diamond"",""no_dis"",""hori"",""left"",[99999,99999],[-150,0]]",diamond,no_dis,hori,left,"[99999,99999]","[-150,0]",left,1,0.9017,,,,,,001,2025-03-10_17h38.31.991,SL_base,2021.2.3,Win32,142.8571429,,,86,0,86,0,1,,,,,,,,
,,"[""diamond"",""no_dis"",""hori"",""left"",[99999,99999],[150,0]]",diamond,no_dis,hori,left,"[99999,99999]","[150,0]",left,1,0.8276,,,,,,001,2025-03-10_17h38.31.991,SL_base,2021.2.3,Win32,142.8571429,,,87,0,87,0,1,,,,,,,,
,,"[""diamond"",""red"",""hori"",""left"",[-106,-106],[0,150]]",diamond,red,hori,left,"[-106,-106]","[0,150]",left,1,0.9194,,,,,,001,2025-03-10_17h38.31.991,SL_base,2021.2.3,Win32,142.8571429,,,88,0,88,0,1,,,,,,,,
,,"[""circle"",""green"",""hori"",""left"",[-150,0],[-106,-106]]",circle,green,hori,left,"[-150,0]","[-106,-106]",left,1,1.1507,,,,,,001,2025-03-10_17h38.31.991,SL_base,2021.2.3,Win32,142.8571429,,,89,0,89,0,1,,,,,,,,
,,"[""diamond"",""green"",""hori"",""left"",[150,0],[-106,106]]",diamond,green,hori,left,"[150,0]","[-106,106]",left,1,1.1457,,,,,,001,2025-03-10_17h38.31.991,SL_base,2021.2.3,Win32,142.8571429,,,90,0,90,0,1,,,,,,,,
,,"[""diamond"",""no_dis"",""hori"",""left"",[99999,99999],[-106,-106]]",diamond,no_dis,hori,left,"[99999,99999]","[-106,-106]",left,1,0.951,,,,,,001,2025-03-10_17h38.31.991,SL_base,2021.2.3,Win32,142.8571429,,,91,0,91,0,1,,,,,,,,
,,"[""circle"",""red"",""vert"",""up"",[-150,0],[106,106]]",circle,red,vert,up,"[-150,0]","[106,106]",up,1,0.8846,,,,,,001,2025-03-10_17h38.31.991,SL_base,2021.2.3,Win32,142.8571429,,,92,0,92,0,1,,,,,,,,
,,"[""diamond"",""red"",""hori"",""left"",[150,0],[-106,-106]]",diamond,red,hori,left,"[150,0]","[-106,-106]",left,1,1.2359,,,,,,001,2025-03-10_17h38.31.991,SL_base,2021.2.3,Win32,142.8571429,,,93,0,93,0,1,,,,,,,,
,,"[""circle"",""no_dis"",""hori"",""left"",[99999,99999],[-106,-106]]",circle,no_dis,hori,left,"[99999,99999]","[-106,-106]",left,1,1.0902,,,,,,001,2025-03-10_17h38.31.991,SL_base,2021.2.3,Win32,142.8571429,,,94,0,94,0,1,,,,,,,,
,,"[""circle"",""no_dis"",""hori"",""left"",[99999,99999],[150,0]]",circle,no_dis,hori,left,"[99999,99999]","[150,0]",left,1,1.4029,,,,,,001,2025-03-10_17h38.31.991,SL_base,2021.2.3,Win32,142.8571429,,,95,0,95,0,1,,,,,,,,
,,"[""circle"",""green"",""hori"",""left"",[106,-106],[-150,0]]",circle,green,hori,left,"[106,-106]","[-150,0]",left,1,1.1916,,,,,,001,2025-03-10_17h38.31.991,SL_base,2021.2.3,Win32,142.8571429,,,96,0,96,0,1,,,,,,,,
,,"[""circle"",""green"",""vert"",""up"",[-106,106],[106,106]]",circle,green,vert,up,"[-106,106]","[106,106]",up,1,1.3023,,,,,,001,2025-03-10_17h38.31.991,SL_base,2021.2.3,Win32,142.8571429,,,97,0,97,0,1,,,,,,,,
,,"[""diamond"",""red"",""vert"",""up"",[-150,0],[0,150]]",diamond,red,vert,up,"[-150,0]","[0,150]",up,1,1.5833,,,,,,001,2025-03-10_17h38.31.991,SL_base,2021.2.3,Win32,142.8571429,,,98,0,98,0,1,,,,,,,,
,,"[""diamond"",""red"",""vert"",""up"",[0,150],[-106,106]]",diamond,red,vert,up,"[0,150]","[-106,106]",up,1,1.41,,,,,,001,2025-03-10_17h38.31.991,SL_base,2021.2.3,Win32,142.8571429,,,99,0,99,0,1,,,,,,,,
,,"[""circle"",""green"",""hori"",""left"",[-150,0],[0,150]]",circle,green,hori,left,"[-150,0]","[0,150]",left,1,1.5327,,,,,,001,2025-03-10_17h38.31.991,SL_base,2021.2.3,Win32,142.8571429,,,100,0,100,0,1,,,,,,,,
,,"[""circle"",""red"",""vert"",""up"",[-106,-106],[0,-150]]",circle,red,vert,up,"[-106,-106]","[0,-150]",up,1,1.521,,,,,,001,2025-03-10_17h38.31.991,SL_base,2021.2.3,Win32,142.8571429,,,101,0,101,0,1,,,,,,,,
,,"[""circle"",""red"",""vert"",""up"",[106,-106],[0,150]]",circle,red,vert,up,"[106,-106]","[0,150]",up,1,1.1253,,,,,,001,2025-03-10_17h38.31.991,SL_base,2021.2.3,Win32,142.8571429,,,102,0,102,0,1,,,,,,,,
,,"[""circle"",""green"",""vert"",""up"",[150,0],[-106,106]]",circle,green,vert,up,"[150,0]","[-106,106]",up,1,1.2535,,,,,,001,2025-03-10_17h38.31.991,SL_base,2021.2.3,Win32,142.8571429,,,103,0,103,0,1,,,,,,,,
,,"[""circle"",""green"",""vert"",""up"",[-150,0],[0,-150]]",circle,green,vert,up,"[-150,0]","[0,-150]",up,1,0.8965,,,,,,001,2025-03-10_17h38.31.991,SL_base,2021.2.3,Win32,142.8571429,,,104,0,104,0,1,,,,,,,,
,,"[""circle"",""red"",""hori"",""left"",[150,0],[0,-150]]",circle,red,hori,left,"[150,0]","[0,-150]",left,1,0.9498,,,,,,001,2025-03-10_17h38.31.991,SL_base,2021.2.3,Win32,142.8571429,,,105,0,105,0,1,,,,,,,,
,,"[""circle"",""red"",""vert"",""up"",[-106,106],[-150,0]]",circle,red,vert,up,"[-106,106]","[-150,0]",up,1,1.0305,,,,,,001,2025-03-10_17h38.31.991,SL_base,2021.2.3,Win32,142.8571429,,,106,0,106,0,1,,,,,,,,
,,"[""diamond"",""green"",""hori"",""left"",[0,150],[-150,0]]",diamond,green,hori,left,"[0,150]","[-150,0]",left,1,1.2777,,,,,,001,2025-03-10_17h38.31.991,SL_base,2021.2.3,Win32,142.8571429,,,107,0,107,0,1,,,,,,,,
,,"[""diamond"",""green"",""vert"",""up"",[-106,106],[-106,-106]]",diamond,green,vert,up,"[-106,106]","[-106,-106]",up,1,1.037,,,,,,001,2025-03-10_17h38.31.991,SL_base,2021.2.3,Win32,142.8571429,,,108,0,108,0,1,,,,,,,,
,,"[""diamond"",""no_dis"",""vert"",""up"",[99999,99999],[0,-150]]",diamond,no_dis,vert,up,"[99999,99999]","[0,-150]",up,1,1.0624,,,,,,001,2025-03-10_17h38.31.991,SL_base,2021.2.3,Win32,142.8571429,,,109,0,109,0,1,,,,,,,,
,,"[""diamond"",""red"",""vert"",""up"",[150,0],[0,-150]]",diamond,red,vert,up,"[150,0]","[0,-150]",up,1,1.2645,,,,,,001,2025-03-10_17h38.31.991,SL_base,2021.2.3,Win32,142.8571429,,,110,0,110,0,1,,,,,,,,
,,"[""circle"",""red"",""hori"",""left"",[-150,0],[150,0]]",circle,red,hori,left,"[-150,0]","[150,0]",left,1,0.8866,,,,,,001,2025-03-10_17h38.31.991,SL_base,2021.2.3,Win32,142.8571429,,,111,0,111,0,1,,,,,,,,
,,"[""circle"",""green"",""vert"",""up"",[-150,0],[106,106]]",circle,green,vert,up,"[-150,0]","[106,106]",up,1,0.7987,,,,,,001,2025-03-10_17h38.31.991,SL_base,2021.2.3,Win32,142.8571429,,,112,0,112,0,1,,,,,,,,
,,"[""circle"",""no_dis"",""hori"",""left"",[99999,99999],[150,0]]",circle,no_dis,hori,left,"[99999,99999]","[150,0]",left,1,1.2647,,,,,,001,2025-03-10_17h38.31.991,SL_base,2021.2.3,Win32,142.8571429,,,113,0,113,0,1,,,,,,,,
,,"[""circle"",""green"",""hori"",""left"",[-150,0],[0,-150]]",circle,green,hori,left,"[-150,0]","[0,-150]",left,1,1.0974,,,,,,001,2025-03-10_17h38.31.991,SL_base,2021.2.3,Win32,142.8571429,,,114,0,114,0,1,,,,,,,,
,,"[""diamond"",""red"",""vert"",""up"",[-150,0],[0,150]]",diamond,red,vert,up,"[-150,0]","[0,150]",up,1,1.1906,,,,,,001,2025-03-10_17h38.31.991,SL_base,2021.2.3,Win32,142.8571429,,,115,0,115,0,1,,,,,,,,
,,"[""circle"",""red"",""hori"",""left"",[-150,0],[-106,106]]",circle,red,hori,left,"[-150,0]","[-106,106]",left,1,1.2085,,,,,,001,2025-03-10_17h38.31.991,SL_base,2021.2.3,Win32,142.8571429,,,116,0,116,0,1,,,,,,,,
,,"[""circle"",""no_dis"",""vert"",""up"",[99999,99999],[0,-150]]",circle,no_dis,vert,up,"[99999,99999]","[0,-150]",up,1,0.9255,,,,,,001,2025-03-10_17h38.31.991,SL_base,2021.2.3,Win32,142.8571429,,,117,0,117,0,1,,,,,,,,
,,"[""diamond"",""no_dis"",""vert"",""up"",[99999,99999],[106,106]]",diamond,no_dis,vert,up,"[99999,99999]","[106,106]",up,1,1.4145,,,,,,001,2025-03-10_17h38.31.991,SL_base,2021.2.3,Win32,142.8571429,,,118,0,118,0,1,,,,,,,,
,,"[""circle"",""no_dis"",""vert"",""up"",[99999,99999],[-106,106]]",circle,no_dis,vert,up,"[99999,99999]","[-106,106]",up,1,0.67,,,,,,001,2025-03-10_17h38.31.991,SL_base,2021.2.3,Win32,142.8571429,,,119,0,119,0,1,,,,,,,,
,,,,,,,,,,,,,,,,,001,2025-03-10_17h38.31.991,SL_base,2021.2.3,Win32,142.8571429,,,,,,,,2,space,1.2243,1,0,1,0,1
,,"[""diamond"",""green"",""hori"",""left"",[-106,106],[-150,0]]",diamond,green,hori,left,"[-106,106]","[-150,0]",left,1,0.966,,,,,,001,2025-03-10_17h38.31.991,SL_base,2021.2.3,Win32,142.8571429,,,0,0,0,0,1,,,,,,,,
,,"[""diamond"",""no_dis"",""vert"",""up"",[99999,99999],[0,-150]]",diamond,no_dis,vert,up,"[99999,99999]","[0,-150]",up,1,0.7427,,,,,,001,2025-03-10_17h38.31.991,SL_base,2021.2.3,Win32,142.8571429,,,1,0,1,0,1,,,,,,,,
,,"[""diamond"",""green"",""hori"",""left"",[-150,0],[-106,-106]]",diamond,green,hori,left,"[-150,0]","[-106,-106]",left,1,1.3939,,,,,,001,2025-03-10_17h38.31.991,SL_base,2021.2.3,Win32,142.8571429,,,2,0,2,0,1,,,,,,,,
,,"[""diamond"",""red"",""hori"",""left"",[106,106],[-150,0]]",diamond,red,hori,left,"[106,106]","[-150,0]",left,1,0.8235,,,,,,001,2025-03-10_17h38.31.991,SL_base,2021.2.3,Win32,142.8571429,,,3,0,3,0,1,,,,,,,,
,,"[""circle"",""red"",""hori"",""left"",[-150,0],[150,0]]",circle,red,hori,left,"[-150,0]","[150,0]",left,1,0.9828,,,,,,001,2025-03-10_17h38.31.991,SL_base,2021.2.3,Win32,142.8571429,,,4,0,4,0,1,,,,,,,,
,,"[""diamond"",""green"",""vert"",""up"",[-150,0],[106,-106]]",diamond,green,vert,up,"[-150,0]","[106,-106]",up,1,0.7499,,,,,,001,2025-03-10_17h38.31.991,SL_base,2021.2.3,Win32,142.8571429,,,5,0,5,0,1,,,,,,,,
,,"[""diamond"",""red"",""hori"",""left"",[106,-106],[0,-150]]",diamond,red,hori,left,"[106,-106]","[0,-150]",left,1,1.2161,,,,,,001,2025-03-10_17h38.31.991,SL_base,2021.2.3,Win32,142.8571429,,,6,0,6,0,1,,,,,,,,
,,"[""diamond"",""green"",""vert"",""up"",[106,-106],[-106,-106]]",diamond,green,vert,up,"[106,-106]","[-106,-106]",up,1,0.7645,,,,,,001,2025-03-10_17h38.31.991,SL_base,2021.2.3,Win32,142.8571429,,,7,0,7,0,1,,,,,,,,
,,"[""diamond"",""green"",""vert"",""up"",[106,-106],[-150,0]]",diamond,green,vert,up,"[106,-106]","[-150,0]",up,1,1.2779,,,,,,001,2025-03-10_17h38.31.991,SL_base,2021.2.3,Win32,142.8571429,,,8,0,8,0,1,,,,,,,,
,,"[""diamond"",""green"",""hori"",""left"",[0,-150],[0,150]]",diamond,green,hori,left,"[0,-150]","[0,150]",left,1,0.6672,,,,,,001,2025-03-10_17h38.31.991,SL_base,2021.2.3,Win32,142.8571429,,,9,0,9,0,1,,,,,,,,
,,"[""circle"",""no_dis"",""vert"",""up"",[99999,99999],[-106,106]]",circle,no_dis,vert,up,"[99999,99999]","[-106,106]",up,1,1.3429,,,,,,001,2025-03-10_17h38.31.991,SL_base,2021.2.3,Win32,142.8571429,,,10,0,10,0,1,,,,,,,,
,,"[""diamond"",""red"",""hori"",""left"",[-106,106],[150,0]]",diamond,red,hori,left,"[-106,106]","[150,0]",left,1,1.3416,,,,,,001,2025-03-10_17h38.31.991,SL_base,2021.2.3,Win32,142.8571429,,,11,0,11,0,1,,,,,,,,
,,"[""diamond"",""no_dis"",""hori"",""left"",[99999,99999],[106,-106]]",diamond,no_dis,hori,left,"[99999,99999]","[106,-106]",left,1,0.7644,,,,,,001,2025-03-10_17h38.31.991,SL_base,2021.2.3,Win32,142.8571429,,,12,0,12,0,1,,,,,,,,
,,"[""diamond"",""green"",""vert"",""up"",[-106,106],[-106,-106]]",diamond,green,vert,up,"[-106,106]","[-106,-106]",up,1,1.2179,,,,,,001,2025-03-10_17h38.31.991,SL_base,2021.2.3,Win32,142.8571429,,,13,0,13,0,1,,,,,,,,
,,"[""circle"",""no_dis"",""hori"",""left"",[99999,99999],[-106,-106]]",circle,no_dis,hori,left,"[99999,99999]","[-106,-106]",left,1,0.6595,,,,,,001,2025-03-10_17h38.31.991,SL_base,2021.2.3,Win32,142.8571429,,,14,0,14,0,1,,,,,,,,
,,"[""circle"",""no_dis"",""vert"",""up"",[99999,99999],[-150,0]]",circle,no_dis,vert,up,"[99999,99999]","[-150,0]",up,1,0.6805,,,,,,001,2025-03-10_17h38.31.991,SL_base,2021.2.3,Win32,142.8571429,,,15,0,15,0,1,,,,,,,,
,,"[""circle"",""green"",""vert"",""up"",[-150,0],[106,106]]",circle,green,vert,up,"[-150,0]","[106,106]",up,1,0.6945,,,,,,001,2025-03-10_17h38.31.991,SL_base,2021.2.3,Win32,142.8571429,,,16,0,16,0,1,,,,,,,,
,,"[""diamond"",""green"",""vert"",""up"",[150,0],[-106,-106]]",diamond,green,vert,up,"[150,0]","[-106,-106]",up,1,1.6874,,,,,,001,2025-03-10_17h38.31.991,SL_base,2021.2.3,Win32,142.8571429,,,17,0,17,0,1,,,,,,,,
,,"[""diamond"",""green"",""vert"",""up"",[0,150],[106,106]]",diamond,green,vert,up,"[0,150]","[106,106]",up,1,0.896,,,,,,001,2025-03-10_17h38.31.991,SL_base,2021.2.3,Win32,142.8571429,,,18,0,18,0,1,,,,,,,,
,,"[""diamond"",""no_dis"",""hori"",""left"",[99999,99999],[106,-106]]",diamond,no_dis,hori,left,"[99999,99999]","[106,-106]",left,1,0.8269,,,,,,001,2025-03-10_17h38.31.991,SL_base,2021.2.3,Win32,142.8571429,,,19,0,19,0,1,,,,,,,,
,,"[""circle"",""green"",""hori"",""left"",[-106,-106],[-150,0]]",circle,green,hori,left,"[-106,-106]","[-150,0]",left,1,1.2963,,,,,,001,2025-03-10_17h38.31.991,SL_base,2021.2.3,Win32,142.8571429,,,20,0,20,0,1,,,,,,,,
,,"[""circle"",""no_dis"",""hori"",""left"",[99999,99999],[0,150]]",circle,no_dis,hori,left,"[99999,99999]","[0,150]",left,1,1.2225,,,,,,001,2025-03-10_17h38.31.991,SL_base,2021.2.3,Win32,142.8571429,,,21,0,21,0,1,,,,,,,,
,,"[""circle"",""no_dis"",""vert"",""up"",[99999,99999],[0,-150]]",circle,no_dis,vert,up,"[99999,99999]","[0,-150]",up,1,0.8408,,,,,,001,2025-03-10_17h38.31.991,SL_base,2021.2.3,Win32,142.8571429,,,22,0,22,0,1,,,,,,,,
,,"[""circle"",""red"",""hori"",""left"",[0,-150],[106,-106]]",circle,red,hori,left,"[0,-150]","[106,-106]",left,1,0.7429,,,,,,001,2025-03-10_17h38.31.991,SL_base,2021.2.3,Win32,142.8571429,,,23,0,23,0,1,,,,,,,,
,,"[""diamond"",""red"",""hori"",""left"",[150,0],[-106,-106]]",diamond,red,hori,left,"[150,0]","[-106,-106]",left,1,1.0072,,,,,,001,2025-03-10_17h38.31.991,SL_base,2021.2.3,Win32,142.8571429,,,24,0,24,0,1,,,,,,,,
,,"[""circle"",""no_dis"",""vert"",""up"",[99999,99999],[-150,0]]",circle,no_dis,vert,up,"[99999,99999]","[-150,0]",up,1,0.7437,,,,,,001,2025-03-10_17h38.31.991,SL_base,2021.2.3,Win32,142.8571429,,,25,0,25,0,1,,,,,,,,
,,"[""diamond"",""no_dis"",""hori"",""left"",[99999,99999],[106,-106]]",diamond,no_dis,hori,left,"[99999,99999]","[106,-106]",left,1,1.2669,,,,,,001,2025-03-10_17h38.31.991,SL_base,2021.2.3,Win32,142.8571429,,,26,0,26,0,1,,,,,,,,
,,"[""diamond"",""red"",""hori"",""left"",[-106,106],[0,-150]]",diamond,red,hori,left,"[-106,106]","[0,-150]",left,1,1.1875,,,,,,001,2025-03-10_17h38.31.991,SL_base,2021.2.3,Win32,142.8571429,,,27,0,27,0,1,,,,,,,,
,,"[""diamond"",""green"",""hori"",""left"",[106,106],[-106,-106]]",diamond,green,hori,left,"[106,106]","[-106,-106]",left,1,1.0412,,,,,,001,2025-03-10_17h38.31.991,SL_base,2021.2.3,Win32,142.8571429,,,28,0,28,0,1,,,,,,,,
,,"[""diamond"",""no_dis"",""vert"",""up"",[99999,99999],[106,106]]",diamond,no_dis,vert,up,"[99999,99999]","[106,106]",up,1,1.1847,,,,,,001,2025-03-10_17h38.31.991,SL_base,2021.2.3,Win32,142.8571429,,,29,0,29,0,1,,,,,,,,
,,"[""diamond"",""green"",""hori"",""left"",[106,106],[-106,106]]",diamond,green,hori,left,"[106,106]","[-106,106]",left,1,1.375,,,,,,001,2025-03-10_17h38.31.991,SL_base,2021.2.3,Win32,142.8571429,,,30,0,30,0,1,,,,,,,,
,,"[""circle"",""green"",""hori"",""left"",[106,106],[-106,-106]]",circle,green,hori,left,"[106,106]","[-106,-106]",left,1,0.91,,,,,,001,2025-03-10_17h38.31.991,SL_base,2021.2.3,Win32,142.8571429,,,31,0,31,0,1,,,,,,,,
,,"[""circle"",""green"",""vert"",""up"",[-106,-106],[0,-150]]",circle,green,vert,up,"[-106,-106]","[0,-150]",up,1,1.1491,,,,,,001,2025-03-10_17h38.31.991,SL_base,2021.2.3,Win32,142.8571429,,,32,0,32,0,1,,,,,,,,
,,"[""circle"",""red"",""vert"",""up"",[0,150],[106,-106]]",circle,red,vert,up,"[0,150]","[106,-106]",up,1,1.4898,,,,,,001,2025-03-10_17h38.31.991,SL_base,2021.2.3,Win32,142.8571429,,,33,0,33,0,1,,,,,,,,
,,"[""circle"",""red"",""hori"",""left"",[-150,0],[0,-150]]",circle,red,hori,left,"[-150,0]","[0,-150]",left,1,0.7116,,,,,,001,2025-03-10_17h38.31.991,SL_base,2021.2.3,Win32,142.8571429,,,34,0,34,0,1,,,,,,,,
,,"[""circle"",""no_dis"",""vert"",""up"",[99999,99999],[106,106]]",circle,no_dis,vert,up,"[99999,99999]","[106,106]",up,1,0.7125,,,,,,001,2025-03-10_17h38.31.991,SL_base,2021.2.3,Win32,142.8571429,,,35,0,35,0,1,,,,,,,,
,,"[""diamond"",""green"",""vert"",""up"",[-150,0],[0,150]]",diamond,green,vert,up,"[-150,0]","[0,150]",up,1,1.3962,,,,,,001,2025-03-10_17h38.31.991,SL_base,2021.2.3,Win32,142.8571429,,,36,0,36,0,1,,,,,,,,
,,"[""diamond"",""red"",""hori"",""left"",[-150,0],[106,106]]",diamond,red,hori,left,"[-150,0]","[106,106]",left,1,0.8826,,,,,,001,2025-03-10_17h38.31.991,SL_base,2021.2.3,Win32,142.8571429,,,37,0,37,0,1,,,,,,,,
,,"[""diamond"",""no_dis"",""hori"",""left"",[99999,99999],[-106,106]]",diamond,no_dis,hori,left,"[99999,99999]","[-106,106]",left,1,0.9633,,,,,,001,2025-03-10_17h38.31.991,SL_base,2021.2.3,Win32,142.8571429,,,38,0,38,0,1,,,,,,,,
,,"[""circle"",""no_dis"",""vert"",""up"",[99999,99999],[-106,106]]",circle,no_dis,vert,up,"[99999,99999]","[-106,106]",up,1,1.1064,,,,,,001,2025-03-10_17h38.31.991,SL_base,2021.2.3,Win32,142.8571429,,,39,0,39,0,1,,,,,,,,
,,"[""circle"",""green"",""hori"",""left"",[-150,0],[0,150]]",circle,green,hori,left,"[-150,0]","[0,150]",left,1,0.6536,,,,,,001,2025-03-10_17h38.31.991,SL_base,2021.2.3,Win32,142.8571429,,,40,0,40,0,1,,,,,,,,
,,"[""circle"",""green"",""hori"",""left"",[-150,0],[0,-150]]",circle,green,hori,left,"[-150,0]","[0,-150]",left,1,0.697,,,,,,001,2025-03-10_17h38.31.991,SL_base,2021.2.3,Win32,142.8571429,,,41,0,41,0,1,,,,,,,,
,,"[""diamond"",""red"",""hori"",""left"",[-150,0],[-106,106]]",diamond,red,hori,left,"[-150,0]","[-106,106]",up,0,1.5041,,,,,,001,2025-03-10_17h38.31.991,SL_base,2021.2.3,Win32,142.8571429,,,42,0,42,0,1,,,,,,,,
,,"[""diamond"",""red"",""vert"",""up"",[0,-150],[106,-106]]",diamond,red,vert,up,"[0,-150]","[106,-106]",up,1,0.9607,,,,,,001,2025-03-10_17h38.31.991,SL_base,2021.2.3,Win32,142.8571429,,,43,0,43,0,1,,,,,,,,
,,"[""diamond"",""green"",""hori"",""left"",[0,-150],[-106,-106]]",diamond,green,hori,left,"[0,-150]","[-106,-106]",left,1,1.6703,,,,,,001,2025-03-10_17h38.31.991,SL_base,2021.2.3,Win32,142.8571429,,,44,0,44,0,1,,,,,,,,
,,"[""circle"",""green"",""hori"",""left"",[-106,106],[0,-150]]",circle,green,hori,left,"[-106,106]","[0,-150]",left,1,0.8087,,,,,,001,2025-03-10_17h38.31.991,SL_base,2021.2.3,Win32,142.8571429,,,45,0,45,0,1,,,,,,,,
,,"[""circle"",""green"",""vert"",""up"",[150,0],[-106,106]]",circle,green,vert,up,"[150,0]","[-106,106]",up,1,0.8261,,,,,,001,2025-03-10_17h38.31.991,SL_base,2021.2.3,Win32,142.8571429,,,46,0,46,0,1,,,,,,,,
,,"[""circle"",""red"",""hori"",""left"",[150,0],[0,-150]]",circle,red,hori,left,"[150,0]","[0,-150]",left,1,1.0482,,,,,,001,2025-03-10_17h38.31.991,SL_base,2021.2.3,Win32,142.8571429,,,47,0,47,0,1,,,,,,,,
,,"[""circle"",""no_dis"",""hori"",""left"",[99999,99999],[106,106]]",circle,no_dis,hori,left,"[99999,99999]","[106,106]",left,1,0.8797,,,,,,001,2025-03-10_17h38.31.991,SL_base,2021.2.3,Win32,142.8571429,,,48,0,48,0,1,,,,,,,,
,,"[""circle"",""red"",""vert"",""up"",[0,-150],[106,-106]]",circle,red,vert,up,"[0,-150]","[106,-106]",up,1,1.0489,,,,,,001,2025-03-10_17h38.31.991,SL_base,2021.2.3,Win32,142.8571429,,,49,0,49,0,1,,,,,,,,
,,"[""diamond"",""red"",""vert"",""up"",[-150,0],[0,150]]",diamond,red,vert,up,"[-150,0]","[0,150]",up,1,1.9289,,,,,,001,2025-03-10_17h38.31.991,SL_base,2021.2.3,Win32,142.8571429,,,50,0,50,0,1,,,,,,,,
,,"[""diamond"",""no_dis"",""vert"",""up"",[99999,99999],[0,150]]",diamond,no_dis,vert,up,"[99999,99999]","[0,150]",up,1,0.9793,,,,,,001,2025-03-10_17h38.31.991,SL_base,2021.2.3,Win32,142.8571429,,,51,0,51,0,1,,,,,,,,
,,"[""circle"",""green"",""vert"",""up"",[-150,0],[-106,-106]]",circle,green,vert,up,"[-150,0]","[-106,-106]",up,1,1.2914,,,,,,001,2025-03-10_17h38.31.991,SL_base,2021.2.3,Win32,142.8571429,,,52,0,52,0,1,,,,,,,,
,,"[""circle"",""red"",""hori"",""left"",[-106,-106],[106,106]]",circle,red,hori,left,"[-106,-106]","[106,106]",left,1,0.8192,,,,,,001,2025-03-10_17h38.31.991,SL_base,2021.2.3,Win32,142.8571429,,,53,0,53,0,1,,,,,,,,
,,"[""circle"",""no_dis"",""vert"",""up"",[99999,99999],[-150,0]]",circle,no_dis,vert,up,"[99999,99999]","[-150,0]",up,1,0.9741,,,,,,001,2025-03-10_17h38.31.991,SL_base,2021.2.3,Win32,142.8571429,,,54,0,54,0,1,,,,,,,,
,,"[""diamond"",""red"",""hori"",""left"",[-106,-106],[0,150]]",diamond,red,hori,left,"[-106,-106]","[0,150]",left,1,2.3957,,,,,,001,2025-03-10_17h38.31.991,SL_base,2021.2.3,Win32,142.8571429,,,55,0,55,0,1,,,,,,,,
,,"[""diamond"",""green"",""vert"",""up"",[0,150],[150,0]]",diamond,green,vert,up,"[0,150]","[150,0]",up,1,1.2428,,,,,,001,2025-03-10_17h38.31.991,SL_base,2021.2.3,Win32,142.8571429,,,56,0,56,0,1,,,,,,,,
,,"[""circle"",""red"",""vert"",""up"",[106,106],[-150,0]]",circle,red,vert,up,"[106,106]","[-150,0]",up,1,1.0886,,,,,,001,2025-03-10_17h38.31.991,SL_base,2021.2.3,Win32,142.8571429,,,57,0,57,0,1,,,,,,,,
,,"[""diamond"",""green"",""hori"",""left"",[150,0],[-106,106]]",diamond,green,hori,left,"[150,0]","[-106,106]",left,1,1.1807,,,,,,001,2025-03-10_17h38.31.991,SL_base,2021.2.3,Win32,142.8571429,,,58,0,58,0,1,,,,,,,,
,,"[""diamond"",""no_dis"",""vert"",""up"",[99999,99999],[0,150]]",diamond,no_dis,vert,up,"[99999,99999]","[0,150]",up,1,1.042,,,,,,001,2025-03-10_17h38.31.991,SL_base,2021.2.3,Win32,142.8571429,,,59,0,59,0,1,,,,,,,,
,,"[""diamond"",""red"",""hori"",""left"",[0,150],[106,106]]",diamond,red,hori,left,"[0,150]","[106,106]",left,1,1.0256,,,,,,001,2025-03-10_17h38.31.991,SL_base,2021.2.3,Win32,142.8571429,,,60,0,60,0,1,,,,,,,,
,,"[""diamond"",""no_dis"",""vert"",""up"",[99999,99999],[-150,0]]",diamond,no_dis,vert,up,"[99999,99999]","[-150,0]",up,1,0.945,,,,,,001,2025-03-10_17h38.31.991,SL_base,2021.2.3,Win32,142.8571429,,,61,0,61,0,1,,,,,,,,
,,"[""circle"",""red"",""vert"",""up"",[-106,-106],[0,-150]]",circle,red,vert,up,"[-106,-106]","[0,-150]",up,1,1.5722,,,,,,001,2025-03-10_17h38.31.991,SL_base,2021.2.3,Win32,142.8571429,,,62,0,62,0,1,,,,,,,,
,,"[""circle"",""no_dis"",""vert"",""up"",[99999,99999],[0,150]]",circle,no_dis,vert,up,"[99999,99999]","[0,150]",up,1,1.2381,,,,,,001,2025-03-10_17h38.31.991,SL_base,2021.2.3,Win32,142.8571429,,,63,0,63,0,1,,,,,,,,
,,"[""diamond"",""no_dis"",""vert"",""up"",[99999,99999],[0,-150]]",diamond,no_dis,vert,up,"[99999,99999]","[0,-150]",up,1,1.6308,,,,,,001,2025-03-10_17h38.31.991,SL_base,2021.2.3,Win32,142.8571429,,,64,0,64,0,1,,,,,,,,
,,"[""circle"",""green"",""hori"",""left"",[106,-106],[-150,0]]",circle,green,hori,left,"[106,-106]","[-150,0]",left,1,1.2296,,,,,,001,2025-03-10_17h38.31.991,SL_base,2021.2.3,Win32,142.8571429,,,65,0,65,0,1,,,,,,,,
,,"[""diamond"",""no_dis"",""vert"",""up"",[99999,99999],[0,-150]]",diamond,no_dis,vert,up,"[99999,99999]","[0,-150]",up,1,1.3331,,,,,,001,2025-03-10_17h38.31.991,SL_base,2021.2.3,Win32,142.8571429,,,66,0,66,0,1,,,,,,,,
,,"[""circle"",""no_dis"",""hori"",""left"",[99999,99999],[150,0]]",circle,no_dis,hori,left,"[99999,99999]","[150,0]",left,1,0.9582,,,,,,001,2025-03-10_17h38.31.991,SL_base,2021.2.3,Win32,142.8571429,,,67,0,67,0,1,,,,,,,,
,,"[""diamond"",""red"",""vert"",""up"",[0,-150],[0,150]]",diamond,red,vert,up,"[0,-150]","[0,150]",up,1,1.2228,,,,,,001,2025-03-10_17h38.31.991,SL_base,2021.2.3,Win32,142.8571429,,,68,0,68,0,1,,,,,,,,
,,"[""diamond"",""no_dis"",""hori"",""left"",[99999,99999],[-106,-106]]",diamond,no_dis,hori,left,"[99999,99999]","[-106,-106]",left,1,0.9555,,,,,,001,2025-03-10_17h38.31.991,SL_base,2021.2.3,Win32,142.8571429,,,69,0,69,0,1,,,,,,,,
,,"[""diamond"",""red"",""hori"",""left"",[-106,-106],[0,150]]",diamond,red,hori,left,"[-106,-106]","[0,150]",left,1,0.9932,,,,,,001,2025-03-10_17h38.31.991,SL_base,2021.2.3,Win32,142.8571429,,,70,0,70,0,1,,,,,,,,
,,"[""diamond"",""red"",""vert"",""up"",[-106,106],[106,-106]]",diamond,red,vert,up,"[-106,106]","[106,-106]",left,0,1.1566,,,,,,001,2025-03-10_17h38.31.991,SL_base,2021.2.3,Win32,142.8571429,,,71,0,71,0,1,,,,,,,,
,,"[""diamond"",""no_dis"",""vert"",""up"",[99999,99999],[-106,-106]]",diamond,no_dis,vert,up,"[99999,99999]","[-106,-106]",up,1,0.924,,,,,,001,2025-03-10_17h38.31.991,SL_base,2021.2.3,Win32,142.8571429,,,72,0,72,0,1,,,,,,,,
,,"[""diamond"",""red"",""vert"",""up"",[150,0],[-106,-106]]",diamond,red,vert,up,"[150,0]","[-106,-106]",up,1,1.1387,,,,,,001,2025-03-10_17h38.31.991,SL_base,2021.2.3,Win32,142.8571429,,,73,0,73,0,1,,,,,,,,
,,"[""circle"",""green"",""hori"",""left"",[-150,0],[-106,-106]]",circle,green,hori,left,"[-150,0]","[-106,-106]",left,1,0.9441,,,,,,001,2025-03-10_17h38.31.991,SL_base,2021.2.3,Win32,142.8571429,,,74,0,74,0,1,,,,,,,,
,,"[""diamond"",""green"",""vert"",""up"",[-150,0],[106,-106]]",diamond,green,vert,up,"[-150,0]","[106,-106]",up,1,1.4231,,,,,,001,2025-03-10_17h38.31.991,SL_base,2021.2.3,Win32,142.8571429,,,75,0,75,0,1,,,,,,,,
,,"[""circle"",""no_dis"",""hori"",""left"",[99999,99999],[150,0]]",circle,no_dis,hori,left,"[99999,99999]","[150,0]",left,1,1.0001,,,,,,001,2025-03-10_17h38.31.991,SL_base,2021.2.3,Win32,142.8571429,,,76,0,76,0,1,,,,,,,,
,,"[""circle"",""no_dis"",""hori"",""left"",[99999,99999],[0,150]]",circle,no_dis,hori,left,"[99999,99999]","[0,150]",left,1,0.87,,,,,,001,2025-03-10_17h38.31.991,SL_base,2021.2.3,Win32,142.8571429,,,77,0,77,0,1,,,,,,,,
,,"[""circle"",""red"",""vert"",""up"",[106,-106],[0,150]]",circle,red,vert,up,"[106,-106]","[0,150]",up,1,1.1211,,,,,,001,2025-03-10_17h38.31.991,SL_base,2021.2.3,Win32,142.8571429,,,78,0,78,0,1,,,,,,,,
,,"[""circle"",""green"",""vert"",""up"",[106,-106],[150,0]]",circle,green,vert,up,"[106,-106]","[150,0]",up,1,1.0001,,,,,,001,2025-03-10_17h38.31.991,SL_base,2021.2.3,Win32,142.8571429,,,79,0,79,0,1,,,,,,,,
,,"[""circle"",""no_dis"",""hori"",""left"",[99999,99999],[106,106]]",circle,no_dis,hori,left,"[99999,99999]","[106,106]",left,1,0.8509,,,,,,001,2025-03-10_17h38.31.991,SL_base,2021.2.3,Win32,142.8571429,,,80,0,80,0,1,,,,,,,,
,,"[""circle"",""no_dis"",""hori"",""left"",[99999,99999],[-106,-106]]",circle,no_dis,hori,left,"[99999,99999]","[-106,-106]",left,1,0.8127,,,,,,001,2025-03-10_17h38.31.991,SL_base,2021.2.3,Win32,142.8571429,,,81,0,81,0,1,,,,,,,,
,,"[""diamond"",""red"",""vert"",""up"",[106,106],[150,0]]",diamond,red,vert,up,"[106,106]","[150,0]",up,1,1.0282,,,,,,001,2025-03-10_17h38.31.991,SL_base,2021.2.3,Win32,142.8571429,,,82,0,82,0,1,,,,,,,,
,,"[""circle"",""red"",""hori"",""left"",[0,150],[0,-150]]",circle,red,hori,left,"[0,150]","[0,-150]",left,1,1.1043,,,,,,001,2025-03-10_17h38.31.991,SL_base,2021.2.3,Win32,142.8571429,,,83,0,83,0,1,,,,,,,,
,,"[""circle"",""no_dis"",""vert"",""up"",[99999,99999],[106,-106]]",circle,no_dis,vert,up,"[99999,99999]","[106,-106]",up,1,1.1001,,,,,,001,2025-03-10_17h38.31.991,SL_base,2021.2.3,Win32,142.8571429,,,84,0,84,0,1,,,,,,,,
,,"[""diamond"",""no_dis"",""hori"",""left"",[99999,99999],[106,106]]",diamond,no_dis,hori,left,"[99999,99999]","[106,106]",left,1,1.4238,,,,,,001,2025-03-10_17h38.31.991,SL_base,2021.2.3,Win32,142.8571429,,,85,0,85,0,1,,,,,,,,
,,"[""circle"",""green"",""hori"",""left"",[-150,0],[-106,106]]",circle,green,hori,left,"[-150,0]","[-106,106]",left,1,1.2234,,,,,,001,2025-03-10_17h38.31.991,SL_base,2021.2.3,Win32,142.8571429,,,86,0,86,0,1,,,,,,,,
,,"[""circle"",""red"",""hori"",""left"",[-150,0],[150,0]]",circle,red,hori,left,"[-150,0]","[150,0]",left,1,0.7946,,,,,,001,2025-03-10_17h38.31.991,SL_base,2021.2.3,Win32,142.8571429,,,87,0,87,0,1,,,,,,,,
,,"[""diamond"",""no_dis"",""vert"",""up"",[99999,99999],[0,-150]]",diamond,no_dis,vert,up,"[99999,99999]","[0,-150]",up,1,1.2567,,,,,,001,2025-03-10_17h38.31.991,SL_base,2021.2.3,Win32,142.8571429,,,88,0,88,0,1,,,,,,,,
,,"[""circle"",""green"",""vert"",""up"",[-106,106],[106,106]]",circle,green,vert,up,"[-106,106]","[106,106]",up,1,1.528,,,,,,001,2025-03-10_17h38.31.991,SL_base,2021.2.3,Win32,142.8571429,,,89,0,89,0,1,,,,,,,,
,,"[""circle"",""red"",""hori"",""left"",[106,106],[150,0]]",circle,red,hori,left,"[106,106]","[150,0]",left,1,1.1008,,,,,,001,2025-03-10_17h38.31.991,SL_base,2021.2.3,Win32,142.8571429,,,90,0,90,0,1,,,,,,,,
,,"[""circle"",""red"",""vert"",""up"",[-150,0],[106,106]]",circle,red,vert,up,"[-150,0]","[106,106]",up,1,1.0211,,,,,,001,2025-03-10_17h38.31.991,SL_base,2021.2.3,Win32,142.8571429,,,91,0,91,0,1,,,,,,,,
,,"[""diamond"",""no_dis"",""hori"",""left"",[99999,99999],[-150,0]]",diamond,no_dis,hori,left,"[99999,99999]","[-150,0]",left,1,1.6087,,,,,,001,2025-03-10_17h38.31.991,SL_base,2021.2.3,Win32,142.8571429,,,92,0,92,0,1,,,,,,,,
,,"[""circle"",""red"",""vert"",""up"",[-150,0],[0,150]]",circle,red,vert,up,"[-150,0]","[0,150]",up,1,1.5856,,,,,,001,2025-03-10_17h38.31.991,SL_base,2021.2.3,Win32,142.8571429,,,93,0,93,0,1,,,,,,,,
,,"[""diamond"",""no_dis"",""hori"",""left"",[99999,99999],[150,0]]",diamond,no_dis,hori,left,"[99999,99999]","[150,0]",left,1,1.2854,,,,,,001,2025-03-10_17h38.31.991,SL_base,2021.2.3,Win32,142.8571429,,,94,0,94,0,1,,,,,,,,
,,"[""diamond"",""no_dis"",""hori"",""left"",[99999,99999],[-106,106]]",diamond,no_dis,hori,left,"[99999,99999]","[-106,106]",left,1,1.4702,,,,,,001,2025-03-10_17h38.31.991,SL_base,2021.2.3,Win32,142.8571429,,,95,0,95,0,1,,,,,,,,
,,"[""circle"",""no_dis"",""hori"",""left"",[99999,99999],[150,0]]",circle,no_dis,hori,left,"[99999,99999]","[150,0]",left,1,1.2294,,,,,,001,2025-03-10_17h38.31.991,SL_base,2021.2.3,Win32,142.8571429,,,96,0,96,0,1,,,,,,,,
,,"[""diamond"",""green"",""vert"",""up"",[0,-150],[-106,106]]",diamond,green,vert,up,"[0,-150]","[-106,106]",up,1,1.2436,,,,,,001,2025-03-10_17h38.31.991,SL_base,2021.2.3,Win32,142.8571429,,,97,0,97,0,1,,,,,,,,
,,"[""circle"",""red"",""vert"",""up"",[-106,-106],[0,-150]]",circle,red,vert,up,"[-106,-106]","[0,-150]",up,1,1.1874,,,,,,001,2025-03-10_17h38.31.991,SL_base,2021.2.3,Win32,142.8571429,,,98,0,98,0,1,,,,,,,,
,,"[""circle"",""red"",""hori"",""left"",[-150,0],[-106,106]]",circle,red,hori,left,"[-150,0]","[-106,106]",left,1,1.4469,,,,,,001,2025-03-10_17h38.31.991,SL_base,2021.2.3,Win32,142.8571429,,,99,0,99,0,1,,,,,,,,
,,"[""diamond"",""red"",""vert"",""up"",[150,0],[0,-150]]",diamond,red,vert,up,"[150,0]","[0,-150]",up,1,1.6526,,,,,,001,2025-03-10_17h38.31.991,SL_base,2021.2.3,Win32,142.8571429,,,100,0,100,0,1,,,,,,,,
,,"[""circle"",""green"",""vert"",""up"",[-150,0],[0,-150]]",circle,green,vert,up,"[-150,0]","[0,-150]",up,1,1.0031,,,,,,001,2025-03-10_17h38.31.991,SL_base,2021.2.3,Win32,142.8571429,,,101,0,101,0,1,,,,,,,,
,,"[""diamond"",""red"",""vert"",""up"",[0,150],[-106,106]]",diamond,red,vert,up,"[0,150]","[-106,106]",up,1,2.7782,,,,,,001,2025-03-10_17h38.31.991,SL_base,2021.2.3,Win32,142.8571429,,,102,0,102,0,1,,,,,,,,
,,"[""diamond"",""green"",""hori"",""left"",[0,150],[-150,0]]",diamond,green,hori,left,"[0,150]","[-150,0]",left,1,2.0778,,,,,,001,2025-03-10_17h38.31.991,SL_base,2021.2.3,Win32,142.8571429,,,103,0,103,0,1,,,,,,,,
,,"[""diamond"",""green"",""hori"",""left"",[0,150],[150,0]]",diamond,green,hori,left,"[0,150]","[150,0]",left,1,1.0484,,,,,,001,2025-03-10_17h38.31.991,SL_base,2021.2.3,Win32,142.8571429,,,104,0,104,0,1,,,,,,,,
,,"[""circle"",""no_dis"",""vert"",""up"",[99999,99999],[-106,106]]",circle,no_dis,vert,up,"[99999,99999]","[-106,106]",up,1,2.2683,,,,,,001,2025-03-10_17h38.31.991,SL_base,2021.2.3,Win32,142.8571429,,,105,0,105,0,1,,,,,,,,
,,"[""circle"",""green"",""vert"",""up"",[-106,-106],[106,-106]]",circle,green,vert,up,"[-106,-106]","[106,-106]",up,1,0.7865,,,,,,001,2025-03-10_17h38.31.991,SL_base,2021.2.3,Win32,142.8571429,,,106,0,106,0,1,,,,,,,,
,,"[""diamond"",""no_dis"",""vert"",""up"",[99999,99999],[150,0]]",diamond,no_dis,vert,up,"[99999,99999]","[150,0]",up,1,1.7084,,,,,,001,2025-03-10_17h38.31.991,SL_base,2021.2.3,Win32,142.8571429,,,107,0,107,0,1,,,,,,,,
,,"[""circle"",""green"",""hori"",""left"",[-150,0],[0,-150]]",circle,green,hori,left,"[-150,0]","[0,-150]",left,1,0.868,,,,,,001,2025-03-10_17h38.31.991,SL_base,2021.2.3,Win32,142.8571429,,,108,0,108,0,1,,,,,,,,
,,"[""diamond"",""red"",""vert"",""up"",[106,106],[0,-150]]",diamond,red,vert,up,"[106,106]","[0,-150]",up,1,0.9564,,,,,,001,2025-03-10_17h38.31.991,SL_base,2021.2.3,Win32,142.8571429,,,109,0,109,0,1,,,,,,,,
,,"[""diamond"",""green"",""hori"",""left"",[-150,0],[106,106]]",diamond,green,hori,left,"[-150,0]","[106,106]",left,1,0.5714,,,,,,001,2025-03-10_17h38.31.991,SL_base,2021.2.3,Win32,142.8571429,,,110,0,110,0,1,,,,,,,,
,,"[""circle"",""red"",""vert"",""up"",[-106,106],[-150,0]]",circle,red,vert,up,"[-106,106]","[-150,0]",up,1,0.8268,,,,,,001,2025-03-10_17h38.31.991,SL_base,2021.2.3,Win32,142.8571429,,,111,0,111,0,1,,,,,,,,
,,"[""circle"",""red"",""hori"",""left"",[106,-106],[0,-150]]",circle,red,hori,left,"[106,-106]","[0,-150]",left,1,0.7154,,,,,,001,2025-03-10_17h38.31.991,SL_base,2021.2.3,Win32,142.8571429,,,112,0,112,0,1,,,,,,,,
,,"[""circle"",""red"",""vert"",""up"",[-150,0],[106,106]]",circle,red,vert,up,"[-150,0]","[106,106]",up,1,0.6734,,,,,,001,2025-03-10_17h38.31.991,SL_base,2021.2.3,Win32,142.8571429,,,113,0,113,0,1,,,,,,,,
,,"[""circle"",""no_dis"",""hori"",""left"",[99999,99999],[-106,-106]]",circle,no_dis,hori,left,"[99999,99999]","[-106,-106]",left,1,0.6629,,,,,,001,2025-03-10_17h38.31.991,SL_base,2021.2.3,Win32,142.8571429,,,114,0,114,0,1,,,,,,,,
,,"[""diamond"",""no_dis"",""hori"",""left"",[99999,99999],[106,-106]]",diamond,no_dis,hori,left,"[99999,99999]","[106,-106]",left,1,1.1146,,,,,,001,2025-03-10_17h38.31.991,SL_base,2021.2.3,Win32,142.8571429,,,115,0,115,0,1,,,,,,,,
,,"[""diamond"",""red"",""vert"",""up"",[-150,0],[0,150]]",diamond,red,vert,up,"[-150,0]","[0,150]",up,1,1.41,,,,,,001,2025-03-10_17h38.31.991,SL_base,2021.2.3,Win32,142.8571429,,,116,0,116,0,1,,,,,,,,
,,"[""circle"",""green"",""vert"",""up"",[106,-106],[150,0]]",circle,green,vert,up,"[106,-106]","[150,0]",left,0,1.1184,,,,,,001,2025-03-10_17h38.31.991,SL_base,2021.2.3,Win32,142.8571429,,,117,0,117,0,1,,,,,,,,
,,"[""circle"",""green"",""hori"",""left"",[0,-150],[150,0]]",circle,green,hori,left,"[0,-150]","[150,0]",left,1,1.0718,,,,,,001,2025-03-10_17h38.31.991,SL_base,2021.2.3,Win32,142.8571429,,,118,0,118,0,1,,,,,,,,
,,"[""circle"",""green"",""vert"",""up"",[150,0],[-106,106]]",circle,green,vert,up,"[150,0]","[-106,106]",up,1,0.713,,,,,,001,2025-03-10_17h38.31.991,SL_base,2021.2.3,Win32,142.8571429,,,119,0,119,0,1,,,,,,,,
,,,,,,,,,,,,,,,,,001,2025-03-10_17h38.31.991,SL_base,2021.2.3,Win32,142.8571429,,,,,,,,3,space,1.0933,2,0,2,0,1
,,"[""diamond"",""no_dis"",""vert"",""up"",[99999,99999],[0,150]]",diamond,no_dis,vert,up,"[99999,99999]","[0,150]",up,1,1.0071,,,,,,001,2025-03-10_17h38.31.991,SL_base,2021.2.3,Win32,142.8571429,,,0,0,0,0,1,,,,,,,,
,,"[""diamond"",""no_dis"",""hori"",""left"",[99999,99999],[-150,0]]",diamond,no_dis,hori,left,"[99999,99999]","[-150,0]",left,1,0.7506,,,,,,001,2025-03-10_17h38.31.991,SL_base,2021.2.3,Win32,142.8571429,,,1,0,1,0,1,,,,,,,,
,,"[""diamond"",""red"",""vert"",""up"",[-150,0],[0,150]]",diamond,red,vert,up,"[-150,0]","[0,150]",up,1,0.783,,,,,,001,2025-03-10_17h38.31.991,SL_base,2021.2.3,Win32,142.8571429,,,2,0,2,0,1,,,,,,,,
,,"[""circle"",""red"",""vert"",""up"",[106,-106],[0,150]]",circle,red,vert,up,"[106,-106]","[0,150]",up,1,2.6123,,,,,,001,2025-03-10_17h38.31.991,SL_base,2021.2.3,Win32,142.8571429,,,3,0,3,0,1,,,,,,,,
,,"[""circle"",""green"",""vert"",""up"",[150,0],[-106,106]]",circle,green,vert,up,"[150,0]","[-106,106]",left,0,0.6394,,,,,,001,2025-03-10_17h38.31.991,SL_base,2021.2.3,Win32,142.8571429,,,4,0,4,0,1,,,,,,,,
,,"[""circle"",""red"",""vert"",""up"",[0,-150],[106,-106]]",circle,red,vert,up,"[0,-150]","[106,-106]",up,1,1.0182,,,,,,001,2025-03-10_17h38.31.991,SL_base,2021.2.3,Win32,142.8571429,,,5,0,5,0,1,,,,,,,,
,,"[""diamond"",""green"",""hori"",""left"",[-150,0],[106,106]]",diamond,green,hori,left,"[-150,0]","[106,106]",left,1,1.2518,,,,,,001,2025-03-10_17h38.31.991,SL_base,2021.2.3,Win32,142.8571429,,,6,0,6,0,1,,,,,,,,
,,"[""diamond"",""no_dis"",""vert"",""up"",[99999,99999],[150,0]]",diamond,no_dis,vert,up,"[99999,99999]","[150,0]",up,1,1.2261,,,,,,001,2025-03-10_17h38.31.991,SL_base,2021.2.3,Win32,142.8571429,,,7,0,7,0,1,,,,,,,,
,,"[""circle"",""red"",""vert"",""up"",[106,106],[-150,0]]",circle,red,vert,up,"[106,106]","[-150,0]",up,1,1.5904,,,,,,001,2025-03-10_17h38.31.991,SL_base,2021.2.3,Win32,142.8571429,,,8,0,8,0,1,,,,,,,,
,,"[""diamond"",""red"",""hori"",""left"",[-106,106],[0,-150]]",diamond,red,hori,left,"[-106,106]","[0,-150]",left,1,1.1455,,,,,,001,2025-03-10_17h38.31.991,SL_base,2021.2.3,Win32,142.8571429,,,9,0,9,0,1,,,,,,,,
,,"[""diamond"",""green"",""vert"",""up"",[106,-106],[-106,-106]]",diamond,green,vert,up,"[106,-106]","[-106,-106]",up,1,1.1877,,,,,,001,2025-03-10_17h38.31.991,SL_base,2021.2.3,Win32,142.8571429,,,10,0,10,0,1,,,,,,,,
,,"[""diamond"",""no_dis"",""hori"",""left"",[99999,99999],[-106,106]]",diamond,no_dis,hori,left,"[99999,99999]","[-106,106]",left,1,0.7569,,,,,,001,2025-03-10_17h38.31.991,SL_base,2021.2.3,Win32,142.8571429,,,11,0,11,0,1,,,,,,,,
,,"[""circle"",""green"",""vert"",""up"",[-106,-106],[0,-150]]",circle,green,vert,up,"[-106,-106]","[0,-150]",up,1,0.854,,,,,,001,2025-03-10_17h38.31.991,SL_base,2021.2.3,Win32,142.8571429,,,12,0,12,0,1,,,,,,,,
,,"[""circle"",""no_dis"",""vert"",""up"",[99999,99999],[-106,106]]",circle,no_dis,vert,up,"[99999,99999]","[-106,106]",up,1,0.7294,,,,,,001,2025-03-10_17h38.31.991,SL_base,2021.2.3,Win32,142.8571429,,,13,0,13,0,1,,,,,,,,
,,"[""diamond"",""red"",""hori"",""left"",[0,150],[106,106]]",diamond,red,hori,left,"[0,150]","[106,106]",left,1,2.0105,,,,,,001,2025-03-10_17h38.31.991,SL_base,2021.2.3,Win32,142.8571429,,,14,0,14,0,1,,,,,,,,
,,"[""circle"",""red"",""vert"",""up"",[-150,0],[106,106]]",circle,red,vert,up,"[-150,0]","[106,106]",up,1,1.1925,,,,,,001,2025-03-10_17h38.31.991,SL_base,2021.2.3,Win32,142.8571429,,,15,0,15,0,1,,,,,,,,
,,"[""circle"",""red"",""vert"",""up"",[-106,-106],[0,-150]]",circle,red,vert,up,"[-106,-106]","[0,-150]",up,1,1.1421,,,,,,001,2025-03-10_17h38.31.991,SL_base,2021.2.3,Win32,142.8571429,,,16,0,16,0,1,,,,,,,,
,,"[""circle"",""no_dis"",""vert"",""up"",[99999,99999],[106,-106]]",circle,no_dis,vert,up,"[99999,99999]","[106,-106]",up,1,1.0905,,,,,,001,2025-03-10_17h38.31.991,SL_base,2021.2.3,Win32,142.8571429,,,17,0,17,0,1,,,,,,,,
,,"[""diamond"",""green"",""hori"",""left"",[-150,0],[-106,-106]]",diamond,green,hori,left,"[-150,0]","[-106,-106]",left,1,0.9791,,,,,,001,2025-03-10_17h38.31.991,SL_base,2021.2.3,Win32,142.8571429,,,18,0,18,0,1,,,,,,,,
,,"[""circle"",""green"",""hori"",""left"",[-150,0],[0,-150]]",circle,green,hori,left,"[-150,0]","[0,-150]",left,1,1.1734,,,,,,001,2025-03-10_17h38.31.991,SL_base,2021.2.3,Win32,142.8571429,,,19,0,19,0,1,,,,,,,,
,,"[""circle"",""red"",""hori"",""left"",[-150,0],[150,0]]",circle,red,hori,left,"[-150,0]","[150,0]",left,1,0.7709,,,,,,001,2025-03-10_17h38.31.991,SL_base,2021.2.3,Win32,142.8571429,,,20,0,20,0,1,,,,,,,,
,,"[""diamond"",""red"",""vert"",""up"",[106,106],[150,0]]",diamond,red,vert,up,"[106,106]","[150,0]",up,1,1.1612,,,,,,001,2025-03-10_17h38.31.991,SL_base,2021.2.3,Win32,142.8571429,,,21,0,21,0,1,,,,,,,,
,,"[""circle"",""no_dis"",""hori"",""left"",[99999,99999],[150,0]]",circle,no_dis,hori,left,"[99999,99999]","[150,0]",left,1,0.9487,,,,,,001,2025-03-10_17h38.31.991,SL_base,2021.2.3,Win32,142.8571429,,,22,0,22,0,1,,,,,,,,
,,"[""diamond"",""green"",""vert"",""up"",[-150,0],[0,150]]",diamond,green,vert,up,"[-150,0]","[0,150]",up,1,1.0588,,,,,,001,2025-03-10_17h38.31.991,SL_base,2021.2.3,Win32,142.8571429,,,23,0,23,0,1,,,,,,,,
,,"[""diamond"",""red"",""vert"",""up"",[106,106],[0,-150]]",diamond,red,vert,up,"[106,106]","[0,-150]",up,1,1.3558,,,,,,001,2025-03-10_17h38.31.991,SL_base,2021.2.3,Win32,142.8571429,,,24,0,24,0,1,,,,,,,,
,,"[""circle"",""no_dis"",""hori"",""left"",[99999,99999],[106,106]]",circle,no_dis,hori,left,"[99999,99999]","[106,106]",left,1,1.3202,,,,,,001,2025-03-10_17h38.31.991,SL_base,2021.2.3,Win32,142.8571429,,,25,0,25,0,1,,,,,,,,
,,"[""circle"",""no_dis"",""vert"",""up"",[99999,99999],[-150,0]]",circle,no_dis,vert,up,"[99999,99999]","[-150,0]",up,1,1.3686,,,,,,001,2025-03-10_17h38.31.991,SL_base,2021.2.3,Win32,142.8571429,,,26,0,26,0,1,,,,,,,,
,,"[""circle"",""no_dis"",""hori"",""left"",[99999,99999],[150,0]]",circle,no_dis,hori,left,"[99999,99999]","[150,0]",left,1,0.8826,,,,,,001,2025-03-10_17h38.31.991,SL_base,2021.2.3,Win32,142.8571429,,,27,0,27,0,1,,,,,,,,
,,"[""diamond"",""green"",""vert"",""up"",[0,-150],[-106,106]]",diamond,green,vert,up,"[0,-150]","[-106,106]",up,1,1.364,,,,,,001,2025-03-10_17h38.31.991,SL_base,2021.2.3,Win32,142.8571429,,,28,0,28,0,1,,,,,,,,
,,"[""diamond"",""no_dis"",""hori"",""left"",[99999,99999],[150,0]]",diamond,no_dis,hori,left,"[99999,99999]","[150,0]",left,1,1.0868,,,,,,001,2025-03-10_17h38.31.991,SL_base,2021.2.3,Win32,142.8571429,,,29,0,29,0,1,,,,,,,,
,,"[""diamond"",""red"",""vert"",""up"",[0,-150],[106,-106]]",diamond,red,vert,up,"[0,-150]","[106,-106]",up,1,1.2175,,,,,,001,2025-03-10_17h38.31.991,SL_base,2021.2.3,Win32,142.8571429,,,30,0,30,0,1,,,,,,,,
,,"[""circle"",""green"",""hori"",""left"",[106,-106],[-150,0]]",circle,green,hori,left,"[106,-106]","[-150,0]",left,1,1.0491,,,,,,001,2025-03-10_17h38.31.991,SL_base,2021.2.3,Win32,142.8571429,,,31,0,31,0,1,,,,,,,,
,,"[""diamond"",""red"",""hori"",""left"",[-150,0],[106,106]]",diamond,red,hori,left,"[-150,0]","[106,106]",left,1,0.9933,,,,,,001,2025-03-10_17h38.31.991,SL_base,2021.2.3,Win32,142.8571429,,,32,0,32,0,1,,,,,,,,
,,"[""circle"",""green"",""vert"",""up"",[106,-106],[150,0]]",circle,green,vert,up,"[106,-106]","[150,0]",up,1,1.2683,,,,,,001,2025-03-10_17h38.31.991,SL_base,2021.2.3,Win32,142.8571429,,,33,0,33,0,1,,,,,,,,
,,"[""circle"",""red"",""vert"",""up"",[-106,106],[-150,0]]",circle,red,vert,up,"[-106,106]","[-150,0]",up,1,1.1182,,,,,,001,2025-03-10_17h38.31.991,SL_base,2021.2.3,Win32,142.8571429,,,34,0,34,0,1,,,,,,,,
,,"[""diamond"",""no_dis"",""vert"",""up"",[99999,99999],[0,-150]]",diamond,no_dis,vert,up,"[99999,99999]","[0,-150]",up,1,1.3334,,,,,,001,2025-03-10_17h38.31.991,SL_base,2021.2.3,Win32,142.8571429,,,35,0,35,0,1,,,,,,,,
,,"[""diamond"",""no_dis"",""vert"",""up"",[99999,99999],[0,-150]]",diamond,no_dis,vert,up,"[99999,99999]","[0,-150]",up,1,1.1421,,,,,,001,2025-03-10_17h38.31.991,SL_base,2021.2.3,Win32,142.8571429,,,36,0,36,0,1,,,,,,,,
,,"[""diamond"",""red"",""vert"",""up"",[-106,106],[106,-106]]",diamond,red,vert,up,"[-106,106]","[106,-106]",up,1,1.1882,,,,,,001,2025-03-10_17h38.31.991,SL_base,2021.2.3,Win32,142.8571429,,,37,0,37,0,1,,,,,,,,
,,"[""diamond"",""green"",""vert"",""up"",[0,150],[106,106]]",diamond,green,vert,up,"[0,150]","[106,106]",up,1,1.1599,,,,,,001,2025-03-10_17h38.31.991,SL_base,2021.2.3,Win32,142.8571429,,,38,0,38,0,1,,,,,,,,
,,"[""circle"",""no_dis"",""vert"",""up"",[99999,99999],[-106,106]]",circle,no_dis,vert,up,"[99999,99999]","[-106,106]",up,1,1.6183,,,,,,001,2025-03-10_17h38.31.991,SL_base,2021.2.3,Win32,142.8571429,,,39,0,39,0,1,,,,,,,,
,,"[""circle"",""green"",""vert"",""up"",[106,-106],[150,0]]",circle,green,vert,up,"[106,-106]","[150,0]",up,1,0.9131,,,,,,001,2025-03-10_17h38.31.991,SL_base,2021.2.3,Win32,142.8571429,,,40,0,40,0,1,,,,,,,,
,,"[""circle"",""red"",""hori"",""left"",[106,-106],[0,-150]]",circle,red,hori,left,"[106,-106]","[0,-150]",left,1,0.758,,,,,,001,2025-03-10_17h38.31.991,SL_base,2021.2.3,Win32,142.8571429,,,41,0,41,0,1,,,,,,,,
,,"[""diamond"",""no_dis"",""hori"",""left"",[99999,99999],[106,-106]]",diamond,no_dis,hori,left,"[99999,99999]","[106,-106]",left,1,1.2154,,,,,,001,2025-03-10_17h38.31.991,SL_base,2021.2.3,Win32,142.8571429,,,42,0,42,0,1,,,,,,,,
,,"[""circle"",""green"",""vert"",""up"",[-150,0],[-106,-106]]",circle,green,vert,up,"[-150,0]","[-106,-106]",up,1,1.5834,,,,,,001,2025-03-10_17h38.31.991,SL_base,2021.2.3,Win32,142.8571429,,,43,0,43,0,1,,,,,,,,
,,"[""diamond"",""no_dis"",""vert"",""up"",[99999,99999],[0,-150]]",diamond,no_dis,vert,up,"[99999,99999]","[0,-150]",up,1,0.8128,,,,,,001,2025-03-10_17h38.31.991,SL_base,2021.2.3,Win32,142.8571429,,,44,0,44,0,1,,,,,,,,
,,"[""diamond"",""no_dis"",""hori"",""left"",[99999,99999],[106,-106]]",diamond,no_dis,hori,left,"[99999,99999]","[106,-106]",left,1,0.8407,,,,,,001,2025-03-10_17h38.31.991,SL_base,2021.2.3,Win32,142.8571429,,,45,0,45,0,1,,,,,,,,
,,"[""diamond"",""no_dis"",""vert"",""up"",[99999,99999],[-150,0]]",diamond,no_dis,vert,up,"[99999,99999]","[-150,0]",up,1,1.07,,,,,,001,2025-03-10_17h38.31.991,SL_base,2021.2.3,Win32,142.8571429,,,46,0,46,0,1,,,,,,,,
,,"[""diamond"",""green"",""vert"",""up"",[0,150],[150,0]]",diamond,green,vert,up,"[0,150]","[150,0]",up,1,1.3406,,,,,,001,2025-03-10_17h38.31.991,SL_base,2021.2.3,Win32,142.8571429,,,47,0,47,0,1,,,,,,,,
,,"[""circle"",""red"",""hori"",""left"",[0,150],[0,-150]]",circle,red,hori,left,"[0,150]","[0,-150]",left,1,0.7734,,,,,,001,2025-03-10_17h38.31.991,SL_base,2021.2.3,Win32,142.8571429,,,48,0,48,0,1,,,,,,,,
,,"[""diamond"",""green"",""vert"",""up"",[-106,106],[-106,-106]]",diamond,green,vert,up,"[-106,106]","[-106,-106]",up,1,1.0003,,,,,,001,2025-03-10_17h38.31.991,SL_base,2021.2.3,Win32,142.8571429,,,49,0,49,0,1,,,,,,,,
,,"[""circle"",""no_dis"",""hori"",""left"",[99999,99999],[-106,-106]]",circle,no_dis,hori,left,"[99999,99999]","[-106,-106]",left,1,1.5463,,,,,,001,2025-03-10_17h38.31.991,SL_base,2021.2.3,Win32,142.8571429,,,50,0,50,0,1,,,,,,,,
,,"[""circle"",""no_dis"",""hori"",""left"",[99999,99999],[0,150]]",circle,no_dis,hori,left,"[99999,99999]","[0,150]",left,1,1.3545,,,,,,001,2025-03-10_17h38.31.991,SL_base,2021.2.3,Win32,142.8571429,,,51,0,51,0,1,,,,,,,,
,,"[""circle"",""red"",""hori"",""left"",[-106,-106],[106,106]]",circle,red,hori,left,"[-106,-106]","[106,106]",left,1,0.9169,,,,,,001,2025-03-10_17h38.31.991,SL_base,2021.2.3,Win32,142.8571429,,,52,0,52,0,1,,,,,,,,
,,"[""diamond"",""green"",""hori"",""left"",[0,-150],[-106,-106]]",diamond,green,hori,left,"[0,-150]","[-106,-106]",left,1,0.7989,,,,,,001,2025-03-10_17h38.31.991,SL_base,2021.2.3,Win32,142.8571429,,,53,0,53,0,1,,,,,,,,
,,"[""diamond"",""no_dis"",""vert"",""up"",[99999,99999],[0,-150]]",diamond,no_dis,vert,up,"[99999,99999]","[0,-150]",up,1,1.6473,,,,,,001,2025-03-10_17h38.31.991,SL_base,2021.2.3,Win32,142.8571429,,,54,0,54,0,1,,,,,,,,
,,"[""diamond"",""no_dis"",""hori"",""left"",[99999,99999],[-106,-106]]",diamond,no_dis,hori,left,"[99999,99999]","[-106,-106]",left,1,1.3268,,,,,,001,2025-03-10_17h38.31.991,SL_base,2021.2.3,Win32,142.8571429,,,55,0,55,0,1,,,,,,,,
,,"[""diamond"",""red"",""hori"",""left"",[150,0],[-106,-106]]",diamond,red,hori,left,"[150,0]","[-106,-106]",left,1,0.7847,,,,,,001,2025-03-10_17h38.31.991,SL_base,2021.2.3,Win32,142.8571429,,,56,0,56,0,1,,,,,,,,
,,"[""diamond"",""green"",""vert"",""up"",[-150,0],[106,-106]]",diamond,green,vert,up,"[-150,0]","[106,-106]",up,1,2.1194,,,,,,001,2025-03-10_17h38.31.991,SL_base,2021.2.3,Win32,142.8571429,,,57,0,57,0,1,,,,,,,,
,,"[""diamond"",""green"",""hori"",""left"",[0,-150],[0,150]]",diamond,green,hori,left,"[0,-150]","[0,150]",left,1,0.7599,,,,,,001,2025-03-10_17h38.31.991,SL_base,2021.2.3,Win32,142.8571429,,,58,0,58,0,1,,,,,,,,
,,"[""circle"",""green"",""hori"",""left"",[-106,-106],[-150,0]]",circle,green,hori,left,"[-106,-106]","[-150,0]",up,0,1.1666,,,,,,001,2025-03-10_17h38.31.991,SL_base,2021.2.3,Win32,142.8571429,,,59,0,59,0,1,,,,,,,,
,,"[""circle"",""red"",""vert"",""up"",[-106,-106],[0,-150]]",circle,red,vert,up,"[-106,-106]","[0,-150]",up,1,0.9409,,,,,,001,2025-03-10_17h38.31.991,SL_base,2021.2.3,Win32,142.8571429,,,60,0,60,0,1,,,,,,,,
,,"[""circle"",""no_dis"",""vert"",""up"",[99999,99999],[106,106]]",circle,no_dis,vert,up,"[99999,99999]","[106,106]",up,1,0.9448,,,,,,001,2025-03-10_17h38.31.991,SL_base,2021.2.3,Win32,142.8571429,,,61,0,61,0,1,,,,,,,,
,,"[""diamond"",""green"",""vert"",""up"",[-150,0],[106,-106]]",diamond,green,vert,up,"[-150,0]","[106,-106]",up,1,1.2449,,,,,,001,2025-03-10_17h38.31.991,SL_base,2021.2.3,Win32,142.8571429,,,62,0,62,0,1,,,,,,,,
,,"[""diamond"",""no_dis"",""hori"",""left"",[99999,99999],[106,-106]]",diamond,no_dis,hori,left,"[99999,99999]","[106,-106]",left,1,0.9518,,,,,,001,2025-03-10_17h38.31.991,SL_base,2021.2.3,Win32,142.8571429,,,63,0,63,0,1,,,,,,,,
,,"[""diamond"",""red"",""hori"",""left"",[106,-106],[0,-150]]",diamond,red,hori,left,"[106,-106]","[0,-150]",left,1,1.1366,,,,,,001,2025-03-10_17h38.31.991,SL_base,2021.2.3,Win32,142.8571429,,,64,0,64,0,1,,,,,,,,
,,"[""diamond"",""red"",""hori"",""left"",[-106,106],[150,0]]",diamond,red,hori,left,"[-106,106]","[150,0]",left,1,1.2359,,,,,,001,2025-03-10_17h38.31.991,SL_base,2021.2.3,Win32,142.8571429,,,65,0,65,0,1,,,,,,,,
,,"[""circle"",""green"",""hori"",""left"",[0,-150],[150,0]]",circle,green,hori,left,"[0,-150]","[150,0]",left,1,1.6735,,,,,,001,2025-03-10_17h38.31.991,SL_base,2021.2.3,Win32,142.8571429,,,66,0,66,0,1,,,,,,,,
,,"[""circle"",""green"",""vert"",""up"",[-150,0],[106,106]]",circle,green,vert,up,"[-150,0]","[106,106]",up,1,0.8399,,,,,,001,2025-03-10_17h38.31.991,SL_base,2021.2.3,Win32,142.8571429,,,67,0,67,0,1,,,,,,,,
,,"[""diamond"",""red"",""vert"",""up"",[0,150],[-106,106]]",diamond,red,vert,up,"[0,150]","[-106,106]",up,1,1.7931,,,,,,001,2025-03-10_17h38.31.991,SL_base,2021.2.3,Win32,142.8571429,,,68,0,68,0,1,,,,,,,,
,,"[""circle"",""green"",""hori"",""left"",[-150,0],[-106,-106]]",circle,green,hori,left,"[-150,0]","[-106,-106]",left,1,1.0834,,,,,,001,2025-03-10_17h38.31.991,SL_base,2021.2.3,Win32,142.8571429,,,69,0,69,0,1,,,,,,,,
,,"[""diamond"",""green"",""hori"",""left"",[106,106],[-106,106]]",diamond,green,hori,left,"[106,106]","[-106,106]",left,1,1.5071,,,,,,001,2025-03-10_17h38.31.991,SL_base,2021.2.3,Win32,142.8571429,,,70,0,70,0,1,,,,,,,,
,,"[""diamond"",""no_dis"",""vert"",""up"",[99999,99999],[0,150]]",diamond,no_dis,vert,up,"[99999,99999]","[0,150]",up,1,1.063,,,,,,001,2025-03-10_17h38.31.991,SL_base,2021.2.3,Win32,142.8571429,,,71,0,71,0,1,,,,,,,,
,,"[""circle"",""green"",""hori"",""left"",[-150,0],[0,-150]]",circle,green,hori,left,"[-150,0]","[0,-150]",left,1,1.1044,,,,,,001,2025-03-10_17h38.31.991,SL_base,2021.2.3,Win32,142.8571429,,,72,0,72,0,1,,,,,,,,
,,"[""diamond"",""red"",""vert"",""up"",[150,0],[0,-150]]",diamond,red,vert,up,"[150,0]","[0,-150]",up,1,1.5906,,,,,,001,2025-03-10_17h38.31.991,SL_base,2021.2.3,Win32,142.8571429,,,73,0,73,0,1,,,,,,,,
,,"[""circle"",""red"",""hori"",""left"",[150,0],[0,-150]]",circle,red,hori,left,"[150,0]","[0,-150]",left,1,1.0282,,,,,,001,2025-03-10_17h38.31.991,SL_base,2021.2.3,Win32,142.8571429,,,74,0,74,0,1,,,,,,,,
,,"[""circle"",""no_dis"",""hori"",""left"",[99999,99999],[0,150]]",circle,no_dis,hori,left,"[99999,99999]","[0,150]",left,1,1.0817,,,,,,001,2025-03-10_17h38.31.991,SL_base,2021.2.3,Win32,142.8571429,,,75,0,75,0,1,,,,,,,,
,,"[""circle"",""no_dis"",""vert"",""up"",[99999,99999],[-106,106]]",circle,no_dis,vert,up,"[99999,99999]","[-106,106]",up,1,1.2362,,,,,,001,2025-03-10_17h38.31.991,SL_base,2021.2.3,Win32,142.8571429,,,76,0,76,0,1,,,,,,,,
,,"[""diamond"",""red"",""vert"",""up"",[150,0],[-106,-106]]",diamond,red,vert,up,"[150,0]","[-106,-106]",left,0,1.1594,,,,,,001,2025-03-10_17h38.31.991,SL_base,2021.2.3,Win32,142.8571429,,,77,0,77,0,1,,,,,,,,
,,"[""circle"",""no_dis"",""vert"",""up"",[99999,99999],[-150,0]]",circle,no_dis,vert,up,"[99999,99999]","[-150,0]",up,1,1.7381,,,,,,001,2025-03-10_17h38.31.991,SL_base,2021.2.3,Win32,142.8571429,,,78,0,78,0,1,,,,,,,,
,,"[""diamond"",""red"",""vert"",""up"",[0,-150],[0,150]]",diamond,red,vert,up,"[0,-150]","[0,150]",up,1,1.2365,,,,,,001,2025-03-10_17h38.31.991,SL_base,2021.2.3,Win32,142.8571429,,,79,0,79,0,1,,,,,,,,
,,"[""circle"",""green"",""vert"",""up"",[-106,106],[106,106]]",circle,green,vert,up,"[-106,106]","[106,106]",up,1,1.1455,,,,,,001,2025-03-10_17h38.31.991,SL_base,2021.2.3,Win32,142.8571429,,,80,0,80,0,1,,,,,,,,
,,"[""circle"",""red"",""hori"",""left"",[-150,0],[-106,106]]",circle,red,hori,left,"[-150,0]","[-106,106]",left,1,1.1284,,,,,,001,2025-03-10_17h38.31.991,SL_base,2021.2.3,Win32,142.8571429,,,81,0,81,0,1,,,,,,,,
,,"[""circle"",""no_dis"",""vert"",""up"",[99999,99999],[0,150]]",circle,no_dis,vert,up,"[99999,99999]","[0,150]",up,1,0.8616,,,,,,001,2025-03-10_17h38.31.991,SL_base,2021.2.3,Win32,142.8571429,,,82,0,82,0,1,,,,,,,,
,,"[""circle"",""green"",""hori"",""left"",[-150,0],[-106,106]]",circle,green,hori,left,"[-150,0]","[-106,106]",left,1,1.1813,,,,,,001,2025-03-10_17h38.31.991,SL_base,2021.2.3,Win32,142.8571429,,,83,0,83,0,1,,,,,,,,
,,"[""circle"",""no_dis"",""vert"",""up"",[99999,99999],[0,-150]]",circle,no_dis,vert,up,"[99999,99999]","[0,-150]",up,1,0.9801,,,,,,001,2025-03-10_17h38.31.991,SL_base,2021.2.3,Win32,142.8571429,,,84,0,84,0,1,,,,,,,,
,,"[""diamond"",""green"",""vert"",""up"",[150,0],[-106,-106]]",diamond,green,vert,up,"[150,0]","[-106,-106]",up,1,1.029,,,,,,001,2025-03-10_17h38.31.991,SL_base,2021.2.3,Win32,142.8571429,,,85,0,85,0,1,,,,,,,,
,,"[""diamond"",""green"",""hori"",""left"",[106,106],[-106,-106]]",diamond,green,hori,left,"[106,106]","[-106,-106]",up,0,1.3476,,,,,,001,2025-03-10_17h38.31.991,SL_base,2021.2.3,Win32,142.8571429,,,86,0,86,0,1,,,,,,,,
,,"[""diamond"",""green"",""hori"",""left"",[-106,106],[-150,0]]",diamond,green,hori,left,"[-106,106]","[-150,0]",left,1,1.2084,,,,,,001,2025-03-10_17h38.31.991,SL_base,2021.2.3,Win32,142.8571429,,,87,0,87,0,1,,,,,,,,
,,"[""circle"",""green"",""vert"",""up"",[-150,0],[0,-150]]",circle,green,vert,up,"[-150,0]","[0,-150]",up,1,1.1603,,,,,,001,2025-03-10_17h38.31.991,SL_base,2021.2.3,Win32,142.8571429,,,88,0,88,0,1,,,,,,,,
,,"[""diamond"",""red"",""hori"",""left"",[-106,-106],[0,150]]",diamond,red,hori,left,"[-106,-106]","[0,150]",left,1,1.3406,,,,,,001,2025-03-10_17h38.31.991,SL_base,2021.2.3,Win32,142.8571429,,,89,0,89,0,1,,,,,,,,
,,"[""circle"",""red"",""vert"",""up"",[0,150],[106,-106]]",circle,red,vert,up,"[0,150]","[106,-106]",up,1,2.1456,,,,,,001,2025-03-10_17h38.31.991,SL_base,2021.2.3,Win32,142.8571429,,,90,0,90,0,1,,,,,,,,
