﻿key_resp.keys,key_resp.rt,trial_para,tar_shape,dis_color_condi,tar_line,cor_resp,dis_loc,tar_loc,resp.keys,resp.corr,trials.thisRepN,trials.thisTrialN,trials.thisN,trials.thisIndex,trials.ran,participant,date,expName,psychopyVersion,OS,frameRate,resp.rt,key_resp_2.keys,key_resp_2.rt,trials_2.thisRepN,trials_2.thisTrialN,trials_2.thisN,trials_2.thisIndex,trials_2.ran,block_num,key_resp_3.keys,key_resp_3.rt,trials_3.thisRepN,trials_3.thisTrialN,trials_3.thisN,trials_3.thisIndex,trials_3.ran
space,14.3058,"[""circle"",""red"",""hori"",""left"",[106,106],[-106,-106]]",circle,red,hori,left,"[106,106]","[-106,-106]",,0,0,0,0,0,1,001,2025-03-10_22h19.04.361,SL_base,2021.2.3,Win32,161.2903226,,,,,,,,,,,,,,,,
,,"[""diamond"",""no_dis"",""vert"",""up"",[99999,99999],[150,0]]",diamond,no_dis,vert,up,"[99999,99999]","[150,0]",,0,1,0,1,0,1,001,2025-03-10_22h19.04.361,SL_base,2021.2.3,Win32,161.2903226,,,,,,,,,,,,,,,,
,,"[""circle"",""green"",""hori"",""left"",[0,150],[0,-150]]",circle,green,hori,left,"[0,150]","[0,-150]",,0,2,0,2,0,1,001,2025-03-10_22h19.04.361,SL_base,2021.2.3,Win32,161.2903226,,,,,,,,,,,,,,,,
,,"[""circle"",""red"",""hori"",""left"",[0,-150],[-106,106]]",circle,red,hori,left,"[0,-150]","[-106,106]",,0,3,0,3,0,1,001,2025-03-10_22h19.04.361,SL_base,2021.2.3,Win32,161.2903226,,,,,,,,,,,,,,,,
,,"[""diamond"",""no_dis"",""hori"",""left"",[99999,99999],[-150,0]]",diamond,no_dis,hori,left,"[99999,99999]","[-150,0]",left,1,4,0,4,0,1,001,2025-03-10_22h19.04.361,SL_base,2021.2.3,Win32,161.2903226,2.376,,,,,,,,,,,,,,,
,,"[""circle"",""green"",""hori"",""left"",[0,-150],[-150,0]]",circle,green,hori,left,"[0,-150]","[-150,0]",left,1,5,0,5,0,1,001,2025-03-10_22h19.04.361,SL_base,2021.2.3,Win32,161.2903226,2.2503,,,,,,,,,,,,,,,
,,"[""diamond"",""green"",""hori"",""left"",[-150,0],[106,-106]]",diamond,green,hori,left,"[-150,0]","[106,-106]",left,1,6,0,6,0,1,001,2025-03-10_22h19.04.361,SL_base,2021.2.3,Win32,161.2903226,1.9943,,,,,,,,,,,,,,,
,,"[""circle"",""green"",""vert"",""up"",[150,0],[0,-150]]",circle,green,vert,up,"[150,0]","[0,-150]",left,0,7,0,7,0,1,001,2025-03-10_22h19.04.361,SL_base,2021.2.3,Win32,161.2903226,2.484,,,,,,,,,,,,,,,
,,"[""circle"",""red"",""vert"",""up"",[106,-106],[-106,-106]]",circle,red,vert,up,"[106,-106]","[-106,-106]",,0,8,0,8,0,1,001,2025-03-10_22h19.04.361,SL_base,2021.2.3,Win32,161.2903226,,,,,,,,,,,,,,,,
,,"[""diamond"",""green"",""vert"",""up"",[-106,106],[106,-106]]",diamond,green,vert,up,"[-106,106]","[106,-106]",left,0,9,0,9,0,1,001,2025-03-10_22h19.04.361,SL_base,2021.2.3,Win32,161.2903226,2.6971,,,,,,,,,,,,,,,
,,"[""circle"",""red"",""hori"",""left"",[106,106],[-106,-106]]",circle,red,hori,left,"[106,106]","[-106,-106]",left,1,,,,,,001,2025-03-10_22h19.04.361,SL_base,2021.2.3,Win32,161.2903226,1.824,space,15.9323,0,0,0,0,1,,,,,,,,
,,"[""diamond"",""no_dis"",""vert"",""up"",[99999,99999],[150,0]]",diamond,no_dis,vert,up,"[99999,99999]","[150,0]",up,1,,,,,,001,2025-03-10_22h19.04.361,SL_base,2021.2.3,Win32,161.2903226,2.7874,,,1,0,1,0,1,,,,,,,,
,,"[""circle"",""green"",""hori"",""left"",[0,150],[0,-150]]",circle,green,hori,left,"[0,150]","[0,-150]",left,1,,,,,,001,2025-03-10_22h19.04.361,SL_base,2021.2.3,Win32,161.2903226,2.5091,,,2,0,2,0,1,,,,,,,,
,,"[""circle"",""red"",""hori"",""left"",[0,-150],[-106,106]]",circle,red,hori,left,"[0,-150]","[-106,106]",left,1,,,,,,001,2025-03-10_22h19.04.361,SL_base,2021.2.3,Win32,161.2903226,1.6078,,,3,0,3,0,1,,,,,,,,
,,"[""diamond"",""no_dis"",""hori"",""left"",[99999,99999],[-150,0]]",diamond,no_dis,hori,left,"[99999,99999]","[-150,0]",left,1,,,,,,001,2025-03-10_22h19.04.361,SL_base,2021.2.3,Win32,161.2903226,1.8215,,,4,0,4,0,1,,,,,,,,
,,"[""circle"",""green"",""hori"",""left"",[0,-150],[-150,0]]",circle,green,hori,left,"[0,-150]","[-150,0]",left,1,,,,,,001,2025-03-10_22h19.04.361,SL_base,2021.2.3,Win32,161.2903226,2.1116,,,5,0,5,0,1,,,,,,,,
,,"[""diamond"",""green"",""hori"",""left"",[-150,0],[106,-106]]",diamond,green,hori,left,"[-150,0]","[106,-106]",left,1,,,,,,001,2025-03-10_22h19.04.361,SL_base,2021.2.3,Win32,161.2903226,1.9997,,,6,0,6,0,1,,,,,,,,
,,"[""circle"",""green"",""vert"",""up"",[150,0],[0,-150]]",circle,green,vert,up,"[150,0]","[0,-150]",up,1,,,,,,001,2025-03-10_22h19.04.361,SL_base,2021.2.3,Win32,161.2903226,2.5756,,,7,0,7,0,1,,,,,,,,
,,"[""circle"",""red"",""vert"",""up"",[106,-106],[-106,-106]]",circle,red,vert,up,"[106,-106]","[-106,-106]",up,1,,,,,,001,2025-03-10_22h19.04.361,SL_base,2021.2.3,Win32,161.2903226,1.5273,,,8,0,8,0,1,,,,,,,,
,,"[""diamond"",""green"",""vert"",""up"",[-106,106],[106,-106]]",diamond,green,vert,up,"[-106,106]","[106,-106]",,0,,,,,,001,2025-03-10_22h19.04.361,SL_base,2021.2.3,Win32,161.2903226,,,,9,0,9,0,1,,,,,,,,
,,"[""diamond"",""green"",""hori"",""left"",[0,-150],[106,106]]",diamond,green,hori,left,"[0,-150]","[106,106]",left,1,,,,,,001,2025-03-10_22h19.04.361,SL_base,2021.2.3,Win32,161.2903226,1.576,,,10,0,10,0,1,,,,,,,,
,,"[""circle"",""no_dis"",""vert"",""up"",[99999,99999],[0,-150]]",circle,no_dis,vert,up,"[99999,99999]","[0,-150]",up,1,,,,,,001,2025-03-10_22h19.04.361,SL_base,2021.2.3,Win32,161.2903226,1.0811,,,11,0,11,0,1,,,,,,,,
,,"[""diamond"",""red"",""hori"",""left"",[150,0],[-150,0]]",diamond,red,hori,left,"[150,0]","[-150,0]",up,0,,,,,,001,2025-03-10_22h19.04.361,SL_base,2021.2.3,Win32,161.2903226,2.5112,,,12,0,12,0,1,,,,,,,,
,,"[""diamond"",""green"",""hori"",""left"",[0,-150],[0,150]]",diamond,green,hori,left,"[0,-150]","[0,150]",left,1,,,,,,001,2025-03-10_22h19.04.361,SL_base,2021.2.3,Win32,161.2903226,1.4622,,,13,0,13,0,1,,,,,,,,
,,"[""diamond"",""red"",""hori"",""left"",[-106,-106],[0,-150]]",diamond,red,hori,left,"[-106,-106]","[0,-150]",left,1,,,,,,001,2025-03-10_22h19.04.361,SL_base,2021.2.3,Win32,161.2903226,1.5821,,,14,0,14,0,1,,,,,,,,
,,"[""diamond"",""green"",""vert"",""up"",[106,-106],[-106,106]]",diamond,green,vert,up,"[106,-106]","[-106,106]",left,0,,,,,,001,2025-03-10_22h19.04.361,SL_base,2021.2.3,Win32,161.2903226,0.6432,,,15,0,15,0,1,,,,,,,,
,,"[""circle"",""no_dis"",""hori"",""left"",[99999,99999],[-106,106]]",circle,no_dis,hori,left,"[99999,99999]","[-106,106]",left,1,,,,,,001,2025-03-10_22h19.04.361,SL_base,2021.2.3,Win32,161.2903226,1.1274,,,16,0,16,0,1,,,,,,,,
,,"[""diamond"",""no_dis"",""vert"",""up"",[99999,99999],[0,-150]]",diamond,no_dis,vert,up,"[99999,99999]","[0,-150]",up,1,,,,,,001,2025-03-10_22h19.04.361,SL_base,2021.2.3,Win32,161.2903226,1.1454,,,17,0,17,0,1,,,,,,,,
,,"[""circle"",""red"",""vert"",""up"",[106,-106],[-150,0]]",circle,red,vert,up,"[106,-106]","[-150,0]",up,1,,,,,,001,2025-03-10_22h19.04.361,SL_base,2021.2.3,Win32,161.2903226,1.4245,,,18,0,18,0,1,,,,,,,,
,,"[""circle"",""green"",""hori"",""left"",[-106,-106],[-106,106]]",circle,green,hori,left,"[-106,-106]","[-106,106]",left,1,,,,,,001,2025-03-10_22h19.04.361,SL_base,2021.2.3,Win32,161.2903226,2.0679,,,19,0,19,0,1,,,,,,,,
,,"[""circle"",""no_dis"",""hori"",""left"",[99999,99999],[-150,0]]",circle,no_dis,hori,left,"[99999,99999]","[-150,0]",left,1,,,,,,001,2025-03-10_22h19.04.361,SL_base,2021.2.3,Win32,161.2903226,0.9456,,,20,0,20,0,1,,,,,,,,
,,"[""circle"",""red"",""vert"",""up"",[106,-106],[0,150]]",circle,red,vert,up,"[106,-106]","[0,150]",up,1,,,,,,001,2025-03-10_22h19.04.361,SL_base,2021.2.3,Win32,161.2903226,1.2725,,,21,0,21,0,1,,,,,,,,
,,"[""diamond"",""no_dis"",""vert"",""up"",[99999,99999],[0,-150]]",diamond,no_dis,vert,up,"[99999,99999]","[0,-150]",up,1,,,,,,001,2025-03-10_22h19.04.361,SL_base,2021.2.3,Win32,161.2903226,2.449,,,22,0,22,0,1,,,,,,,,
,,"[""diamond"",""no_dis"",""hori"",""left"",[99999,99999],[150,0]]",diamond,no_dis,hori,left,"[99999,99999]","[150,0]",left,1,,,,,,001,2025-03-10_22h19.04.361,SL_base,2021.2.3,Win32,161.2903226,0.8889,,,23,0,23,0,1,,,,,,,,
,,"[""diamond"",""no_dis"",""vert"",""up"",[99999,99999],[106,-106]]",diamond,no_dis,vert,up,"[99999,99999]","[106,-106]",up,1,,,,,,001,2025-03-10_22h19.04.361,SL_base,2021.2.3,Win32,161.2903226,1.0257,,,24,0,24,0,1,,,,,,,,
,,"[""circle"",""red"",""vert"",""up"",[106,106],[106,-106]]",circle,red,vert,up,"[106,106]","[106,-106]",up,1,,,,,,001,2025-03-10_22h19.04.361,SL_base,2021.2.3,Win32,161.2903226,2.3116,,,25,0,25,0,1,,,,,,,,
,,"[""diamond"",""red"",""hori"",""left"",[-106,106],[-106,-106]]",diamond,red,hori,left,"[-106,106]","[-106,-106]",left,1,,,,,,001,2025-03-10_22h19.04.361,SL_base,2021.2.3,Win32,161.2903226,1.5415,,,26,0,26,0,1,,,,,,,,
,,"[""diamond"",""green"",""vert"",""up"",[106,-106],[106,106]]",diamond,green,vert,up,"[106,-106]","[106,106]",up,1,,,,,,001,2025-03-10_22h19.04.361,SL_base,2021.2.3,Win32,161.2903226,1.4554,,,27,0,27,0,1,,,,,,,,
,,"[""diamond"",""no_dis"",""hori"",""left"",[99999,99999],[106,106]]",diamond,no_dis,hori,left,"[99999,99999]","[106,106]",left,1,,,,,,001,2025-03-10_22h19.04.361,SL_base,2021.2.3,Win32,161.2903226,0.9892,,,28,0,28,0,1,,,,,,,,
,,"[""circle"",""no_dis"",""vert"",""up"",[99999,99999],[-150,0]]",circle,no_dis,vert,up,"[99999,99999]","[-150,0]",up,1,,,,,,001,2025-03-10_22h19.04.361,SL_base,2021.2.3,Win32,161.2903226,1.9465,,,29,0,29,0,1,,,,,,,,
,,"[""diamond"",""red"",""vert"",""up"",[-150,0],[-106,106]]",diamond,red,vert,up,"[-150,0]","[-106,106]",up,1,,,,,,001,2025-03-10_22h19.04.361,SL_base,2021.2.3,Win32,161.2903226,2.3036,,,30,0,30,0,1,,,,,,,,
,,"[""circle"",""no_dis"",""hori"",""left"",[99999,99999],[0,150]]",circle,no_dis,hori,left,"[99999,99999]","[0,150]",,0,,,,,,001,2025-03-10_22h19.04.361,SL_base,2021.2.3,Win32,161.2903226,,,,31,0,31,0,1,,,,,,,,
,,"[""diamond"",""green"",""vert"",""up"",[150,0],[-106,-106]]",diamond,green,vert,up,"[150,0]","[-106,-106]",up,1,,,,,,001,2025-03-10_22h19.04.361,SL_base,2021.2.3,Win32,161.2903226,1.0305,,,32,0,32,0,1,,,,,,,,
,,"[""diamond"",""red"",""hori"",""left"",[-106,106],[0,-150]]",diamond,red,hori,left,"[-106,106]","[0,-150]",,0,,,,,,001,2025-03-10_22h19.04.361,SL_base,2021.2.3,Win32,161.2903226,,,,33,0,33,0,1,,,,,,,,
,,"[""circle"",""no_dis"",""hori"",""left"",[99999,99999],[-106,-106]]",circle,no_dis,hori,left,"[99999,99999]","[-106,-106]",left,1,,,,,,001,2025-03-10_22h19.04.361,SL_base,2021.2.3,Win32,161.2903226,1.8093,,,34,0,34,0,1,,,,,,,,
,,"[""diamond"",""green"",""hori"",""left"",[106,-106],[106,106]]",diamond,green,hori,left,"[106,-106]","[106,106]",left,1,,,,,,001,2025-03-10_22h19.04.361,SL_base,2021.2.3,Win32,161.2903226,1.2902,,,35,0,35,0,1,,,,,,,,
,,"[""diamond"",""green"",""vert"",""up"",[0,-150],[-106,-106]]",diamond,green,vert,up,"[0,-150]","[-106,-106]",up,1,,,,,,001,2025-03-10_22h19.04.361,SL_base,2021.2.3,Win32,161.2903226,1.0229,,,36,0,36,0,1,,,,,,,,
,,"[""diamond"",""red"",""vert"",""up"",[106,106],[106,-106]]",diamond,red,vert,up,"[106,106]","[106,-106]",up,1,,,,,,001,2025-03-10_22h19.04.361,SL_base,2021.2.3,Win32,161.2903226,2.3491,,,37,0,37,0,1,,,,,,,,
,,"[""circle"",""no_dis"",""hori"",""left"",[99999,99999],[106,-106]]",circle,no_dis,hori,left,"[99999,99999]","[106,-106]",left,1,,,,,,001,2025-03-10_22h19.04.361,SL_base,2021.2.3,Win32,161.2903226,1.5182,,,38,0,38,0,1,,,,,,,,
,,"[""circle"",""red"",""vert"",""up"",[106,-106],[-150,0]]",circle,red,vert,up,"[106,-106]","[-150,0]",up,1,,,,,,001,2025-03-10_22h19.04.361,SL_base,2021.2.3,Win32,161.2903226,2.0033,,,39,0,39,0,1,,,,,,,,
,,"[""diamond"",""red"",""vert"",""up"",[106,106],[150,0]]",diamond,red,vert,up,"[106,106]","[150,0]",up,1,,,,,,001,2025-03-10_22h19.04.361,SL_base,2021.2.3,Win32,161.2903226,1.5009,,,40,0,40,0,1,,,,,,,,
,,"[""circle"",""no_dis"",""vert"",""up"",[99999,99999],[-106,-106]]",circle,no_dis,vert,up,"[99999,99999]","[-106,-106]",left,0,,,,,,001,2025-03-10_22h19.04.361,SL_base,2021.2.3,Win32,161.2903226,2.3579,,,41,0,41,0,1,,,,,,,,
,,"[""circle"",""no_dis"",""hori"",""left"",[99999,99999],[-150,0]]",circle,no_dis,hori,left,"[99999,99999]","[-150,0]",left,1,,,,,,001,2025-03-10_22h19.04.361,SL_base,2021.2.3,Win32,161.2903226,0.9638,,,42,0,42,0,1,,,,,,,,
,,"[""diamond"",""green"",""vert"",""up"",[0,150],[150,0]]",diamond,green,vert,up,"[0,150]","[150,0]",up,1,,,,,,001,2025-03-10_22h19.04.361,SL_base,2021.2.3,Win32,161.2903226,1.5095,,,43,0,43,0,1,,,,,,,,
,,"[""diamond"",""red"",""hori"",""left"",[-106,106],[-150,0]]",diamond,red,hori,left,"[-106,106]","[-150,0]",left,1,,,,,,001,2025-03-10_22h19.04.361,SL_base,2021.2.3,Win32,161.2903226,2.0613,,,44,0,44,0,1,,,,,,,,
,,"[""circle"",""green"",""hori"",""left"",[0,-150],[106,-106]]",circle,green,hori,left,"[0,-150]","[106,-106]",left,1,,,,,,001,2025-03-10_22h19.04.361,SL_base,2021.2.3,Win32,161.2903226,2.3219,,,45,0,45,0,1,,,,,,,,
,,"[""diamond"",""no_dis"",""vert"",""up"",[99999,99999],[106,106]]",diamond,no_dis,vert,up,"[99999,99999]","[106,106]",up,1,,,,,,001,2025-03-10_22h19.04.361,SL_base,2021.2.3,Win32,161.2903226,1.0381,,,46,0,46,0,1,,,,,,,,
,,"[""circle"",""green"",""hori"",""left"",[-150,0],[-106,-106]]",circle,green,hori,left,"[-150,0]","[-106,-106]",left,1,,,,,,001,2025-03-10_22h19.04.361,SL_base,2021.2.3,Win32,161.2903226,2.303,,,47,0,47,0,1,,,,,,,,
,,"[""diamond"",""red"",""hori"",""left"",[150,0],[0,150]]",diamond,red,hori,left,"[150,0]","[0,150]",left,1,,,,,,001,2025-03-10_22h19.04.361,SL_base,2021.2.3,Win32,161.2903226,1.9699,,,48,0,48,0,1,,,,,,,,
,,"[""diamond"",""green"",""vert"",""up"",[106,-106],[150,0]]",diamond,green,vert,up,"[106,-106]","[150,0]",up,1,,,,,,001,2025-03-10_22h19.04.361,SL_base,2021.2.3,Win32,161.2903226,1.485,,,49,0,49,0,1,,,,,,,,
,,"[""circle"",""no_dis"",""vert"",""up"",[99999,99999],[-150,0]]",circle,no_dis,vert,up,"[99999,99999]","[-150,0]",up,1,,,,,,001,2025-03-10_22h19.04.361,SL_base,2021.2.3,Win32,161.2903226,1.3155,,,50,0,50,0,1,,,,,,,,
,,"[""circle"",""green"",""vert"",""up"",[106,-106],[106,106]]",circle,green,vert,up,"[106,-106]","[106,106]",up,1,,,,,,001,2025-03-10_22h19.04.361,SL_base,2021.2.3,Win32,161.2903226,1.3825,,,51,0,51,0,1,,,,,,,,
,,"[""circle"",""red"",""vert"",""up"",[-150,0],[150,0]]",circle,red,vert,up,"[-150,0]","[150,0]",up,1,,,,,,001,2025-03-10_22h19.04.361,SL_base,2021.2.3,Win32,161.2903226,1.2791,,,52,0,52,0,1,,,,,,,,
,,"[""circle"",""green"",""hori"",""left"",[106,-106],[0,-150]]",circle,green,hori,left,"[106,-106]","[0,-150]",left,1,,,,,,001,2025-03-10_22h19.04.361,SL_base,2021.2.3,Win32,161.2903226,1.8126,,,53,0,53,0,1,,,,,,,,
,,"[""diamond"",""red"",""vert"",""up"",[-106,106],[150,0]]",diamond,red,vert,up,"[-106,106]","[150,0]",up,1,,,,,,001,2025-03-10_22h19.04.361,SL_base,2021.2.3,Win32,161.2903226,1.4192,,,54,0,54,0,1,,,,,,,,
,,"[""circle"",""red"",""vert"",""up"",[-106,-106],[-106,106]]",circle,red,vert,up,"[-106,-106]","[-106,106]",up,1,,,,,,001,2025-03-10_22h19.04.361,SL_base,2021.2.3,Win32,161.2903226,1.4733,,,55,0,55,0,1,,,,,,,,
,,"[""diamond"",""no_dis"",""vert"",""up"",[99999,99999],[0,150]]",diamond,no_dis,vert,up,"[99999,99999]","[0,150]",up,1,,,,,,001,2025-03-10_22h19.04.361,SL_base,2021.2.3,Win32,161.2903226,1.1642,,,56,0,56,0,1,,,,,,,,
,,"[""circle"",""no_dis"",""hori"",""left"",[99999,99999],[106,-106]]",circle,no_dis,hori,left,"[99999,99999]","[106,-106]",left,1,,,,,,001,2025-03-10_22h19.04.361,SL_base,2021.2.3,Win32,161.2903226,1.1459,,,57,0,57,0,1,,,,,,,,
,,"[""circle"",""green"",""vert"",""up"",[0,150],[0,-150]]",circle,green,vert,up,"[0,150]","[0,-150]",up,1,,,,,,001,2025-03-10_22h19.04.361,SL_base,2021.2.3,Win32,161.2903226,0.8734,,,58,0,58,0,1,,,,,,,,
,,"[""circle"",""no_dis"",""vert"",""up"",[99999,99999],[150,0]]",circle,no_dis,vert,up,"[99999,99999]","[150,0]",up,1,,,,,,001,2025-03-10_22h19.04.361,SL_base,2021.2.3,Win32,161.2903226,0.8912,,,59,0,59,0,1,,,,,,,,
,,"[""circle"",""green"",""hori"",""left"",[0,-150],[0,150]]",circle,green,hori,left,"[0,-150]","[0,150]",left,1,,,,,,001,2025-03-10_22h19.04.361,SL_base,2021.2.3,Win32,161.2903226,1.9543,,,60,0,60,0,1,,,,,,,,
,,"[""diamond"",""no_dis"",""hori"",""left"",[99999,99999],[-106,106]]",diamond,no_dis,hori,left,"[99999,99999]","[-106,106]",left,1,,,,,,001,2025-03-10_22h19.04.361,SL_base,2021.2.3,Win32,161.2903226,2.6608,,,61,0,61,0,1,,,,,,,,
,,"[""diamond"",""green"",""hori"",""left"",[106,-106],[-150,0]]",diamond,green,hori,left,"[106,-106]","[-150,0]",left,1,,,,,,001,2025-03-10_22h19.04.361,SL_base,2021.2.3,Win32,161.2903226,1.419,,,62,0,62,0,1,,,,,,,,
,,"[""circle"",""no_dis"",""hori"",""left"",[99999,99999],[106,106]]",circle,no_dis,hori,left,"[99999,99999]","[106,106]",left,1,,,,,,001,2025-03-10_22h19.04.361,SL_base,2021.2.3,Win32,161.2903226,2.7345,,,63,0,63,0,1,,,,,,,,
,,"[""circle"",""no_dis"",""hori"",""left"",[99999,99999],[150,0]]",circle,no_dis,hori,left,"[99999,99999]","[150,0]",left,1,,,,,,001,2025-03-10_22h19.04.361,SL_base,2021.2.3,Win32,161.2903226,1.0414,,,64,0,64,0,1,,,,,,,,
,,"[""diamond"",""no_dis"",""hori"",""left"",[99999,99999],[-106,-106]]",diamond,no_dis,hori,left,"[99999,99999]","[-106,-106]",left,1,,,,,,001,2025-03-10_22h19.04.361,SL_base,2021.2.3,Win32,161.2903226,2.8433,,,65,0,65,0,1,,,,,,,,
,,"[""circle"",""red"",""hori"",""left"",[106,-106],[0,-150]]",circle,red,hori,left,"[106,-106]","[0,-150]",left,1,,,,,,001,2025-03-10_22h19.04.361,SL_base,2021.2.3,Win32,161.2903226,1.0322,,,66,0,66,0,1,,,,,,,,
,,"[""circle"",""green"",""vert"",""up"",[150,0],[-106,-106]]",circle,green,vert,up,"[150,0]","[-106,-106]",up,1,,,,,,001,2025-03-10_22h19.04.361,SL_base,2021.2.3,Win32,161.2903226,1.3613,,,67,0,67,0,1,,,,,,,,
,,"[""circle"",""red"",""hori"",""left"",[-106,-106],[106,106]]",circle,red,hori,left,"[-106,-106]","[106,106]",left,1,,,,,,001,2025-03-10_22h19.04.361,SL_base,2021.2.3,Win32,161.2903226,1.0565,,,68,0,68,0,1,,,,,,,,
,,"[""circle"",""red"",""vert"",""up"",[-106,-106],[106,106]]",circle,red,vert,up,"[-106,-106]","[106,106]",up,1,,,,,,001,2025-03-10_22h19.04.361,SL_base,2021.2.3,Win32,161.2903226,1.2513,,,69,0,69,0,1,,,,,,,,
,,"[""diamond"",""green"",""vert"",""up"",[0,150],[-150,0]]",diamond,green,vert,up,"[0,150]","[-150,0]",up,1,,,,,,001,2025-03-10_22h19.04.361,SL_base,2021.2.3,Win32,161.2903226,1.8053,,,70,0,70,0,1,,,,,,,,
,,"[""diamond"",""red"",""vert"",""up"",[106,-106],[-106,106]]",diamond,red,vert,up,"[106,-106]","[-106,106]",up,1,,,,,,001,2025-03-10_22h19.04.361,SL_base,2021.2.3,Win32,161.2903226,1.2323,,,71,0,71,0,1,,,,,,,,
,,"[""diamond"",""no_dis"",""hori"",""left"",[99999,99999],[-106,-106]]",diamond,no_dis,hori,left,"[99999,99999]","[-106,-106]",left,1,,,,,,001,2025-03-10_22h19.04.361,SL_base,2021.2.3,Win32,161.2903226,2.9399,,,72,0,72,0,1,,,,,,,,
,,"[""diamond"",""no_dis"",""hori"",""left"",[99999,99999],[0,150]]",diamond,no_dis,hori,left,"[99999,99999]","[0,150]",left,1,,,,,,001,2025-03-10_22h19.04.361,SL_base,2021.2.3,Win32,161.2903226,1.1639,,,73,0,73,0,1,,,,,,,,
,,"[""diamond"",""red"",""vert"",""up"",[106,106],[-106,106]]",diamond,red,vert,up,"[106,106]","[-106,106]",up,1,,,,,,001,2025-03-10_22h19.04.361,SL_base,2021.2.3,Win32,161.2903226,1.1968,,,74,0,74,0,1,,,,,,,,
,,"[""circle"",""no_dis"",""hori"",""left"",[99999,99999],[106,106]]",circle,no_dis,hori,left,"[99999,99999]","[106,106]",left,1,,,,,,001,2025-03-10_22h19.04.361,SL_base,2021.2.3,Win32,161.2903226,1.6005,,,75,0,75,0,1,,,,,,,,
,,"[""circle"",""green"",""vert"",""up"",[0,150],[0,-150]]",circle,green,vert,up,"[0,150]","[0,-150]",up,1,,,,,,001,2025-03-10_22h19.04.361,SL_base,2021.2.3,Win32,161.2903226,1.4443,,,76,0,76,0,1,,,,,,,,
,,"[""diamond"",""no_dis"",""hori"",""left"",[99999,99999],[-106,106]]",diamond,no_dis,hori,left,"[99999,99999]","[-106,106]",left,1,,,,,,001,2025-03-10_22h19.04.361,SL_base,2021.2.3,Win32,161.2903226,1.5945,,,77,0,77,0,1,,,,,,,,
,,"[""diamond"",""red"",""hori"",""left"",[106,-106],[150,0]]",diamond,red,hori,left,"[106,-106]","[150,0]",up,0,,,,,,001,2025-03-10_22h19.04.361,SL_base,2021.2.3,Win32,161.2903226,1.5154,,,78,0,78,0,1,,,,,,,,
,,"[""diamond"",""red"",""hori"",""left"",[-150,0],[0,150]]",diamond,red,hori,left,"[-150,0]","[0,150]",left,1,,,,,,001,2025-03-10_22h19.04.361,SL_base,2021.2.3,Win32,161.2903226,1.3816,,,79,0,79,0,1,,,,,,,,
,,"[""diamond"",""green"",""vert"",""up"",[-150,0],[0,-150]]",diamond,green,vert,up,"[-150,0]","[0,-150]",up,1,,,,,,001,2025-03-10_22h19.04.361,SL_base,2021.2.3,Win32,161.2903226,1.1641,,,80,0,80,0,1,,,,,,,,
,,"[""circle"",""green"",""hori"",""left"",[106,-106],[-106,106]]",circle,green,hori,left,"[106,-106]","[-106,106]",left,1,,,,,,001,2025-03-10_22h19.04.361,SL_base,2021.2.3,Win32,161.2903226,1.42,,,81,0,81,0,1,,,,,,,,
,,"[""circle"",""red"",""hori"",""left"",[106,106],[-150,0]]",circle,red,hori,left,"[106,106]","[-150,0]",left,1,,,,,,001,2025-03-10_22h19.04.361,SL_base,2021.2.3,Win32,161.2903226,1.1697,,,82,0,82,0,1,,,,,,,,
,,"[""diamond"",""red"",""vert"",""up"",[106,-106],[0,150]]",diamond,red,vert,up,"[106,-106]","[0,150]",left,0,,,,,,001,2025-03-10_22h19.04.361,SL_base,2021.2.3,Win32,161.2903226,2.1519,,,83,0,83,0,1,,,,,,,,
,,"[""circle"",""no_dis"",""vert"",""up"",[99999,99999],[150,0]]",circle,no_dis,vert,up,"[99999,99999]","[150,0]",up,1,,,,,,001,2025-03-10_22h19.04.361,SL_base,2021.2.3,Win32,161.2903226,2.2562,,,84,0,84,0,1,,,,,,,,
,,"[""diamond"",""red"",""vert"",""up"",[106,106],[150,0]]",diamond,red,vert,up,"[106,106]","[150,0]",up,1,,,,,,001,2025-03-10_22h19.04.361,SL_base,2021.2.3,Win32,161.2903226,1.9453,,,85,0,85,0,1,,,,,,,,
,,"[""circle"",""green"",""vert"",""up"",[-150,0],[150,0]]",circle,green,vert,up,"[-150,0]","[150,0]",up,1,,,,,,001,2025-03-10_22h19.04.361,SL_base,2021.2.3,Win32,161.2903226,1.0502,,,86,0,86,0,1,,,,,,,,
,,"[""circle"",""red"",""hori"",""left"",[106,-106],[-106,106]]",circle,red,hori,left,"[106,-106]","[-106,106]",left,1,,,,,,001,2025-03-10_22h19.04.361,SL_base,2021.2.3,Win32,161.2903226,1.2181,,,87,0,87,0,1,,,,,,,,
,,"[""diamond"",""red"",""vert"",""up"",[0,150],[106,106]]",diamond,red,vert,up,"[0,150]","[106,106]",up,1,,,,,,001,2025-03-10_22h19.04.361,SL_base,2021.2.3,Win32,161.2903226,1.4007,,,88,0,88,0,1,,,,,,,,
,,"[""diamond"",""green"",""vert"",""up"",[-106,106],[106,-106]]",diamond,green,vert,up,"[-106,106]","[106,-106]",,0,,,,,,001,2025-03-10_22h19.04.361,SL_base,2021.2.3,Win32,161.2903226,,,,89,0,89,0,1,,,,,,,,
,,"[""diamond"",""green"",""hori"",""left"",[150,0],[0,-150]]",diamond,green,hori,left,"[150,0]","[0,-150]",left,1,,,,,,001,2025-03-10_22h19.04.361,SL_base,2021.2.3,Win32,161.2903226,0.9821,,,90,0,90,0,1,,,,,,,,
,,"[""diamond"",""no_dis"",""vert"",""up"",[99999,99999],[0,-150]]",diamond,no_dis,vert,up,"[99999,99999]","[0,-150]",up,1,,,,,,001,2025-03-10_22h19.04.361,SL_base,2021.2.3,Win32,161.2903226,0.7931,,,91,0,91,0,1,,,,,,,,
,,"[""circle"",""green"",""vert"",""up"",[-106,-106],[-106,106]]",circle,green,vert,up,"[-106,-106]","[-106,106]",up,1,,,,,,001,2025-03-10_22h19.04.361,SL_base,2021.2.3,Win32,161.2903226,1.3944,,,92,0,92,0,1,,,,,,,,
,,"[""diamond"",""green"",""hori"",""left"",[106,-106],[-150,0]]",diamond,green,hori,left,"[106,-106]","[-150,0]",left,1,,,,,,001,2025-03-10_22h19.04.361,SL_base,2021.2.3,Win32,161.2903226,0.8065,,,93,0,93,0,1,,,,,,,,
,,"[""circle"",""red"",""vert"",""up"",[106,-106],[-106,-106]]",circle,red,vert,up,"[106,-106]","[-106,-106]",left,0,,,,,,001,2025-03-10_22h19.04.361,SL_base,2021.2.3,Win32,161.2903226,1.4189,,,94,0,94,0,1,,,,,,,,
,,"[""circle"",""no_dis"",""vert"",""up"",[99999,99999],[-106,106]]",circle,no_dis,vert,up,"[99999,99999]","[-106,106]",up,1,,,,,,001,2025-03-10_22h19.04.361,SL_base,2021.2.3,Win32,161.2903226,1.9375,,,95,0,95,0,1,,,,,,,,
,,"[""diamond"",""green"",""hori"",""left"",[106,-106],[0,-150]]",diamond,green,hori,left,"[106,-106]","[0,-150]",left,1,,,,,,001,2025-03-10_22h19.04.361,SL_base,2021.2.3,Win32,161.2903226,1.5218,,,96,0,96,0,1,,,,,,,,
,,"[""diamond"",""red"",""vert"",""up"",[-106,-106],[-106,106]]",diamond,red,vert,up,"[-106,-106]","[-106,106]",up,1,,,,,,001,2025-03-10_22h19.04.361,SL_base,2021.2.3,Win32,161.2903226,2.4921,,,97,0,97,0,1,,,,,,,,
,,"[""circle"",""no_dis"",""vert"",""up"",[99999,99999],[0,150]]",circle,no_dis,vert,up,"[99999,99999]","[0,150]",up,1,,,,,,001,2025-03-10_22h19.04.361,SL_base,2021.2.3,Win32,161.2903226,1.0395,,,98,0,98,0,1,,,,,,,,
,,"[""circle"",""red"",""hori"",""left"",[0,150],[0,-150]]",circle,red,hori,left,"[0,150]","[0,-150]",left,1,,,,,,001,2025-03-10_22h19.04.361,SL_base,2021.2.3,Win32,161.2903226,1.036,,,99,0,99,0,1,,,,,,,,
,,"[""circle"",""red"",""hori"",""left"",[-106,106],[-150,0]]",circle,red,hori,left,"[-106,106]","[-150,0]",left,1,,,,,,001,2025-03-10_22h19.04.361,SL_base,2021.2.3,Win32,161.2903226,1.0334,,,100,0,100,0,1,,,,,,,,
,,"[""circle"",""green"",""hori"",""left"",[0,150],[106,106]]",circle,green,hori,left,"[0,150]","[106,106]",up,0,,,,,,001,2025-03-10_22h19.04.361,SL_base,2021.2.3,Win32,161.2903226,1.5364,,,101,0,101,0,1,,,,,,,,
,,"[""circle"",""green"",""vert"",""up"",[106,-106],[106,106]]",circle,green,vert,up,"[106,-106]","[106,106]",up,1,,,,,,001,2025-03-10_22h19.04.361,SL_base,2021.2.3,Win32,161.2903226,1.238,,,102,0,102,0,1,,,,,,,,
,,"[""circle"",""red"",""hori"",""left"",[106,-106],[-106,-106]]",circle,red,hori,left,"[106,-106]","[-106,-106]",left,1,,,,,,001,2025-03-10_22h19.04.361,SL_base,2021.2.3,Win32,161.2903226,0.9198,,,103,0,103,0,1,,,,,,,,
,,"[""circle"",""no_dis"",""vert"",""up"",[99999,99999],[0,150]]",circle,no_dis,vert,up,"[99999,99999]","[0,150]",up,1,,,,,,001,2025-03-10_22h19.04.361,SL_base,2021.2.3,Win32,161.2903226,1.0456,,,104,0,104,0,1,,,,,,,,
,,"[""circle"",""green"",""hori"",""left"",[0,-150],[106,-106]]",circle,green,hori,left,"[0,-150]","[106,-106]",left,1,,,,,,001,2025-03-10_22h19.04.361,SL_base,2021.2.3,Win32,161.2903226,1.3677,,,105,0,105,0,1,,,,,,,,
,,"[""circle"",""green"",""vert"",""up"",[150,0],[106,106]]",circle,green,vert,up,"[150,0]","[106,106]",up,1,,,,,,001,2025-03-10_22h19.04.361,SL_base,2021.2.3,Win32,161.2903226,0.8494,,,106,0,106,0,1,,,,,,,,
,,"[""diamond"",""no_dis"",""hori"",""left"",[99999,99999],[-106,106]]",diamond,no_dis,hori,left,"[99999,99999]","[-106,106]",up,0,,,,,,001,2025-03-10_22h19.04.361,SL_base,2021.2.3,Win32,161.2903226,1.6317,,,107,0,107,0,1,,,,,,,,
,,"[""diamond"",""red"",""hori"",""left"",[-106,106],[-150,0]]",diamond,red,hori,left,"[-106,106]","[-150,0]",,0,,,,,,001,2025-03-10_22h19.04.361,SL_base,2021.2.3,Win32,161.2903226,,,,108,0,108,0,1,,,,,,,,
,,"[""circle"",""green"",""vert"",""up"",[-150,0],[0,150]]",circle,green,vert,up,"[-150,0]","[0,150]",up,1,,,,,,001,2025-03-10_22h19.04.361,SL_base,2021.2.3,Win32,161.2903226,0.6865,,,109,0,109,0,1,,,,,,,,
,,"[""circle"",""red"",""hori"",""left"",[106,106],[106,-106]]",circle,red,hori,left,"[106,106]","[106,-106]",left,1,,,,,,001,2025-03-10_22h19.04.361,SL_base,2021.2.3,Win32,161.2903226,0.7519,,,110,0,110,0,1,,,,,,,,
,,"[""diamond"",""no_dis"",""vert"",""up"",[99999,99999],[106,-106]]",diamond,no_dis,vert,up,"[99999,99999]","[106,-106]",up,1,,,,,,001,2025-03-10_22h19.04.361,SL_base,2021.2.3,Win32,161.2903226,0.8322,,,111,0,111,0,1,,,,,,,,
,,"[""diamond"",""red"",""hori"",""left"",[106,-106],[-106,-106]]",diamond,red,hori,left,"[106,-106]","[-106,-106]",left,1,,,,,,001,2025-03-10_22h19.04.361,SL_base,2021.2.3,Win32,161.2903226,1.3674,,,112,0,112,0,1,,,,,,,,
,,"[""diamond"",""green"",""hori"",""left"",[106,-106],[106,106]]",diamond,green,hori,left,"[106,-106]","[106,106]",up,0,,,,,,001,2025-03-10_22h19.04.361,SL_base,2021.2.3,Win32,161.2903226,1.1415,,,113,0,113,0,1,,,,,,,,
,,"[""diamond"",""no_dis"",""vert"",""up"",[99999,99999],[0,-150]]",diamond,no_dis,vert,up,"[99999,99999]","[0,-150]",up,1,,,,,,001,2025-03-10_22h19.04.361,SL_base,2021.2.3,Win32,161.2903226,0.9502,,,114,0,114,0,1,,,,,,,,
,,"[""circle"",""no_dis"",""vert"",""up"",[99999,99999],[106,-106]]",circle,no_dis,vert,up,"[99999,99999]","[106,-106]",left,0,,,,,,001,2025-03-10_22h19.04.361,SL_base,2021.2.3,Win32,161.2903226,1.2546,,,115,0,115,0,1,,,,,,,,
,,"[""diamond"",""no_dis"",""vert"",""up"",[99999,99999],[-106,-106]]",diamond,no_dis,vert,up,"[99999,99999]","[-106,-106]",left,0,,,,,,001,2025-03-10_22h19.04.361,SL_base,2021.2.3,Win32,161.2903226,2.2792,,,116,0,116,0,1,,,,,,,,
,,"[""diamond"",""green"",""hori"",""left"",[-106,-106],[106,-106]]",diamond,green,hori,left,"[-106,-106]","[106,-106]",left,1,,,,,,001,2025-03-10_22h19.04.361,SL_base,2021.2.3,Win32,161.2903226,1.6498,,,117,0,117,0,1,,,,,,,,
,,"[""diamond"",""no_dis"",""hori"",""left"",[99999,99999],[106,106]]",diamond,no_dis,hori,left,"[99999,99999]","[106,106]",left,1,,,,,,001,2025-03-10_22h19.04.361,SL_base,2021.2.3,Win32,161.2903226,1.8466,,,118,0,118,0,1,,,,,,,,
,,"[""circle"",""red"",""vert"",""up"",[150,0],[-106,-106]]",circle,red,vert,up,"[150,0]","[-106,-106]",up,1,,,,,,001,2025-03-10_22h19.04.361,SL_base,2021.2.3,Win32,161.2903226,2.1554,,,119,0,119,0,1,,,,,,,,
,,,,,,,,,,,,,,,,001,2025-03-10_22h19.04.361,SL_base,2021.2.3,Win32,161.2903226,,,,,,,,,1,space,63.9381,0,0,0,0,1
,,"[""circle"",""no_dis"",""vert"",""up"",[99999,99999],[0,150]]",circle,no_dis,vert,up,"[99999,99999]","[0,150]",up,1,,,,,,001,2025-03-10_22h19.04.361,SL_base,2021.2.3,Win32,161.2903226,1.3356,,,0,0,0,0,1,,,,,,,,
,,"[""diamond"",""no_dis"",""vert"",""up"",[99999,99999],[150,0]]",diamond,no_dis,vert,up,"[99999,99999]","[150,0]",up,1,,,,,,001,2025-03-10_22h19.04.361,SL_base,2021.2.3,Win32,161.2903226,1.0434,,,1,0,1,0,1,,,,,,,,
,,"[""diamond"",""red"",""hori"",""left"",[106,-106],[-106,-106]]",diamond,red,hori,left,"[106,-106]","[-106,-106]",left,1,,,,,,001,2025-03-10_22h19.04.361,SL_base,2021.2.3,Win32,161.2903226,1.0511,,,2,0,2,0,1,,,,,,,,
,,"[""diamond"",""red"",""vert"",""up"",[106,106],[106,-106]]",diamond,red,vert,up,"[106,106]","[106,-106]",up,1,,,,,,001,2025-03-10_22h19.04.361,SL_base,2021.2.3,Win32,161.2903226,1.1643,,,3,0,3,0,1,,,,,,,,
,,"[""circle"",""no_dis"",""vert"",""up"",[99999,99999],[106,-106]]",circle,no_dis,vert,up,"[99999,99999]","[106,-106]",up,1,,,,,,001,2025-03-10_22h19.04.361,SL_base,2021.2.3,Win32,161.2903226,1.5421,,,4,0,4,0,1,,,,,,,,
,,"[""diamond"",""no_dis"",""hori"",""left"",[99999,99999],[-150,0]]",diamond,no_dis,hori,left,"[99999,99999]","[-150,0]",up,0,,,,,,001,2025-03-10_22h19.04.361,SL_base,2021.2.3,Win32,161.2903226,1.0408,,,5,0,5,0,1,,,,,,,,
,,"[""diamond"",""no_dis"",""vert"",""up"",[99999,99999],[0,-150]]",diamond,no_dis,vert,up,"[99999,99999]","[0,-150]",up,1,,,,,,001,2025-03-10_22h19.04.361,SL_base,2021.2.3,Win32,161.2903226,1.0539,,,6,0,6,0,1,,,,,,,,
,,"[""circle"",""green"",""vert"",""up"",[-150,0],[150,0]]",circle,green,vert,up,"[-150,0]","[150,0]",up,1,,,,,,001,2025-03-10_22h19.04.361,SL_base,2021.2.3,Win32,161.2903226,1.6017,,,7,0,7,0,1,,,,,,,,
,,"[""circle"",""red"",""hori"",""left"",[106,-106],[-106,-106]]",circle,red,hori,left,"[106,-106]","[-106,-106]",left,1,,,,,,001,2025-03-10_22h19.04.361,SL_base,2021.2.3,Win32,161.2903226,1.0581,,,8,0,8,0,1,,,,,,,,
,,"[""diamond"",""green"",""hori"",""left"",[106,-106],[-150,0]]",diamond,green,hori,left,"[106,-106]","[-150,0]",left,1,,,,,,001,2025-03-10_22h19.04.361,SL_base,2021.2.3,Win32,161.2903226,1.0394,,,9,0,9,0,1,,,,,,,,
,,"[""circle"",""green"",""vert"",""up"",[150,0],[-106,-106]]",circle,green,vert,up,"[150,0]","[-106,-106]",left,0,,,,,,001,2025-03-10_22h19.04.361,SL_base,2021.2.3,Win32,161.2903226,1.2856,,,10,0,10,0,1,,,,,,,,
,,"[""diamond"",""red"",""vert"",""up"",[106,106],[-106,106]]",diamond,red,vert,up,"[106,106]","[-106,106]",left,0,,,,,,001,2025-03-10_22h19.04.361,SL_base,2021.2.3,Win32,161.2903226,1.3254,,,11,0,11,0,1,,,,,,,,
,,"[""diamond"",""green"",""vert"",""up"",[-150,0],[0,-150]]",diamond,green,vert,up,"[-150,0]","[0,-150]",up,1,,,,,,001,2025-03-10_22h19.04.361,SL_base,2021.2.3,Win32,161.2903226,1.0186,,,12,0,12,0,1,,,,,,,,
,,"[""circle"",""no_dis"",""vert"",""up"",[99999,99999],[0,-150]]",circle,no_dis,vert,up,"[99999,99999]","[0,-150]",up,1,,,,,,001,2025-03-10_22h19.04.361,SL_base,2021.2.3,Win32,161.2903226,1.9286,,,13,0,13,0,1,,,,,,,,
,,"[""diamond"",""red"",""hori"",""left"",[-106,106],[0,-150]]",diamond,red,hori,left,"[-106,106]","[0,-150]",left,1,,,,,,001,2025-03-10_22h19.04.361,SL_base,2021.2.3,Win32,161.2903226,1.5604,,,14,0,14,0,1,,,,,,,,
,,"[""circle"",""red"",""vert"",""up"",[106,-106],[-150,0]]",circle,red,vert,up,"[106,-106]","[-150,0]",up,1,,,,,,001,2025-03-10_22h19.04.361,SL_base,2021.2.3,Win32,161.2903226,1.2607,,,15,0,15,0,1,,,,,,,,
,,"[""circle"",""no_dis"",""hori"",""left"",[99999,99999],[106,106]]",circle,no_dis,hori,left,"[99999,99999]","[106,106]",left,1,,,,,,001,2025-03-10_22h19.04.361,SL_base,2021.2.3,Win32,161.2903226,1.1237,,,16,0,16,0,1,,,,,,,,
,,"[""diamond"",""red"",""hori"",""left"",[150,0],[-150,0]]",diamond,red,hori,left,"[150,0]","[-150,0]",left,1,,,,,,001,2025-03-10_22h19.04.361,SL_base,2021.2.3,Win32,161.2903226,1.0981,,,17,0,17,0,1,,,,,,,,
,,"[""circle"",""no_dis"",""vert"",""up"",[99999,99999],[-150,0]]",circle,no_dis,vert,up,"[99999,99999]","[-150,0]",,0,,,,,,001,2025-03-10_22h19.04.361,SL_base,2021.2.3,Win32,161.2903226,,,,18,0,18,0,1,,,,,,,,
,,"[""circle"",""green"",""vert"",""up"",[150,0],[106,106]]",circle,green,vert,up,"[150,0]","[106,106]",up,1,,,,,,001,2025-03-10_22h19.04.361,SL_base,2021.2.3,Win32,161.2903226,2.1277,,,19,0,19,0,1,,,,,,,,
,,"[""diamond"",""no_dis"",""hori"",""left"",[99999,99999],[-106,-106]]",diamond,no_dis,hori,left,"[99999,99999]","[-106,-106]",left,1,,,,,,001,2025-03-10_22h19.04.361,SL_base,2021.2.3,Win32,161.2903226,2.6803,,,20,0,20,0,1,,,,,,,,
,,"[""diamond"",""red"",""hori"",""left"",[-106,106],[-150,0]]",diamond,red,hori,left,"[-106,106]","[-150,0]",left,1,,,,,,001,2025-03-10_22h19.04.361,SL_base,2021.2.3,Win32,161.2903226,1.3242,,,21,0,21,0,1,,,,,,,,
,,"[""diamond"",""red"",""vert"",""up"",[-106,106],[150,0]]",diamond,red,vert,up,"[-106,106]","[150,0]",up,1,,,,,,001,2025-03-10_22h19.04.361,SL_base,2021.2.3,Win32,161.2903226,1.0314,,,22,0,22,0,1,,,,,,,,
,,"[""circle"",""red"",""vert"",""up"",[-150,0],[150,0]]",circle,red,vert,up,"[-150,0]","[150,0]",up,1,,,,,,001,2025-03-10_22h19.04.361,SL_base,2021.2.3,Win32,161.2903226,1.056,,,23,0,23,0,1,,,,,,,,
,,"[""circle"",""red"",""hori"",""left"",[-106,106],[-150,0]]",circle,red,hori,left,"[-106,106]","[-150,0]",up,0,,,,,,001,2025-03-10_22h19.04.361,SL_base,2021.2.3,Win32,161.2903226,1.4831,,,24,0,24,0,1,,,,,,,,
,,"[""circle"",""no_dis"",""vert"",""up"",[99999,99999],[150,0]]",circle,no_dis,vert,up,"[99999,99999]","[150,0]",,0,,,,,,001,2025-03-10_22h19.04.361,SL_base,2021.2.3,Win32,161.2903226,,,,25,0,25,0,1,,,,,,,,
,,"[""diamond"",""no_dis"",""vert"",""up"",[99999,99999],[0,-150]]",diamond,no_dis,vert,up,"[99999,99999]","[0,-150]",up,1,,,,,,001,2025-03-10_22h19.04.361,SL_base,2021.2.3,Win32,161.2903226,1.7023,,,26,0,26,0,1,,,,,,,,
,,"[""circle"",""green"",""hori"",""left"",[106,-106],[-106,106]]",circle,green,hori,left,"[106,-106]","[-106,106]",left,1,,,,,,001,2025-03-10_22h19.04.361,SL_base,2021.2.3,Win32,161.2903226,0.9421,,,27,0,27,0,1,,,,,,,,
,,"[""diamond"",""green"",""vert"",""up"",[106,-106],[106,106]]",diamond,green,vert,up,"[106,-106]","[106,106]",up,1,,,,,,001,2025-03-10_22h19.04.361,SL_base,2021.2.3,Win32,161.2903226,1.2147,,,28,0,28,0,1,,,,,,,,
,,"[""diamond"",""green"",""vert"",""up"",[150,0],[-106,-106]]",diamond,green,vert,up,"[150,0]","[-106,-106]",up,1,,,,,,001,2025-03-10_22h19.04.361,SL_base,2021.2.3,Win32,161.2903226,0.8526,,,29,0,29,0,1,,,,,,,,
,,"[""diamond"",""green"",""hori"",""left"",[-106,-106],[106,-106]]",diamond,green,hori,left,"[-106,-106]","[106,-106]",up,0,,,,,,001,2025-03-10_22h19.04.361,SL_base,2021.2.3,Win32,161.2903226,1.5871,,,30,0,30,0,1,,,,,,,,
,,"[""circle"",""no_dis"",""vert"",""up"",[99999,99999],[-150,0]]",circle,no_dis,vert,up,"[99999,99999]","[-150,0]",up,1,,,,,,001,2025-03-10_22h19.04.361,SL_base,2021.2.3,Win32,161.2903226,1.8487,,,31,0,31,0,1,,,,,,,,
,,"[""diamond"",""no_dis"",""vert"",""up"",[99999,99999],[106,-106]]",diamond,no_dis,vert,up,"[99999,99999]","[106,-106]",up,1,,,,,,001,2025-03-10_22h19.04.361,SL_base,2021.2.3,Win32,161.2903226,1.6487,,,32,0,32,0,1,,,,,,,,
,,"[""circle"",""green"",""vert"",""up"",[0,150],[0,-150]]",circle,green,vert,up,"[0,150]","[0,-150]",up,1,,,,,,001,2025-03-10_22h19.04.361,SL_base,2021.2.3,Win32,161.2903226,0.9944,,,33,0,33,0,1,,,,,,,,
,,"[""circle"",""no_dis"",""hori"",""left"",[99999,99999],[106,-106]]",circle,no_dis,hori,left,"[99999,99999]","[106,-106]",left,1,,,,,,001,2025-03-10_22h19.04.361,SL_base,2021.2.3,Win32,161.2903226,1.0071,,,34,0,34,0,1,,,,,,,,
,,"[""diamond"",""green"",""hori"",""left"",[150,0],[0,-150]]",diamond,green,hori,left,"[150,0]","[0,-150]",left,1,,,,,,001,2025-03-10_22h19.04.361,SL_base,2021.2.3,Win32,161.2903226,1.1218,,,35,0,35,0,1,,,,,,,,
,,"[""circle"",""red"",""hori"",""left"",[0,150],[0,-150]]",circle,red,hori,left,"[0,150]","[0,-150]",left,1,,,,,,001,2025-03-10_22h19.04.361,SL_base,2021.2.3,Win32,161.2903226,1.5032,,,36,0,36,0,1,,,,,,,,
,,"[""diamond"",""red"",""hori"",""left"",[-150,0],[0,150]]",diamond,red,hori,left,"[-150,0]","[0,150]",left,1,,,,,,001,2025-03-10_22h19.04.361,SL_base,2021.2.3,Win32,161.2903226,1.8734,,,37,0,37,0,1,,,,,,,,
,,"[""diamond"",""no_dis"",""hori"",""left"",[99999,99999],[-106,106]]",diamond,no_dis,hori,left,"[99999,99999]","[-106,106]",left,1,,,,,,001,2025-03-10_22h19.04.361,SL_base,2021.2.3,Win32,161.2903226,1.5395,,,38,0,38,0,1,,,,,,,,
,,"[""diamond"",""red"",""vert"",""up"",[0,150],[106,106]]",diamond,red,vert,up,"[0,150]","[106,106]",,0,,,,,,001,2025-03-10_22h19.04.361,SL_base,2021.2.3,Win32,161.2903226,,,,39,0,39,0,1,,,,,,,,
,,"[""circle"",""red"",""hori"",""left"",[0,-150],[-106,106]]",circle,red,hori,left,"[0,-150]","[-106,106]",left,1,,,,,,001,2025-03-10_22h19.04.361,SL_base,2021.2.3,Win32,161.2903226,1.1712,,,40,0,40,0,1,,,,,,,,
,,"[""circle"",""no_dis"",""hori"",""left"",[99999,99999],[-106,106]]",circle,no_dis,hori,left,"[99999,99999]","[-106,106]",left,1,,,,,,001,2025-03-10_22h19.04.361,SL_base,2021.2.3,Win32,161.2903226,1.1252,,,41,0,41,0,1,,,,,,,,
,,"[""circle"",""no_dis"",""hori"",""left"",[99999,99999],[106,-106]]",circle,no_dis,hori,left,"[99999,99999]","[106,-106]",left,1,,,,,,001,2025-03-10_22h19.04.361,SL_base,2021.2.3,Win32,161.2903226,1.4205,,,42,0,42,0,1,,,,,,,,
,,"[""diamond"",""no_dis"",""hori"",""left"",[99999,99999],[0,150]]",diamond,no_dis,hori,left,"[99999,99999]","[0,150]",left,1,,,,,,001,2025-03-10_22h19.04.361,SL_base,2021.2.3,Win32,161.2903226,1.1298,,,43,0,43,0,1,,,,,,,,
,,"[""circle"",""no_dis"",""hori"",""left"",[99999,99999],[-106,-106]]",circle,no_dis,hori,left,"[99999,99999]","[-106,-106]",left,1,,,,,,001,2025-03-10_22h19.04.361,SL_base,2021.2.3,Win32,161.2903226,0.7645,,,44,0,44,0,1,,,,,,,,
,,"[""diamond"",""green"",""hori"",""left"",[-150,0],[106,-106]]",diamond,green,hori,left,"[-150,0]","[106,-106]",left,1,,,,,,001,2025-03-10_22h19.04.361,SL_base,2021.2.3,Win32,161.2903226,0.6795,,,45,0,45,0,1,,,,,,,,
,,"[""circle"",""green"",""vert"",""up"",[150,0],[0,-150]]",circle,green,vert,up,"[150,0]","[0,-150]",up,1,,,,,,001,2025-03-10_22h19.04.361,SL_base,2021.2.3,Win32,161.2903226,0.9775,,,46,0,46,0,1,,,,,,,,
,,"[""diamond"",""red"",""hori"",""left"",[-106,-106],[0,-150]]",diamond,red,hori,left,"[-106,-106]","[0,-150]",up,0,,,,,,001,2025-03-10_22h19.04.361,SL_base,2021.2.3,Win32,161.2903226,1.6502,,,47,0,47,0,1,,,,,,,,
,,"[""circle"",""green"",""hori"",""left"",[0,-150],[106,-106]]",circle,green,hori,left,"[0,-150]","[106,-106]",left,1,,,,,,001,2025-03-10_22h19.04.361,SL_base,2021.2.3,Win32,161.2903226,1.4971,,,48,0,48,0,1,,,,,,,,
,,"[""diamond"",""red"",""vert"",""up"",[-150,0],[-106,106]]",diamond,red,vert,up,"[-150,0]","[-106,106]",left,0,,,,,,001,2025-03-10_22h19.04.361,SL_base,2021.2.3,Win32,161.2903226,1.4422,,,49,0,49,0,1,,,,,,,,
,,"[""diamond"",""red"",""vert"",""up"",[106,-106],[-106,106]]",diamond,red,vert,up,"[106,-106]","[-106,106]",up,1,,,,,,001,2025-03-10_22h19.04.361,SL_base,2021.2.3,Win32,161.2903226,0.9412,,,50,0,50,0,1,,,,,,,,
,,"[""circle"",""no_dis"",""hori"",""left"",[99999,99999],[-150,0]]",circle,no_dis,hori,left,"[99999,99999]","[-150,0]",left,1,,,,,,001,2025-03-10_22h19.04.361,SL_base,2021.2.3,Win32,161.2903226,1.118,,,51,0,51,0,1,,,,,,,,
,,"[""circle"",""red"",""hori"",""left"",[106,106],[-150,0]]",circle,red,hori,left,"[106,106]","[-150,0]",left,1,,,,,,001,2025-03-10_22h19.04.361,SL_base,2021.2.3,Win32,161.2903226,1.4832,,,52,0,52,0,1,,,,,,,,
,,"[""circle"",""red"",""hori"",""left"",[106,106],[-106,-106]]",circle,red,hori,left,"[106,106]","[-106,-106]",left,1,,,,,,001,2025-03-10_22h19.04.361,SL_base,2021.2.3,Win32,161.2903226,0.9298,,,53,0,53,0,1,,,,,,,,
,,"[""diamond"",""no_dis"",""hori"",""left"",[99999,99999],[150,0]]",diamond,no_dis,hori,left,"[99999,99999]","[150,0]",left,1,,,,,,001,2025-03-10_22h19.04.361,SL_base,2021.2.3,Win32,161.2903226,1.1034,,,54,0,54,0,1,,,,,,,,
,,"[""diamond"",""red"",""hori"",""left"",[-106,106],[-150,0]]",diamond,red,hori,left,"[-106,106]","[-150,0]",left,1,,,,,,001,2025-03-10_22h19.04.361,SL_base,2021.2.3,Win32,161.2903226,0.7882,,,55,0,55,0,1,,,,,,,,
,,"[""diamond"",""green"",""vert"",""up"",[-106,106],[106,-106]]",diamond,green,vert,up,"[-106,106]","[106,-106]",left,0,,,,,,001,2025-03-10_22h19.04.361,SL_base,2021.2.3,Win32,161.2903226,0.8614,,,56,0,56,0,1,,,,,,,,
,,"[""circle"",""no_dis"",""vert"",""up"",[99999,99999],[0,150]]",circle,no_dis,vert,up,"[99999,99999]","[0,150]",up,1,,,,,,001,2025-03-10_22h19.04.361,SL_base,2021.2.3,Win32,161.2903226,1.5392,,,57,0,57,0,1,,,,,,,,
,,"[""circle"",""no_dis"",""hori"",""left"",[99999,99999],[-150,0]]",circle,no_dis,hori,left,"[99999,99999]","[-150,0]",left,1,,,,,,001,2025-03-10_22h19.04.361,SL_base,2021.2.3,Win32,161.2903226,1.1629,,,58,0,58,0,1,,,,,,,,
,,"[""diamond"",""no_dis"",""hori"",""left"",[99999,99999],[-106,-106]]",diamond,no_dis,hori,left,"[99999,99999]","[-106,-106]",left,1,,,,,,001,2025-03-10_22h19.04.361,SL_base,2021.2.3,Win32,161.2903226,1.5521,,,59,0,59,0,1,,,,,,,,
,,"[""circle"",""green"",""hori"",""left"",[0,-150],[-150,0]]",circle,green,hori,left,"[0,-150]","[-150,0]",left,1,,,,,,001,2025-03-10_22h19.04.361,SL_base,2021.2.3,Win32,161.2903226,0.9704,,,60,0,60,0,1,,,,,,,,
,,"[""circle"",""no_dis"",""vert"",""up"",[99999,99999],[-106,-106]]",circle,no_dis,vert,up,"[99999,99999]","[-106,-106]",up,1,,,,,,001,2025-03-10_22h19.04.361,SL_base,2021.2.3,Win32,161.2903226,1.352,,,61,0,61,0,1,,,,,,,,
,,"[""circle"",""red"",""vert"",""up"",[-106,-106],[106,106]]",circle,red,vert,up,"[-106,-106]","[106,106]",up,1,,,,,,001,2025-03-10_22h19.04.361,SL_base,2021.2.3,Win32,161.2903226,1.0993,,,62,0,62,0,1,,,,,,,,
,,"[""diamond"",""red"",""vert"",""up"",[106,-106],[0,150]]",diamond,red,vert,up,"[106,-106]","[0,150]",up,1,,,,,,001,2025-03-10_22h19.04.361,SL_base,2021.2.3,Win32,161.2903226,2.4278,,,63,0,63,0,1,,,,,,,,
,,"[""diamond"",""green"",""vert"",""up"",[0,150],[150,0]]",diamond,green,vert,up,"[0,150]","[150,0]",up,1,,,,,,001,2025-03-10_22h19.04.361,SL_base,2021.2.3,Win32,161.2903226,1.3578,,,64,0,64,0,1,,,,,,,,
,,"[""diamond"",""no_dis"",""hori"",""left"",[99999,99999],[106,106]]",diamond,no_dis,hori,left,"[99999,99999]","[106,106]",left,1,,,,,,001,2025-03-10_22h19.04.361,SL_base,2021.2.3,Win32,161.2903226,1.0801,,,65,0,65,0,1,,,,,,,,
,,"[""circle"",""green"",""hori"",""left"",[0,150],[106,106]]",circle,green,hori,left,"[0,150]","[106,106]",left,1,,,,,,001,2025-03-10_22h19.04.361,SL_base,2021.2.3,Win32,161.2903226,1.5896,,,66,0,66,0,1,,,,,,,,
,,"[""diamond"",""red"",""vert"",""up"",[106,106],[150,0]]",diamond,red,vert,up,"[106,106]","[150,0]",up,1,,,,,,001,2025-03-10_22h19.04.361,SL_base,2021.2.3,Win32,161.2903226,1.1796,,,67,0,67,0,1,,,,,,,,
,,"[""circle"",""no_dis"",""hori"",""left"",[99999,99999],[106,106]]",circle,no_dis,hori,left,"[99999,99999]","[106,106]",left,1,,,,,,001,2025-03-10_22h19.04.361,SL_base,2021.2.3,Win32,161.2903226,2.3581,,,68,0,68,0,1,,,,,,,,
,,"[""diamond"",""no_dis"",""vert"",""up"",[99999,99999],[106,106]]",diamond,no_dis,vert,up,"[99999,99999]","[106,106]",up,1,,,,,,001,2025-03-10_22h19.04.361,SL_base,2021.2.3,Win32,161.2903226,0.6307,,,69,0,69,0,1,,,,,,,,
,,"[""circle"",""red"",""vert"",""up"",[150,0],[-106,-106]]",circle,red,vert,up,"[150,0]","[-106,-106]",left,0,,,,,,001,2025-03-10_22h19.04.361,SL_base,2021.2.3,Win32,161.2903226,0.9459,,,70,0,70,0,1,,,,,,,,
,,"[""diamond"",""green"",""vert"",""up"",[0,150],[-150,0]]",diamond,green,vert,up,"[0,150]","[-150,0]",up,1,,,,,,001,2025-03-10_22h19.04.361,SL_base,2021.2.3,Win32,161.2903226,1.2428,,,71,0,71,0,1,,,,,,,,
,,"[""circle"",""green"",""vert"",""up"",[0,150],[0,-150]]",circle,green,vert,up,"[0,150]","[0,-150]",up,1,,,,,,001,2025-03-10_22h19.04.361,SL_base,2021.2.3,Win32,161.2903226,0.7884,,,72,0,72,0,1,,,,,,,,
,,"[""circle"",""green"",""hori"",""left"",[106,-106],[0,-150]]",circle,green,hori,left,"[106,-106]","[0,-150]",left,1,,,,,,001,2025-03-10_22h19.04.361,SL_base,2021.2.3,Win32,161.2903226,0.8671,,,73,0,73,0,1,,,,,,,,
,,"[""diamond"",""green"",""hori"",""left"",[106,-106],[0,-150]]",diamond,green,hori,left,"[106,-106]","[0,-150]",left,1,,,,,,001,2025-03-10_22h19.04.361,SL_base,2021.2.3,Win32,161.2903226,1.9463,,,74,0,74,0,1,,,,,,,,
,,"[""diamond"",""red"",""hori"",""left"",[106,-106],[150,0]]",diamond,red,hori,left,"[106,-106]","[150,0]",left,1,,,,,,001,2025-03-10_22h19.04.361,SL_base,2021.2.3,Win32,161.2903226,1.2669,,,75,0,75,0,1,,,,,,,,
,,"[""diamond"",""green"",""vert"",""up"",[106,-106],[-106,106]]",diamond,green,vert,up,"[106,-106]","[-106,106]",up,1,,,,,,001,2025-03-10_22h19.04.361,SL_base,2021.2.3,Win32,161.2903226,1.0145,,,76,0,76,0,1,,,,,,,,
,,"[""diamond"",""green"",""vert"",""up"",[106,-106],[150,0]]",diamond,green,vert,up,"[106,-106]","[150,0]",up,1,,,,,,001,2025-03-10_22h19.04.361,SL_base,2021.2.3,Win32,161.2903226,1.2111,,,77,0,77,0,1,,,,,,,,
,,"[""circle"",""red"",""hori"",""left"",[-106,-106],[106,106]]",circle,red,hori,left,"[-106,-106]","[106,106]",up,0,,,,,,001,2025-03-10_22h19.04.361,SL_base,2021.2.3,Win32,161.2903226,1.001,,,78,0,78,0,1,,,,,,,,
,,"[""circle"",""green"",""vert"",""up"",[106,-106],[106,106]]",circle,green,vert,up,"[106,-106]","[106,106]",left,0,,,,,,001,2025-03-10_22h19.04.361,SL_base,2021.2.3,Win32,161.2903226,0.9168,,,79,0,79,0,1,,,,,,,,
,,"[""diamond"",""no_dis"",""vert"",""up"",[99999,99999],[0,150]]",diamond,no_dis,vert,up,"[99999,99999]","[0,150]",up,1,,,,,,001,2025-03-10_22h19.04.361,SL_base,2021.2.3,Win32,161.2903226,0.663,,,80,0,80,0,1,,,,,,,,
,,"[""circle"",""green"",""hori"",""left"",[0,-150],[106,-106]]",circle,green,hori,left,"[0,-150]","[106,-106]",up,0,,,,,,001,2025-03-10_22h19.04.361,SL_base,2021.2.3,Win32,161.2903226,0.9642,,,81,0,81,0,1,,,,,,,,
,,"[""circle"",""no_dis"",""vert"",""up"",[99999,99999],[-106,106]]",circle,no_dis,vert,up,"[99999,99999]","[-106,106]",left,0,,,,,,001,2025-03-10_22h19.04.361,SL_base,2021.2.3,Win32,161.2903226,0.2552,,,82,0,82,0,1,,,,,,,,
,,"[""circle"",""red"",""hori"",""left"",[106,-106],[0,-150]]",circle,red,hori,left,"[106,-106]","[0,-150]",left,1,,,,,,001,2025-03-10_22h19.04.361,SL_base,2021.2.3,Win32,161.2903226,0.7279,,,83,0,83,0,1,,,,,,,,
,,"[""circle"",""green"",""hori"",""left"",[-106,-106],[-106,106]]",circle,green,hori,left,"[-106,-106]","[-106,106]",left,1,,,,,,001,2025-03-10_22h19.04.361,SL_base,2021.2.3,Win32,161.2903226,1.0636,,,84,0,84,0,1,,,,,,,,
,,"[""diamond"",""no_dis"",""vert"",""up"",[99999,99999],[-106,-106]]",diamond,no_dis,vert,up,"[99999,99999]","[-106,-106]",up,1,,,,,,001,2025-03-10_22h19.04.361,SL_base,2021.2.3,Win32,161.2903226,1.7979,,,85,0,85,0,1,,,,,,,,
,,"[""diamond"",""no_dis"",""hori"",""left"",[99999,99999],[-106,106]]",diamond,no_dis,hori,left,"[99999,99999]","[-106,106]",left,1,,,,,,001,2025-03-10_22h19.04.361,SL_base,2021.2.3,Win32,161.2903226,1.4819,,,86,0,86,0,1,,,,,,,,
,,"[""circle"",""no_dis"",""vert"",""up"",[99999,99999],[150,0]]",circle,no_dis,vert,up,"[99999,99999]","[150,0]",up,1,,,,,,001,2025-03-10_22h19.04.361,SL_base,2021.2.3,Win32,161.2903226,2.2768,,,87,0,87,0,1,,,,,,,,
,,"[""diamond"",""no_dis"",""vert"",""up"",[99999,99999],[0,-150]]",diamond,no_dis,vert,up,"[99999,99999]","[0,-150]",up,1,,,,,,001,2025-03-10_22h19.04.361,SL_base,2021.2.3,Win32,161.2903226,1.467,,,88,0,88,0,1,,,,,,,,
,,"[""diamond"",""green"",""hori"",""left"",[0,-150],[106,106]]",diamond,green,hori,left,"[0,-150]","[106,106]",left,1,,,,,,001,2025-03-10_22h19.04.361,SL_base,2021.2.3,Win32,161.2903226,2.1672,,,89,0,89,0,1,,,,,,,,
,,"[""circle"",""red"",""vert"",""up"",[-106,-106],[-106,106]]",circle,red,vert,up,"[-106,-106]","[-106,106]",left,0,,,,,,001,2025-03-10_22h19.04.361,SL_base,2021.2.3,Win32,161.2903226,0.9038,,,90,0,90,0,1,,,,,,,,
,,"[""diamond"",""green"",""hori"",""left"",[106,-106],[106,106]]",diamond,green,hori,left,"[106,-106]","[106,106]",up,0,,,,,,001,2025-03-10_22h19.04.361,SL_base,2021.2.3,Win32,161.2903226,1.3694,,,91,0,91,0,1,,,,,,,,
,,"[""circle"",""red"",""vert"",""up"",[106,-106],[0,150]]",circle,red,vert,up,"[106,-106]","[0,150]",up,1,,,,,,001,2025-03-10_22h19.04.361,SL_base,2021.2.3,Win32,161.2903226,1.3582,,,92,0,92,0,1,,,,,,,,
,,"[""diamond"",""green"",""hori"",""left"",[106,-106],[106,106]]",diamond,green,hori,left,"[106,-106]","[106,106]",up,0,,,,,,001,2025-03-10_22h19.04.361,SL_base,2021.2.3,Win32,161.2903226,2.1036,,,93,0,93,0,1,,,,,,,,
,,"[""diamond"",""no_dis"",""vert"",""up"",[99999,99999],[106,-106]]",diamond,no_dis,vert,up,"[99999,99999]","[106,-106]",up,1,,,,,,001,2025-03-10_22h19.04.361,SL_base,2021.2.3,Win32,161.2903226,0.8239,,,94,0,94,0,1,,,,,,,,
,,"[""circle"",""red"",""vert"",""up"",[106,-106],[-106,-106]]",circle,red,vert,up,"[106,-106]","[-106,-106]",up,1,,,,,,001,2025-03-10_22h19.04.361,SL_base,2021.2.3,Win32,161.2903226,1.2255,,,95,0,95,0,1,,,,,,,,
,,"[""circle"",""red"",""vert"",""up"",[106,-106],[-106,-106]]",circle,red,vert,up,"[106,-106]","[-106,-106]",up,1,,,,,,001,2025-03-10_22h19.04.361,SL_base,2021.2.3,Win32,161.2903226,2.4299,,,96,0,96,0,1,,,,,,,,
,,"[""diamond"",""red"",""vert"",""up"",[-106,-106],[-106,106]]",diamond,red,vert,up,"[-106,-106]","[-106,106]",left,0,,,,,,001,2025-03-10_22h19.04.361,SL_base,2021.2.3,Win32,161.2903226,1.0698,,,97,0,97,0,1,,,,,,,,
,,"[""diamond"",""green"",""hori"",""left"",[106,-106],[-150,0]]",diamond,green,hori,left,"[106,-106]","[-150,0]",up,0,,,,,,001,2025-03-10_22h19.04.361,SL_base,2021.2.3,Win32,161.2903226,1.3272,,,98,0,98,0,1,,,,,,,,
,,"[""circle"",""green"",""vert"",""up"",[-106,-106],[-106,106]]",circle,green,vert,up,"[-106,-106]","[-106,106]",up,1,,,,,,001,2025-03-10_22h19.04.361,SL_base,2021.2.3,Win32,161.2903226,1.3653,,,99,0,99,0,1,,,,,,,,
,,"[""circle"",""green"",""hori"",""left"",[0,150],[0,-150]]",circle,green,hori,left,"[0,150]","[0,-150]",left,1,,,,,,001,2025-03-10_22h19.04.361,SL_base,2021.2.3,Win32,161.2903226,2.7152,,,100,0,100,0,1,,,,,,,,
,,"[""circle"",""green"",""vert"",""up"",[106,-106],[106,106]]",circle,green,vert,up,"[106,-106]","[106,106]",,0,,,,,,001,2025-03-10_22h19.04.361,SL_base,2021.2.3,Win32,161.2903226,,,,101,0,101,0,1,,,,,,,,
,,"[""diamond"",""green"",""hori"",""left"",[0,-150],[0,150]]",diamond,green,hori,left,"[0,-150]","[0,150]",left,1,,,,,,001,2025-03-10_22h19.04.361,SL_base,2021.2.3,Win32,161.2903226,0.7603,,,102,0,102,0,1,,,,,,,,
,,"[""diamond"",""green"",""vert"",""up"",[-106,106],[106,-106]]",diamond,green,vert,up,"[-106,106]","[106,-106]",up,1,,,,,,001,2025-03-10_22h19.04.361,SL_base,2021.2.3,Win32,161.2903226,1.0018,,,103,0,103,0,1,,,,,,,,
,,"[""diamond"",""red"",""vert"",""up"",[106,106],[150,0]]",diamond,red,vert,up,"[106,106]","[150,0]",up,1,,,,,,001,2025-03-10_22h19.04.361,SL_base,2021.2.3,Win32,161.2903226,1.4549,,,104,0,104,0,1,,,,,,,,
,,"[""diamond"",""green"",""vert"",""up"",[0,-150],[-106,-106]]",diamond,green,vert,up,"[0,-150]","[-106,-106]",up,1,,,,,,001,2025-03-10_22h19.04.361,SL_base,2021.2.3,Win32,161.2903226,2.3271,,,105,0,105,0,1,,,,,,,,
,,"[""diamond"",""no_dis"",""vert"",""up"",[99999,99999],[0,-150]]",diamond,no_dis,vert,up,"[99999,99999]","[0,-150]",up,1,,,,,,001,2025-03-10_22h19.04.361,SL_base,2021.2.3,Win32,161.2903226,1.9274,,,106,0,106,0,1,,,,,,,,
,,"[""diamond"",""no_dis"",""hori"",""left"",[99999,99999],[-106,106]]",diamond,no_dis,hori,left,"[99999,99999]","[-106,106]",up,0,,,,,,001,2025-03-10_22h19.04.361,SL_base,2021.2.3,Win32,161.2903226,0.6367,,,107,0,107,0,1,,,,,,,,
,,"[""circle"",""green"",""vert"",""up"",[-150,0],[0,150]]",circle,green,vert,up,"[-150,0]","[0,150]",up,1,,,,,,001,2025-03-10_22h19.04.361,SL_base,2021.2.3,Win32,161.2903226,1.4311,,,108,0,108,0,1,,,,,,,,
,,"[""circle"",""red"",""vert"",""up"",[106,-106],[-150,0]]",circle,red,vert,up,"[106,-106]","[-150,0]",up,1,,,,,,001,2025-03-10_22h19.04.361,SL_base,2021.2.3,Win32,161.2903226,0.9879,,,109,0,109,0,1,,,,,,,,
,,"[""circle"",""no_dis"",""hori"",""left"",[99999,99999],[0,150]]",circle,no_dis,hori,left,"[99999,99999]","[0,150]",left,1,,,,,,001,2025-03-10_22h19.04.361,SL_base,2021.2.3,Win32,161.2903226,1.845,,,110,0,110,0,1,,,,,,,,
,,"[""circle"",""green"",""hori"",""left"",[0,-150],[0,150]]",circle,green,hori,left,"[0,-150]","[0,150]",left,1,,,,,,001,2025-03-10_22h19.04.361,SL_base,2021.2.3,Win32,161.2903226,1.3153,,,111,0,111,0,1,,,,,,,,
,,"[""circle"",""green"",""hori"",""left"",[-150,0],[-106,-106]]",circle,green,hori,left,"[-150,0]","[-106,-106]",left,1,,,,,,001,2025-03-10_22h19.04.361,SL_base,2021.2.3,Win32,161.2903226,0.9186,,,112,0,112,0,1,,,,,,,,
,,"[""diamond"",""red"",""hori"",""left"",[150,0],[0,150]]",diamond,red,hori,left,"[150,0]","[0,150]",left,1,,,,,,001,2025-03-10_22h19.04.361,SL_base,2021.2.3,Win32,161.2903226,1.4429,,,113,0,113,0,1,,,,,,,,
,,"[""circle"",""red"",""hori"",""left"",[106,106],[106,-106]]",circle,red,hori,left,"[106,106]","[106,-106]",left,1,,,,,,001,2025-03-10_22h19.04.361,SL_base,2021.2.3,Win32,161.2903226,1.6155,,,114,0,114,0,1,,,,,,,,
,,"[""circle"",""red"",""vert"",""up"",[106,106],[106,-106]]",circle,red,vert,up,"[106,106]","[106,-106]",up,1,,,,,,001,2025-03-10_22h19.04.361,SL_base,2021.2.3,Win32,161.2903226,1.0485,,,115,0,115,0,1,,,,,,,,
,,"[""diamond"",""no_dis"",""hori"",""left"",[99999,99999],[106,106]]",diamond,no_dis,hori,left,"[99999,99999]","[106,106]",left,1,,,,,,001,2025-03-10_22h19.04.361,SL_base,2021.2.3,Win32,161.2903226,1.2913,,,116,0,116,0,1,,,,,,,,
,,"[""circle"",""red"",""hori"",""left"",[106,-106],[-106,106]]",circle,red,hori,left,"[106,-106]","[-106,106]",left,1,,,,,,001,2025-03-10_22h19.04.361,SL_base,2021.2.3,Win32,161.2903226,1.8851,,,117,0,117,0,1,,,,,,,,
,,"[""circle"",""no_dis"",""hori"",""left"",[99999,99999],[150,0]]",circle,no_dis,hori,left,"[99999,99999]","[150,0]",left,1,,,,,,001,2025-03-10_22h19.04.361,SL_base,2021.2.3,Win32,161.2903226,0.8274,,,118,0,118,0,1,,,,,,,,
,,"[""diamond"",""red"",""hori"",""left"",[-106,106],[-106,-106]]",diamond,red,hori,left,"[-106,106]","[-106,-106]",left,1,,,,,,001,2025-03-10_22h19.04.361,SL_base,2021.2.3,Win32,161.2903226,1.2465,,,119,0,119,0,1,,,,,,,,
,,,,,,,,,,,,,,,,001,2025-03-10_22h19.04.361,SL_base,2021.2.3,Win32,161.2903226,,,,,,,,,2,space,45.2497,1,0,1,0,1
,,"[""diamond"",""red"",""vert"",""up"",[106,106],[106,-106]]",diamond,red,vert,up,"[106,106]","[106,-106]",up,1,,,,,,001,2025-03-10_22h19.04.361,SL_base,2021.2.3,Win32,161.2903226,1.3022,,,0,0,0,0,1,,,,,,,,
,,"[""diamond"",""no_dis"",""vert"",""up"",[99999,99999],[106,-106]]",diamond,no_dis,vert,up,"[99999,99999]","[106,-106]",up,1,,,,,,001,2025-03-10_22h19.04.361,SL_base,2021.2.3,Win32,161.2903226,0.9519,,,1,0,1,0,1,,,,,,,,
,,"[""diamond"",""green"",""hori"",""left"",[-106,-106],[106,-106]]",diamond,green,hori,left,"[-106,-106]","[106,-106]",left,1,,,,,,001,2025-03-10_22h19.04.361,SL_base,2021.2.3,Win32,161.2903226,0.7517,,,2,0,2,0,1,,,,,,,,
,,"[""diamond"",""green"",""hori"",""left"",[-150,0],[106,-106]]",diamond,green,hori,left,"[-150,0]","[106,-106]",left,1,,,,,,001,2025-03-10_22h19.04.361,SL_base,2021.2.3,Win32,161.2903226,0.6393,,,3,0,3,0,1,,,,,,,,
,,"[""circle"",""green"",""vert"",""up"",[106,-106],[106,106]]",circle,green,vert,up,"[106,-106]","[106,106]",left,0,,,,,,001,2025-03-10_22h19.04.361,SL_base,2021.2.3,Win32,161.2903226,0.6005,,,4,0,4,0,1,,,,,,,,
,,"[""diamond"",""no_dis"",""vert"",""up"",[99999,99999],[0,-150]]",diamond,no_dis,vert,up,"[99999,99999]","[0,-150]",up,1,,,,,,001,2025-03-10_22h19.04.361,SL_base,2021.2.3,Win32,161.2903226,0.6491,,,5,0,5,0,1,,,,,,,,
,,"[""diamond"",""green"",""vert"",""up"",[-106,106],[106,-106]]",diamond,green,vert,up,"[-106,106]","[106,-106]",up,1,,,,,,001,2025-03-10_22h19.04.361,SL_base,2021.2.3,Win32,161.2903226,0.7008,,,6,0,6,0,1,,,,,,,,
,,"[""diamond"",""no_dis"",""vert"",""up"",[99999,99999],[0,-150]]",diamond,no_dis,vert,up,"[99999,99999]","[0,-150]",up,1,,,,,,001,2025-03-10_22h19.04.361,SL_base,2021.2.3,Win32,161.2903226,0.6102,,,7,0,7,0,1,,,,,,,,
,,"[""circle"",""green"",""vert"",""up"",[150,0],[0,-150]]",circle,green,vert,up,"[150,0]","[0,-150]",up,1,,,,,,001,2025-03-10_22h19.04.361,SL_base,2021.2.3,Win32,161.2903226,2.4822,,,8,0,8,0,1,,,,,,,,
,,"[""diamond"",""red"",""hori"",""left"",[106,-106],[150,0]]",diamond,red,hori,left,"[106,-106]","[150,0]",left,1,,,,,,001,2025-03-10_22h19.04.361,SL_base,2021.2.3,Win32,161.2903226,1.2742,,,9,0,9,0,1,,,,,,,,
,,"[""circle"",""green"",""hori"",""left"",[-106,-106],[-106,106]]",circle,green,hori,left,"[-106,-106]","[-106,106]",left,1,,,,,,001,2025-03-10_22h19.04.361,SL_base,2021.2.3,Win32,161.2903226,1.2973,,,10,0,10,0,1,,,,,,,,
,,"[""diamond"",""red"",""vert"",""up"",[0,150],[106,106]]",diamond,red,vert,up,"[0,150]","[106,106]",up,1,,,,,,001,2025-03-10_22h19.04.361,SL_base,2021.2.3,Win32,161.2903226,1.4248,,,11,0,11,0,1,,,,,,,,
,,"[""diamond"",""red"",""hori"",""left"",[-106,106],[-106,-106]]",diamond,red,hori,left,"[-106,106]","[-106,-106]",left,1,,,,,,001,2025-03-10_22h19.04.361,SL_base,2021.2.3,Win32,161.2903226,1.0247,,,12,0,12,0,1,,,,,,,,
,,"[""diamond"",""green"",""hori"",""left"",[0,-150],[106,106]]",diamond,green,hori,left,"[0,-150]","[106,106]",left,1,,,,,,001,2025-03-10_22h19.04.361,SL_base,2021.2.3,Win32,161.2903226,0.8732,,,13,0,13,0,1,,,,,,,,
,,"[""diamond"",""green"",""vert"",""up"",[-106,106],[106,-106]]",diamond,green,vert,up,"[-106,106]","[106,-106]",up,1,,,,,,001,2025-03-10_22h19.04.361,SL_base,2021.2.3,Win32,161.2903226,1.0384,,,14,0,14,0,1,,,,,,,,
,,"[""circle"",""green"",""hori"",""left"",[0,-150],[106,-106]]",circle,green,hori,left,"[0,-150]","[106,-106]",left,1,,,,,,001,2025-03-10_22h19.04.361,SL_base,2021.2.3,Win32,161.2903226,0.8476,,,15,0,15,0,1,,,,,,,,
,,"[""circle"",""green"",""vert"",""up"",[150,0],[106,106]]",circle,green,vert,up,"[150,0]","[106,106]",,0,,,,,,001,2025-03-10_22h19.04.361,SL_base,2021.2.3,Win32,161.2903226,,,,16,0,16,0,1,,,,,,,,
,,"[""circle"",""red"",""vert"",""up"",[-106,-106],[-106,106]]",circle,red,vert,up,"[-106,-106]","[-106,106]",left,0,,,,,,001,2025-03-10_22h19.04.361,SL_base,2021.2.3,Win32,161.2903226,1.8494,,,17,0,17,0,1,,,,,,,,
,,"[""diamond"",""red"",""vert"",""up"",[106,-106],[0,150]]",diamond,red,vert,up,"[106,-106]","[0,150]",up,1,,,,,,001,2025-03-10_22h19.04.361,SL_base,2021.2.3,Win32,161.2903226,0.8524,,,18,0,18,0,1,,,,,,,,
,,"[""circle"",""no_dis"",""hori"",""left"",[99999,99999],[106,-106]]",circle,no_dis,hori,left,"[99999,99999]","[106,-106]",left,1,,,,,,001,2025-03-10_22h19.04.361,SL_base,2021.2.3,Win32,161.2903226,1.3386,,,19,0,19,0,1,,,,,,,,
,,"[""circle"",""red"",""hori"",""left"",[106,106],[-106,-106]]",circle,red,hori,left,"[106,106]","[-106,-106]",left,1,,,,,,001,2025-03-10_22h19.04.361,SL_base,2021.2.3,Win32,161.2903226,0.8005,,,20,0,20,0,1,,,,,,,,
,,"[""diamond"",""no_dis"",""hori"",""left"",[99999,99999],[106,106]]",diamond,no_dis,hori,left,"[99999,99999]","[106,106]",left,1,,,,,,001,2025-03-10_22h19.04.361,SL_base,2021.2.3,Win32,161.2903226,1.4804,,,21,0,21,0,1,,,,,,,,
,,"[""diamond"",""green"",""vert"",""up"",[0,150],[150,0]]",diamond,green,vert,up,"[0,150]","[150,0]",up,1,,,,,,001,2025-03-10_22h19.04.361,SL_base,2021.2.3,Win32,161.2903226,1.266,,,22,0,22,0,1,,,,,,,,
,,"[""diamond"",""green"",""vert"",""up"",[150,0],[-106,-106]]",diamond,green,vert,up,"[150,0]","[-106,-106]",up,1,,,,,,001,2025-03-10_22h19.04.361,SL_base,2021.2.3,Win32,161.2903226,0.771,,,23,0,23,0,1,,,,,,,,
,,"[""circle"",""no_dis"",""vert"",""up"",[99999,99999],[0,150]]",circle,no_dis,vert,up,"[99999,99999]","[0,150]",up,1,,,,,,001,2025-03-10_22h19.04.361,SL_base,2021.2.3,Win32,161.2903226,1.0904,,,24,0,24,0,1,,,,,,,,
,,"[""circle"",""no_dis"",""hori"",""left"",[99999,99999],[106,-106]]",circle,no_dis,hori,left,"[99999,99999]","[106,-106]",left,1,,,,,,001,2025-03-10_22h19.04.361,SL_base,2021.2.3,Win32,161.2903226,0.6519,,,25,0,25,0,1,,,,,,,,
,,"[""diamond"",""no_dis"",""hori"",""left"",[99999,99999],[150,0]]",diamond,no_dis,hori,left,"[99999,99999]","[150,0]",up,0,,,,,,001,2025-03-10_22h19.04.361,SL_base,2021.2.3,Win32,161.2903226,0.8024,,,26,0,26,0,1,,,,,,,,
,,"[""diamond"",""red"",""vert"",""up"",[-106,-106],[-106,106]]",diamond,red,vert,up,"[-106,-106]","[-106,106]",left,0,,,,,,001,2025-03-10_22h19.04.361,SL_base,2021.2.3,Win32,161.2903226,0.6441,,,27,0,27,0,1,,,,,,,,
,,"[""diamond"",""green"",""vert"",""up"",[0,-150],[-106,-106]]",diamond,green,vert,up,"[0,-150]","[-106,-106]",up,1,,,,,,001,2025-03-10_22h19.04.361,SL_base,2021.2.3,Win32,161.2903226,0.6949,,,28,0,28,0,1,,,,,,,,
,,"[""diamond"",""no_dis"",""vert"",""up"",[99999,99999],[-106,-106]]",diamond,no_dis,vert,up,"[99999,99999]","[-106,-106]",up,1,,,,,,001,2025-03-10_22h19.04.361,SL_base,2021.2.3,Win32,161.2903226,0.6188,,,29,0,29,0,1,,,,,,,,
,,"[""diamond"",""green"",""vert"",""up"",[106,-106],[150,0]]",diamond,green,vert,up,"[106,-106]","[150,0]",up,1,,,,,,001,2025-03-10_22h19.04.361,SL_base,2021.2.3,Win32,161.2903226,0.9418,,,30,0,30,0,1,,,,,,,,
,,"[""circle"",""red"",""hori"",""left"",[106,-106],[0,-150]]",circle,red,hori,left,"[106,-106]","[0,-150]",up,0,,,,,,001,2025-03-10_22h19.04.361,SL_base,2021.2.3,Win32,161.2903226,0.6225,,,31,0,31,0,1,,,,,,,,
,,"[""circle"",""no_dis"",""vert"",""up"",[99999,99999],[150,0]]",circle,no_dis,vert,up,"[99999,99999]","[150,0]",up,1,,,,,,001,2025-03-10_22h19.04.361,SL_base,2021.2.3,Win32,161.2903226,1.606,,,32,0,32,0,1,,,,,,,,
,,"[""diamond"",""red"",""hori"",""left"",[-106,106],[-150,0]]",diamond,red,hori,left,"[-106,106]","[-150,0]",left,1,,,,,,001,2025-03-10_22h19.04.361,SL_base,2021.2.3,Win32,161.2903226,1.2192,,,33,0,33,0,1,,,,,,,,
,,"[""circle"",""red"",""hori"",""left"",[106,106],[-150,0]]",circle,red,hori,left,"[106,106]","[-150,0]",left,1,,,,,,001,2025-03-10_22h19.04.361,SL_base,2021.2.3,Win32,161.2903226,0.7883,,,34,0,34,0,1,,,,,,,,
,,"[""diamond"",""no_dis"",""vert"",""up"",[99999,99999],[0,150]]",diamond,no_dis,vert,up,"[99999,99999]","[0,150]",up,1,,,,,,001,2025-03-10_22h19.04.361,SL_base,2021.2.3,Win32,161.2903226,0.9146,,,35,0,35,0,1,,,,,,,,
,,"[""diamond"",""red"",""hori"",""left"",[150,0],[-150,0]]",diamond,red,hori,left,"[150,0]","[-150,0]",left,1,,,,,,001,2025-03-10_22h19.04.361,SL_base,2021.2.3,Win32,161.2903226,0.8671,,,36,0,36,0,1,,,,,,,,
,,"[""circle"",""red"",""hori"",""left"",[0,-150],[-106,106]]",circle,red,hori,left,"[0,-150]","[-106,106]",left,1,,,,,,001,2025-03-10_22h19.04.361,SL_base,2021.2.3,Win32,161.2903226,0.9225,,,37,0,37,0,1,,,,,,,,
,,"[""diamond"",""red"",""vert"",""up"",[106,106],[150,0]]",diamond,red,vert,up,"[106,106]","[150,0]",left,0,,,,,,001,2025-03-10_22h19.04.361,SL_base,2021.2.3,Win32,161.2903226,1.5076,,,38,0,38,0,1,,,,,,,,
,,"[""diamond"",""red"",""vert"",""up"",[106,106],[150,0]]",diamond,red,vert,up,"[106,106]","[150,0]",up,1,,,,,,001,2025-03-10_22h19.04.361,SL_base,2021.2.3,Win32,161.2903226,1.8589,,,39,0,39,0,1,,,,,,,,
,,"[""circle"",""no_dis"",""hori"",""left"",[99999,99999],[-106,106]]",circle,no_dis,hori,left,"[99999,99999]","[-106,106]",left,1,,,,,,001,2025-03-10_22h19.04.361,SL_base,2021.2.3,Win32,161.2903226,1.6157,,,40,0,40,0,1,,,,,,,,
,,"[""diamond"",""no_dis"",""vert"",""up"",[99999,99999],[0,-150]]",diamond,no_dis,vert,up,"[99999,99999]","[0,-150]",up,1,,,,,,001,2025-03-10_22h19.04.361,SL_base,2021.2.3,Win32,161.2903226,1.4001,,,41,0,41,0,1,,,,,,,,
,,"[""diamond"",""green"",""hori"",""left"",[106,-106],[-150,0]]",diamond,green,hori,left,"[106,-106]","[-150,0]",left,1,,,,,,001,2025-03-10_22h19.04.361,SL_base,2021.2.3,Win32,161.2903226,1.1273,,,42,0,42,0,1,,,,,,,,
,,"[""diamond"",""green"",""hori"",""left"",[150,0],[0,-150]]",diamond,green,hori,left,"[150,0]","[0,-150]",left,1,,,,,,001,2025-03-10_22h19.04.361,SL_base,2021.2.3,Win32,161.2903226,0.7992,,,43,0,43,0,1,,,,,,,,
,,"[""circle"",""green"",""hori"",""left"",[0,-150],[-150,0]]",circle,green,hori,left,"[0,-150]","[-150,0]",left,1,,,,,,001,2025-03-10_22h19.04.361,SL_base,2021.2.3,Win32,161.2903226,1.4125,,,44,0,44,0,1,,,,,,,,
,,"[""circle"",""no_dis"",""vert"",""up"",[99999,99999],[-150,0]]",circle,no_dis,vert,up,"[99999,99999]","[-150,0]",up,1,,,,,,001,2025-03-10_22h19.04.361,SL_base,2021.2.3,Win32,161.2903226,0.7037,,,45,0,45,0,1,,,,,,,,
,,"[""circle"",""green"",""vert"",""up"",[106,-106],[106,106]]",circle,green,vert,up,"[106,-106]","[106,106]",up,1,,,,,,001,2025-03-10_22h19.04.361,SL_base,2021.2.3,Win32,161.2903226,1.1783,,,46,0,46,0,1,,,,,,,,
,,"[""circle"",""green"",""vert"",""up"",[-106,-106],[-106,106]]",circle,green,vert,up,"[-106,-106]","[-106,106]",up,1,,,,,,001,2025-03-10_22h19.04.361,SL_base,2021.2.3,Win32,161.2903226,1.1943,,,47,0,47,0,1,,,,,,,,
,,"[""circle"",""red"",""vert"",""up"",[106,-106],[-150,0]]",circle,red,vert,up,"[106,-106]","[-150,0]",up,1,,,,,,001,2025-03-10_22h19.04.361,SL_base,2021.2.3,Win32,161.2903226,0.8865,,,48,0,48,0,1,,,,,,,,
,,"[""diamond"",""red"",""hori"",""left"",[150,0],[0,150]]",diamond,red,hori,left,"[150,0]","[0,150]",left,1,,,,,,001,2025-03-10_22h19.04.361,SL_base,2021.2.3,Win32,161.2903226,1.0741,,,49,0,49,0,1,,,,,,,,
,,"[""diamond"",""red"",""vert"",""up"",[106,-106],[-106,106]]",diamond,red,vert,up,"[106,-106]","[-106,106]",up,1,,,,,,001,2025-03-10_22h19.04.361,SL_base,2021.2.3,Win32,161.2903226,0.6679,,,50,0,50,0,1,,,,,,,,
,,"[""circle"",""red"",""hori"",""left"",[0,150],[0,-150]]",circle,red,hori,left,"[0,150]","[0,-150]",left,1,,,,,,001,2025-03-10_22h19.04.361,SL_base,2021.2.3,Win32,161.2903226,0.6793,,,51,0,51,0,1,,,,,,,,
,,"[""circle"",""red"",""vert"",""up"",[150,0],[-106,-106]]",circle,red,vert,up,"[150,0]","[-106,-106]",left,0,,,,,,001,2025-03-10_22h19.04.361,SL_base,2021.2.3,Win32,161.2903226,2.0281,,,52,0,52,0,1,,,,,,,,
,,"[""diamond"",""red"",""vert"",""up"",[-150,0],[-106,106]]",diamond,red,vert,up,"[-150,0]","[-106,106]",up,1,,,,,,001,2025-03-10_22h19.04.361,SL_base,2021.2.3,Win32,161.2903226,1.0386,,,53,0,53,0,1,,,,,,,,
,,"[""circle"",""no_dis"",""vert"",""up"",[99999,99999],[150,0]]",circle,no_dis,vert,up,"[99999,99999]","[150,0]",up,1,,,,,,001,2025-03-10_22h19.04.361,SL_base,2021.2.3,Win32,161.2903226,1.3027,,,54,0,54,0,1,,,,,,,,
,,"[""diamond"",""red"",""hori"",""left"",[-106,106],[-150,0]]",diamond,red,hori,left,"[-106,106]","[-150,0]",left,1,,,,,,001,2025-03-10_22h19.04.361,SL_base,2021.2.3,Win32,161.2903226,0.8454,,,55,0,55,0,1,,,,,,,,
,,"[""diamond"",""no_dis"",""hori"",""left"",[99999,99999],[0,150]]",diamond,no_dis,hori,left,"[99999,99999]","[0,150]",left,1,,,,,,001,2025-03-10_22h19.04.361,SL_base,2021.2.3,Win32,161.2903226,1.2286,,,56,0,56,0,1,,,,,,,,
,,"[""diamond"",""no_dis"",""hori"",""left"",[99999,99999],[-106,106]]",diamond,no_dis,hori,left,"[99999,99999]","[-106,106]",left,1,,,,,,001,2025-03-10_22h19.04.361,SL_base,2021.2.3,Win32,161.2903226,1.3851,,,57,0,57,0,1,,,,,,,,
,,"[""diamond"",""red"",""hori"",""left"",[-106,-106],[0,-150]]",diamond,red,hori,left,"[-106,-106]","[0,-150]",left,1,,,,,,001,2025-03-10_22h19.04.361,SL_base,2021.2.3,Win32,161.2903226,0.6494,,,58,0,58,0,1,,,,,,,,
,,"[""circle"",""no_dis"",""vert"",""up"",[99999,99999],[-150,0]]",circle,no_dis,vert,up,"[99999,99999]","[-150,0]",up,1,,,,,,001,2025-03-10_22h19.04.361,SL_base,2021.2.3,Win32,161.2903226,1.0666,,,59,0,59,0,1,,,,,,,,
,,"[""circle"",""no_dis"",""hori"",""left"",[99999,99999],[-150,0]]",circle,no_dis,hori,left,"[99999,99999]","[-150,0]",left,1,,,,,,001,2025-03-10_22h19.04.361,SL_base,2021.2.3,Win32,161.2903226,0.9097,,,60,0,60,0,1,,,,,,,,
,,"[""circle"",""green"",""hori"",""left"",[-150,0],[-106,-106]]",circle,green,hori,left,"[-150,0]","[-106,-106]",left,1,,,,,,001,2025-03-10_22h19.04.361,SL_base,2021.2.3,Win32,161.2903226,1.3596,,,61,0,61,0,1,,,,,,,,
,,"[""circle"",""no_dis"",""vert"",""up"",[99999,99999],[-106,-106]]",circle,no_dis,vert,up,"[99999,99999]","[-106,-106]",left,0,,,,,,001,2025-03-10_22h19.04.361,SL_base,2021.2.3,Win32,161.2903226,1.1941,,,62,0,62,0,1,,,,,,,,
,,"[""circle"",""no_dis"",""hori"",""left"",[99999,99999],[150,0]]",circle,no_dis,hori,left,"[99999,99999]","[150,0]",left,1,,,,,,001,2025-03-10_22h19.04.361,SL_base,2021.2.3,Win32,161.2903226,2.5044,,,63,0,63,0,1,,,,,,,,
,,"[""circle"",""red"",""vert"",""up"",[106,-106],[-106,-106]]",circle,red,vert,up,"[106,-106]","[-106,-106]",left,0,,,,,,001,2025-03-10_22h19.04.361,SL_base,2021.2.3,Win32,161.2903226,0.7834,,,64,0,64,0,1,,,,,,,,
,,"[""circle"",""red"",""hori"",""left"",[106,-106],[-106,106]]",circle,red,hori,left,"[106,-106]","[-106,106]",up,0,,,,,,001,2025-03-10_22h19.04.361,SL_base,2021.2.3,Win32,161.2903226,1.8528,,,65,0,65,0,1,,,,,,,,
,,"[""diamond"",""no_dis"",""hori"",""left"",[99999,99999],[-150,0]]",diamond,no_dis,hori,left,"[99999,99999]","[-150,0]",left,1,,,,,,001,2025-03-10_22h19.04.361,SL_base,2021.2.3,Win32,161.2903226,0.7373,,,66,0,66,0,1,,,,,,,,
,,"[""diamond"",""no_dis"",""vert"",""up"",[99999,99999],[150,0]]",diamond,no_dis,vert,up,"[99999,99999]","[150,0]",up,1,,,,,,001,2025-03-10_22h19.04.361,SL_base,2021.2.3,Win32,161.2903226,0.8858,,,67,0,67,0,1,,,,,,,,
,,"[""circle"",""no_dis"",""hori"",""left"",[99999,99999],[106,106]]",circle,no_dis,hori,left,"[99999,99999]","[106,106]",up,0,,,,,,001,2025-03-10_22h19.04.361,SL_base,2021.2.3,Win32,161.2903226,1.7465,,,68,0,68,0,1,,,,,,,,
,,"[""circle"",""red"",""vert"",""up"",[106,-106],[0,150]]",circle,red,vert,up,"[106,-106]","[0,150]",,0,,,,,,001,2025-03-10_22h19.04.361,SL_base,2021.2.3,Win32,161.2903226,,,,69,0,69,0,1,,,,,,,,
,,"[""diamond"",""green"",""hori"",""left"",[0,-150],[0,150]]",diamond,green,hori,left,"[0,-150]","[0,150]",left,1,,,,,,001,2025-03-10_22h19.04.361,SL_base,2021.2.3,Win32,161.2903226,1.1889,,,70,0,70,0,1,,,,,,,,
,,"[""circle"",""green"",""vert"",""up"",[-150,0],[0,150]]",circle,green,vert,up,"[-150,0]","[0,150]",up,1,,,,,,001,2025-03-10_22h19.04.361,SL_base,2021.2.3,Win32,161.2903226,1.1454,,,71,0,71,0,1,,,,,,,,
,,"[""diamond"",""no_dis"",""hori"",""left"",[99999,99999],[106,106]]",diamond,no_dis,hori,left,"[99999,99999]","[106,106]",left,1,,,,,,001,2025-03-10_22h19.04.361,SL_base,2021.2.3,Win32,161.2903226,1.5582,,,72,0,72,0,1,,,,,,,,
,,"[""diamond"",""red"",""vert"",""up"",[106,106],[-106,106]]",diamond,red,vert,up,"[106,106]","[-106,106]",up,1,,,,,,001,2025-03-10_22h19.04.361,SL_base,2021.2.3,Win32,161.2903226,2.0596,,,73,0,73,0,1,,,,,,,,
,,"[""diamond"",""no_dis"",""hori"",""left"",[99999,99999],[-106,-106]]",diamond,no_dis,hori,left,"[99999,99999]","[-106,-106]",left,1,,,,,,001,2025-03-10_22h19.04.361,SL_base,2021.2.3,Win32,161.2903226,1.1879,,,74,0,74,0,1,,,,,,,,
,,"[""circle"",""no_dis"",""vert"",""up"",[99999,99999],[106,-106]]",circle,no_dis,vert,up,"[99999,99999]","[106,-106]",left,0,,,,,,001,2025-03-10_22h19.04.361,SL_base,2021.2.3,Win32,161.2903226,0.3215,,,75,0,75,0,1,,,,,,,,
,,"[""circle"",""red"",""vert"",""up"",[-150,0],[150,0]]",circle,red,vert,up,"[-150,0]","[150,0]",up,1,,,,,,001,2025-03-10_22h19.04.361,SL_base,2021.2.3,Win32,161.2903226,0.4488,,,76,0,76,0,1,,,,,,,,
,,"[""diamond"",""green"",""vert"",""up"",[106,-106],[-106,106]]",diamond,green,vert,up,"[106,-106]","[-106,106]",,0,,,,,,001,2025-03-10_22h19.04.361,SL_base,2021.2.3,Win32,161.2903226,,,,77,0,77,0,1,,,,,,,,
,,"[""circle"",""green"",""vert"",""up"",[0,150],[0,-150]]",circle,green,vert,up,"[0,150]","[0,-150]",up,1,,,,,,001,2025-03-10_22h19.04.361,SL_base,2021.2.3,Win32,161.2903226,1.433,,,78,0,78,0,1,,,,,,,,
,,"[""circle"",""green"",""vert"",""up"",[-150,0],[150,0]]",circle,green,vert,up,"[-150,0]","[150,0]",up,1,,,,,,001,2025-03-10_22h19.04.361,SL_base,2021.2.3,Win32,161.2903226,0.8188,,,79,0,79,0,1,,,,,,,,
,,"[""diamond"",""green"",""hori"",""left"",[106,-106],[-150,0]]",diamond,green,hori,left,"[106,-106]","[-150,0]",left,1,,,,,,001,2025-03-10_22h19.04.361,SL_base,2021.2.3,Win32,161.2903226,1.104,,,80,0,80,0,1,,,,,,,,
,,"[""circle"",""green"",""vert"",""up"",[150,0],[-106,-106]]",circle,green,vert,up,"[150,0]","[-106,-106]",up,1,,,,,,001,2025-03-10_22h19.04.361,SL_base,2021.2.3,Win32,161.2903226,1.14,,,81,0,81,0,1,,,,,,,,
,,"[""circle"",""red"",""vert"",""up"",[-106,-106],[106,106]]",circle,red,vert,up,"[-106,-106]","[106,106]",up,1,,,,,,001,2025-03-10_22h19.04.361,SL_base,2021.2.3,Win32,161.2903226,1.0795,,,82,0,82,0,1,,,,,,,,
,,"[""diamond"",""green"",""vert"",""up"",[0,150],[-150,0]]",diamond,green,vert,up,"[0,150]","[-150,0]",left,0,,,,,,001,2025-03-10_22h19.04.361,SL_base,2021.2.3,Win32,161.2903226,1.0902,,,83,0,83,0,1,,,,,,,,
,,"[""circle"",""green"",""hori"",""left"",[0,-150],[106,-106]]",circle,green,hori,left,"[0,-150]","[106,-106]",left,1,,,,,,001,2025-03-10_22h19.04.361,SL_base,2021.2.3,Win32,161.2903226,1.105,,,84,0,84,0,1,,,,,,,,
,,"[""circle"",""no_dis"",""vert"",""up"",[99999,99999],[0,150]]",circle,no_dis,vert,up,"[99999,99999]","[0,150]",up,1,,,,,,001,2025-03-10_22h19.04.361,SL_base,2021.2.3,Win32,161.2903226,0.7168,,,85,0,85,0,1,,,,,,,,
,,"[""diamond"",""no_dis"",""vert"",""up"",[99999,99999],[106,-106]]",diamond,no_dis,vert,up,"[99999,99999]","[106,-106]",up,1,,,,,,001,2025-03-10_22h19.04.361,SL_base,2021.2.3,Win32,161.2903226,1.8189,,,86,0,86,0,1,,,,,,,,
,,"[""diamond"",""green"",""hori"",""left"",[106,-106],[106,106]]",diamond,green,hori,left,"[106,-106]","[106,106]",left,1,,,,,,001,2025-03-10_22h19.04.361,SL_base,2021.2.3,Win32,161.2903226,1.4932,,,87,0,87,0,1,,,,,,,,
,,"[""circle"",""green"",""vert"",""up"",[0,150],[0,-150]]",circle,green,vert,up,"[0,150]","[0,-150]",up,1,,,,,,001,2025-03-10_22h19.04.361,SL_base,2021.2.3,Win32,161.2903226,1.1514,,,88,0,88,0,1,,,,,,,,
,,"[""diamond"",""no_dis"",""vert"",""up"",[99999,99999],[106,106]]",diamond,no_dis,vert,up,"[99999,99999]","[106,106]",up,1,,,,,,001,2025-03-10_22h19.04.361,SL_base,2021.2.3,Win32,161.2903226,1.0694,,,89,0,89,0,1,,,,,,,,
,,"[""circle"",""no_dis"",""hori"",""left"",[99999,99999],[-106,-106]]",circle,no_dis,hori,left,"[99999,99999]","[-106,-106]",left,1,,,,,,001,2025-03-10_22h19.04.361,SL_base,2021.2.3,Win32,161.2903226,2.9214,,,90,0,90,0,1,,,,,,,,
,,"[""circle"",""red"",""hori"",""left"",[-106,106],[-150,0]]",circle,red,hori,left,"[-106,106]","[-150,0]",left,1,,,,,,001,2025-03-10_22h19.04.361,SL_base,2021.2.3,Win32,161.2903226,1.6856,,,91,0,91,0,1,,,,,,,,
,,"[""diamond"",""no_dis"",""hori"",""left"",[99999,99999],[-106,106]]",diamond,no_dis,hori,left,"[99999,99999]","[-106,106]",left,1,,,,,,001,2025-03-10_22h19.04.361,SL_base,2021.2.3,Win32,161.2903226,0.9513,,,92,0,92,0,1,,,,,,,,
,,"[""diamond"",""green"",""vert"",""up"",[-150,0],[0,-150]]",diamond,green,vert,up,"[-150,0]","[0,-150]",up,1,,,,,,001,2025-03-10_22h19.04.361,SL_base,2021.2.3,Win32,161.2903226,2.1892,,,93,0,93,0,1,,,,,,,,
,,"[""circle"",""no_dis"",""vert"",""up"",[99999,99999],[0,-150]]",circle,no_dis,vert,up,"[99999,99999]","[0,-150]",up,1,,,,,,001,2025-03-10_22h19.04.361,SL_base,2021.2.3,Win32,161.2903226,2.5379,,,94,0,94,0,1,,,,,,,,
,,"[""diamond"",""red"",""vert"",""up"",[-106,106],[150,0]]",diamond,red,vert,up,"[-106,106]","[150,0]",up,1,,,,,,001,2025-03-10_22h19.04.361,SL_base,2021.2.3,Win32,161.2903226,1.683,,,95,0,95,0,1,,,,,,,,
,,"[""diamond"",""no_dis"",""hori"",""left"",[99999,99999],[-106,106]]",diamond,no_dis,hori,left,"[99999,99999]","[-106,106]",left,1,,,,,,001,2025-03-10_22h19.04.361,SL_base,2021.2.3,Win32,161.2903226,0.9883,,,96,0,96,0,1,,,,,,,,
,,"[""diamond"",""green"",""hori"",""left"",[106,-106],[0,-150]]",diamond,green,hori,left,"[106,-106]","[0,-150]",left,1,,,,,,001,2025-03-10_22h19.04.361,SL_base,2021.2.3,Win32,161.2903226,1.0067,,,97,0,97,0,1,,,,,,,,
,,"[""diamond"",""no_dis"",""vert"",""up"",[99999,99999],[0,-150]]",diamond,no_dis,vert,up,"[99999,99999]","[0,-150]",up,1,,,,,,001,2025-03-10_22h19.04.361,SL_base,2021.2.3,Win32,161.2903226,1.521,,,98,0,98,0,1,,,,,,,,
,,"[""circle"",""green"",""hori"",""left"",[106,-106],[0,-150]]",circle,green,hori,left,"[106,-106]","[0,-150]",,0,,,,,,001,2025-03-10_22h19.04.361,SL_base,2021.2.3,Win32,161.2903226,,,,99,0,99,0,1,,,,,,,,
,,"[""circle"",""red"",""hori"",""left"",[106,-106],[-106,-106]]",circle,red,hori,left,"[106,-106]","[-106,-106]",,0,,,,,,001,2025-03-10_22h19.04.361,SL_base,2021.2.3,Win32,161.2903226,,,,100,0,100,0,1,,,,,,,,
,,"[""diamond"",""red"",""hori"",""left"",[-150,0],[0,150]]",diamond,red,hori,left,"[-150,0]","[0,150]",left,1,,,,,,001,2025-03-10_22h19.04.361,SL_base,2021.2.3,Win32,161.2903226,0.8368,,,101,0,101,0,1,,,,,,,,
,,"[""circle"",""red"",""hori"",""left"",[106,106],[106,-106]]",circle,red,hori,left,"[106,106]","[106,-106]",left,1,,,,,,001,2025-03-10_22h19.04.361,SL_base,2021.2.3,Win32,161.2903226,1.3756,,,102,0,102,0,1,,,,,,,,
,,"[""diamond"",""no_dis"",""hori"",""left"",[99999,99999],[-106,-106]]",diamond,no_dis,hori,left,"[99999,99999]","[-106,-106]",left,1,,,,,,001,2025-03-10_22h19.04.361,SL_base,2021.2.3,Win32,161.2903226,1.2548,,,103,0,103,0,1,,,,,,,,
,,"[""diamond"",""green"",""vert"",""up"",[106,-106],[106,106]]",diamond,green,vert,up,"[106,-106]","[106,106]",up,1,,,,,,001,2025-03-10_22h19.04.361,SL_base,2021.2.3,Win32,161.2903226,1.3579,,,104,0,104,0,1,,,,,,,,
,,"[""circle"",""red"",""vert"",""up"",[106,-106],[-106,-106]]",circle,red,vert,up,"[106,-106]","[-106,-106]",left,0,,,,,,001,2025-03-10_22h19.04.361,SL_base,2021.2.3,Win32,161.2903226,2.3215,,,105,0,105,0,1,,,,,,,,
,,"[""circle"",""no_dis"",""vert"",""up"",[99999,99999],[-106,106]]",circle,no_dis,vert,up,"[99999,99999]","[-106,106]",left,0,,,,,,001,2025-03-10_22h19.04.361,SL_base,2021.2.3,Win32,161.2903226,1.3341,,,106,0,106,0,1,,,,,,,,
,,"[""circle"",""red"",""vert"",""up"",[106,106],[106,-106]]",circle,red,vert,up,"[106,106]","[106,-106]",up,1,,,,,,001,2025-03-10_22h19.04.361,SL_base,2021.2.3,Win32,161.2903226,0.9298,,,107,0,107,0,1,,,,,,,,
,,"[""circle"",""green"",""hori"",""left"",[0,-150],[0,150]]",circle,green,hori,left,"[0,-150]","[0,150]",left,1,,,,,,001,2025-03-10_22h19.04.361,SL_base,2021.2.3,Win32,161.2903226,1.9576,,,108,0,108,0,1,,,,,,,,
,,"[""diamond"",""red"",""hori"",""left"",[106,-106],[-106,-106]]",diamond,red,hori,left,"[106,-106]","[-106,-106]",left,1,,,,,,001,2025-03-10_22h19.04.361,SL_base,2021.2.3,Win32,161.2903226,1.0245,,,109,0,109,0,1,,,,,,,,
,,"[""circle"",""green"",""hori"",""left"",[0,150],[106,106]]",circle,green,hori,left,"[0,150]","[106,106]",up,0,,,,,,001,2025-03-10_22h19.04.361,SL_base,2021.2.3,Win32,161.2903226,2.6013,,,110,0,110,0,1,,,,,,,,
,,"[""circle"",""no_dis"",""hori"",""left"",[99999,99999],[0,150]]",circle,no_dis,hori,left,"[99999,99999]","[0,150]",left,1,,,,,,001,2025-03-10_22h19.04.361,SL_base,2021.2.3,Win32,161.2903226,1.9156,,,111,0,111,0,1,,,,,,,,
,,"[""circle"",""no_dis"",""hori"",""left"",[99999,99999],[106,106]]",circle,no_dis,hori,left,"[99999,99999]","[106,106]",left,1,,,,,,001,2025-03-10_22h19.04.361,SL_base,2021.2.3,Win32,161.2903226,2.251,,,112,0,112,0,1,,,,,,,,
,,"[""circle"",""red"",""hori"",""left"",[-106,-106],[106,106]]",circle,red,hori,left,"[-106,-106]","[106,106]",left,1,,,,,,001,2025-03-10_22h19.04.361,SL_base,2021.2.3,Win32,161.2903226,0.8968,,,113,0,113,0,1,,,,,,,,
,,"[""circle"",""green"",""hori"",""left"",[0,150],[0,-150]]",circle,green,hori,left,"[0,150]","[0,-150]",left,1,,,,,,001,2025-03-10_22h19.04.361,SL_base,2021.2.3,Win32,161.2903226,0.731,,,114,0,114,0,1,,,,,,,,
,,"[""diamond"",""green"",""hori"",""left"",[106,-106],[106,106]]",diamond,green,hori,left,"[106,-106]","[106,106]",left,1,,,,,,001,2025-03-10_22h19.04.361,SL_base,2021.2.3,Win32,161.2903226,2.2064,,,115,0,115,0,1,,,,,,,,
,,"[""circle"",""green"",""hori"",""left"",[106,-106],[-106,106]]",circle,green,hori,left,"[106,-106]","[-106,106]",left,1,,,,,,001,2025-03-10_22h19.04.361,SL_base,2021.2.3,Win32,161.2903226,1.3575,,,116,0,116,0,1,,,,,,,,
,,"[""diamond"",""red"",""hori"",""left"",[-106,106],[0,-150]]",diamond,red,hori,left,"[-106,106]","[0,-150]",left,1,,,,,,001,2025-03-10_22h19.04.361,SL_base,2021.2.3,Win32,161.2903226,0.9852,,,117,0,117,0,1,,,,,,,,
,,"[""circle"",""no_dis"",""hori"",""left"",[99999,99999],[-150,0]]",circle,no_dis,hori,left,"[99999,99999]","[-150,0]",left,1,,,,,,001,2025-03-10_22h19.04.361,SL_base,2021.2.3,Win32,161.2903226,0.8738,,,118,0,118,0,1,,,,,,,,
,,"[""circle"",""red"",""vert"",""up"",[106,-106],[-150,0]]",circle,red,vert,up,"[106,-106]","[-150,0]",up,1,,,,,,001,2025-03-10_22h19.04.361,SL_base,2021.2.3,Win32,161.2903226,1.0217,,,119,0,119,0,1,,,,,,,,
,,,,,,,,,,,,,,,,001,2025-03-10_22h19.04.361,SL_base,2021.2.3,Win32,161.2903226,,,,,,,,,3,space,59.1877,2,0,2,0,1
,,"[""circle"",""no_dis"",""hori"",""left"",[99999,99999],[-106,-106]]",circle,no_dis,hori,left,"[99999,99999]","[-106,-106]",left,1,,,,,,001,2025-03-10_22h19.04.361,SL_base,2021.2.3,Win32,161.2903226,1.1477,,,0,0,0,0,1,,,,,,,,
,,"[""circle"",""red"",""vert"",""up"",[150,0],[-106,-106]]",circle,red,vert,up,"[150,0]","[-106,-106]",up,1,,,,,,001,2025-03-10_22h19.04.361,SL_base,2021.2.3,Win32,161.2903226,2.7947,,,1,0,1,0,1,,,,,,,,
,,"[""diamond"",""no_dis"",""hori"",""left"",[99999,99999],[-106,-106]]",diamond,no_dis,hori,left,"[99999,99999]","[-106,-106]",left,1,,,,,,001,2025-03-10_22h19.04.361,SL_base,2021.2.3,Win32,161.2903226,0.9806,,,2,0,2,0,1,,,,,,,,
,,"[""circle"",""green"",""hori"",""left"",[0,-150],[-150,0]]",circle,green,hori,left,"[0,-150]","[-150,0]",left,1,,,,,,001,2025-03-10_22h19.04.361,SL_base,2021.2.3,Win32,161.2903226,1.2852,,,3,0,3,0,1,,,,,,,,
,,"[""diamond"",""green"",""vert"",""up"",[0,150],[150,0]]",diamond,green,vert,up,"[0,150]","[150,0]",up,1,,,,,,001,2025-03-10_22h19.04.361,SL_base,2021.2.3,Win32,161.2903226,1.3071,,,4,0,4,0,1,,,,,,,,
,,"[""diamond"",""red"",""vert"",""up"",[-106,-106],[-106,106]]",diamond,red,vert,up,"[-106,-106]","[-106,106]",up,1,,,,,,001,2025-03-10_22h19.04.361,SL_base,2021.2.3,Win32,161.2903226,2.0392,,,5,0,5,0,1,,,,,,,,
,,"[""circle"",""red"",""hori"",""left"",[-106,-106],[106,106]]",circle,red,hori,left,"[-106,-106]","[106,106]",left,1,,,,,,001,2025-03-10_22h19.04.361,SL_base,2021.2.3,Win32,161.2903226,1.4312,,,6,0,6,0,1,,,,,,,,
,,"[""circle"",""no_dis"",""vert"",""up"",[99999,99999],[-150,0]]",circle,no_dis,vert,up,"[99999,99999]","[-150,0]",up,1,,,,,,001,2025-03-10_22h19.04.361,SL_base,2021.2.3,Win32,161.2903226,0.872,,,7,0,7,0,1,,,,,,,,
,,"[""circle"",""green"",""vert"",""up"",[0,150],[0,-150]]",circle,green,vert,up,"[0,150]","[0,-150]",up,1,,,,,,001,2025-03-10_22h19.04.361,SL_base,2021.2.3,Win32,161.2903226,0.7903,,,8,0,8,0,1,,,,,,,,
,,"[""circle"",""green"",""vert"",""up"",[0,150],[0,-150]]",circle,green,vert,up,"[0,150]","[0,-150]",up,1,,,,,,001,2025-03-10_22h19.04.361,SL_base,2021.2.3,Win32,161.2903226,1.2187,,,9,0,9,0,1,,,,,,,,
,,"[""circle"",""red"",""hori"",""left"",[106,-106],[-106,-106]]",circle,red,hori,left,"[106,-106]","[-106,-106]",left,1,,,,,,001,2025-03-10_22h19.04.361,SL_base,2021.2.3,Win32,161.2903226,0.7333,,,10,0,10,0,1,,,,,,,,
,,"[""diamond"",""red"",""hori"",""left"",[-106,106],[-150,0]]",diamond,red,hori,left,"[-106,106]","[-150,0]",,0,,,,,,001,2025-03-10_22h19.04.361,SL_base,2021.2.3,Win32,161.2903226,,,,11,0,11,0,1,,,,,,,,
,,"[""diamond"",""red"",""hori"",""left"",[-106,106],[-106,-106]]",diamond,red,hori,left,"[-106,106]","[-106,-106]",left,1,,,,,,001,2025-03-10_22h19.04.361,SL_base,2021.2.3,Win32,161.2903226,1.3627,,,12,0,12,0,1,,,,,,,,
,,"[""diamond"",""no_dis"",""vert"",""up"",[99999,99999],[0,150]]",diamond,no_dis,vert,up,"[99999,99999]","[0,150]",up,1,,,,,,001,2025-03-10_22h19.04.361,SL_base,2021.2.3,Win32,161.2903226,1.2678,,,13,0,13,0,1,,,,,,,,
,,"[""diamond"",""red"",""hori"",""left"",[-106,106],[-150,0]]",diamond,red,hori,left,"[-106,106]","[-150,0]",left,1,,,,,,001,2025-03-10_22h19.04.361,SL_base,2021.2.3,Win32,161.2903226,1.0354,,,14,0,14,0,1,,,,,,,,
,,"[""diamond"",""red"",""vert"",""up"",[106,106],[150,0]]",diamond,red,vert,up,"[106,106]","[150,0]",up,1,,,,,,001,2025-03-10_22h19.04.361,SL_base,2021.2.3,Win32,161.2903226,1.2078,,,15,0,15,0,1,,,,,,,,
,,"[""diamond"",""no_dis"",""vert"",""up"",[99999,99999],[106,-106]]",diamond,no_dis,vert,up,"[99999,99999]","[106,-106]",up,1,,,,,,001,2025-03-10_22h19.04.361,SL_base,2021.2.3,Win32,161.2903226,1.6741,,,16,0,16,0,1,,,,,,,,
,,"[""diamond"",""green"",""hori"",""left"",[150,0],[0,-150]]",diamond,green,hori,left,"[150,0]","[0,-150]",left,1,,,,,,001,2025-03-10_22h19.04.361,SL_base,2021.2.3,Win32,161.2903226,0.9039,,,17,0,17,0,1,,,,,,,,
,,"[""diamond"",""no_dis"",""vert"",""up"",[99999,99999],[0,-150]]",diamond,no_dis,vert,up,"[99999,99999]","[0,-150]",up,1,,,,,,001,2025-03-10_22h19.04.361,SL_base,2021.2.3,Win32,161.2903226,1.0951,,,18,0,18,0,1,,,,,,,,
,,"[""diamond"",""red"",""vert"",""up"",[-106,106],[150,0]]",diamond,red,vert,up,"[-106,106]","[150,0]",up,1,,,,,,001,2025-03-10_22h19.04.361,SL_base,2021.2.3,Win32,161.2903226,0.7883,,,19,0,19,0,1,,,,,,,,
,,"[""circle"",""no_dis"",""hori"",""left"",[99999,99999],[-106,106]]",circle,no_dis,hori,left,"[99999,99999]","[-106,106]",left,1,,,,,,001,2025-03-10_22h19.04.361,SL_base,2021.2.3,Win32,161.2903226,0.9961,,,20,0,20,0,1,,,,,,,,
,,"[""circle"",""red"",""hori"",""left"",[106,106],[-150,0]]",circle,red,hori,left,"[106,106]","[-150,0]",left,1,,,,,,001,2025-03-10_22h19.04.361,SL_base,2021.2.3,Win32,161.2903226,0.625,,,21,0,21,0,1,,,,,,,,
,,"[""circle"",""green"",""hori"",""left"",[0,-150],[0,150]]",circle,green,hori,left,"[0,-150]","[0,150]",,0,,,,,,001,2025-03-10_22h19.04.361,SL_base,2021.2.3,Win32,161.2903226,,,,22,0,22,0,1,,,,,,,,
,,"[""circle"",""no_dis"",""vert"",""up"",[99999,99999],[0,-150]]",circle,no_dis,vert,up,"[99999,99999]","[0,-150]",up,1,,,,,,001,2025-03-10_22h19.04.361,SL_base,2021.2.3,Win32,161.2903226,0.6005,,,23,0,23,0,1,,,,,,,,
,,"[""circle"",""red"",""vert"",""up"",[106,106],[106,-106]]",circle,red,vert,up,"[106,106]","[106,-106]",up,1,,,,,,001,2025-03-10_22h19.04.361,SL_base,2021.2.3,Win32,161.2903226,1.6111,,,24,0,24,0,1,,,,,,,,
,,"[""circle"",""no_dis"",""hori"",""left"",[99999,99999],[106,-106]]",circle,no_dis,hori,left,"[99999,99999]","[106,-106]",left,1,,,,,,001,2025-03-10_22h19.04.361,SL_base,2021.2.3,Win32,161.2903226,1.8792,,,25,0,25,0,1,,,,,,,,
,,"[""circle"",""green"",""hori"",""left"",[-106,-106],[-106,106]]",circle,green,hori,left,"[-106,-106]","[-106,106]",left,1,,,,,,001,2025-03-10_22h19.04.361,SL_base,2021.2.3,Win32,161.2903226,1.461,,,26,0,26,0,1,,,,,,,,
,,"[""circle"",""no_dis"",""hori"",""left"",[99999,99999],[-150,0]]",circle,no_dis,hori,left,"[99999,99999]","[-150,0]",left,1,,,,,,001,2025-03-10_22h19.04.361,SL_base,2021.2.3,Win32,161.2903226,0.7731,,,27,0,27,0,1,,,,,,,,
,,"[""diamond"",""no_dis"",""hori"",""left"",[99999,99999],[0,150]]",diamond,no_dis,hori,left,"[99999,99999]","[0,150]",up,0,,,,,,001,2025-03-10_22h19.04.361,SL_base,2021.2.3,Win32,161.2903226,2.0722,,,28,0,28,0,1,,,,,,,,
,,"[""circle"",""no_dis"",""vert"",""up"",[99999,99999],[-150,0]]",circle,no_dis,vert,up,"[99999,99999]","[-150,0]",left,0,,,,,,001,2025-03-10_22h19.04.361,SL_base,2021.2.3,Win32,161.2903226,0.6131,,,29,0,29,0,1,,,,,,,,
,,"[""circle"",""red"",""hori"",""left"",[0,-150],[-106,106]]",circle,red,hori,left,"[0,-150]","[-106,106]",left,1,,,,,,001,2025-03-10_22h19.04.361,SL_base,2021.2.3,Win32,161.2903226,1.6005,,,30,0,30,0,1,,,,,,,,
,,"[""circle"",""green"",""hori"",""left"",[-150,0],[-106,-106]]",circle,green,hori,left,"[-150,0]","[-106,-106]",left,1,,,,,,001,2025-03-10_22h19.04.361,SL_base,2021.2.3,Win32,161.2903226,0.5584,,,31,0,31,0,1,,,,,,,,
,,"[""circle"",""red"",""hori"",""left"",[106,106],[106,-106]]",circle,red,hori,left,"[106,106]","[106,-106]",left,1,,,,,,001,2025-03-10_22h19.04.361,SL_base,2021.2.3,Win32,161.2903226,1.7545,,,32,0,32,0,1,,,,,,,,
,,"[""diamond"",""no_dis"",""hori"",""left"",[99999,99999],[106,106]]",diamond,no_dis,hori,left,"[99999,99999]","[106,106]",left,1,,,,,,001,2025-03-10_22h19.04.361,SL_base,2021.2.3,Win32,161.2903226,2.1162,,,33,0,33,0,1,,,,,,,,
,,"[""diamond"",""green"",""vert"",""up"",[0,-150],[-106,-106]]",diamond,green,vert,up,"[0,-150]","[-106,-106]",left,0,,,,,,001,2025-03-10_22h19.04.361,SL_base,2021.2.3,Win32,161.2903226,0.9943,,,34,0,34,0,1,,,,,,,,
,,"[""circle"",""no_dis"",""vert"",""up"",[99999,99999],[-106,106]]",circle,no_dis,vert,up,"[99999,99999]","[-106,106]",left,0,,,,,,001,2025-03-10_22h19.04.361,SL_base,2021.2.3,Win32,161.2903226,1.1715,,,35,0,35,0,1,,,,,,,,
,,"[""circle"",""red"",""vert"",""up"",[-150,0],[150,0]]",circle,red,vert,up,"[-150,0]","[150,0]",left,0,,,,,,001,2025-03-10_22h19.04.361,SL_base,2021.2.3,Win32,161.2903226,0.5228,,,36,0,36,0,1,,,,,,,,
,,"[""circle"",""no_dis"",""vert"",""up"",[99999,99999],[150,0]]",circle,no_dis,vert,up,"[99999,99999]","[150,0]",left,0,,,,,,001,2025-03-10_22h19.04.361,SL_base,2021.2.3,Win32,161.2903226,1.6005,,,37,0,37,0,1,,,,,,,,
,,"[""diamond"",""green"",""vert"",""up"",[106,-106],[-106,106]]",diamond,green,vert,up,"[106,-106]","[-106,106]",left,0,,,,,,001,2025-03-10_22h19.04.361,SL_base,2021.2.3,Win32,161.2903226,0.8122,,,38,0,38,0,1,,,,,,,,
,,"[""diamond"",""red"",""vert"",""up"",[106,106],[106,-106]]",diamond,red,vert,up,"[106,106]","[106,-106]",left,0,,,,,,001,2025-03-10_22h19.04.361,SL_base,2021.2.3,Win32,161.2903226,1.4726,,,39,0,39,0,1,,,,,,,,
,,"[""diamond"",""no_dis"",""hori"",""left"",[99999,99999],[-106,-106]]",diamond,no_dis,hori,left,"[99999,99999]","[-106,-106]",,0,,,,,,001,2025-03-10_22h19.04.361,SL_base,2021.2.3,Win32,161.2903226,,,,40,0,40,0,1,,,,,,,,
,,"[""diamond"",""green"",""hori"",""left"",[0,-150],[0,150]]",diamond,green,hori,left,"[0,-150]","[0,150]",left,1,,,,,,001,2025-03-10_22h19.04.361,SL_base,2021.2.3,Win32,161.2903226,2.7691,,,41,0,41,0,1,,,,,,,,
,,"[""diamond"",""red"",""vert"",""up"",[106,-106],[0,150]]",diamond,red,vert,up,"[106,-106]","[0,150]",up,1,,,,,,001,2025-03-10_22h19.04.361,SL_base,2021.2.3,Win32,161.2903226,1.102,,,42,0,42,0,1,,,,,,,,
,,"[""circle"",""green"",""vert"",""up"",[106,-106],[106,106]]",circle,green,vert,up,"[106,-106]","[106,106]",up,1,,,,,,001,2025-03-10_22h19.04.361,SL_base,2021.2.3,Win32,161.2903226,1.3225,,,43,0,43,0,1,,,,,,,,
,,"[""diamond"",""red"",""vert"",""up"",[0,150],[106,106]]",diamond,red,vert,up,"[0,150]","[106,106]",left,0,,,,,,001,2025-03-10_22h19.04.361,SL_base,2021.2.3,Win32,161.2903226,2.4508,,,44,0,44,0,1,,,,,,,,
,,"[""diamond"",""red"",""vert"",""up"",[106,-106],[-106,106]]",diamond,red,vert,up,"[106,-106]","[-106,106]",up,1,,,,,,001,2025-03-10_22h19.04.361,SL_base,2021.2.3,Win32,161.2903226,1.546,,,45,0,45,0,1,,,,,,,,
,,"[""diamond"",""green"",""vert"",""up"",[106,-106],[150,0]]",diamond,green,vert,up,"[106,-106]","[150,0]",up,1,,,,,,001,2025-03-10_22h19.04.361,SL_base,2021.2.3,Win32,161.2903226,0.9714,,,46,0,46,0,1,,,,,,,,
,,"[""diamond"",""no_dis"",""vert"",""up"",[99999,99999],[0,-150]]",diamond,no_dis,vert,up,"[99999,99999]","[0,-150]",up,1,,,,,,001,2025-03-10_22h19.04.361,SL_base,2021.2.3,Win32,161.2903226,1.3154,,,47,0,47,0,1,,,,,,,,
,,"[""diamond"",""no_dis"",""vert"",""up"",[99999,99999],[0,-150]]",diamond,no_dis,vert,up,"[99999,99999]","[0,-150]",up,1,,,,,,001,2025-03-10_22h19.04.361,SL_base,2021.2.3,Win32,161.2903226,1.2179,,,48,0,48,0,1,,,,,,,,
,,"[""circle"",""red"",""vert"",""up"",[106,-106],[-106,-106]]",circle,red,vert,up,"[106,-106]","[-106,-106]",up,1,,,,,,001,2025-03-10_22h19.04.361,SL_base,2021.2.3,Win32,161.2903226,1.7643,,,49,0,49,0,1,,,,,,,,
,,"[""diamond"",""green"",""vert"",""up"",[-106,106],[106,-106]]",diamond,green,vert,up,"[-106,106]","[106,-106]",up,1,,,,,,001,2025-03-10_22h19.04.361,SL_base,2021.2.3,Win32,161.2903226,0.9937,,,50,0,50,0,1,,,,,,,,
,,"[""circle"",""red"",""hori"",""left"",[-106,106],[-150,0]]",circle,red,hori,left,"[-106,106]","[-150,0]",left,1,,,,,,001,2025-03-10_22h19.04.361,SL_base,2021.2.3,Win32,161.2903226,1.0012,,,51,0,51,0,1,,,,,,,,
,,"[""diamond"",""green"",""hori"",""left"",[106,-106],[106,106]]",diamond,green,hori,left,"[106,-106]","[106,106]",left,1,,,,,,001,2025-03-10_22h19.04.361,SL_base,2021.2.3,Win32,161.2903226,1.3944,,,52,0,52,0,1,,,,,,,,
,,"[""circle"",""red"",""vert"",""up"",[-106,-106],[106,106]]",circle,red,vert,up,"[-106,-106]","[106,106]",up,1,,,,,,001,2025-03-10_22h19.04.361,SL_base,2021.2.3,Win32,161.2903226,0.8573,,,53,0,53,0,1,,,,,,,,
,,"[""circle"",""green"",""vert"",""up"",[-106,-106],[-106,106]]",circle,green,vert,up,"[-106,-106]","[-106,106]",up,1,,,,,,001,2025-03-10_22h19.04.361,SL_base,2021.2.3,Win32,161.2903226,1.1366,,,54,0,54,0,1,,,,,,,,
,,"[""diamond"",""no_dis"",""vert"",""up"",[99999,99999],[0,-150]]",diamond,no_dis,vert,up,"[99999,99999]","[0,-150]",up,1,,,,,,001,2025-03-10_22h19.04.361,SL_base,2021.2.3,Win32,161.2903226,0.7697,,,55,0,55,0,1,,,,,,,,
,,"[""diamond"",""green"",""vert"",""up"",[150,0],[-106,-106]]",diamond,green,vert,up,"[150,0]","[-106,-106]",up,1,,,,,,001,2025-03-10_22h19.04.361,SL_base,2021.2.3,Win32,161.2903226,1.0566,,,56,0,56,0,1,,,,,,,,
,,"[""circle"",""green"",""hori"",""left"",[0,-150],[106,-106]]",circle,green,hori,left,"[0,-150]","[106,-106]",up,0,,,,,,001,2025-03-10_22h19.04.361,SL_base,2021.2.3,Win32,161.2903226,1.9955,,,57,0,57,0,1,,,,,,,,
,,"[""circle"",""green"",""vert"",""up"",[-150,0],[0,150]]",circle,green,vert,up,"[-150,0]","[0,150]",up,1,,,,,,001,2025-03-10_22h19.04.361,SL_base,2021.2.3,Win32,161.2903226,0.903,,,58,0,58,0,1,,,,,,,,
,,"[""circle"",""red"",""hori"",""left"",[106,-106],[0,-150]]",circle,red,hori,left,"[106,-106]","[0,-150]",left,1,,,,,,001,2025-03-10_22h19.04.361,SL_base,2021.2.3,Win32,161.2903226,0.9154,,,59,0,59,0,1,,,,,,,,
,,"[""diamond"",""green"",""hori"",""left"",[-150,0],[106,-106]]",diamond,green,hori,left,"[-150,0]","[106,-106]",left,1,,,,,,001,2025-03-10_22h19.04.361,SL_base,2021.2.3,Win32,161.2903226,1.6868,,,60,0,60,0,1,,,,,,,,
,,"[""diamond"",""green"",""vert"",""up"",[0,150],[-150,0]]",diamond,green,vert,up,"[0,150]","[-150,0]",up,1,,,,,,001,2025-03-10_22h19.04.361,SL_base,2021.2.3,Win32,161.2903226,1.7284,,,61,0,61,0,1,,,,,,,,
,,"[""circle"",""red"",""hori"",""left"",[106,106],[-106,-106]]",circle,red,hori,left,"[106,106]","[-106,-106]",left,1,,,,,,001,2025-03-10_22h19.04.361,SL_base,2021.2.3,Win32,161.2903226,1.0185,,,62,0,62,0,1,,,,,,,,
,,"[""circle"",""no_dis"",""vert"",""up"",[99999,99999],[150,0]]",circle,no_dis,vert,up,"[99999,99999]","[150,0]",up,1,,,,,,001,2025-03-10_22h19.04.361,SL_base,2021.2.3,Win32,161.2903226,1.4004,,,63,0,63,0,1,,,,,,,,
,,"[""diamond"",""red"",""hori"",""left"",[-106,-106],[0,-150]]",diamond,red,hori,left,"[-106,-106]","[0,-150]",left,1,,,,,,001,2025-03-10_22h19.04.361,SL_base,2021.2.3,Win32,161.2903226,1.0354,,,64,0,64,0,1,,,,,,,,
,,"[""circle"",""red"",""vert"",""up"",[106,-106],[0,150]]",circle,red,vert,up,"[106,-106]","[0,150]",up,1,,,,,,001,2025-03-10_22h19.04.361,SL_base,2021.2.3,Win32,161.2903226,1.34,,,65,0,65,0,1,,,,,,,,
,,"[""circle"",""green"",""hori"",""left"",[0,-150],[106,-106]]",circle,green,hori,left,"[0,-150]","[106,-106]",left,1,,,,,,001,2025-03-10_22h19.04.361,SL_base,2021.2.3,Win32,161.2903226,0.9339,,,66,0,66,0,1,,,,,,,,
,,"[""circle"",""red"",""hori"",""left"",[0,150],[0,-150]]",circle,red,hori,left,"[0,150]","[0,-150]",left,1,,,,,,001,2025-03-10_22h19.04.361,SL_base,2021.2.3,Win32,161.2903226,1.2549,,,67,0,67,0,1,,,,,,,,
,,"[""diamond"",""red"",""vert"",""up"",[106,106],[-106,106]]",diamond,red,vert,up,"[106,106]","[-106,106]",up,1,,,,,,001,2025-03-10_22h19.04.361,SL_base,2021.2.3,Win32,161.2903226,1.1233,,,68,0,68,0,1,,,,,,,,
,,"[""circle"",""no_dis"",""hori"",""left"",[99999,99999],[0,150]]",circle,no_dis,hori,left,"[99999,99999]","[0,150]",left,1,,,,,,001,2025-03-10_22h19.04.361,SL_base,2021.2.3,Win32,161.2903226,1.6427,,,69,0,69,0,1,,,,,,,,
,,"[""diamond"",""green"",""hori"",""left"",[106,-106],[0,-150]]",diamond,green,hori,left,"[106,-106]","[0,-150]",,0,,,,,,001,2025-03-10_22h19.04.361,SL_base,2021.2.3,Win32,161.2903226,,,,70,0,70,0,1,,,,,,,,
,,"[""circle"",""green"",""hori"",""left"",[0,150],[0,-150]]",circle,green,hori,left,"[0,150]","[0,-150]",left,1,,,,,,001,2025-03-10_22h19.04.361,SL_base,2021.2.3,Win32,161.2903226,0.7336,,,71,0,71,0,1,,,,,,,,
,,"[""diamond"",""no_dis"",""hori"",""left"",[99999,99999],[-106,106]]",diamond,no_dis,hori,left,"[99999,99999]","[-106,106]",left,1,,,,,,001,2025-03-10_22h19.04.361,SL_base,2021.2.3,Win32,161.2903226,1.0392,,,72,0,72,0,1,,,,,,,,
,,"[""diamond"",""no_dis"",""vert"",""up"",[99999,99999],[106,-106]]",diamond,no_dis,vert,up,"[99999,99999]","[106,-106]",up,1,,,,,,001,2025-03-10_22h19.04.361,SL_base,2021.2.3,Win32,161.2903226,1.1039,,,73,0,73,0,1,,,,,,,,
,,"[""circle"",""red"",""vert"",""up"",[-106,-106],[-106,106]]",circle,red,vert,up,"[-106,-106]","[-106,106]",left,0,,,,,,001,2025-03-10_22h19.04.361,SL_base,2021.2.3,Win32,161.2903226,0.0825,,,74,0,74,0,1,,,,,,,,
,,"[""circle"",""no_dis"",""hori"",""left"",[99999,99999],[-150,0]]",circle,no_dis,hori,left,"[99999,99999]","[-150,0]",left,1,,,,,,001,2025-03-10_22h19.04.361,SL_base,2021.2.3,Win32,161.2903226,0.9869,,,75,0,75,0,1,,,,,,,,
,,"[""diamond"",""red"",""hori"",""left"",[106,-106],[150,0]]",diamond,red,hori,left,"[106,-106]","[150,0]",left,1,,,,,,001,2025-03-10_22h19.04.361,SL_base,2021.2.3,Win32,161.2903226,1.6568,,,76,0,76,0,1,,,,,,,,
,,"[""diamond"",""green"",""vert"",""up"",[-106,106],[106,-106]]",diamond,green,vert,up,"[-106,106]","[106,-106]",left,0,,,,,,001,2025-03-10_22h19.04.361,SL_base,2021.2.3,Win32,161.2903226,1.3893,,,77,0,77,0,1,,,,,,,,
,,"[""diamond"",""no_dis"",""vert"",""up"",[99999,99999],[-106,-106]]",diamond,no_dis,vert,up,"[99999,99999]","[-106,-106]",left,0,,,,,,001,2025-03-10_22h19.04.361,SL_base,2021.2.3,Win32,161.2903226,1.4601,,,78,0,78,0,1,,,,,,,,
,,"[""circle"",""no_dis"",""hori"",""left"",[99999,99999],[106,106]]",circle,no_dis,hori,left,"[99999,99999]","[106,106]",left,1,,,,,,001,2025-03-10_22h19.04.361,SL_base,2021.2.3,Win32,161.2903226,0.0423,,,79,0,79,0,1,,,,,,,,
,,"[""circle"",""red"",""vert"",""up"",[106,-106],[-106,-106]]",circle,red,vert,up,"[106,-106]","[-106,-106]",left,0,,,,,,001,2025-03-10_22h19.04.361,SL_base,2021.2.3,Win32,161.2903226,0.7578,,,80,0,80,0,1,,,,,,,,
,,"[""diamond"",""no_dis"",""hori"",""left"",[99999,99999],[-106,106]]",diamond,no_dis,hori,left,"[99999,99999]","[-106,106]",left,1,,,,,,001,2025-03-10_22h19.04.361,SL_base,2021.2.3,Win32,161.2903226,0.1216,,,81,0,81,0,1,,,,,,,,
,,"[""diamond"",""no_dis"",""hori"",""left"",[99999,99999],[-150,0]]",diamond,no_dis,hori,left,"[99999,99999]","[-150,0]",left,1,,,,,,001,2025-03-10_22h19.04.361,SL_base,2021.2.3,Win32,161.2903226,1.0667,,,82,0,82,0,1,,,,,,,,
,,"[""circle"",""green"",""hori"",""left"",[106,-106],[0,-150]]",circle,green,hori,left,"[106,-106]","[0,-150]",left,1,,,,,,001,2025-03-10_22h19.04.361,SL_base,2021.2.3,Win32,161.2903226,0.048,,,83,0,83,0,1,,,,,,,,
,,"[""circle"",""green"",""vert"",""up"",[106,-106],[106,106]]",circle,green,vert,up,"[106,-106]","[106,106]",left,0,,,,,,001,2025-03-10_22h19.04.361,SL_base,2021.2.3,Win32,161.2903226,0.0247,,,84,0,84,0,1,,,,,,,,
,,"[""diamond"",""green"",""vert"",""up"",[106,-106],[106,106]]",diamond,green,vert,up,"[106,-106]","[106,106]",left,0,,,,,,001,2025-03-10_22h19.04.361,SL_base,2021.2.3,Win32,161.2903226,0.1091,,,85,0,85,0,1,,,,,,,,
,,"[""circle"",""no_dis"",""hori"",""left"",[99999,99999],[106,-106]]",circle,no_dis,hori,left,"[99999,99999]","[106,-106]",left,1,,,,,,001,2025-03-10_22h19.04.361,SL_base,2021.2.3,Win32,161.2903226,0.2851,,,86,0,86,0,1,,,,,,,,
,,"[""circle"",""green"",""vert"",""up"",[150,0],[106,106]]",circle,green,vert,up,"[150,0]","[106,106]",left,0,,,,,,001,2025-03-10_22h19.04.361,SL_base,2021.2.3,Win32,161.2903226,0.9459,,,87,0,87,0,1,,,,,,,,
,,"[""circle"",""red"",""hori"",""left"",[106,-106],[-106,106]]",circle,red,hori,left,"[106,-106]","[-106,106]",left,1,,,,,,001,2025-03-10_22h19.04.361,SL_base,2021.2.3,Win32,161.2903226,1.7396,,,88,0,88,0,1,,,,,,,,
,,"[""circle"",""no_dis"",""vert"",""up"",[99999,99999],[-106,-106]]",circle,no_dis,vert,up,"[99999,99999]","[-106,-106]",left,0,,,,,,001,2025-03-10_22h19.04.361,SL_base,2021.2.3,Win32,161.2903226,0.2729,,,89,0,89,0,1,,,,,,,,
