﻿key_resp.keys,key_resp.rt,trial_para,tar_shape,dis_color_condi,tar_line,cor_resp,dis_loc,tar_loc,resp.keys,resp.corr,trials.thisRepN,trials.thisTrialN,trials.thisN,trials.thisIndex,trials.ran,participant,date,expName,psychopyVersion,OS,frameRate,resp.rt,key_resp_2.keys,key_resp_2.rt,trials_2.thisRepN,trials_2.thisTrialN,trials_2.thisN,trials_2.thisIndex,trials_2.ran,block_num,key_resp_3.keys,key_resp_3.rt,trials_3.thisRepN,trials_3.thisTrialN,trials_3.thisN,trials_3.thisIndex,trials_3.ran
space,45.6058,"[""diamond"",""red"",""hori"",""left"",[0,150],[-106,106]]",diamond,red,hori,left,"[0,150]","[-106,106]",,0,0,0,0,0,1,001,2025-03-11_12h31.12.779,SL_base,2021.2.3,Win32,60.24096386,,,,,,,,,,,,,,,,
,,"[""circle"",""green"",""vert"",""up"",[150,0],[-150,0]]",circle,green,vert,up,"[150,0]","[-150,0]",,0,1,0,1,0,1,001,2025-03-11_12h31.12.779,SL_base,2021.2.3,Win32,60.24096386,,,,,,,,,,,,,,,,
,,"[""circle"",""no_dis"",""vert"",""up"",[99999,99999],[-106,-106]]",circle,no_dis,vert,up,"[99999,99999]","[-106,-106]",,0,2,0,2,0,1,001,2025-03-11_12h31.12.779,SL_base,2021.2.3,Win32,60.24096386,,,,,,,,,,,,,,,,
,,"[""circle"",""red"",""vert"",""up"",[-150,0],[-106,-106]]",circle,red,vert,up,"[-150,0]","[-106,-106]",,0,3,0,3,0,1,001,2025-03-11_12h31.12.779,SL_base,2021.2.3,Win32,60.24096386,,,,,,,,,,,,,,,,
,,"[""circle"",""green"",""hori"",""left"",[106,106],[0,-150]]",circle,green,hori,left,"[106,106]","[0,-150]",up,0,4,0,4,0,1,001,2025-03-11_12h31.12.779,SL_base,2021.2.3,Win32,60.24096386,1.3697,,,,,,,,,,,,,,,
,,"[""circle"",""green"",""hori"",""left"",[-106,-106],[0,-150]]",circle,green,hori,left,"[-106,-106]","[0,-150]",up,0,5,0,5,0,1,001,2025-03-11_12h31.12.779,SL_base,2021.2.3,Win32,60.24096386,1.2558,,,,,,,,,,,,,,,
,,"[""circle"",""red"",""vert"",""up"",[-106,106],[106,106]]",circle,red,vert,up,"[-106,106]","[106,106]",,0,6,0,6,0,1,001,2025-03-11_12h31.12.779,SL_base,2021.2.3,Win32,60.24096386,,,,,,,,,,,,,,,,
,,"[""circle"",""red"",""hori"",""left"",[0,150],[150,0]]",circle,red,hori,left,"[0,150]","[150,0]",,0,7,0,7,0,1,001,2025-03-11_12h31.12.779,SL_base,2021.2.3,Win32,60.24096386,,,,,,,,,,,,,,,,
,,"[""diamond"",""red"",""hori"",""left"",[0,-150],[106,-106]]",diamond,red,hori,left,"[0,-150]","[106,-106]",left,1,8,0,8,0,1,001,2025-03-11_12h31.12.779,SL_base,2021.2.3,Win32,60.24096386,0.9897,,,,,,,,,,,,,,,
,,"[""circle"",""red"",""hori"",""left"",[0,150],[-106,-106]]",circle,red,hori,left,"[0,150]","[-106,-106]",left,1,9,0,9,0,1,001,2025-03-11_12h31.12.779,SL_base,2021.2.3,Win32,60.24096386,2.085,,,,,,,,,,,,,,,
,,"[""diamond"",""red"",""hori"",""left"",[0,150],[-106,106]]",diamond,red,hori,left,"[0,150]","[-106,106]",,0,,,,,,001,2025-03-11_12h31.12.779,SL_base,2021.2.3,Win32,60.24096386,,space,23.2854,0,0,0,0,1,,,,,,,,
,,"[""circle"",""green"",""vert"",""up"",[150,0],[-150,0]]",circle,green,vert,up,"[150,0]","[-150,0]",up,1,,,,,,001,2025-03-11_12h31.12.779,SL_base,2021.2.3,Win32,60.24096386,1.4847,,,1,0,1,0,1,,,,,,,,
,,"[""circle"",""no_dis"",""vert"",""up"",[99999,99999],[-106,-106]]",circle,no_dis,vert,up,"[99999,99999]","[-106,-106]",left,0,,,,,,001,2025-03-11_12h31.12.779,SL_base,2021.2.3,Win32,60.24096386,1.8897,,,2,0,2,0,1,,,,,,,,
,,"[""circle"",""red"",""vert"",""up"",[-150,0],[-106,-106]]",circle,red,vert,up,"[-150,0]","[-106,-106]",up,1,,,,,,001,2025-03-11_12h31.12.779,SL_base,2021.2.3,Win32,60.24096386,2.1275,,,3,0,3,0,1,,,,,,,,
,,"[""circle"",""green"",""hori"",""left"",[106,106],[0,-150]]",circle,green,hori,left,"[106,106]","[0,-150]",left,1,,,,,,001,2025-03-11_12h31.12.779,SL_base,2021.2.3,Win32,60.24096386,1.9337,,,4,0,4,0,1,,,,,,,,
,,"[""circle"",""green"",""hori"",""left"",[-106,-106],[0,-150]]",circle,green,hori,left,"[-106,-106]","[0,-150]",up,0,,,,,,001,2025-03-11_12h31.12.779,SL_base,2021.2.3,Win32,60.24096386,1.7101,,,5,0,5,0,1,,,,,,,,
,,"[""circle"",""red"",""vert"",""up"",[-106,106],[106,106]]",circle,red,vert,up,"[-106,106]","[106,106]",,0,,,,,,001,2025-03-11_12h31.12.779,SL_base,2021.2.3,Win32,60.24096386,,,,6,0,6,0,1,,,,,,,,
,,"[""circle"",""red"",""hori"",""left"",[0,150],[150,0]]",circle,red,hori,left,"[0,150]","[150,0]",left,1,,,,,,001,2025-03-11_12h31.12.779,SL_base,2021.2.3,Win32,60.24096386,0.6755,,,7,0,7,0,1,,,,,,,,
,,"[""diamond"",""red"",""hori"",""left"",[0,-150],[106,-106]]",diamond,red,hori,left,"[0,-150]","[106,-106]",up,0,,,,,,001,2025-03-11_12h31.12.779,SL_base,2021.2.3,Win32,60.24096386,0.7245,,,8,0,8,0,1,,,,,,,,
,,"[""circle"",""red"",""hori"",""left"",[0,150],[-106,-106]]",circle,red,hori,left,"[0,150]","[-106,-106]",left,1,,,,,,001,2025-03-11_12h31.12.779,SL_base,2021.2.3,Win32,60.24096386,1.1782,,,9,0,9,0,1,,,,,,,,
,,"[""circle"",""red"",""vert"",""up"",[0,150],[150,0]]",circle,red,vert,up,"[0,150]","[150,0]",left,0,,,,,,001,2025-03-11_12h31.12.779,SL_base,2021.2.3,Win32,60.24096386,0.9171,,,10,0,10,0,1,,,,,,,,
,,"[""diamond"",""green"",""hori"",""left"",[150,0],[-150,0]]",diamond,green,hori,left,"[150,0]","[-150,0]",up,0,,,,,,001,2025-03-11_12h31.12.779,SL_base,2021.2.3,Win32,60.24096386,0.6693,,,11,0,11,0,1,,,,,,,,
,,"[""circle"",""red"",""hori"",""left"",[106,-106],[-150,0]]",circle,red,hori,left,"[106,-106]","[-150,0]",left,1,,,,,,001,2025-03-11_12h31.12.779,SL_base,2021.2.3,Win32,60.24096386,1.8352,,,12,0,12,0,1,,,,,,,,
,,"[""diamond"",""red"",""vert"",""up"",[0,-150],[106,-106]]",diamond,red,vert,up,"[0,-150]","[106,-106]",up,1,,,,,,001,2025-03-11_12h31.12.779,SL_base,2021.2.3,Win32,60.24096386,1.3757,,,13,0,13,0,1,,,,,,,,
,,"[""circle"",""no_dis"",""vert"",""up"",[99999,99999],[-106,106]]",circle,no_dis,vert,up,"[99999,99999]","[-106,106]",up,1,,,,,,001,2025-03-11_12h31.12.779,SL_base,2021.2.3,Win32,60.24096386,1.3174,,,14,0,14,0,1,,,,,,,,
,,"[""circle"",""no_dis"",""vert"",""up"",[99999,99999],[0,-150]]",circle,no_dis,vert,up,"[99999,99999]","[0,-150]",left,0,,,,,,001,2025-03-11_12h31.12.779,SL_base,2021.2.3,Win32,60.24096386,1.1172,,,15,0,15,0,1,,,,,,,,
,,"[""circle"",""green"",""vert"",""up"",[-150,0],[0,150]]",circle,green,vert,up,"[-150,0]","[0,150]",up,1,,,,,,001,2025-03-11_12h31.12.779,SL_base,2021.2.3,Win32,60.24096386,1.2273,,,16,0,16,0,1,,,,,,,,
,,"[""diamond"",""green"",""vert"",""up"",[-106,106],[0,-150]]",diamond,green,vert,up,"[-106,106]","[0,-150]",left,0,,,,,,001,2025-03-11_12h31.12.779,SL_base,2021.2.3,Win32,60.24096386,0.8578,,,17,0,17,0,1,,,,,,,,
,,"[""diamond"",""red"",""vert"",""up"",[-150,0],[0,-150]]",diamond,red,vert,up,"[-150,0]","[0,-150]",left,0,,,,,,001,2025-03-11_12h31.12.779,SL_base,2021.2.3,Win32,60.24096386,1.4049,,,18,0,18,0,1,,,,,,,,
,,"[""diamond"",""green"",""hori"",""left"",[-150,0],[0,150]]",diamond,green,hori,left,"[-150,0]","[0,150]",up,0,,,,,,001,2025-03-11_12h31.12.779,SL_base,2021.2.3,Win32,60.24096386,0.9564,,,19,0,19,0,1,,,,,,,,
,,"[""circle"",""green"",""hori"",""left"",[0,150],[0,-150]]",circle,green,hori,left,"[0,150]","[0,-150]",left,1,,,,,,001,2025-03-11_12h31.12.779,SL_base,2021.2.3,Win32,60.24096386,1.1827,,,20,0,20,0,1,,,,,,,,
,,"[""diamond"",""no_dis"",""vert"",""up"",[99999,99999],[0,-150]]",diamond,no_dis,vert,up,"[99999,99999]","[0,-150]",up,1,,,,,,001,2025-03-11_12h31.12.779,SL_base,2021.2.3,Win32,60.24096386,1.7713,,,21,0,21,0,1,,,,,,,,
,,"[""circle"",""no_dis"",""hori"",""left"",[99999,99999],[0,150]]",circle,no_dis,hori,left,"[99999,99999]","[0,150]",left,1,,,,,,001,2025-03-11_12h31.12.779,SL_base,2021.2.3,Win32,60.24096386,1.6343,,,22,0,22,0,1,,,,,,,,
,,"[""diamond"",""no_dis"",""hori"",""left"",[99999,99999],[-150,0]]",diamond,no_dis,hori,left,"[99999,99999]","[-150,0]",left,1,,,,,,001,2025-03-11_12h31.12.779,SL_base,2021.2.3,Win32,60.24096386,1.4861,,,23,0,23,0,1,,,,,,,,
,,"[""circle"",""red"",""hori"",""left"",[0,-150],[-106,-106]]",circle,red,hori,left,"[0,-150]","[-106,-106]",left,1,,,,,,001,2025-03-11_12h31.12.779,SL_base,2021.2.3,Win32,60.24096386,1.168,,,24,0,24,0,1,,,,,,,,
,,"[""circle"",""red"",""vert"",""up"",[106,106],[106,-106]]",circle,red,vert,up,"[106,106]","[106,-106]",up,1,,,,,,001,2025-03-11_12h31.12.779,SL_base,2021.2.3,Win32,60.24096386,2.5007,,,25,0,25,0,1,,,,,,,,
,,"[""diamond"",""red"",""vert"",""up"",[106,106],[150,0]]",diamond,red,vert,up,"[106,106]","[150,0]",left,0,,,,,,001,2025-03-11_12h31.12.779,SL_base,2021.2.3,Win32,60.24096386,1.8048,,,26,0,26,0,1,,,,,,,,
,,"[""diamond"",""green"",""vert"",""up"",[-106,106],[106,106]]",diamond,green,vert,up,"[-106,106]","[106,106]",up,1,,,,,,001,2025-03-11_12h31.12.779,SL_base,2021.2.3,Win32,60.24096386,1.6218,,,27,0,27,0,1,,,,,,,,
,,"[""circle"",""red"",""hori"",""left"",[-106,-106],[0,-150]]",circle,red,hori,left,"[-106,-106]","[0,-150]",left,1,,,,,,001,2025-03-11_12h31.12.779,SL_base,2021.2.3,Win32,60.24096386,1.8021,,,28,0,28,0,1,,,,,,,,
,,"[""diamond"",""no_dis"",""hori"",""left"",[99999,99999],[0,150]]",diamond,no_dis,hori,left,"[99999,99999]","[0,150]",left,1,,,,,,001,2025-03-11_12h31.12.779,SL_base,2021.2.3,Win32,60.24096386,1.3697,,,29,0,29,0,1,,,,,,,,
,,"[""circle"",""red"",""vert"",""up"",[0,150],[106,-106]]",circle,red,vert,up,"[0,150]","[106,-106]",left,0,,,,,,001,2025-03-11_12h31.12.779,SL_base,2021.2.3,Win32,60.24096386,1.7046,,,30,0,30,0,1,,,,,,,,
,,"[""circle"",""green"",""hori"",""left"",[-150,0],[0,-150]]",circle,green,hori,left,"[-150,0]","[0,-150]",up,0,,,,,,001,2025-03-11_12h31.12.779,SL_base,2021.2.3,Win32,60.24096386,2.3146,,,31,0,31,0,1,,,,,,,,
,,"[""circle"",""green"",""vert"",""up"",[150,0],[106,106]]",circle,green,vert,up,"[150,0]","[106,106]",left,0,,,,,,001,2025-03-11_12h31.12.779,SL_base,2021.2.3,Win32,60.24096386,2.0087,,,32,0,32,0,1,,,,,,,,
,,"[""circle"",""green"",""vert"",""up"",[0,150],[-150,0]]",circle,green,vert,up,"[0,150]","[-150,0]",left,0,,,,,,001,2025-03-11_12h31.12.779,SL_base,2021.2.3,Win32,60.24096386,1.8182,,,33,0,33,0,1,,,,,,,,
,,"[""circle"",""red"",""hori"",""left"",[0,-150],[0,150]]",circle,red,hori,left,"[0,-150]","[0,150]",,0,,,,,,001,2025-03-11_12h31.12.779,SL_base,2021.2.3,Win32,60.24096386,,,,34,0,34,0,1,,,,,,,,
,,"[""circle"",""red"",""vert"",""up"",[150,0],[106,106]]",circle,red,vert,up,"[150,0]","[106,106]",up,1,,,,,,001,2025-03-11_12h31.12.779,SL_base,2021.2.3,Win32,60.24096386,1.7526,,,35,0,35,0,1,,,,,,,,
,,"[""diamond"",""red"",""hori"",""left"",[0,150],[-106,-106]]",diamond,red,hori,left,"[0,150]","[-106,-106]",left,1,,,,,,001,2025-03-11_12h31.12.779,SL_base,2021.2.3,Win32,60.24096386,1.4363,,,36,0,36,0,1,,,,,,,,
,,"[""diamond"",""no_dis"",""hori"",""left"",[99999,99999],[-106,-106]]",diamond,no_dis,hori,left,"[99999,99999]","[-106,-106]",left,1,,,,,,001,2025-03-11_12h31.12.779,SL_base,2021.2.3,Win32,60.24096386,1.2293,,,37,0,37,0,1,,,,,,,,
,,"[""circle"",""green"",""vert"",""up"",[106,-106],[-150,0]]",circle,green,vert,up,"[106,-106]","[-150,0]",up,1,,,,,,001,2025-03-11_12h31.12.779,SL_base,2021.2.3,Win32,60.24096386,1.8357,,,38,0,38,0,1,,,,,,,,
,,"[""circle"",""red"",""vert"",""up"",[106,-106],[0,-150]]",circle,red,vert,up,"[106,-106]","[0,-150]",up,1,,,,,,001,2025-03-11_12h31.12.779,SL_base,2021.2.3,Win32,60.24096386,2.588,,,39,0,39,0,1,,,,,,,,
,,"[""diamond"",""red"",""vert"",""up"",[106,106],[106,-106]]",diamond,red,vert,up,"[106,106]","[106,-106]",up,1,,,,,,001,2025-03-11_12h31.12.779,SL_base,2021.2.3,Win32,60.24096386,1.3201,,,40,0,40,0,1,,,,,,,,
,,"[""circle"",""no_dis"",""hori"",""left"",[99999,99999],[0,150]]",circle,no_dis,hori,left,"[99999,99999]","[0,150]",left,1,,,,,,001,2025-03-11_12h31.12.779,SL_base,2021.2.3,Win32,60.24096386,1.1836,,,41,0,41,0,1,,,,,,,,
,,"[""circle"",""green"",""vert"",""up"",[150,0],[0,-150]]",circle,green,vert,up,"[150,0]","[0,-150]",up,1,,,,,,001,2025-03-11_12h31.12.779,SL_base,2021.2.3,Win32,60.24096386,1.3292,,,42,0,42,0,1,,,,,,,,
,,"[""circle"",""green"",""vert"",""up"",[-106,-106],[-150,0]]",circle,green,vert,up,"[-106,-106]","[-150,0]",up,1,,,,,,001,2025-03-11_12h31.12.779,SL_base,2021.2.3,Win32,60.24096386,1.3883,,,43,0,43,0,1,,,,,,,,
,,"[""diamond"",""green"",""hori"",""left"",[0,-150],[106,106]]",diamond,green,hori,left,"[0,-150]","[106,106]",left,1,,,,,,001,2025-03-11_12h31.12.779,SL_base,2021.2.3,Win32,60.24096386,1.2428,,,44,0,44,0,1,,,,,,,,
,,"[""diamond"",""red"",""hori"",""left"",[106,-106],[0,-150]]",diamond,red,hori,left,"[106,-106]","[0,-150]",left,1,,,,,,001,2025-03-11_12h31.12.779,SL_base,2021.2.3,Win32,60.24096386,1.6522,,,45,0,45,0,1,,,,,,,,
,,"[""circle"",""red"",""vert"",""up"",[0,150],[-106,-106]]",circle,red,vert,up,"[0,150]","[-106,-106]",up,1,,,,,,001,2025-03-11_12h31.12.779,SL_base,2021.2.3,Win32,60.24096386,1.3139,,,46,0,46,0,1,,,,,,,,
,,"[""diamond"",""green"",""vert"",""up"",[0,150],[-150,0]]",diamond,green,vert,up,"[0,150]","[-150,0]",up,1,,,,,,001,2025-03-11_12h31.12.779,SL_base,2021.2.3,Win32,60.24096386,1.1062,,,47,0,47,0,1,,,,,,,,
,,"[""circle"",""no_dis"",""vert"",""up"",[99999,99999],[106,106]]",circle,no_dis,vert,up,"[99999,99999]","[106,106]",up,1,,,,,,001,2025-03-11_12h31.12.779,SL_base,2021.2.3,Win32,60.24096386,1.5542,,,48,0,48,0,1,,,,,,,,
,,"[""circle"",""green"",""hori"",""left"",[106,-106],[0,150]]",circle,green,hori,left,"[106,-106]","[0,150]",left,1,,,,,,001,2025-03-11_12h31.12.779,SL_base,2021.2.3,Win32,60.24096386,0.8403,,,49,0,49,0,1,,,,,,,,
,,"[""diamond"",""red"",""hori"",""left"",[0,150],[-106,106]]",diamond,red,hori,left,"[0,150]","[-106,106]",left,1,,,,,,001,2025-03-11_12h31.12.779,SL_base,2021.2.3,Win32,60.24096386,1.7224,,,50,0,50,0,1,,,,,,,,
,,"[""diamond"",""red"",""vert"",""up"",[106,106],[-106,-106]]",diamond,red,vert,up,"[106,106]","[-106,-106]",up,1,,,,,,001,2025-03-11_12h31.12.779,SL_base,2021.2.3,Win32,60.24096386,1.1343,,,51,0,51,0,1,,,,,,,,
,,"[""diamond"",""green"",""vert"",""up"",[106,-106],[-106,106]]",diamond,green,vert,up,"[106,-106]","[-106,106]",up,1,,,,,,001,2025-03-11_12h31.12.779,SL_base,2021.2.3,Win32,60.24096386,1.1679,,,52,0,52,0,1,,,,,,,,
,,"[""diamond"",""green"",""vert"",""up"",[-106,-106],[0,150]]",diamond,green,vert,up,"[-106,-106]","[0,150]",up,1,,,,,,001,2025-03-11_12h31.12.779,SL_base,2021.2.3,Win32,60.24096386,0.8004,,,53,0,53,0,1,,,,,,,,
,,"[""diamond"",""no_dis"",""hori"",""left"",[99999,99999],[106,-106]]",diamond,no_dis,hori,left,"[99999,99999]","[106,-106]",left,1,,,,,,001,2025-03-11_12h31.12.779,SL_base,2021.2.3,Win32,60.24096386,0.7923,,,54,0,54,0,1,,,,,,,,
,,"[""diamond"",""red"",""vert"",""up"",[-106,-106],[0,-150]]",diamond,red,vert,up,"[-106,-106]","[0,-150]",up,1,,,,,,001,2025-03-11_12h31.12.779,SL_base,2021.2.3,Win32,60.24096386,0.9027,,,55,0,55,0,1,,,,,,,,
,,"[""circle"",""no_dis"",""hori"",""left"",[99999,99999],[-106,-106]]",circle,no_dis,hori,left,"[99999,99999]","[-106,-106]",left,1,,,,,,001,2025-03-11_12h31.12.779,SL_base,2021.2.3,Win32,60.24096386,0.9675,,,56,0,56,0,1,,,,,,,,
,,"[""diamond"",""red"",""vert"",""up"",[0,150],[-150,0]]",diamond,red,vert,up,"[0,150]","[-150,0]",up,1,,,,,,001,2025-03-11_12h31.12.779,SL_base,2021.2.3,Win32,60.24096386,1.1341,,,57,0,57,0,1,,,,,,,,
,,"[""circle"",""no_dis"",""vert"",""up"",[99999,99999],[106,-106]]",circle,no_dis,vert,up,"[99999,99999]","[106,-106]",up,1,,,,,,001,2025-03-11_12h31.12.779,SL_base,2021.2.3,Win32,60.24096386,1.0998,,,58,0,58,0,1,,,,,,,,
,,"[""circle"",""no_dis"",""hori"",""left"",[99999,99999],[106,-106]]",circle,no_dis,hori,left,"[99999,99999]","[106,-106]",left,1,,,,,,001,2025-03-11_12h31.12.779,SL_base,2021.2.3,Win32,60.24096386,1.1679,,,59,0,59,0,1,,,,,,,,
,,"[""diamond"",""red"",""vert"",""up"",[0,150],[106,106]]",diamond,red,vert,up,"[0,150]","[106,106]",up,1,,,,,,001,2025-03-11_12h31.12.779,SL_base,2021.2.3,Win32,60.24096386,1.086,,,60,0,60,0,1,,,,,,,,
,,"[""diamond"",""red"",""hori"",""left"",[106,106],[-106,106]]",diamond,red,hori,left,"[106,106]","[-106,106]",left,1,,,,,,001,2025-03-11_12h31.12.779,SL_base,2021.2.3,Win32,60.24096386,0.9532,,,61,0,61,0,1,,,,,,,,
,,"[""diamond"",""no_dis"",""hori"",""left"",[99999,99999],[0,-150]]",diamond,no_dis,hori,left,"[99999,99999]","[0,-150]",left,1,,,,,,001,2025-03-11_12h31.12.779,SL_base,2021.2.3,Win32,60.24096386,0.8713,,,62,0,62,0,1,,,,,,,,
,,"[""circle"",""no_dis"",""hori"",""left"",[99999,99999],[106,106]]",circle,no_dis,hori,left,"[99999,99999]","[106,106]",left,1,,,,,,001,2025-03-11_12h31.12.779,SL_base,2021.2.3,Win32,60.24096386,1.3705,,,63,0,63,0,1,,,,,,,,
,,"[""diamond"",""no_dis"",""hori"",""left"",[99999,99999],[150,0]]",diamond,no_dis,hori,left,"[99999,99999]","[150,0]",left,1,,,,,,001,2025-03-11_12h31.12.779,SL_base,2021.2.3,Win32,60.24096386,1.0848,,,64,0,64,0,1,,,,,,,,
,,"[""diamond"",""no_dis"",""vert"",""up"",[99999,99999],[0,-150]]",diamond,no_dis,vert,up,"[99999,99999]","[0,-150]",up,1,,,,,,001,2025-03-11_12h31.12.779,SL_base,2021.2.3,Win32,60.24096386,0.7662,,,65,0,65,0,1,,,,,,,,
,,"[""circle"",""no_dis"",""vert"",""up"",[99999,99999],[-150,0]]",circle,no_dis,vert,up,"[99999,99999]","[-150,0]",up,1,,,,,,001,2025-03-11_12h31.12.779,SL_base,2021.2.3,Win32,60.24096386,0.9846,,,66,0,66,0,1,,,,,,,,
,,"[""circle"",""red"",""hori"",""left"",[-106,106],[0,-150]]",circle,red,hori,left,"[-106,106]","[0,-150]",left,1,,,,,,001,2025-03-11_12h31.12.779,SL_base,2021.2.3,Win32,60.24096386,0.7074,,,67,0,67,0,1,,,,,,,,
,,"[""circle"",""green"",""hori"",""left"",[0,150],[150,0]]",circle,green,hori,left,"[0,150]","[150,0]",left,1,,,,,,001,2025-03-11_12h31.12.779,SL_base,2021.2.3,Win32,60.24096386,1.2901,,,68,0,68,0,1,,,,,,,,
,,"[""diamond"",""no_dis"",""vert"",""up"",[99999,99999],[-150,0]]",diamond,no_dis,vert,up,"[99999,99999]","[-150,0]",up,1,,,,,,001,2025-03-11_12h31.12.779,SL_base,2021.2.3,Win32,60.24096386,1.2428,,,69,0,69,0,1,,,,,,,,
,,"[""circle"",""no_dis"",""hori"",""left"",[99999,99999],[-106,-106]]",circle,no_dis,hori,left,"[99999,99999]","[-106,-106]",left,1,,,,,,001,2025-03-11_12h31.12.779,SL_base,2021.2.3,Win32,60.24096386,0.8331,,,70,0,70,0,1,,,,,,,,
,,"[""diamond"",""red"",""vert"",""up"",[-150,0],[0,150]]",diamond,red,vert,up,"[-150,0]","[0,150]",left,0,,,,,,001,2025-03-11_12h31.12.779,SL_base,2021.2.3,Win32,60.24096386,0.8846,,,71,0,71,0,1,,,,,,,,
,,"[""circle"",""no_dis"",""hori"",""left"",[99999,99999],[106,-106]]",circle,no_dis,hori,left,"[99999,99999]","[106,-106]",left,1,,,,,,001,2025-03-11_12h31.12.779,SL_base,2021.2.3,Win32,60.24096386,1.3839,,,72,0,72,0,1,,,,,,,,
,,"[""diamond"",""no_dis"",""vert"",""up"",[99999,99999],[150,0]]",diamond,no_dis,vert,up,"[99999,99999]","[150,0]",up,1,,,,,,001,2025-03-11_12h31.12.779,SL_base,2021.2.3,Win32,60.24096386,1.4201,,,73,0,73,0,1,,,,,,,,
,,"[""diamond"",""red"",""hori"",""left"",[0,150],[-150,0]]",diamond,red,hori,left,"[0,150]","[-150,0]",left,1,,,,,,001,2025-03-11_12h31.12.779,SL_base,2021.2.3,Win32,60.24096386,1.0852,,,74,0,74,0,1,,,,,,,,
,,"[""diamond"",""no_dis"",""vert"",""up"",[99999,99999],[0,150]]",diamond,no_dis,vert,up,"[99999,99999]","[0,150]",up,1,,,,,,001,2025-03-11_12h31.12.779,SL_base,2021.2.3,Win32,60.24096386,1.2675,,,75,0,75,0,1,,,,,,,,
,,"[""circle"",""no_dis"",""vert"",""up"",[99999,99999],[-106,106]]",circle,no_dis,vert,up,"[99999,99999]","[-106,106]",up,1,,,,,,001,2025-03-11_12h31.12.779,SL_base,2021.2.3,Win32,60.24096386,0.8538,,,76,0,76,0,1,,,,,,,,
,,"[""diamond"",""no_dis"",""vert"",""up"",[99999,99999],[-150,0]]",diamond,no_dis,vert,up,"[99999,99999]","[-150,0]",left,0,,,,,,001,2025-03-11_12h31.12.779,SL_base,2021.2.3,Win32,60.24096386,0.8013,,,77,0,77,0,1,,,,,,,,
,,"[""diamond"",""green"",""hori"",""left"",[150,0],[-150,0]]",diamond,green,hori,left,"[150,0]","[-150,0]",left,1,,,,,,001,2025-03-11_12h31.12.779,SL_base,2021.2.3,Win32,60.24096386,0.9902,,,78,0,78,0,1,,,,,,,,
,,"[""diamond"",""no_dis"",""hori"",""left"",[99999,99999],[-106,106]]",diamond,no_dis,hori,left,"[99999,99999]","[-106,106]",up,0,,,,,,001,2025-03-11_12h31.12.779,SL_base,2021.2.3,Win32,60.24096386,2.1688,,,79,0,79,0,1,,,,,,,,
,,"[""diamond"",""no_dis"",""vert"",""up"",[99999,99999],[106,-106]]",diamond,no_dis,vert,up,"[99999,99999]","[106,-106]",up,1,,,,,,001,2025-03-11_12h31.12.779,SL_base,2021.2.3,Win32,60.24096386,0.8337,,,80,0,80,0,1,,,,,,,,
,,"[""diamond"",""green"",""hori"",""left"",[-106,106],[-106,-106]]",diamond,green,hori,left,"[-106,106]","[-106,-106]",left,1,,,,,,001,2025-03-11_12h31.12.779,SL_base,2021.2.3,Win32,60.24096386,1.0848,,,81,0,81,0,1,,,,,,,,
,,"[""circle"",""green"",""vert"",""up"",[-150,0],[106,-106]]",circle,green,vert,up,"[-150,0]","[106,-106]",up,1,,,,,,001,2025-03-11_12h31.12.779,SL_base,2021.2.3,Win32,60.24096386,1.2178,,,82,0,82,0,1,,,,,,,,
,,"[""diamond"",""green"",""hori"",""left"",[-106,106],[106,-106]]",diamond,green,hori,left,"[-106,106]","[106,-106]",left,1,,,,,,001,2025-03-11_12h31.12.779,SL_base,2021.2.3,Win32,60.24096386,0.9494,,,83,0,83,0,1,,,,,,,,
,,"[""circle"",""red"",""hori"",""left"",[0,150],[106,106]]",circle,red,hori,left,"[0,150]","[106,106]",left,1,,,,,,001,2025-03-11_12h31.12.779,SL_base,2021.2.3,Win32,60.24096386,1.2139,,,84,0,84,0,1,,,,,,,,
,,"[""diamond"",""green"",""vert"",""up"",[106,-106],[-150,0]]",diamond,green,vert,up,"[106,-106]","[-150,0]",up,1,,,,,,001,2025-03-11_12h31.12.779,SL_base,2021.2.3,Win32,60.24096386,0.8698,,,85,0,85,0,1,,,,,,,,
,,"[""circle"",""red"",""vert"",""up"",[0,150],[150,0]]",circle,red,vert,up,"[0,150]","[150,0]",up,1,,,,,,001,2025-03-11_12h31.12.779,SL_base,2021.2.3,Win32,60.24096386,1.3108,,,86,0,86,0,1,,,,,,,,
,,"[""circle"",""green"",""vert"",""up"",[150,0],[0,150]]",circle,green,vert,up,"[150,0]","[0,150]",up,1,,,,,,001,2025-03-11_12h31.12.779,SL_base,2021.2.3,Win32,60.24096386,1.4013,,,87,0,87,0,1,,,,,,,,
,,"[""circle"",""no_dis"",""vert"",""up"",[99999,99999],[106,106]]",circle,no_dis,vert,up,"[99999,99999]","[106,106]",up,1,,,,,,001,2025-03-11_12h31.12.779,SL_base,2021.2.3,Win32,60.24096386,0.6879,,,88,0,88,0,1,,,,,,,,
,,"[""circle"",""no_dis"",""hori"",""left"",[99999,99999],[0,150]]",circle,no_dis,hori,left,"[99999,99999]","[0,150]",left,1,,,,,,001,2025-03-11_12h31.12.779,SL_base,2021.2.3,Win32,60.24096386,0.7898,,,89,0,89,0,1,,,,,,,,
,,"[""circle"",""green"",""hori"",""left"",[-106,-106],[106,-106]]",circle,green,hori,left,"[-106,-106]","[106,-106]",left,1,,,,,,001,2025-03-11_12h31.12.779,SL_base,2021.2.3,Win32,60.24096386,0.698,,,90,0,90,0,1,,,,,,,,
,,"[""diamond"",""green"",""hori"",""left"",[0,-150],[-150,0]]",diamond,green,hori,left,"[0,-150]","[-150,0]",left,1,,,,,,001,2025-03-11_12h31.12.779,SL_base,2021.2.3,Win32,60.24096386,1.2223,,,91,0,91,0,1,,,,,,,,
,,"[""circle"",""red"",""vert"",""up"",[106,106],[0,150]]",circle,red,vert,up,"[106,106]","[0,150]",up,1,,,,,,001,2025-03-11_12h31.12.779,SL_base,2021.2.3,Win32,60.24096386,0.9351,,,92,0,92,0,1,,,,,,,,
,,"[""diamond"",""green"",""vert"",""up"",[0,150],[-150,0]]",diamond,green,vert,up,"[0,150]","[-150,0]",up,1,,,,,,001,2025-03-11_12h31.12.779,SL_base,2021.2.3,Win32,60.24096386,1.0498,,,93,0,93,0,1,,,,,,,,
,,"[""circle"",""no_dis"",""vert"",""up"",[99999,99999],[0,-150]]",circle,no_dis,vert,up,"[99999,99999]","[0,-150]",up,1,,,,,,001,2025-03-11_12h31.12.779,SL_base,2021.2.3,Win32,60.24096386,0.8044,,,94,0,94,0,1,,,,,,,,
,,"[""circle"",""no_dis"",""hori"",""left"",[99999,99999],[106,106]]",circle,no_dis,hori,left,"[99999,99999]","[106,106]",up,0,,,,,,001,2025-03-11_12h31.12.779,SL_base,2021.2.3,Win32,60.24096386,1.0005,,,95,0,95,0,1,,,,,,,,
,,"[""diamond"",""red"",""hori"",""left"",[0,150],[-106,106]]",diamond,red,hori,left,"[0,150]","[-106,106]",up,0,,,,,,001,2025-03-11_12h31.12.779,SL_base,2021.2.3,Win32,60.24096386,0.9886,,,96,0,96,0,1,,,,,,,,
,,"[""circle"",""green"",""vert"",""up"",[-106,-106],[0,-150]]",circle,green,vert,up,"[-106,-106]","[0,-150]",up,1,,,,,,001,2025-03-11_12h31.12.779,SL_base,2021.2.3,Win32,60.24096386,1.0838,,,97,0,97,0,1,,,,,,,,
,,"[""diamond"",""green"",""hori"",""left"",[0,150],[150,0]]",diamond,green,hori,left,"[0,150]","[150,0]",left,1,,,,,,001,2025-03-11_12h31.12.779,SL_base,2021.2.3,Win32,60.24096386,1.0773,,,98,0,98,0,1,,,,,,,,
,,"[""circle"",""green"",""hori"",""left"",[-150,0],[106,106]]",circle,green,hori,left,"[-150,0]","[106,106]",left,1,,,,,,001,2025-03-11_12h31.12.779,SL_base,2021.2.3,Win32,60.24096386,1.979,,,99,0,99,0,1,,,,,,,,
,,"[""diamond"",""no_dis"",""vert"",""up"",[99999,99999],[-106,-106]]",diamond,no_dis,vert,up,"[99999,99999]","[-106,-106]",up,1,,,,,,001,2025-03-11_12h31.12.779,SL_base,2021.2.3,Win32,60.24096386,1.1513,,,100,0,100,0,1,,,,,,,,
,,"[""circle"",""red"",""hori"",""left"",[0,150],[-150,0]]",circle,red,hori,left,"[0,150]","[-150,0]",left,1,,,,,,001,2025-03-11_12h31.12.779,SL_base,2021.2.3,Win32,60.24096386,0.8342,,,101,0,101,0,1,,,,,,,,
,,"[""circle"",""red"",""hori"",""left"",[0,-150],[150,0]]",circle,red,hori,left,"[0,-150]","[150,0]",left,1,,,,,,001,2025-03-11_12h31.12.779,SL_base,2021.2.3,Win32,60.24096386,1.0996,,,102,0,102,0,1,,,,,,,,
,,"[""diamond"",""no_dis"",""hori"",""left"",[99999,99999],[-150,0]]",diamond,no_dis,hori,left,"[99999,99999]","[-150,0]",left,1,,,,,,001,2025-03-11_12h31.12.779,SL_base,2021.2.3,Win32,60.24096386,1.2083,,,103,0,103,0,1,,,,,,,,
,,"[""diamond"",""green"",""vert"",""up"",[-106,106],[106,-106]]",diamond,green,vert,up,"[-106,106]","[106,-106]",up,1,,,,,,001,2025-03-11_12h31.12.779,SL_base,2021.2.3,Win32,60.24096386,1.055,,,104,0,104,0,1,,,,,,,,
,,"[""circle"",""no_dis"",""vert"",""up"",[99999,99999],[106,106]]",circle,no_dis,vert,up,"[99999,99999]","[106,106]",up,1,,,,,,001,2025-03-11_12h31.12.779,SL_base,2021.2.3,Win32,60.24096386,1.4349,,,105,0,105,0,1,,,,,,,,
,,"[""circle"",""green"",""hori"",""left"",[106,-106],[0,-150]]",circle,green,hori,left,"[106,-106]","[0,-150]",left,1,,,,,,001,2025-03-11_12h31.12.779,SL_base,2021.2.3,Win32,60.24096386,0.8671,,,106,0,106,0,1,,,,,,,,
,,"[""diamond"",""red"",""hori"",""left"",[0,150],[-106,-106]]",diamond,red,hori,left,"[0,150]","[-106,-106]",left,1,,,,,,001,2025-03-11_12h31.12.779,SL_base,2021.2.3,Win32,60.24096386,1.0009,,,107,0,107,0,1,,,,,,,,
,,"[""diamond"",""no_dis"",""vert"",""up"",[99999,99999],[-106,106]]",diamond,no_dis,vert,up,"[99999,99999]","[-106,106]",up,1,,,,,,001,2025-03-11_12h31.12.779,SL_base,2021.2.3,Win32,60.24096386,0.8701,,,108,0,108,0,1,,,,,,,,
,,"[""diamond"",""green"",""vert"",""up"",[-106,106],[-106,-106]]",diamond,green,vert,up,"[-106,106]","[-106,-106]",up,1,,,,,,001,2025-03-11_12h31.12.779,SL_base,2021.2.3,Win32,60.24096386,1.0362,,,109,0,109,0,1,,,,,,,,
,,"[""diamond"",""no_dis"",""hori"",""left"",[99999,99999],[150,0]]",diamond,no_dis,hori,left,"[99999,99999]","[150,0]",left,1,,,,,,001,2025-03-11_12h31.12.779,SL_base,2021.2.3,Win32,60.24096386,0.8682,,,110,0,110,0,1,,,,,,,,
,,"[""diamond"",""red"",""hori"",""left"",[0,150],[-150,0]]",diamond,red,hori,left,"[0,150]","[-150,0]",left,1,,,,,,001,2025-03-11_12h31.12.779,SL_base,2021.2.3,Win32,60.24096386,0.8503,,,111,0,111,0,1,,,,,,,,
,,"[""diamond"",""red"",""vert"",""up"",[106,106],[0,-150]]",diamond,red,vert,up,"[106,106]","[0,-150]",up,1,,,,,,001,2025-03-11_12h31.12.779,SL_base,2021.2.3,Win32,60.24096386,1.0015,,,112,0,112,0,1,,,,,,,,
,,"[""diamond"",""no_dis"",""vert"",""up"",[99999,99999],[150,0]]",diamond,no_dis,vert,up,"[99999,99999]","[150,0]",left,0,,,,,,001,2025-03-11_12h31.12.779,SL_base,2021.2.3,Win32,60.24096386,0.7174,,,113,0,113,0,1,,,,,,,,
,,"[""diamond"",""green"",""hori"",""left"",[150,0],[106,106]]",diamond,green,hori,left,"[150,0]","[106,106]",left,1,,,,,,001,2025-03-11_12h31.12.779,SL_base,2021.2.3,Win32,60.24096386,0.8529,,,114,0,114,0,1,,,,,,,,
,,"[""circle"",""no_dis"",""hori"",""left"",[99999,99999],[150,0]]",circle,no_dis,hori,left,"[99999,99999]","[150,0]",left,1,,,,,,001,2025-03-11_12h31.12.779,SL_base,2021.2.3,Win32,60.24096386,1.3891,,,115,0,115,0,1,,,,,,,,
,,"[""diamond"",""no_dis"",""hori"",""left"",[99999,99999],[-106,106]]",diamond,no_dis,hori,left,"[99999,99999]","[-106,106]",up,0,,,,,,001,2025-03-11_12h31.12.779,SL_base,2021.2.3,Win32,60.24096386,1.7511,,,116,0,116,0,1,,,,,,,,
,,"[""diamond"",""green"",""hori"",""left"",[0,-150],[-106,106]]",diamond,green,hori,left,"[0,-150]","[-106,106]",left,1,,,,,,001,2025-03-11_12h31.12.779,SL_base,2021.2.3,Win32,60.24096386,1.0094,,,117,0,117,0,1,,,,,,,,
,,"[""circle"",""green"",""hori"",""left"",[0,150],[106,-106]]",circle,green,hori,left,"[0,150]","[106,-106]",left,1,,,,,,001,2025-03-11_12h31.12.779,SL_base,2021.2.3,Win32,60.24096386,1.2178,,,118,0,118,0,1,,,,,,,,
,,"[""diamond"",""green"",""vert"",""up"",[-106,-106],[106,-106]]",diamond,green,vert,up,"[-106,-106]","[106,-106]",up,1,,,,,,001,2025-03-11_12h31.12.779,SL_base,2021.2.3,Win32,60.24096386,1.2663,,,119,0,119,0,1,,,,,,,,
,,,,,,,,,,,,,,,,001,2025-03-11_12h31.12.779,SL_base,2021.2.3,Win32,60.24096386,,,,,,,,,1,space,7.1073,0,0,0,0,1
,,"[""circle"",""red"",""hori"",""left"",[0,150],[106,106]]",circle,red,hori,left,"[0,150]","[106,106]",left,1,,,,,,001,2025-03-11_12h31.12.779,SL_base,2021.2.3,Win32,60.24096386,0.8543,,,0,0,0,0,1,,,,,,,,
,,"[""circle"",""green"",""vert"",""up"",[150,0],[106,106]]",circle,green,vert,up,"[150,0]","[106,106]",up,1,,,,,,001,2025-03-11_12h31.12.779,SL_base,2021.2.3,Win32,60.24096386,0.7514,,,1,0,1,0,1,,,,,,,,
,,"[""circle"",""green"",""vert"",""up"",[-150,0],[0,150]]",circle,green,vert,up,"[-150,0]","[0,150]",up,1,,,,,,001,2025-03-11_12h31.12.779,SL_base,2021.2.3,Win32,60.24096386,1.0426,,,2,0,2,0,1,,,,,,,,
,,"[""diamond"",""no_dis"",""hori"",""left"",[99999,99999],[150,0]]",diamond,no_dis,hori,left,"[99999,99999]","[150,0]",left,1,,,,,,001,2025-03-11_12h31.12.779,SL_base,2021.2.3,Win32,60.24096386,1.2515,,,3,0,3,0,1,,,,,,,,
,,"[""circle"",""green"",""vert"",""up"",[-150,0],[106,-106]]",circle,green,vert,up,"[-150,0]","[106,-106]",up,1,,,,,,001,2025-03-11_12h31.12.779,SL_base,2021.2.3,Win32,60.24096386,0.9516,,,4,0,4,0,1,,,,,,,,
,,"[""circle"",""no_dis"",""hori"",""left"",[99999,99999],[0,150]]",circle,no_dis,hori,left,"[99999,99999]","[0,150]",left,1,,,,,,001,2025-03-11_12h31.12.779,SL_base,2021.2.3,Win32,60.24096386,0.7847,,,5,0,5,0,1,,,,,,,,
,,"[""circle"",""green"",""hori"",""left"",[106,106],[0,-150]]",circle,green,hori,left,"[106,106]","[0,-150]",up,0,,,,,,001,2025-03-11_12h31.12.779,SL_base,2021.2.3,Win32,60.24096386,1.527,,,6,0,6,0,1,,,,,,,,
,,"[""circle"",""no_dis"",""vert"",""up"",[99999,99999],[-106,-106]]",circle,no_dis,vert,up,"[99999,99999]","[-106,-106]",up,1,,,,,,001,2025-03-11_12h31.12.779,SL_base,2021.2.3,Win32,60.24096386,1.1165,,,7,0,7,0,1,,,,,,,,
,,"[""diamond"",""no_dis"",""hori"",""left"",[99999,99999],[0,-150]]",diamond,no_dis,hori,left,"[99999,99999]","[0,-150]",up,0,,,,,,001,2025-03-11_12h31.12.779,SL_base,2021.2.3,Win32,60.24096386,1.3507,,,8,0,8,0,1,,,,,,,,
,,"[""circle"",""red"",""vert"",""up"",[150,0],[106,106]]",circle,red,vert,up,"[150,0]","[106,106]",left,0,,,,,,001,2025-03-11_12h31.12.779,SL_base,2021.2.3,Win32,60.24096386,1.8846,,,9,0,9,0,1,,,,,,,,
,,"[""circle"",""green"",""vert"",""up"",[106,-106],[-150,0]]",circle,green,vert,up,"[106,-106]","[-150,0]",up,1,,,,,,001,2025-03-11_12h31.12.779,SL_base,2021.2.3,Win32,60.24096386,0.9015,,,10,0,10,0,1,,,,,,,,
,,"[""diamond"",""red"",""vert"",""up"",[0,150],[-150,0]]",diamond,red,vert,up,"[0,150]","[-150,0]",up,1,,,,,,001,2025-03-11_12h31.12.779,SL_base,2021.2.3,Win32,60.24096386,1.4852,,,11,0,11,0,1,,,,,,,,
,,"[""diamond"",""green"",""hori"",""left"",[150,0],[-150,0]]",diamond,green,hori,left,"[150,0]","[-150,0]",left,1,,,,,,001,2025-03-11_12h31.12.779,SL_base,2021.2.3,Win32,60.24096386,1.2198,,,12,0,12,0,1,,,,,,,,
,,"[""circle"",""no_dis"",""vert"",""up"",[99999,99999],[106,106]]",circle,no_dis,vert,up,"[99999,99999]","[106,106]",up,1,,,,,,001,2025-03-11_12h31.12.779,SL_base,2021.2.3,Win32,60.24096386,1.1343,,,13,0,13,0,1,,,,,,,,
,,"[""diamond"",""red"",""hori"",""left"",[0,150],[-150,0]]",diamond,red,hori,left,"[0,150]","[-150,0]",left,1,,,,,,001,2025-03-11_12h31.12.779,SL_base,2021.2.3,Win32,60.24096386,0.8895,,,14,0,14,0,1,,,,,,,,
,,"[""diamond"",""green"",""vert"",""up"",[0,150],[-150,0]]",diamond,green,vert,up,"[0,150]","[-150,0]",up,1,,,,,,001,2025-03-11_12h31.12.779,SL_base,2021.2.3,Win32,60.24096386,0.9545,,,15,0,15,0,1,,,,,,,,
,,"[""circle"",""green"",""hori"",""left"",[0,150],[150,0]]",circle,green,hori,left,"[0,150]","[150,0]",left,1,,,,,,001,2025-03-11_12h31.12.779,SL_base,2021.2.3,Win32,60.24096386,1.0373,,,16,0,16,0,1,,,,,,,,
,,"[""diamond"",""green"",""hori"",""left"",[150,0],[-150,0]]",diamond,green,hori,left,"[150,0]","[-150,0]",left,1,,,,,,001,2025-03-11_12h31.12.779,SL_base,2021.2.3,Win32,60.24096386,1.0942,,,17,0,17,0,1,,,,,,,,
,,"[""circle"",""red"",""hori"",""left"",[0,150],[-150,0]]",circle,red,hori,left,"[0,150]","[-150,0]",left,1,,,,,,001,2025-03-11_12h31.12.779,SL_base,2021.2.3,Win32,60.24096386,1.1834,,,18,0,18,0,1,,,,,,,,
,,"[""circle"",""no_dis"",""vert"",""up"",[99999,99999],[106,106]]",circle,no_dis,vert,up,"[99999,99999]","[106,106]",up,1,,,,,,001,2025-03-11_12h31.12.779,SL_base,2021.2.3,Win32,60.24096386,1.0006,,,19,0,19,0,1,,,,,,,,
,,"[""circle"",""red"",""hori"",""left"",[0,150],[150,0]]",circle,red,hori,left,"[0,150]","[150,0]",left,1,,,,,,001,2025-03-11_12h31.12.779,SL_base,2021.2.3,Win32,60.24096386,1.7014,,,20,0,20,0,1,,,,,,,,
,,"[""diamond"",""red"",""vert"",""up"",[106,106],[-106,-106]]",diamond,red,vert,up,"[106,106]","[-106,-106]",up,1,,,,,,001,2025-03-11_12h31.12.779,SL_base,2021.2.3,Win32,60.24096386,1.1682,,,21,0,21,0,1,,,,,,,,
,,"[""circle"",""no_dis"",""vert"",""up"",[99999,99999],[-106,106]]",circle,no_dis,vert,up,"[99999,99999]","[-106,106]",up,1,,,,,,001,2025-03-11_12h31.12.779,SL_base,2021.2.3,Win32,60.24096386,1.1703,,,22,0,22,0,1,,,,,,,,
,,"[""circle"",""red"",""hori"",""left"",[-106,-106],[0,-150]]",circle,red,hori,left,"[-106,-106]","[0,-150]",left,1,,,,,,001,2025-03-11_12h31.12.779,SL_base,2021.2.3,Win32,60.24096386,1.6845,,,23,0,23,0,1,,,,,,,,
,,"[""diamond"",""no_dis"",""vert"",""up"",[99999,99999],[-106,106]]",diamond,no_dis,vert,up,"[99999,99999]","[-106,106]",up,1,,,,,,001,2025-03-11_12h31.12.779,SL_base,2021.2.3,Win32,60.24096386,1.5251,,,24,0,24,0,1,,,,,,,,
,,"[""diamond"",""green"",""vert"",""up"",[0,150],[-150,0]]",diamond,green,vert,up,"[0,150]","[-150,0]",up,1,,,,,,001,2025-03-11_12h31.12.779,SL_base,2021.2.3,Win32,60.24096386,1.2097,,,25,0,25,0,1,,,,,,,,
,,"[""diamond"",""red"",""vert"",""up"",[-150,0],[0,-150]]",diamond,red,vert,up,"[-150,0]","[0,-150]",up,1,,,,,,001,2025-03-11_12h31.12.779,SL_base,2021.2.3,Win32,60.24096386,1.1243,,,26,0,26,0,1,,,,,,,,
,,"[""diamond"",""green"",""vert"",""up"",[-106,-106],[106,-106]]",diamond,green,vert,up,"[-106,-106]","[106,-106]",up,1,,,,,,001,2025-03-11_12h31.12.779,SL_base,2021.2.3,Win32,60.24096386,0.7685,,,27,0,27,0,1,,,,,,,,
,,"[""diamond"",""no_dis"",""hori"",""left"",[99999,99999],[-106,106]]",diamond,no_dis,hori,left,"[99999,99999]","[-106,106]",left,1,,,,,,001,2025-03-11_12h31.12.779,SL_base,2021.2.3,Win32,60.24096386,1.2872,,,28,0,28,0,1,,,,,,,,
,,"[""circle"",""no_dis"",""vert"",""up"",[99999,99999],[0,-150]]",circle,no_dis,vert,up,"[99999,99999]","[0,-150]",up,1,,,,,,001,2025-03-11_12h31.12.779,SL_base,2021.2.3,Win32,60.24096386,1.5683,,,29,0,29,0,1,,,,,,,,
,,"[""diamond"",""red"",""vert"",""up"",[106,106],[150,0]]",diamond,red,vert,up,"[106,106]","[150,0]",up,1,,,,,,001,2025-03-11_12h31.12.779,SL_base,2021.2.3,Win32,60.24096386,1.7849,,,30,0,30,0,1,,,,,,,,
,,"[""diamond"",""no_dis"",""hori"",""left"",[99999,99999],[-150,0]]",diamond,no_dis,hori,left,"[99999,99999]","[-150,0]",left,1,,,,,,001,2025-03-11_12h31.12.779,SL_base,2021.2.3,Win32,60.24096386,1.0853,,,31,0,31,0,1,,,,,,,,
,,"[""diamond"",""red"",""hori"",""left"",[0,150],[-106,106]]",diamond,red,hori,left,"[0,150]","[-106,106]",left,1,,,,,,001,2025-03-11_12h31.12.779,SL_base,2021.2.3,Win32,60.24096386,1.4666,,,32,0,32,0,1,,,,,,,,
,,"[""circle"",""no_dis"",""hori"",""left"",[99999,99999],[150,0]]",circle,no_dis,hori,left,"[99999,99999]","[150,0]",left,1,,,,,,001,2025-03-11_12h31.12.779,SL_base,2021.2.3,Win32,60.24096386,1.0549,,,33,0,33,0,1,,,,,,,,
,,"[""diamond"",""no_dis"",""hori"",""left"",[99999,99999],[-106,-106]]",diamond,no_dis,hori,left,"[99999,99999]","[-106,-106]",left,1,,,,,,001,2025-03-11_12h31.12.779,SL_base,2021.2.3,Win32,60.24096386,1.2057,,,34,0,34,0,1,,,,,,,,
,,"[""circle"",""no_dis"",""hori"",""left"",[99999,99999],[0,150]]",circle,no_dis,hori,left,"[99999,99999]","[0,150]",left,1,,,,,,001,2025-03-11_12h31.12.779,SL_base,2021.2.3,Win32,60.24096386,1.6346,,,35,0,35,0,1,,,,,,,,
,,"[""diamond"",""red"",""vert"",""up"",[0,-150],[106,-106]]",diamond,red,vert,up,"[0,-150]","[106,-106]",up,1,,,,,,001,2025-03-11_12h31.12.779,SL_base,2021.2.3,Win32,60.24096386,0.9012,,,36,0,36,0,1,,,,,,,,
,,"[""diamond"",""green"",""vert"",""up"",[-106,106],[106,106]]",diamond,green,vert,up,"[-106,106]","[106,106]",up,1,,,,,,001,2025-03-11_12h31.12.779,SL_base,2021.2.3,Win32,60.24096386,1.4844,,,37,0,37,0,1,,,,,,,,
,,"[""diamond"",""red"",""hori"",""left"",[0,150],[-150,0]]",diamond,red,hori,left,"[0,150]","[-150,0]",left,1,,,,,,001,2025-03-11_12h31.12.779,SL_base,2021.2.3,Win32,60.24096386,1.7345,,,38,0,38,0,1,,,,,,,,
,,"[""circle"",""no_dis"",""vert"",""up"",[99999,99999],[-106,106]]",circle,no_dis,vert,up,"[99999,99999]","[-106,106]",up,1,,,,,,001,2025-03-11_12h31.12.779,SL_base,2021.2.3,Win32,60.24096386,1.3347,,,39,0,39,0,1,,,,,,,,
,,"[""circle"",""no_dis"",""vert"",""up"",[99999,99999],[106,106]]",circle,no_dis,vert,up,"[99999,99999]","[106,106]",up,1,,,,,,001,2025-03-11_12h31.12.779,SL_base,2021.2.3,Win32,60.24096386,1.1359,,,40,0,40,0,1,,,,,,,,
,,"[""diamond"",""red"",""hori"",""left"",[106,-106],[0,-150]]",diamond,red,hori,left,"[106,-106]","[0,-150]",left,1,,,,,,001,2025-03-11_12h31.12.779,SL_base,2021.2.3,Win32,60.24096386,1.1409,,,41,0,41,0,1,,,,,,,,
,,"[""circle"",""green"",""vert"",""up"",[-106,-106],[0,-150]]",circle,green,vert,up,"[-106,-106]","[0,-150]",up,1,,,,,,001,2025-03-11_12h31.12.779,SL_base,2021.2.3,Win32,60.24096386,1.2696,,,42,0,42,0,1,,,,,,,,
,,"[""diamond"",""no_dis"",""hori"",""left"",[99999,99999],[150,0]]",diamond,no_dis,hori,left,"[99999,99999]","[150,0]",left,1,,,,,,001,2025-03-11_12h31.12.779,SL_base,2021.2.3,Win32,60.24096386,0.8278,,,43,0,43,0,1,,,,,,,,
,,"[""diamond"",""green"",""vert"",""up"",[-106,106],[106,-106]]",diamond,green,vert,up,"[-106,106]","[106,-106]",up,1,,,,,,001,2025-03-11_12h31.12.779,SL_base,2021.2.3,Win32,60.24096386,0.9465,,,44,0,44,0,1,,,,,,,,
,,"[""diamond"",""red"",""vert"",""up"",[106,106],[106,-106]]",diamond,red,vert,up,"[106,106]","[106,-106]",up,1,,,,,,001,2025-03-11_12h31.12.779,SL_base,2021.2.3,Win32,60.24096386,0.8873,,,45,0,45,0,1,,,,,,,,
,,"[""diamond"",""green"",""hori"",""left"",[-106,106],[106,-106]]",diamond,green,hori,left,"[-106,106]","[106,-106]",left,1,,,,,,001,2025-03-11_12h31.12.779,SL_base,2021.2.3,Win32,60.24096386,0.8983,,,46,0,46,0,1,,,,,,,,
,,"[""circle"",""green"",""hori"",""left"",[-106,-106],[106,-106]]",circle,green,hori,left,"[-106,-106]","[106,-106]",left,1,,,,,,001,2025-03-11_12h31.12.779,SL_base,2021.2.3,Win32,60.24096386,1.1989,,,47,0,47,0,1,,,,,,,,
,,"[""circle"",""no_dis"",""vert"",""up"",[99999,99999],[106,-106]]",circle,no_dis,vert,up,"[99999,99999]","[106,-106]",up,1,,,,,,001,2025-03-11_12h31.12.779,SL_base,2021.2.3,Win32,60.24096386,0.8003,,,48,0,48,0,1,,,,,,,,
,,"[""diamond"",""no_dis"",""vert"",""up"",[99999,99999],[106,-106]]",diamond,no_dis,vert,up,"[99999,99999]","[106,-106]",up,1,,,,,,001,2025-03-11_12h31.12.779,SL_base,2021.2.3,Win32,60.24096386,0.6514,,,49,0,49,0,1,,,,,,,,
,,"[""circle"",""red"",""vert"",""up"",[106,106],[0,150]]",circle,red,vert,up,"[106,106]","[0,150]",up,1,,,,,,001,2025-03-11_12h31.12.779,SL_base,2021.2.3,Win32,60.24096386,1.2346,,,50,0,50,0,1,,,,,,,,
,,"[""circle"",""no_dis"",""hori"",""left"",[99999,99999],[106,-106]]",circle,no_dis,hori,left,"[99999,99999]","[106,-106]",left,1,,,,,,001,2025-03-11_12h31.12.779,SL_base,2021.2.3,Win32,60.24096386,0.6671,,,51,0,51,0,1,,,,,,,,
,,"[""circle"",""red"",""hori"",""left"",[0,-150],[150,0]]",circle,red,hori,left,"[0,-150]","[150,0]",left,1,,,,,,001,2025-03-11_12h31.12.779,SL_base,2021.2.3,Win32,60.24096386,0.9903,,,52,0,52,0,1,,,,,,,,
,,"[""diamond"",""red"",""vert"",""up"",[-106,-106],[0,-150]]",diamond,red,vert,up,"[-106,-106]","[0,-150]",up,1,,,,,,001,2025-03-11_12h31.12.779,SL_base,2021.2.3,Win32,60.24096386,1.0247,,,53,0,53,0,1,,,,,,,,
,,"[""diamond"",""no_dis"",""hori"",""left"",[99999,99999],[-106,106]]",diamond,no_dis,hori,left,"[99999,99999]","[-106,106]",left,1,,,,,,001,2025-03-11_12h31.12.779,SL_base,2021.2.3,Win32,60.24096386,0.8536,,,54,0,54,0,1,,,,,,,,
,,"[""diamond"",""green"",""vert"",""up"",[-106,-106],[0,150]]",diamond,green,vert,up,"[-106,-106]","[0,150]",up,1,,,,,,001,2025-03-11_12h31.12.779,SL_base,2021.2.3,Win32,60.24096386,1.2022,,,55,0,55,0,1,,,,,,,,
,,"[""diamond"",""no_dis"",""vert"",""up"",[99999,99999],[0,-150]]",diamond,no_dis,vert,up,"[99999,99999]","[0,-150]",up,1,,,,,,001,2025-03-11_12h31.12.779,SL_base,2021.2.3,Win32,60.24096386,1.5376,,,56,0,56,0,1,,,,,,,,
,,"[""diamond"",""no_dis"",""vert"",""up"",[99999,99999],[-106,-106]]",diamond,no_dis,vert,up,"[99999,99999]","[-106,-106]",up,1,,,,,,001,2025-03-11_12h31.12.779,SL_base,2021.2.3,Win32,60.24096386,0.9519,,,57,0,57,0,1,,,,,,,,
,,"[""diamond"",""green"",""vert"",""up"",[-106,106],[0,-150]]",diamond,green,vert,up,"[-106,106]","[0,-150]",up,1,,,,,,001,2025-03-11_12h31.12.779,SL_base,2021.2.3,Win32,60.24096386,0.7724,,,58,0,58,0,1,,,,,,,,
,,"[""circle"",""red"",""hori"",""left"",[0,-150],[-106,-106]]",circle,red,hori,left,"[0,-150]","[-106,-106]",left,1,,,,,,001,2025-03-11_12h31.12.779,SL_base,2021.2.3,Win32,60.24096386,1.4069,,,59,0,59,0,1,,,,,,,,
,,"[""diamond"",""green"",""vert"",""up"",[-106,106],[-106,-106]]",diamond,green,vert,up,"[-106,106]","[-106,-106]",up,1,,,,,,001,2025-03-11_12h31.12.779,SL_base,2021.2.3,Win32,60.24096386,1.1237,,,60,0,60,0,1,,,,,,,,
,,"[""circle"",""red"",""vert"",""up"",[0,150],[-106,-106]]",circle,red,vert,up,"[0,150]","[-106,-106]",up,1,,,,,,001,2025-03-11_12h31.12.779,SL_base,2021.2.3,Win32,60.24096386,1.4859,,,61,0,61,0,1,,,,,,,,
,,"[""circle"",""green"",""hori"",""left"",[0,150],[0,-150]]",circle,green,hori,left,"[0,150]","[0,-150]",left,1,,,,,,001,2025-03-11_12h31.12.779,SL_base,2021.2.3,Win32,60.24096386,1.2017,,,62,0,62,0,1,,,,,,,,
,,"[""circle"",""red"",""hori"",""left"",[0,150],[-106,-106]]",circle,red,hori,left,"[0,150]","[-106,-106]",left,1,,,,,,001,2025-03-11_12h31.12.779,SL_base,2021.2.3,Win32,60.24096386,1.1846,,,63,0,63,0,1,,,,,,,,
,,"[""diamond"",""no_dis"",""hori"",""left"",[99999,99999],[0,150]]",diamond,no_dis,hori,left,"[99999,99999]","[0,150]",left,1,,,,,,001,2025-03-11_12h31.12.779,SL_base,2021.2.3,Win32,60.24096386,2.0179,,,64,0,64,0,1,,,,,,,,
,,"[""diamond"",""no_dis"",""vert"",""up"",[99999,99999],[150,0]]",diamond,no_dis,vert,up,"[99999,99999]","[150,0]",up,1,,,,,,001,2025-03-11_12h31.12.779,SL_base,2021.2.3,Win32,60.24096386,1.4262,,,65,0,65,0,1,,,,,,,,
,,"[""circle"",""green"",""vert"",""up"",[0,150],[-150,0]]",circle,green,vert,up,"[0,150]","[-150,0]",up,1,,,,,,001,2025-03-11_12h31.12.779,SL_base,2021.2.3,Win32,60.24096386,1.1827,,,66,0,66,0,1,,,,,,,,
,,"[""diamond"",""no_dis"",""hori"",""left"",[99999,99999],[106,-106]]",diamond,no_dis,hori,left,"[99999,99999]","[106,-106]",left,1,,,,,,001,2025-03-11_12h31.12.779,SL_base,2021.2.3,Win32,60.24096386,0.9217,,,67,0,67,0,1,,,,,,,,
,,"[""diamond"",""no_dis"",""vert"",""up"",[99999,99999],[-150,0]]",diamond,no_dis,vert,up,"[99999,99999]","[-150,0]",up,1,,,,,,001,2025-03-11_12h31.12.779,SL_base,2021.2.3,Win32,60.24096386,1.0516,,,68,0,68,0,1,,,,,,,,
,,"[""circle"",""no_dis"",""vert"",""up"",[99999,99999],[-150,0]]",circle,no_dis,vert,up,"[99999,99999]","[-150,0]",up,1,,,,,,001,2025-03-11_12h31.12.779,SL_base,2021.2.3,Win32,60.24096386,0.8921,,,69,0,69,0,1,,,,,,,,
,,"[""circle"",""red"",""vert"",""up"",[0,150],[150,0]]",circle,red,vert,up,"[0,150]","[150,0]",up,1,,,,,,001,2025-03-11_12h31.12.779,SL_base,2021.2.3,Win32,60.24096386,1.0405,,,70,0,70,0,1,,,,,,,,
,,"[""circle"",""green"",""hori"",""left"",[0,150],[106,-106]]",circle,green,hori,left,"[0,150]","[106,-106]",left,1,,,,,,001,2025-03-11_12h31.12.779,SL_base,2021.2.3,Win32,60.24096386,0.7676,,,71,0,71,0,1,,,,,,,,
,,"[""circle"",""no_dis"",""hori"",""left"",[99999,99999],[0,150]]",circle,no_dis,hori,left,"[99999,99999]","[0,150]",left,1,,,,,,001,2025-03-11_12h31.12.779,SL_base,2021.2.3,Win32,60.24096386,0.6677,,,72,0,72,0,1,,,,,,,,
,,"[""circle"",""green"",""vert"",""up"",[150,0],[-150,0]]",circle,green,vert,up,"[150,0]","[-150,0]",up,1,,,,,,001,2025-03-11_12h31.12.779,SL_base,2021.2.3,Win32,60.24096386,0.9338,,,73,0,73,0,1,,,,,,,,
,,"[""circle"",""no_dis"",""hori"",""left"",[99999,99999],[106,106]]",circle,no_dis,hori,left,"[99999,99999]","[106,106]",left,1,,,,,,001,2025-03-11_12h31.12.779,SL_base,2021.2.3,Win32,60.24096386,0.6081,,,74,0,74,0,1,,,,,,,,
,,"[""diamond"",""no_dis"",""hori"",""left"",[99999,99999],[-150,0]]",diamond,no_dis,hori,left,"[99999,99999]","[-150,0]",left,1,,,,,,001,2025-03-11_12h31.12.779,SL_base,2021.2.3,Win32,60.24096386,1.5692,,,75,0,75,0,1,,,,,,,,
,,"[""circle"",""no_dis"",""hori"",""left"",[99999,99999],[106,-106]]",circle,no_dis,hori,left,"[99999,99999]","[106,-106]",left,1,,,,,,001,2025-03-11_12h31.12.779,SL_base,2021.2.3,Win32,60.24096386,0.7635,,,76,0,76,0,1,,,,,,,,
,,"[""diamond"",""no_dis"",""vert"",""up"",[99999,99999],[150,0]]",diamond,no_dis,vert,up,"[99999,99999]","[150,0]",up,1,,,,,,001,2025-03-11_12h31.12.779,SL_base,2021.2.3,Win32,60.24096386,1.3346,,,77,0,77,0,1,,,,,,,,
,,"[""circle"",""green"",""vert"",""up"",[150,0],[0,-150]]",circle,green,vert,up,"[150,0]","[0,-150]",up,1,,,,,,001,2025-03-11_12h31.12.779,SL_base,2021.2.3,Win32,60.24096386,1.3253,,,78,0,78,0,1,,,,,,,,
,,"[""circle"",""red"",""vert"",""up"",[-106,106],[106,106]]",circle,red,vert,up,"[-106,106]","[106,106]",up,1,,,,,,001,2025-03-11_12h31.12.779,SL_base,2021.2.3,Win32,60.24096386,1.7858,,,79,0,79,0,1,,,,,,,,
,,"[""diamond"",""green"",""vert"",""up"",[106,-106],[-150,0]]",diamond,green,vert,up,"[106,-106]","[-150,0]",up,1,,,,,,001,2025-03-11_12h31.12.779,SL_base,2021.2.3,Win32,60.24096386,1.0209,,,80,0,80,0,1,,,,,,,,
,,"[""diamond"",""green"",""hori"",""left"",[0,-150],[-150,0]]",diamond,green,hori,left,"[0,-150]","[-150,0]",up,0,,,,,,001,2025-03-11_12h31.12.779,SL_base,2021.2.3,Win32,60.24096386,1.0335,,,81,0,81,0,1,,,,,,,,
,,"[""diamond"",""green"",""hori"",""left"",[0,-150],[-106,106]]",diamond,green,hori,left,"[0,-150]","[-106,106]",left,1,,,,,,001,2025-03-11_12h31.12.779,SL_base,2021.2.3,Win32,60.24096386,0.8696,,,82,0,82,0,1,,,,,,,,
,,"[""diamond"",""red"",""hori"",""left"",[106,106],[-106,106]]",diamond,red,hori,left,"[106,106]","[-106,106]",left,1,,,,,,001,2025-03-11_12h31.12.779,SL_base,2021.2.3,Win32,60.24096386,0.8408,,,83,0,83,0,1,,,,,,,,
,,"[""circle"",""green"",""hori"",""left"",[106,-106],[0,-150]]",circle,green,hori,left,"[106,-106]","[0,-150]",left,1,,,,,,001,2025-03-11_12h31.12.779,SL_base,2021.2.3,Win32,60.24096386,1.0679,,,84,0,84,0,1,,,,,,,,
,,"[""circle"",""no_dis"",""vert"",""up"",[99999,99999],[0,-150]]",circle,no_dis,vert,up,"[99999,99999]","[0,-150]",up,1,,,,,,001,2025-03-11_12h31.12.779,SL_base,2021.2.3,Win32,60.24096386,0.9567,,,85,0,85,0,1,,,,,,,,
,,"[""circle"",""green"",""hori"",""left"",[-106,-106],[0,-150]]",circle,green,hori,left,"[-106,-106]","[0,-150]",left,1,,,,,,001,2025-03-11_12h31.12.779,SL_base,2021.2.3,Win32,60.24096386,1.0338,,,86,0,86,0,1,,,,,,,,
,,"[""diamond"",""no_dis"",""vert"",""up"",[99999,99999],[0,150]]",diamond,no_dis,vert,up,"[99999,99999]","[0,150]",up,1,,,,,,001,2025-03-11_12h31.12.779,SL_base,2021.2.3,Win32,60.24096386,1.0246,,,87,0,87,0,1,,,,,,,,
,,"[""circle"",""red"",""hori"",""left"",[0,-150],[0,150]]",circle,red,hori,left,"[0,-150]","[0,150]",left,1,,,,,,001,2025-03-11_12h31.12.779,SL_base,2021.2.3,Win32,60.24096386,1.5175,,,88,0,88,0,1,,,,,,,,
,,"[""circle"",""red"",""vert"",""up"",[0,150],[106,-106]]",circle,red,vert,up,"[0,150]","[106,-106]",up,1,,,,,,001,2025-03-11_12h31.12.779,SL_base,2021.2.3,Win32,60.24096386,0.9861,,,89,0,89,0,1,,,,,,,,
,,"[""diamond"",""no_dis"",""vert"",""up"",[99999,99999],[0,-150]]",diamond,no_dis,vert,up,"[99999,99999]","[0,-150]",up,1,,,,,,001,2025-03-11_12h31.12.779,SL_base,2021.2.3,Win32,60.24096386,1.4676,,,90,0,90,0,1,,,,,,,,
,,"[""circle"",""red"",""vert"",""up"",[0,150],[150,0]]",circle,red,vert,up,"[0,150]","[150,0]",up,1,,,,,,001,2025-03-11_12h31.12.779,SL_base,2021.2.3,Win32,60.24096386,1.633,,,91,0,91,0,1,,,,,,,,
,,"[""circle"",""red"",""hori"",""left"",[106,-106],[-150,0]]",circle,red,hori,left,"[106,-106]","[-150,0]",left,1,,,,,,001,2025-03-11_12h31.12.779,SL_base,2021.2.3,Win32,60.24096386,0.8159,,,92,0,92,0,1,,,,,,,,
,,"[""circle"",""red"",""vert"",""up"",[106,106],[106,-106]]",circle,red,vert,up,"[106,106]","[106,-106]",up,1,,,,,,001,2025-03-11_12h31.12.779,SL_base,2021.2.3,Win32,60.24096386,0.8883,,,93,0,93,0,1,,,,,,,,
,,"[""diamond"",""no_dis"",""vert"",""up"",[99999,99999],[-150,0]]",diamond,no_dis,vert,up,"[99999,99999]","[-150,0]",up,1,,,,,,001,2025-03-11_12h31.12.779,SL_base,2021.2.3,Win32,60.24096386,1.0164,,,94,0,94,0,1,,,,,,,,
,,"[""circle"",""green"",""hori"",""left"",[-150,0],[106,106]]",circle,green,hori,left,"[-150,0]","[106,106]",left,1,,,,,,001,2025-03-11_12h31.12.779,SL_base,2021.2.3,Win32,60.24096386,1.1685,,,95,0,95,0,1,,,,,,,,
,,"[""diamond"",""red"",""hori"",""left"",[0,150],[-106,-106]]",diamond,red,hori,left,"[0,150]","[-106,-106]",up,0,,,,,,001,2025-03-11_12h31.12.779,SL_base,2021.2.3,Win32,60.24096386,1.8179,,,96,0,96,0,1,,,,,,,,
,,"[""diamond"",""green"",""hori"",""left"",[150,0],[106,106]]",diamond,green,hori,left,"[150,0]","[106,106]",left,1,,,,,,001,2025-03-11_12h31.12.779,SL_base,2021.2.3,Win32,60.24096386,1.3533,,,97,0,97,0,1,,,,,,,,
,,"[""circle"",""no_dis"",""hori"",""left"",[99999,99999],[-106,-106]]",circle,no_dis,hori,left,"[99999,99999]","[-106,-106]",left,1,,,,,,001,2025-03-11_12h31.12.779,SL_base,2021.2.3,Win32,60.24096386,1.0845,,,98,0,98,0,1,,,,,,,,
,,"[""diamond"",""green"",""hori"",""left"",[0,150],[150,0]]",diamond,green,hori,left,"[0,150]","[150,0]",left,1,,,,,,001,2025-03-11_12h31.12.779,SL_base,2021.2.3,Win32,60.24096386,0.8038,,,99,0,99,0,1,,,,,,,,
,,"[""diamond"",""red"",""hori"",""left"",[0,150],[-106,-106]]",diamond,red,hori,left,"[0,150]","[-106,-106]",left,1,,,,,,001,2025-03-11_12h31.12.779,SL_base,2021.2.3,Win32,60.24096386,0.9669,,,100,0,100,0,1,,,,,,,,
,,"[""diamond"",""red"",""vert"",""up"",[106,106],[0,-150]]",diamond,red,vert,up,"[106,106]","[0,-150]",up,1,,,,,,001,2025-03-11_12h31.12.779,SL_base,2021.2.3,Win32,60.24096386,1.3013,,,101,0,101,0,1,,,,,,,,
,,"[""diamond"",""green"",""hori"",""left"",[-106,106],[-106,-106]]",diamond,green,hori,left,"[-106,106]","[-106,-106]",left,1,,,,,,001,2025-03-11_12h31.12.779,SL_base,2021.2.3,Win32,60.24096386,1.0517,,,102,0,102,0,1,,,,,,,,
,,"[""diamond"",""green"",""hori"",""left"",[0,-150],[106,106]]",diamond,green,hori,left,"[0,-150]","[106,106]",left,1,,,,,,001,2025-03-11_12h31.12.779,SL_base,2021.2.3,Win32,60.24096386,0.9165,,,103,0,103,0,1,,,,,,,,
,,"[""diamond"",""red"",""vert"",""up"",[0,150],[106,106]]",diamond,red,vert,up,"[0,150]","[106,106]",up,1,,,,,,001,2025-03-11_12h31.12.779,SL_base,2021.2.3,Win32,60.24096386,0.7847,,,104,0,104,0,1,,,,,,,,
,,"[""diamond"",""red"",""hori"",""left"",[0,-150],[106,-106]]",diamond,red,hori,left,"[0,-150]","[106,-106]",left,1,,,,,,001,2025-03-11_12h31.12.779,SL_base,2021.2.3,Win32,60.24096386,0.8038,,,105,0,105,0,1,,,,,,,,
,,"[""diamond"",""red"",""hori"",""left"",[0,150],[-106,106]]",diamond,red,hori,left,"[0,150]","[-106,106]",left,1,,,,,,001,2025-03-11_12h31.12.779,SL_base,2021.2.3,Win32,60.24096386,1.4705,,,106,0,106,0,1,,,,,,,,
,,"[""circle"",""green"",""hori"",""left"",[106,-106],[0,150]]",circle,green,hori,left,"[106,-106]","[0,150]",left,1,,,,,,001,2025-03-11_12h31.12.779,SL_base,2021.2.3,Win32,60.24096386,1.8722,,,107,0,107,0,1,,,,,,,,
,,"[""diamond"",""red"",""hori"",""left"",[0,150],[-106,106]]",diamond,red,hori,left,"[0,150]","[-106,106]",left,1,,,,,,001,2025-03-11_12h31.12.779,SL_base,2021.2.3,Win32,60.24096386,0.9857,,,108,0,108,0,1,,,,,,,,
,,"[""circle"",""green"",""vert"",""up"",[-106,-106],[-150,0]]",circle,green,vert,up,"[-106,-106]","[-150,0]",up,1,,,,,,001,2025-03-11_12h31.12.779,SL_base,2021.2.3,Win32,60.24096386,1.2019,,,109,0,109,0,1,,,,,,,,
,,"[""circle"",""red"",""vert"",""up"",[106,-106],[0,-150]]",circle,red,vert,up,"[106,-106]","[0,-150]",up,1,,,,,,001,2025-03-11_12h31.12.779,SL_base,2021.2.3,Win32,60.24096386,1.183,,,110,0,110,0,1,,,,,,,,
,,"[""circle"",""red"",""hori"",""left"",[-106,106],[0,-150]]",circle,red,hori,left,"[-106,106]","[0,-150]",left,1,,,,,,001,2025-03-11_12h31.12.779,SL_base,2021.2.3,Win32,60.24096386,0.9108,,,111,0,111,0,1,,,,,,,,
,,"[""circle"",""red"",""vert"",""up"",[-150,0],[-106,-106]]",circle,red,vert,up,"[-150,0]","[-106,-106]",up,1,,,,,,001,2025-03-11_12h31.12.779,SL_base,2021.2.3,Win32,60.24096386,0.8644,,,112,0,112,0,1,,,,,,,,
,,"[""circle"",""green"",""hori"",""left"",[-150,0],[0,-150]]",circle,green,hori,left,"[-150,0]","[0,-150]",left,1,,,,,,001,2025-03-11_12h31.12.779,SL_base,2021.2.3,Win32,60.24096386,0.7449,,,113,0,113,0,1,,,,,,,,
,,"[""circle"",""no_dis"",""hori"",""left"",[99999,99999],[-106,-106]]",circle,no_dis,hori,left,"[99999,99999]","[-106,-106]",left,1,,,,,,001,2025-03-11_12h31.12.779,SL_base,2021.2.3,Win32,60.24096386,0.8966,,,114,0,114,0,1,,,,,,,,
,,"[""diamond"",""green"",""vert"",""up"",[106,-106],[-106,106]]",diamond,green,vert,up,"[106,-106]","[-106,106]",up,1,,,,,,001,2025-03-11_12h31.12.779,SL_base,2021.2.3,Win32,60.24096386,0.8289,,,115,0,115,0,1,,,,,,,,
,,"[""diamond"",""red"",""vert"",""up"",[-150,0],[0,150]]",diamond,red,vert,up,"[-150,0]","[0,150]",up,1,,,,,,001,2025-03-11_12h31.12.779,SL_base,2021.2.3,Win32,60.24096386,1.9446,,,116,0,116,0,1,,,,,,,,
,,"[""circle"",""no_dis"",""hori"",""left"",[99999,99999],[106,106]]",circle,no_dis,hori,left,"[99999,99999]","[106,106]",left,1,,,,,,001,2025-03-11_12h31.12.779,SL_base,2021.2.3,Win32,60.24096386,0.9476,,,117,0,117,0,1,,,,,,,,
,,"[""diamond"",""green"",""hori"",""left"",[-150,0],[0,150]]",diamond,green,hori,left,"[-150,0]","[0,150]",left,1,,,,,,001,2025-03-11_12h31.12.779,SL_base,2021.2.3,Win32,60.24096386,1.0927,,,118,0,118,0,1,,,,,,,,
,,"[""circle"",""green"",""vert"",""up"",[150,0],[0,150]]",circle,green,vert,up,"[150,0]","[0,150]",up,1,,,,,,001,2025-03-11_12h31.12.779,SL_base,2021.2.3,Win32,60.24096386,1.6207,,,119,0,119,0,1,,,,,,,,
,,,,,,,,,,,,,,,,001,2025-03-11_12h31.12.779,SL_base,2021.2.3,Win32,60.24096386,,,,,,,,,2,space,6.5029,1,0,1,0,1
,,"[""diamond"",""green"",""hori"",""left"",[0,-150],[-150,0]]",diamond,green,hori,left,"[0,-150]","[-150,0]",left,1,,,,,,001,2025-03-11_12h31.12.779,SL_base,2021.2.3,Win32,60.24096386,1.394,,,0,0,0,0,1,,,,,,,,
,,"[""diamond"",""red"",""hori"",""left"",[0,150],[-106,-106]]",diamond,red,hori,left,"[0,150]","[-106,-106]",left,1,,,,,,001,2025-03-11_12h31.12.779,SL_base,2021.2.3,Win32,60.24096386,1.1279,,,1,0,1,0,1,,,,,,,,
,,"[""circle"",""red"",""hori"",""left"",[-106,-106],[0,-150]]",circle,red,hori,left,"[-106,-106]","[0,-150]",left,1,,,,,,001,2025-03-11_12h31.12.779,SL_base,2021.2.3,Win32,60.24096386,1.0536,,,2,0,2,0,1,,,,,,,,
,,"[""diamond"",""green"",""hori"",""left"",[0,-150],[-106,106]]",diamond,green,hori,left,"[0,-150]","[-106,106]",left,1,,,,,,001,2025-03-11_12h31.12.779,SL_base,2021.2.3,Win32,60.24096386,1.0973,,,3,0,3,0,1,,,,,,,,
,,"[""circle"",""no_dis"",""hori"",""left"",[99999,99999],[150,0]]",circle,no_dis,hori,left,"[99999,99999]","[150,0]",left,1,,,,,,001,2025-03-11_12h31.12.779,SL_base,2021.2.3,Win32,60.24096386,0.8799,,,4,0,4,0,1,,,,,,,,
,,"[""diamond"",""red"",""vert"",""up"",[106,106],[150,0]]",diamond,red,vert,up,"[106,106]","[150,0]",up,1,,,,,,001,2025-03-11_12h31.12.779,SL_base,2021.2.3,Win32,60.24096386,1.8012,,,5,0,5,0,1,,,,,,,,
,,"[""circle"",""no_dis"",""hori"",""left"",[99999,99999],[106,106]]",circle,no_dis,hori,left,"[99999,99999]","[106,106]",left,1,,,,,,001,2025-03-11_12h31.12.779,SL_base,2021.2.3,Win32,60.24096386,1.0992,,,6,0,6,0,1,,,,,,,,
,,"[""diamond"",""green"",""hori"",""left"",[-106,106],[106,-106]]",diamond,green,hori,left,"[-106,106]","[106,-106]",left,1,,,,,,001,2025-03-11_12h31.12.779,SL_base,2021.2.3,Win32,60.24096386,0.8787,,,7,0,7,0,1,,,,,,,,
,,"[""circle"",""no_dis"",""vert"",""up"",[99999,99999],[106,106]]",circle,no_dis,vert,up,"[99999,99999]","[106,106]",up,1,,,,,,001,2025-03-11_12h31.12.779,SL_base,2021.2.3,Win32,60.24096386,1.5513,,,8,0,8,0,1,,,,,,,,
,,"[""circle"",""red"",""vert"",""up"",[0,150],[150,0]]",circle,red,vert,up,"[0,150]","[150,0]",up,1,,,,,,001,2025-03-11_12h31.12.779,SL_base,2021.2.3,Win32,60.24096386,1.3817,,,9,0,9,0,1,,,,,,,,
,,"[""circle"",""red"",""hori"",""left"",[0,150],[150,0]]",circle,red,hori,left,"[0,150]","[150,0]",left,1,,,,,,001,2025-03-11_12h31.12.779,SL_base,2021.2.3,Win32,60.24096386,1.01,,,10,0,10,0,1,,,,,,,,
,,"[""circle"",""green"",""vert"",""up"",[0,150],[-150,0]]",circle,green,vert,up,"[0,150]","[-150,0]",up,1,,,,,,001,2025-03-11_12h31.12.779,SL_base,2021.2.3,Win32,60.24096386,1.2684,,,11,0,11,0,1,,,,,,,,
,,"[""circle"",""red"",""vert"",""up"",[106,106],[106,-106]]",circle,red,vert,up,"[106,106]","[106,-106]",up,1,,,,,,001,2025-03-11_12h31.12.779,SL_base,2021.2.3,Win32,60.24096386,0.8539,,,12,0,12,0,1,,,,,,,,
,,"[""circle"",""no_dis"",""hori"",""left"",[99999,99999],[0,150]]",circle,no_dis,hori,left,"[99999,99999]","[0,150]",left,1,,,,,,001,2025-03-11_12h31.12.779,SL_base,2021.2.3,Win32,60.24096386,0.7868,,,13,0,13,0,1,,,,,,,,
,,"[""circle"",""green"",""hori"",""left"",[0,150],[0,-150]]",circle,green,hori,left,"[0,150]","[0,-150]",left,1,,,,,,001,2025-03-11_12h31.12.779,SL_base,2021.2.3,Win32,60.24096386,0.8513,,,14,0,14,0,1,,,,,,,,
,,"[""diamond"",""no_dis"",""vert"",""up"",[99999,99999],[-106,106]]",diamond,no_dis,vert,up,"[99999,99999]","[-106,106]",up,1,,,,,,001,2025-03-11_12h31.12.779,SL_base,2021.2.3,Win32,60.24096386,1.3356,,,15,0,15,0,1,,,,,,,,
,,"[""circle"",""no_dis"",""vert"",""up"",[99999,99999],[106,-106]]",circle,no_dis,vert,up,"[99999,99999]","[106,-106]",up,1,,,,,,001,2025-03-11_12h31.12.779,SL_base,2021.2.3,Win32,60.24096386,0.8182,,,16,0,16,0,1,,,,,,,,
,,"[""circle"",""red"",""hori"",""left"",[0,-150],[150,0]]",circle,red,hori,left,"[0,-150]","[150,0]",left,1,,,,,,001,2025-03-11_12h31.12.779,SL_base,2021.2.3,Win32,60.24096386,0.8017,,,17,0,17,0,1,,,,,,,,
,,"[""diamond"",""red"",""vert"",""up"",[106,106],[0,-150]]",diamond,red,vert,up,"[106,106]","[0,-150]",up,1,,,,,,001,2025-03-11_12h31.12.779,SL_base,2021.2.3,Win32,60.24096386,1.2174,,,18,0,18,0,1,,,,,,,,
,,"[""circle"",""no_dis"",""hori"",""left"",[99999,99999],[0,150]]",circle,no_dis,hori,left,"[99999,99999]","[0,150]",left,1,,,,,,001,2025-03-11_12h31.12.779,SL_base,2021.2.3,Win32,60.24096386,0.7901,,,19,0,19,0,1,,,,,,,,
,,"[""diamond"",""green"",""vert"",""up"",[106,-106],[-150,0]]",diamond,green,vert,up,"[106,-106]","[-150,0]",up,1,,,,,,001,2025-03-11_12h31.12.779,SL_base,2021.2.3,Win32,60.24096386,1.1346,,,20,0,20,0,1,,,,,,,,
,,"[""circle"",""red"",""hori"",""left"",[0,150],[-106,-106]]",circle,red,hori,left,"[0,150]","[-106,-106]",left,1,,,,,,001,2025-03-11_12h31.12.779,SL_base,2021.2.3,Win32,60.24096386,0.8169,,,21,0,21,0,1,,,,,,,,
,,"[""diamond"",""red"",""hori"",""left"",[0,150],[-150,0]]",diamond,red,hori,left,"[0,150]","[-150,0]",left,1,,,,,,001,2025-03-11_12h31.12.779,SL_base,2021.2.3,Win32,60.24096386,1.073,,,22,0,22,0,1,,,,,,,,
,,"[""circle"",""green"",""hori"",""left"",[0,150],[150,0]]",circle,green,hori,left,"[0,150]","[150,0]",left,1,,,,,,001,2025-03-11_12h31.12.779,SL_base,2021.2.3,Win32,60.24096386,1.0508,,,23,0,23,0,1,,,,,,,,
,,"[""circle"",""green"",""vert"",""up"",[-106,-106],[-150,0]]",circle,green,vert,up,"[-106,-106]","[-150,0]",up,1,,,,,,001,2025-03-11_12h31.12.779,SL_base,2021.2.3,Win32,60.24096386,0.7847,,,24,0,24,0,1,,,,,,,,
,,"[""circle"",""green"",""vert"",""up"",[-106,-106],[0,-150]]",circle,green,vert,up,"[-106,-106]","[0,-150]",up,1,,,,,,001,2025-03-11_12h31.12.779,SL_base,2021.2.3,Win32,60.24096386,0.7176,,,25,0,25,0,1,,,,,,,,
,,"[""diamond"",""green"",""hori"",""left"",[-150,0],[0,150]]",diamond,green,hori,left,"[-150,0]","[0,150]",left,1,,,,,,001,2025-03-11_12h31.12.779,SL_base,2021.2.3,Win32,60.24096386,1.0848,,,26,0,26,0,1,,,,,,,,
,,"[""circle"",""red"",""vert"",""up"",[-106,106],[106,106]]",circle,red,vert,up,"[-106,106]","[106,106]",up,1,,,,,,001,2025-03-11_12h31.12.779,SL_base,2021.2.3,Win32,60.24096386,0.8174,,,27,0,27,0,1,,,,,,,,
,,"[""circle"",""no_dis"",""hori"",""left"",[99999,99999],[-106,-106]]",circle,no_dis,hori,left,"[99999,99999]","[-106,-106]",left,1,,,,,,001,2025-03-11_12h31.12.779,SL_base,2021.2.3,Win32,60.24096386,1.0194,,,28,0,28,0,1,,,,,,,,
,,"[""circle"",""red"",""vert"",""up"",[0,150],[150,0]]",circle,red,vert,up,"[0,150]","[150,0]",up,1,,,,,,001,2025-03-11_12h31.12.779,SL_base,2021.2.3,Win32,60.24096386,0.8014,,,29,0,29,0,1,,,,,,,,
,,"[""circle"",""green"",""vert"",""up"",[-150,0],[0,150]]",circle,green,vert,up,"[-150,0]","[0,150]",up,1,,,,,,001,2025-03-11_12h31.12.779,SL_base,2021.2.3,Win32,60.24096386,0.8036,,,30,0,30,0,1,,,,,,,,
,,"[""diamond"",""red"",""hori"",""left"",[0,150],[-106,106]]",diamond,red,hori,left,"[0,150]","[-106,106]",left,1,,,,,,001,2025-03-11_12h31.12.779,SL_base,2021.2.3,Win32,60.24096386,1.1516,,,31,0,31,0,1,,,,,,,,
,,"[""diamond"",""green"",""vert"",""up"",[-106,106],[0,-150]]",diamond,green,vert,up,"[-106,106]","[0,-150]",up,1,,,,,,001,2025-03-11_12h31.12.779,SL_base,2021.2.3,Win32,60.24096386,0.8172,,,32,0,32,0,1,,,,,,,,
,,"[""circle"",""green"",""hori"",""left"",[106,-106],[0,150]]",circle,green,hori,left,"[106,-106]","[0,150]",left,1,,,,,,001,2025-03-11_12h31.12.779,SL_base,2021.2.3,Win32,60.24096386,0.9512,,,33,0,33,0,1,,,,,,,,
,,"[""diamond"",""no_dis"",""hori"",""left"",[99999,99999],[0,150]]",diamond,no_dis,hori,left,"[99999,99999]","[0,150]",left,1,,,,,,001,2025-03-11_12h31.12.779,SL_base,2021.2.3,Win32,60.24096386,1.0349,,,34,0,34,0,1,,,,,,,,
,,"[""circle"",""no_dis"",""vert"",""up"",[99999,99999],[-150,0]]",circle,no_dis,vert,up,"[99999,99999]","[-150,0]",up,1,,,,,,001,2025-03-11_12h31.12.779,SL_base,2021.2.3,Win32,60.24096386,1.0356,,,35,0,35,0,1,,,,,,,,
,,"[""circle"",""red"",""hori"",""left"",[0,-150],[-106,-106]]",circle,red,hori,left,"[0,-150]","[-106,-106]",left,1,,,,,,001,2025-03-11_12h31.12.779,SL_base,2021.2.3,Win32,60.24096386,1.05,,,36,0,36,0,1,,,,,,,,
,,"[""circle"",""no_dis"",""hori"",""left"",[99999,99999],[106,106]]",circle,no_dis,hori,left,"[99999,99999]","[106,106]",left,1,,,,,,001,2025-03-11_12h31.12.779,SL_base,2021.2.3,Win32,60.24096386,0.6345,,,37,0,37,0,1,,,,,,,,
,,"[""diamond"",""no_dis"",""hori"",""left"",[99999,99999],[150,0]]",diamond,no_dis,hori,left,"[99999,99999]","[150,0]",left,1,,,,,,001,2025-03-11_12h31.12.779,SL_base,2021.2.3,Win32,60.24096386,0.8731,,,38,0,38,0,1,,,,,,,,
,,"[""diamond"",""green"",""vert"",""up"",[-106,-106],[0,150]]",diamond,green,vert,up,"[-106,-106]","[0,150]",up,1,,,,,,001,2025-03-11_12h31.12.779,SL_base,2021.2.3,Win32,60.24096386,0.6682,,,39,0,39,0,1,,,,,,,,
,,"[""circle"",""red"",""hori"",""left"",[106,-106],[-150,0]]",circle,red,hori,left,"[106,-106]","[-150,0]",left,1,,,,,,001,2025-03-11_12h31.12.779,SL_base,2021.2.3,Win32,60.24096386,0.8176,,,40,0,40,0,1,,,,,,,,
,,"[""diamond"",""green"",""vert"",""up"",[0,150],[-150,0]]",diamond,green,vert,up,"[0,150]","[-150,0]",up,1,,,,,,001,2025-03-11_12h31.12.779,SL_base,2021.2.3,Win32,60.24096386,1.0008,,,41,0,41,0,1,,,,,,,,
,,"[""diamond"",""no_dis"",""hori"",""left"",[99999,99999],[-106,-106]]",diamond,no_dis,hori,left,"[99999,99999]","[-106,-106]",left,1,,,,,,001,2025-03-11_12h31.12.779,SL_base,2021.2.3,Win32,60.24096386,1.1854,,,42,0,42,0,1,,,,,,,,
,,"[""circle"",""no_dis"",""hori"",""left"",[99999,99999],[106,-106]]",circle,no_dis,hori,left,"[99999,99999]","[106,-106]",left,1,,,,,,001,2025-03-11_12h31.12.779,SL_base,2021.2.3,Win32,60.24096386,1.4054,,,43,0,43,0,1,,,,,,,,
,,"[""diamond"",""green"",""vert"",""up"",[-106,106],[106,-106]]",diamond,green,vert,up,"[-106,106]","[106,-106]",up,1,,,,,,001,2025-03-11_12h31.12.779,SL_base,2021.2.3,Win32,60.24096386,0.7677,,,44,0,44,0,1,,,,,,,,
,,"[""diamond"",""green"",""hori"",""left"",[-106,106],[-106,-106]]",diamond,green,hori,left,"[-106,106]","[-106,-106]",left,1,,,,,,001,2025-03-11_12h31.12.779,SL_base,2021.2.3,Win32,60.24096386,1.0841,,,45,0,45,0,1,,,,,,,,
,,"[""diamond"",""red"",""vert"",""up"",[-150,0],[0,150]]",diamond,red,vert,up,"[-150,0]","[0,150]",up,1,,,,,,001,2025-03-11_12h31.12.779,SL_base,2021.2.3,Win32,60.24096386,0.8505,,,46,0,46,0,1,,,,,,,,
,,"[""circle"",""green"",""hori"",""left"",[-106,-106],[0,-150]]",circle,green,hori,left,"[-106,-106]","[0,-150]",left,1,,,,,,001,2025-03-11_12h31.12.779,SL_base,2021.2.3,Win32,60.24096386,1.2106,,,47,0,47,0,1,,,,,,,,
,,"[""circle"",""red"",""vert"",""up"",[0,150],[-106,-106]]",circle,red,vert,up,"[0,150]","[-106,-106]",up,1,,,,,,001,2025-03-11_12h31.12.779,SL_base,2021.2.3,Win32,60.24096386,1.071,,,48,0,48,0,1,,,,,,,,
,,"[""diamond"",""no_dis"",""vert"",""up"",[99999,99999],[-106,-106]]",diamond,no_dis,vert,up,"[99999,99999]","[-106,-106]",up,1,,,,,,001,2025-03-11_12h31.12.779,SL_base,2021.2.3,Win32,60.24096386,0.7071,,,49,0,49,0,1,,,,,,,,
,,"[""diamond"",""red"",""vert"",""up"",[0,-150],[106,-106]]",diamond,red,vert,up,"[0,-150]","[106,-106]",up,1,,,,,,001,2025-03-11_12h31.12.779,SL_base,2021.2.3,Win32,60.24096386,1.5197,,,50,0,50,0,1,,,,,,,,
,,"[""circle"",""green"",""vert"",""up"",[150,0],[0,-150]]",circle,green,vert,up,"[150,0]","[0,-150]",up,1,,,,,,001,2025-03-11_12h31.12.779,SL_base,2021.2.3,Win32,60.24096386,1.1353,,,51,0,51,0,1,,,,,,,,
,,"[""diamond"",""green"",""hori"",""left"",[0,-150],[106,106]]",diamond,green,hori,left,"[0,-150]","[106,106]",left,1,,,,,,001,2025-03-11_12h31.12.779,SL_base,2021.2.3,Win32,60.24096386,1.5352,,,52,0,52,0,1,,,,,,,,
,,"[""diamond"",""no_dis"",""vert"",""up"",[99999,99999],[150,0]]",diamond,no_dis,vert,up,"[99999,99999]","[150,0]",up,1,,,,,,001,2025-03-11_12h31.12.779,SL_base,2021.2.3,Win32,60.24096386,0.8572,,,53,0,53,0,1,,,,,,,,
,,"[""diamond"",""red"",""vert"",""up"",[0,150],[-150,0]]",diamond,red,vert,up,"[0,150]","[-150,0]",up,1,,,,,,001,2025-03-11_12h31.12.779,SL_base,2021.2.3,Win32,60.24096386,1.0571,,,54,0,54,0,1,,,,,,,,
,,"[""diamond"",""red"",""hori"",""left"",[106,106],[-106,106]]",diamond,red,hori,left,"[106,106]","[-106,106]",left,1,,,,,,001,2025-03-11_12h31.12.779,SL_base,2021.2.3,Win32,60.24096386,0.7428,,,55,0,55,0,1,,,,,,,,
,,"[""circle"",""no_dis"",""vert"",""up"",[99999,99999],[0,-150]]",circle,no_dis,vert,up,"[99999,99999]","[0,-150]",up,1,,,,,,001,2025-03-11_12h31.12.779,SL_base,2021.2.3,Win32,60.24096386,0.9736,,,56,0,56,0,1,,,,,,,,
,,"[""diamond"",""green"",""vert"",""up"",[-106,-106],[106,-106]]",diamond,green,vert,up,"[-106,-106]","[106,-106]",up,1,,,,,,001,2025-03-11_12h31.12.779,SL_base,2021.2.3,Win32,60.24096386,0.994,,,57,0,57,0,1,,,,,,,,
,,"[""circle"",""no_dis"",""vert"",""up"",[99999,99999],[-106,106]]",circle,no_dis,vert,up,"[99999,99999]","[-106,106]",up,1,,,,,,001,2025-03-11_12h31.12.779,SL_base,2021.2.3,Win32,60.24096386,1.2631,,,58,0,58,0,1,,,,,,,,
,,"[""circle"",""no_dis"",""hori"",""left"",[99999,99999],[0,150]]",circle,no_dis,hori,left,"[99999,99999]","[0,150]",left,1,,,,,,001,2025-03-11_12h31.12.779,SL_base,2021.2.3,Win32,60.24096386,0.7772,,,59,0,59,0,1,,,,,,,,
,,"[""circle"",""red"",""vert"",""up"",[106,106],[0,150]]",circle,red,vert,up,"[106,106]","[0,150]",up,1,,,,,,001,2025-03-11_12h31.12.779,SL_base,2021.2.3,Win32,60.24096386,1.4362,,,60,0,60,0,1,,,,,,,,
,,"[""circle"",""green"",""vert"",""up"",[150,0],[-150,0]]",circle,green,vert,up,"[150,0]","[-150,0]",up,1,,,,,,001,2025-03-11_12h31.12.779,SL_base,2021.2.3,Win32,60.24096386,0.866,,,61,0,61,0,1,,,,,,,,
,,"[""diamond"",""no_dis"",""hori"",""left"",[99999,99999],[150,0]]",diamond,no_dis,hori,left,"[99999,99999]","[150,0]",left,1,,,,,,001,2025-03-11_12h31.12.779,SL_base,2021.2.3,Win32,60.24096386,0.7139,,,62,0,62,0,1,,,,,,,,
,,"[""diamond"",""no_dis"",""hori"",""left"",[99999,99999],[-106,106]]",diamond,no_dis,hori,left,"[99999,99999]","[-106,106]",left,1,,,,,,001,2025-03-11_12h31.12.779,SL_base,2021.2.3,Win32,60.24096386,1.0529,,,63,0,63,0,1,,,,,,,,
,,"[""diamond"",""no_dis"",""hori"",""left"",[99999,99999],[-150,0]]",diamond,no_dis,hori,left,"[99999,99999]","[-150,0]",left,1,,,,,,001,2025-03-11_12h31.12.779,SL_base,2021.2.3,Win32,60.24096386,1.3835,,,64,0,64,0,1,,,,,,,,
,,"[""circle"",""red"",""hori"",""left"",[0,150],[-150,0]]",circle,red,hori,left,"[0,150]","[-150,0]",left,1,,,,,,001,2025-03-11_12h31.12.779,SL_base,2021.2.3,Win32,60.24096386,1.1332,,,65,0,65,0,1,,,,,,,,
,,"[""diamond"",""no_dis"",""vert"",""up"",[99999,99999],[0,-150]]",diamond,no_dis,vert,up,"[99999,99999]","[0,-150]",up,1,,,,,,001,2025-03-11_12h31.12.779,SL_base,2021.2.3,Win32,60.24096386,0.7572,,,66,0,66,0,1,,,,,,,,
,,"[""circle"",""no_dis"",""vert"",""up"",[99999,99999],[-106,-106]]",circle,no_dis,vert,up,"[99999,99999]","[-106,-106]",up,1,,,,,,001,2025-03-11_12h31.12.779,SL_base,2021.2.3,Win32,60.24096386,0.9615,,,67,0,67,0,1,,,,,,,,
,,"[""diamond"",""green"",""hori"",""left"",[150,0],[-150,0]]",diamond,green,hori,left,"[150,0]","[-150,0]",left,1,,,,,,001,2025-03-11_12h31.12.779,SL_base,2021.2.3,Win32,60.24096386,1.0039,,,68,0,68,0,1,,,,,,,,
,,"[""circle"",""no_dis"",""hori"",""left"",[99999,99999],[-106,-106]]",circle,no_dis,hori,left,"[99999,99999]","[-106,-106]",left,1,,,,,,001,2025-03-11_12h31.12.779,SL_base,2021.2.3,Win32,60.24096386,1.5074,,,69,0,69,0,1,,,,,,,,
,,"[""diamond"",""no_dis"",""vert"",""up"",[99999,99999],[-150,0]]",diamond,no_dis,vert,up,"[99999,99999]","[-150,0]",up,1,,,,,,001,2025-03-11_12h31.12.779,SL_base,2021.2.3,Win32,60.24096386,1.1757,,,70,0,70,0,1,,,,,,,,
,,"[""diamond"",""red"",""hori"",""left"",[0,150],[-106,106]]",diamond,red,hori,left,"[0,150]","[-106,106]",left,1,,,,,,001,2025-03-11_12h31.12.779,SL_base,2021.2.3,Win32,60.24096386,1.0054,,,71,0,71,0,1,,,,,,,,
,,"[""diamond"",""red"",""vert"",""up"",[-150,0],[0,-150]]",diamond,red,vert,up,"[-150,0]","[0,-150]",up,1,,,,,,001,2025-03-11_12h31.12.779,SL_base,2021.2.3,Win32,60.24096386,0.9546,,,72,0,72,0,1,,,,,,,,
,,"[""circle"",""red"",""vert"",""up"",[0,150],[106,-106]]",circle,red,vert,up,"[0,150]","[106,-106]",up,1,,,,,,001,2025-03-11_12h31.12.779,SL_base,2021.2.3,Win32,60.24096386,1.8329,,,73,0,73,0,1,,,,,,,,
,,"[""circle"",""red"",""vert"",""up"",[106,-106],[0,-150]]",circle,red,vert,up,"[106,-106]","[0,-150]",up,1,,,,,,001,2025-03-11_12h31.12.779,SL_base,2021.2.3,Win32,60.24096386,1.0628,,,74,0,74,0,1,,,,,,,,
,,"[""diamond"",""no_dis"",""vert"",""up"",[99999,99999],[150,0]]",diamond,no_dis,vert,up,"[99999,99999]","[150,0]",up,1,,,,,,001,2025-03-11_12h31.12.779,SL_base,2021.2.3,Win32,60.24096386,0.8887,,,75,0,75,0,1,,,,,,,,
,,"[""diamond"",""no_dis"",""vert"",""up"",[99999,99999],[106,-106]]",diamond,no_dis,vert,up,"[99999,99999]","[106,-106]",up,1,,,,,,001,2025-03-11_12h31.12.779,SL_base,2021.2.3,Win32,60.24096386,1.1814,,,76,0,76,0,1,,,,,,,,
,,"[""circle"",""green"",""hori"",""left"",[106,106],[0,-150]]",circle,green,hori,left,"[106,106]","[0,-150]",left,1,,,,,,001,2025-03-11_12h31.12.779,SL_base,2021.2.3,Win32,60.24096386,0.8831,,,77,0,77,0,1,,,,,,,,
,,"[""diamond"",""green"",""vert"",""up"",[106,-106],[-106,106]]",diamond,green,vert,up,"[106,-106]","[-106,106]",up,1,,,,,,001,2025-03-11_12h31.12.779,SL_base,2021.2.3,Win32,60.24096386,1.0564,,,78,0,78,0,1,,,,,,,,
,,"[""circle"",""red"",""vert"",""up"",[-150,0],[-106,-106]]",circle,red,vert,up,"[-150,0]","[-106,-106]",up,1,,,,,,001,2025-03-11_12h31.12.779,SL_base,2021.2.3,Win32,60.24096386,1.408,,,79,0,79,0,1,,,,,,,,
,,"[""diamond"",""no_dis"",""hori"",""left"",[99999,99999],[-106,106]]",diamond,no_dis,hori,left,"[99999,99999]","[-106,106]",left,1,,,,,,001,2025-03-11_12h31.12.779,SL_base,2021.2.3,Win32,60.24096386,1.0876,,,80,0,80,0,1,,,,,,,,
,,"[""diamond"",""no_dis"",""vert"",""up"",[99999,99999],[0,-150]]",diamond,no_dis,vert,up,"[99999,99999]","[0,-150]",up,1,,,,,,001,2025-03-11_12h31.12.779,SL_base,2021.2.3,Win32,60.24096386,0.7195,,,81,0,81,0,1,,,,,,,,
,,"[""diamond"",""no_dis"",""vert"",""up"",[99999,99999],[-150,0]]",diamond,no_dis,vert,up,"[99999,99999]","[-150,0]",up,1,,,,,,001,2025-03-11_12h31.12.779,SL_base,2021.2.3,Win32,60.24096386,0.995,,,82,0,82,0,1,,,,,,,,
,,"[""diamond"",""green"",""hori"",""left"",[0,150],[150,0]]",diamond,green,hori,left,"[0,150]","[150,0]",left,1,,,,,,001,2025-03-11_12h31.12.779,SL_base,2021.2.3,Win32,60.24096386,0.7663,,,83,0,83,0,1,,,,,,,,
,,"[""diamond"",""green"",""hori"",""left"",[150,0],[-150,0]]",diamond,green,hori,left,"[150,0]","[-150,0]",left,1,,,,,,001,2025-03-11_12h31.12.779,SL_base,2021.2.3,Win32,60.24096386,0.8357,,,84,0,84,0,1,,,,,,,,
,,"[""circle"",""no_dis"",""vert"",""up"",[99999,99999],[0,-150]]",circle,no_dis,vert,up,"[99999,99999]","[0,-150]",up,1,,,,,,001,2025-03-11_12h31.12.779,SL_base,2021.2.3,Win32,60.24096386,0.8689,,,85,0,85,0,1,,,,,,,,
,,"[""diamond"",""no_dis"",""vert"",""up"",[99999,99999],[0,150]]",diamond,no_dis,vert,up,"[99999,99999]","[0,150]",up,1,,,,,,001,2025-03-11_12h31.12.779,SL_base,2021.2.3,Win32,60.24096386,0.9814,,,86,0,86,0,1,,,,,,,,
,,"[""diamond"",""red"",""vert"",""up"",[106,106],[-106,-106]]",diamond,red,vert,up,"[106,106]","[-106,-106]",up,1,,,,,,001,2025-03-11_12h31.12.779,SL_base,2021.2.3,Win32,60.24096386,2.0819,,,87,0,87,0,1,,,,,,,,
,,"[""circle"",""no_dis"",""vert"",""up"",[99999,99999],[-106,106]]",circle,no_dis,vert,up,"[99999,99999]","[-106,106]",up,1,,,,,,001,2025-03-11_12h31.12.779,SL_base,2021.2.3,Win32,60.24096386,1.4356,,,88,0,88,0,1,,,,,,,,
,,"[""circle"",""no_dis"",""vert"",""up"",[99999,99999],[106,106]]",circle,no_dis,vert,up,"[99999,99999]","[106,106]",up,1,,,,,,001,2025-03-11_12h31.12.779,SL_base,2021.2.3,Win32,60.24096386,0.8555,,,89,0,89,0,1,,,,,,,,
,,"[""circle"",""green"",""hori"",""left"",[-150,0],[0,-150]]",circle,green,hori,left,"[-150,0]","[0,-150]",left,1,,,,,,001,2025-03-11_12h31.12.779,SL_base,2021.2.3,Win32,60.24096386,0.8362,,,90,0,90,0,1,,,,,,,,
,,"[""circle"",""red"",""hori"",""left"",[-106,106],[0,-150]]",circle,red,hori,left,"[-106,106]","[0,-150]",left,1,,,,,,001,2025-03-11_12h31.12.779,SL_base,2021.2.3,Win32,60.24096386,0.898,,,91,0,91,0,1,,,,,,,,
,,"[""circle"",""red"",""vert"",""up"",[150,0],[106,106]]",circle,red,vert,up,"[150,0]","[106,106]",up,1,,,,,,001,2025-03-11_12h31.12.779,SL_base,2021.2.3,Win32,60.24096386,0.8621,,,92,0,92,0,1,,,,,,,,
,,"[""diamond"",""red"",""vert"",""up"",[0,150],[106,106]]",diamond,red,vert,up,"[0,150]","[106,106]",up,1,,,,,,001,2025-03-11_12h31.12.779,SL_base,2021.2.3,Win32,60.24096386,0.8891,,,93,0,93,0,1,,,,,,,,
,,"[""circle"",""green"",""hori"",""left"",[-150,0],[106,106]]",circle,green,hori,left,"[-150,0]","[106,106]",left,1,,,,,,001,2025-03-11_12h31.12.779,SL_base,2021.2.3,Win32,60.24096386,0.7077,,,94,0,94,0,1,,,,,,,,
,,"[""circle"",""green"",""vert"",""up"",[150,0],[0,150]]",circle,green,vert,up,"[150,0]","[0,150]",up,1,,,,,,001,2025-03-11_12h31.12.779,SL_base,2021.2.3,Win32,60.24096386,0.8475,,,95,0,95,0,1,,,,,,,,
,,"[""circle"",""green"",""hori"",""left"",[0,150],[106,-106]]",circle,green,hori,left,"[0,150]","[106,-106]",left,1,,,,,,001,2025-03-11_12h31.12.779,SL_base,2021.2.3,Win32,60.24096386,0.7136,,,96,0,96,0,1,,,,,,,,
,,"[""circle"",""green"",""vert"",""up"",[-150,0],[106,-106]]",circle,green,vert,up,"[-150,0]","[106,-106]",up,1,,,,,,001,2025-03-11_12h31.12.779,SL_base,2021.2.3,Win32,60.24096386,0.776,,,97,0,97,0,1,,,,,,,,
,,"[""circle"",""no_dis"",""vert"",""up"",[99999,99999],[106,106]]",circle,no_dis,vert,up,"[99999,99999]","[106,106]",up,1,,,,,,001,2025-03-11_12h31.12.779,SL_base,2021.2.3,Win32,60.24096386,0.6203,,,98,0,98,0,1,,,,,,,,
,,"[""diamond"",""green"",""hori"",""left"",[150,0],[106,106]]",diamond,green,hori,left,"[150,0]","[106,106]",left,1,,,,,,001,2025-03-11_12h31.12.779,SL_base,2021.2.3,Win32,60.24096386,1.1656,,,99,0,99,0,1,,,,,,,,
,,"[""circle"",""red"",""hori"",""left"",[0,150],[106,106]]",circle,red,hori,left,"[0,150]","[106,106]",left,1,,,,,,001,2025-03-11_12h31.12.779,SL_base,2021.2.3,Win32,60.24096386,0.9793,,,100,0,100,0,1,,,,,,,,
,,"[""diamond"",""no_dis"",""hori"",""left"",[99999,99999],[106,-106]]",diamond,no_dis,hori,left,"[99999,99999]","[106,-106]",up,0,,,,,,001,2025-03-11_12h31.12.779,SL_base,2021.2.3,Win32,60.24096386,1.0778,,,101,0,101,0,1,,,,,,,,
,,"[""diamond"",""red"",""hori"",""left"",[0,150],[-106,-106]]",diamond,red,hori,left,"[0,150]","[-106,-106]",left,1,,,,,,001,2025-03-11_12h31.12.779,SL_base,2021.2.3,Win32,60.24096386,1.5969,,,102,0,102,0,1,,,,,,,,
,,"[""diamond"",""green"",""vert"",""up"",[0,150],[-150,0]]",diamond,green,vert,up,"[0,150]","[-150,0]",up,1,,,,,,001,2025-03-11_12h31.12.779,SL_base,2021.2.3,Win32,60.24096386,1.078,,,103,0,103,0,1,,,,,,,,
,,"[""diamond"",""red"",""hori"",""left"",[106,-106],[0,-150]]",diamond,red,hori,left,"[106,-106]","[0,-150]",left,1,,,,,,001,2025-03-11_12h31.12.779,SL_base,2021.2.3,Win32,60.24096386,1.592,,,104,0,104,0,1,,,,,,,,
,,"[""circle"",""green"",""hori"",""left"",[106,-106],[0,-150]]",circle,green,hori,left,"[106,-106]","[0,-150]",left,1,,,,,,001,2025-03-11_12h31.12.779,SL_base,2021.2.3,Win32,60.24096386,1.3275,,,105,0,105,0,1,,,,,,,,
,,"[""diamond"",""green"",""vert"",""up"",[-106,106],[106,106]]",diamond,green,vert,up,"[-106,106]","[106,106]",up,1,,,,,,001,2025-03-11_12h31.12.779,SL_base,2021.2.3,Win32,60.24096386,0.7633,,,106,0,106,0,1,,,,,,,,
,,"[""circle"",""green"",""vert"",""up"",[106,-106],[-150,0]]",circle,green,vert,up,"[106,-106]","[-150,0]",up,1,,,,,,001,2025-03-11_12h31.12.779,SL_base,2021.2.3,Win32,60.24096386,1.6324,,,107,0,107,0,1,,,,,,,,
,,"[""circle"",""red"",""hori"",""left"",[0,-150],[0,150]]",circle,red,hori,left,"[0,-150]","[0,150]",left,1,,,,,,001,2025-03-11_12h31.12.779,SL_base,2021.2.3,Win32,60.24096386,1.0573,,,108,0,108,0,1,,,,,,,,
,,"[""diamond"",""red"",""vert"",""up"",[106,106],[106,-106]]",diamond,red,vert,up,"[106,106]","[106,-106]",up,1,,,,,,001,2025-03-11_12h31.12.779,SL_base,2021.2.3,Win32,60.24096386,1.2262,,,109,0,109,0,1,,,,,,,,
,,"[""circle"",""green"",""vert"",""up"",[150,0],[106,106]]",circle,green,vert,up,"[150,0]","[106,106]",up,1,,,,,,001,2025-03-11_12h31.12.779,SL_base,2021.2.3,Win32,60.24096386,1.2224,,,110,0,110,0,1,,,,,,,,
,,"[""diamond"",""red"",""hori"",""left"",[0,150],[-106,106]]",diamond,red,hori,left,"[0,150]","[-106,106]",left,1,,,,,,001,2025-03-11_12h31.12.779,SL_base,2021.2.3,Win32,60.24096386,0.9645,,,111,0,111,0,1,,,,,,,,
,,"[""diamond"",""no_dis"",""hori"",""left"",[99999,99999],[-150,0]]",diamond,no_dis,hori,left,"[99999,99999]","[-150,0]",left,1,,,,,,001,2025-03-11_12h31.12.779,SL_base,2021.2.3,Win32,60.24096386,0.9098,,,112,0,112,0,1,,,,,,,,
,,"[""diamond"",""green"",""vert"",""up"",[-106,106],[-106,-106]]",diamond,green,vert,up,"[-106,106]","[-106,-106]",up,1,,,,,,001,2025-03-11_12h31.12.779,SL_base,2021.2.3,Win32,60.24096386,1.2103,,,113,0,113,0,1,,,,,,,,
,,"[""diamond"",""no_dis"",""hori"",""left"",[99999,99999],[0,-150]]",diamond,no_dis,hori,left,"[99999,99999]","[0,-150]",left,1,,,,,,001,2025-03-11_12h31.12.779,SL_base,2021.2.3,Win32,60.24096386,0.7718,,,114,0,114,0,1,,,,,,,,
,,"[""circle"",""green"",""hori"",""left"",[-106,-106],[106,-106]]",circle,green,hori,left,"[-106,-106]","[106,-106]",left,1,,,,,,001,2025-03-11_12h31.12.779,SL_base,2021.2.3,Win32,60.24096386,1.2327,,,115,0,115,0,1,,,,,,,,
,,"[""diamond"",""red"",""hori"",""left"",[0,-150],[106,-106]]",diamond,red,hori,left,"[0,-150]","[106,-106]",left,1,,,,,,001,2025-03-11_12h31.12.779,SL_base,2021.2.3,Win32,60.24096386,0.8353,,,116,0,116,0,1,,,,,,,,
,,"[""diamond"",""red"",""hori"",""left"",[0,150],[-150,0]]",diamond,red,hori,left,"[0,150]","[-150,0]",left,1,,,,,,001,2025-03-11_12h31.12.779,SL_base,2021.2.3,Win32,60.24096386,0.8512,,,117,0,117,0,1,,,,,,,,
,,"[""diamond"",""red"",""vert"",""up"",[-106,-106],[0,-150]]",diamond,red,vert,up,"[-106,-106]","[0,-150]",up,1,,,,,,001,2025-03-11_12h31.12.779,SL_base,2021.2.3,Win32,60.24096386,0.85,,,118,0,118,0,1,,,,,,,,
,,"[""circle"",""no_dis"",""hori"",""left"",[99999,99999],[106,-106]]",circle,no_dis,hori,left,"[99999,99999]","[106,-106]",left,1,,,,,,001,2025-03-11_12h31.12.779,SL_base,2021.2.3,Win32,60.24096386,0.8009,,,119,0,119,0,1,,,,,,,,
,,,,,,,,,,,,,,,,001,2025-03-11_12h31.12.779,SL_base,2021.2.3,Win32,60.24096386,,,,,,,,,3,space,9.0361,2,0,2,0,1
,,"[""diamond"",""green"",""vert"",""up"",[-106,-106],[0,150]]",diamond,green,vert,up,"[-106,-106]","[0,150]",up,1,,,,,,001,2025-03-11_12h31.12.779,SL_base,2021.2.3,Win32,60.24096386,0.9183,,,0,0,0,0,1,,,,,,,,
,,"[""diamond"",""no_dis"",""vert"",""up"",[99999,99999],[150,0]]",diamond,no_dis,vert,up,"[99999,99999]","[150,0]",up,1,,,,,,001,2025-03-11_12h31.12.779,SL_base,2021.2.3,Win32,60.24096386,0.8011,,,1,0,1,0,1,,,,,,,,
,,"[""circle"",""red"",""hori"",""left"",[-106,-106],[0,-150]]",circle,red,hori,left,"[-106,-106]","[0,-150]",left,1,,,,,,001,2025-03-11_12h31.12.779,SL_base,2021.2.3,Win32,60.24096386,1.0682,,,2,0,2,0,1,,,,,,,,
,,"[""diamond"",""no_dis"",""vert"",""up"",[99999,99999],[-150,0]]",diamond,no_dis,vert,up,"[99999,99999]","[-150,0]",up,1,,,,,,001,2025-03-11_12h31.12.779,SL_base,2021.2.3,Win32,60.24096386,0.9167,,,3,0,3,0,1,,,,,,,,
,,"[""circle"",""red"",""hori"",""left"",[0,-150],[-106,-106]]",circle,red,hori,left,"[0,-150]","[-106,-106]",left,1,,,,,,001,2025-03-11_12h31.12.779,SL_base,2021.2.3,Win32,60.24096386,1.2507,,,4,0,4,0,1,,,,,,,,
,,"[""circle"",""red"",""vert"",""up"",[0,150],[106,-106]]",circle,red,vert,up,"[0,150]","[106,-106]",up,1,,,,,,001,2025-03-11_12h31.12.779,SL_base,2021.2.3,Win32,60.24096386,0.7828,,,5,0,5,0,1,,,,,,,,
,,"[""circle"",""red"",""vert"",""up"",[-150,0],[-106,-106]]",circle,red,vert,up,"[-150,0]","[-106,-106]",up,1,,,,,,001,2025-03-11_12h31.12.779,SL_base,2021.2.3,Win32,60.24096386,1.1331,,,6,0,6,0,1,,,,,,,,
,,"[""circle"",""green"",""vert"",""up"",[150,0],[0,-150]]",circle,green,vert,up,"[150,0]","[0,-150]",up,1,,,,,,001,2025-03-11_12h31.12.779,SL_base,2021.2.3,Win32,60.24096386,1.3856,,,7,0,7,0,1,,,,,,,,
,,"[""diamond"",""no_dis"",""hori"",""left"",[99999,99999],[150,0]]",diamond,no_dis,hori,left,"[99999,99999]","[150,0]",left,1,,,,,,001,2025-03-11_12h31.12.779,SL_base,2021.2.3,Win32,60.24096386,1.0343,,,8,0,8,0,1,,,,,,,,
,,"[""diamond"",""red"",""hori"",""left"",[0,150],[-106,106]]",diamond,red,hori,left,"[0,150]","[-106,106]",left,1,,,,,,001,2025-03-11_12h31.12.779,SL_base,2021.2.3,Win32,60.24096386,0.9505,,,9,0,9,0,1,,,,,,,,
,,"[""diamond"",""green"",""hori"",""left"",[0,-150],[-150,0]]",diamond,green,hori,left,"[0,-150]","[-150,0]",left,1,,,,,,001,2025-03-11_12h31.12.779,SL_base,2021.2.3,Win32,60.24096386,1.1522,,,10,0,10,0,1,,,,,,,,
,,"[""circle"",""green"",""hori"",""left"",[-150,0],[106,106]]",circle,green,hori,left,"[-150,0]","[106,106]",left,1,,,,,,001,2025-03-11_12h31.12.779,SL_base,2021.2.3,Win32,60.24096386,1.0833,,,11,0,11,0,1,,,,,,,,
,,"[""circle"",""no_dis"",""vert"",""up"",[99999,99999],[-106,106]]",circle,no_dis,vert,up,"[99999,99999]","[-106,106]",up,1,,,,,,001,2025-03-11_12h31.12.779,SL_base,2021.2.3,Win32,60.24096386,0.7492,,,12,0,12,0,1,,,,,,,,
,,"[""diamond"",""green"",""hori"",""left"",[-106,106],[-106,-106]]",diamond,green,hori,left,"[-106,106]","[-106,-106]",left,1,,,,,,001,2025-03-11_12h31.12.779,SL_base,2021.2.3,Win32,60.24096386,1.2179,,,13,0,13,0,1,,,,,,,,
,,"[""circle"",""green"",""vert"",""up"",[-150,0],[106,-106]]",circle,green,vert,up,"[-150,0]","[106,-106]",up,1,,,,,,001,2025-03-11_12h31.12.779,SL_base,2021.2.3,Win32,60.24096386,0.8849,,,14,0,14,0,1,,,,,,,,
,,"[""diamond"",""red"",""vert"",""up"",[106,106],[150,0]]",diamond,red,vert,up,"[106,106]","[150,0]",up,1,,,,,,001,2025-03-11_12h31.12.779,SL_base,2021.2.3,Win32,60.24096386,1.8345,,,15,0,15,0,1,,,,,,,,
,,"[""diamond"",""red"",""hori"",""left"",[0,150],[-106,106]]",diamond,red,hori,left,"[0,150]","[-106,106]",left,1,,,,,,001,2025-03-11_12h31.12.779,SL_base,2021.2.3,Win32,60.24096386,0.7342,,,16,0,16,0,1,,,,,,,,
,,"[""diamond"",""green"",""hori"",""left"",[0,150],[150,0]]",diamond,green,hori,left,"[0,150]","[150,0]",left,1,,,,,,001,2025-03-11_12h31.12.779,SL_base,2021.2.3,Win32,60.24096386,0.9514,,,17,0,17,0,1,,,,,,,,
,,"[""circle"",""no_dis"",""vert"",""up"",[99999,99999],[-150,0]]",circle,no_dis,vert,up,"[99999,99999]","[-150,0]",up,1,,,,,,001,2025-03-11_12h31.12.779,SL_base,2021.2.3,Win32,60.24096386,0.9012,,,18,0,18,0,1,,,,,,,,
,,"[""diamond"",""red"",""vert"",""up"",[-106,-106],[0,-150]]",diamond,red,vert,up,"[-106,-106]","[0,-150]",up,1,,,,,,001,2025-03-11_12h31.12.779,SL_base,2021.2.3,Win32,60.24096386,1.2011,,,19,0,19,0,1,,,,,,,,
,,"[""circle"",""red"",""hori"",""left"",[0,150],[-150,0]]",circle,red,hori,left,"[0,150]","[-150,0]",left,1,,,,,,001,2025-03-11_12h31.12.779,SL_base,2021.2.3,Win32,60.24096386,0.9007,,,20,0,20,0,1,,,,,,,,
,,"[""circle"",""no_dis"",""vert"",""up"",[99999,99999],[0,-150]]",circle,no_dis,vert,up,"[99999,99999]","[0,-150]",up,1,,,,,,001,2025-03-11_12h31.12.779,SL_base,2021.2.3,Win32,60.24096386,0.6511,,,21,0,21,0,1,,,,,,,,
,,"[""diamond"",""no_dis"",""vert"",""up"",[99999,99999],[-106,106]]",diamond,no_dis,vert,up,"[99999,99999]","[-106,106]",up,1,,,,,,001,2025-03-11_12h31.12.779,SL_base,2021.2.3,Win32,60.24096386,0.7663,,,22,0,22,0,1,,,,,,,,
,,"[""diamond"",""red"",""hori"",""left"",[0,150],[-150,0]]",diamond,red,hori,left,"[0,150]","[-150,0]",left,1,,,,,,001,2025-03-11_12h31.12.779,SL_base,2021.2.3,Win32,60.24096386,1.1517,,,23,0,23,0,1,,,,,,,,
,,"[""circle"",""green"",""vert"",""up"",[0,150],[-150,0]]",circle,green,vert,up,"[0,150]","[-150,0]",up,1,,,,,,001,2025-03-11_12h31.12.779,SL_base,2021.2.3,Win32,60.24096386,1.0511,,,24,0,24,0,1,,,,,,,,
,,"[""diamond"",""green"",""vert"",""up"",[-106,-106],[106,-106]]",diamond,green,vert,up,"[-106,-106]","[106,-106]",up,1,,,,,,001,2025-03-11_12h31.12.779,SL_base,2021.2.3,Win32,60.24096386,1.0005,,,25,0,25,0,1,,,,,,,,
,,"[""circle"",""red"",""hori"",""left"",[0,150],[106,106]]",circle,red,hori,left,"[0,150]","[106,106]",left,1,,,,,,001,2025-03-11_12h31.12.779,SL_base,2021.2.3,Win32,60.24096386,0.9663,,,26,0,26,0,1,,,,,,,,
,,"[""circle"",""no_dis"",""vert"",""up"",[99999,99999],[-106,-106]]",circle,no_dis,vert,up,"[99999,99999]","[-106,-106]",up,1,,,,,,001,2025-03-11_12h31.12.779,SL_base,2021.2.3,Win32,60.24096386,0.6843,,,27,0,27,0,1,,,,,,,,
,,"[""circle"",""red"",""hori"",""left"",[0,150],[-106,-106]]",circle,red,hori,left,"[0,150]","[-106,-106]",left,1,,,,,,001,2025-03-11_12h31.12.779,SL_base,2021.2.3,Win32,60.24096386,0.9484,,,28,0,28,0,1,,,,,,,,
,,"[""diamond"",""green"",""vert"",""up"",[-106,106],[106,-106]]",diamond,green,vert,up,"[-106,106]","[106,-106]",up,1,,,,,,001,2025-03-11_12h31.12.779,SL_base,2021.2.3,Win32,60.24096386,0.7179,,,29,0,29,0,1,,,,,,,,
,,"[""circle"",""green"",""hori"",""left"",[106,-106],[0,150]]",circle,green,hori,left,"[106,-106]","[0,150]",left,1,,,,,,001,2025-03-11_12h31.12.779,SL_base,2021.2.3,Win32,60.24096386,1.1513,,,30,0,30,0,1,,,,,,,,
,,"[""diamond"",""red"",""vert"",""up"",[0,-150],[106,-106]]",diamond,red,vert,up,"[0,-150]","[106,-106]",up,1,,,,,,001,2025-03-11_12h31.12.779,SL_base,2021.2.3,Win32,60.24096386,0.7023,,,31,0,31,0,1,,,,,,,,
,,"[""diamond"",""green"",""vert"",""up"",[106,-106],[-150,0]]",diamond,green,vert,up,"[106,-106]","[-150,0]",up,1,,,,,,001,2025-03-11_12h31.12.779,SL_base,2021.2.3,Win32,60.24096386,0.9337,,,32,0,32,0,1,,,,,,,,
,,"[""diamond"",""no_dis"",""vert"",""up"",[99999,99999],[-150,0]]",diamond,no_dis,vert,up,"[99999,99999]","[-150,0]",up,1,,,,,,001,2025-03-11_12h31.12.779,SL_base,2021.2.3,Win32,60.24096386,0.701,,,33,0,33,0,1,,,,,,,,
,,"[""diamond"",""red"",""hori"",""left"",[0,150],[-106,106]]",diamond,red,hori,left,"[0,150]","[-106,106]",left,1,,,,,,001,2025-03-11_12h31.12.779,SL_base,2021.2.3,Win32,60.24096386,0.7855,,,34,0,34,0,1,,,,,,,,
,,"[""diamond"",""green"",""hori"",""left"",[150,0],[106,106]]",diamond,green,hori,left,"[150,0]","[106,106]",left,1,,,,,,001,2025-03-11_12h31.12.779,SL_base,2021.2.3,Win32,60.24096386,0.8498,,,35,0,35,0,1,,,,,,,,
,,"[""diamond"",""no_dis"",""hori"",""left"",[99999,99999],[-106,106]]",diamond,no_dis,hori,left,"[99999,99999]","[-106,106]",left,1,,,,,,001,2025-03-11_12h31.12.779,SL_base,2021.2.3,Win32,60.24096386,0.6503,,,36,0,36,0,1,,,,,,,,
,,"[""circle"",""green"",""vert"",""up"",[150,0],[0,150]]",circle,green,vert,up,"[150,0]","[0,150]",up,1,,,,,,001,2025-03-11_12h31.12.779,SL_base,2021.2.3,Win32,60.24096386,0.9994,,,37,0,37,0,1,,,,,,,,
,,"[""diamond"",""red"",""vert"",""up"",[0,150],[106,106]]",diamond,red,vert,up,"[0,150]","[106,106]",up,1,,,,,,001,2025-03-11_12h31.12.779,SL_base,2021.2.3,Win32,60.24096386,0.8676,,,38,0,38,0,1,,,,,,,,
,,"[""circle"",""green"",""hori"",""left"",[0,150],[106,-106]]",circle,green,hori,left,"[0,150]","[106,-106]",left,1,,,,,,001,2025-03-11_12h31.12.779,SL_base,2021.2.3,Win32,60.24096386,1.0823,,,39,0,39,0,1,,,,,,,,
,,"[""circle"",""red"",""vert"",""up"",[0,150],[150,0]]",circle,red,vert,up,"[0,150]","[150,0]",up,1,,,,,,001,2025-03-11_12h31.12.779,SL_base,2021.2.3,Win32,60.24096386,1.5997,,,40,0,40,0,1,,,,,,,,
,,"[""circle"",""no_dis"",""hori"",""left"",[99999,99999],[0,150]]",circle,no_dis,hori,left,"[99999,99999]","[0,150]",left,1,,,,,,001,2025-03-11_12h31.12.779,SL_base,2021.2.3,Win32,60.24096386,0.7495,,,41,0,41,0,1,,,,,,,,
,,"[""circle"",""no_dis"",""vert"",""up"",[99999,99999],[0,-150]]",circle,no_dis,vert,up,"[99999,99999]","[0,-150]",up,1,,,,,,001,2025-03-11_12h31.12.779,SL_base,2021.2.3,Win32,60.24096386,1.0821,,,42,0,42,0,1,,,,,,,,
,,"[""circle"",""green"",""hori"",""left"",[-106,-106],[106,-106]]",circle,green,hori,left,"[-106,-106]","[106,-106]",left,1,,,,,,001,2025-03-11_12h31.12.779,SL_base,2021.2.3,Win32,60.24096386,0.7178,,,43,0,43,0,1,,,,,,,,
,,"[""circle"",""red"",""vert"",""up"",[-106,106],[106,106]]",circle,red,vert,up,"[-106,106]","[106,106]",up,1,,,,,,001,2025-03-11_12h31.12.779,SL_base,2021.2.3,Win32,60.24096386,0.7345,,,44,0,44,0,1,,,,,,,,
,,"[""circle"",""green"",""vert"",""up"",[150,0],[106,106]]",circle,green,vert,up,"[150,0]","[106,106]",up,1,,,,,,001,2025-03-11_12h31.12.779,SL_base,2021.2.3,Win32,60.24096386,0.7844,,,45,0,45,0,1,,,,,,,,
,,"[""circle"",""red"",""hori"",""left"",[0,-150],[150,0]]",circle,red,hori,left,"[0,-150]","[150,0]",left,1,,,,,,001,2025-03-11_12h31.12.779,SL_base,2021.2.3,Win32,60.24096386,0.835,,,46,0,46,0,1,,,,,,,,
,,"[""circle"",""red"",""vert"",""up"",[0,150],[-106,-106]]",circle,red,vert,up,"[0,150]","[-106,-106]",up,1,,,,,,001,2025-03-11_12h31.12.779,SL_base,2021.2.3,Win32,60.24096386,0.8517,,,47,0,47,0,1,,,,,,,,
,,"[""diamond"",""red"",""vert"",""up"",[106,106],[0,-150]]",diamond,red,vert,up,"[106,106]","[0,-150]",up,1,,,,,,001,2025-03-11_12h31.12.779,SL_base,2021.2.3,Win32,60.24096386,0.8344,,,48,0,48,0,1,,,,,,,,
,,"[""circle"",""red"",""vert"",""up"",[106,-106],[0,-150]]",circle,red,vert,up,"[106,-106]","[0,-150]",up,1,,,,,,001,2025-03-11_12h31.12.779,SL_base,2021.2.3,Win32,60.24096386,0.7007,,,49,0,49,0,1,,,,,,,,
,,"[""circle"",""green"",""hori"",""left"",[0,150],[0,-150]]",circle,green,hori,left,"[0,150]","[0,-150]",left,1,,,,,,001,2025-03-11_12h31.12.779,SL_base,2021.2.3,Win32,60.24096386,0.6517,,,50,0,50,0,1,,,,,,,,
,,"[""circle"",""green"",""vert"",""up"",[106,-106],[-150,0]]",circle,green,vert,up,"[106,-106]","[-150,0]",up,1,,,,,,001,2025-03-11_12h31.12.779,SL_base,2021.2.3,Win32,60.24096386,0.9834,,,51,0,51,0,1,,,,,,,,
,,"[""circle"",""red"",""vert"",""up"",[0,150],[150,0]]",circle,red,vert,up,"[0,150]","[150,0]",up,1,,,,,,001,2025-03-11_12h31.12.779,SL_base,2021.2.3,Win32,60.24096386,0.6845,,,52,0,52,0,1,,,,,,,,
,,"[""diamond"",""no_dis"",""hori"",""left"",[99999,99999],[106,-106]]",diamond,no_dis,hori,left,"[99999,99999]","[106,-106]",left,1,,,,,,001,2025-03-11_12h31.12.779,SL_base,2021.2.3,Win32,60.24096386,1.3509,,,53,0,53,0,1,,,,,,,,
,,"[""circle"",""red"",""vert"",""up"",[150,0],[106,106]]",circle,red,vert,up,"[150,0]","[106,106]",up,1,,,,,,001,2025-03-11_12h31.12.779,SL_base,2021.2.3,Win32,60.24096386,0.9343,,,54,0,54,0,1,,,,,,,,
,,"[""circle"",""green"",""hori"",""left"",[0,150],[150,0]]",circle,green,hori,left,"[0,150]","[150,0]",left,1,,,,,,001,2025-03-11_12h31.12.779,SL_base,2021.2.3,Win32,60.24096386,0.8499,,,55,0,55,0,1,,,,,,,,
,,"[""diamond"",""green"",""hori"",""left"",[-150,0],[0,150]]",diamond,green,hori,left,"[-150,0]","[0,150]",left,1,,,,,,001,2025-03-11_12h31.12.779,SL_base,2021.2.3,Win32,60.24096386,1.0173,,,56,0,56,0,1,,,,,,,,
,,"[""diamond"",""no_dis"",""hori"",""left"",[99999,99999],[150,0]]",diamond,no_dis,hori,left,"[99999,99999]","[150,0]",left,1,,,,,,001,2025-03-11_12h31.12.779,SL_base,2021.2.3,Win32,60.24096386,1.1671,,,57,0,57,0,1,,,,,,,,
,,"[""circle"",""red"",""hori"",""left"",[0,150],[150,0]]",circle,red,hori,left,"[0,150]","[150,0]",left,1,,,,,,001,2025-03-11_12h31.12.779,SL_base,2021.2.3,Win32,60.24096386,1.2,,,58,0,58,0,1,,,,,,,,
,,"[""diamond"",""no_dis"",""hori"",""left"",[99999,99999],[0,-150]]",diamond,no_dis,hori,left,"[99999,99999]","[0,-150]",left,1,,,,,,001,2025-03-11_12h31.12.779,SL_base,2021.2.3,Win32,60.24096386,1.4164,,,59,0,59,0,1,,,,,,,,
,,"[""circle"",""no_dis"",""hori"",""left"",[99999,99999],[-106,-106]]",circle,no_dis,hori,left,"[99999,99999]","[-106,-106]",left,1,,,,,,001,2025-03-11_12h31.12.779,SL_base,2021.2.3,Win32,60.24096386,0.8185,,,60,0,60,0,1,,,,,,,,
,,"[""diamond"",""red"",""vert"",""up"",[106,106],[106,-106]]",diamond,red,vert,up,"[106,106]","[106,-106]",up,1,,,,,,001,2025-03-11_12h31.12.779,SL_base,2021.2.3,Win32,60.24096386,0.9848,,,61,0,61,0,1,,,,,,,,
,,"[""circle"",""no_dis"",""vert"",""up"",[99999,99999],[-106,106]]",circle,no_dis,vert,up,"[99999,99999]","[-106,106]",up,1,,,,,,001,2025-03-11_12h31.12.779,SL_base,2021.2.3,Win32,60.24096386,1.6346,,,62,0,62,0,1,,,,,,,,
,,"[""diamond"",""red"",""hori"",""left"",[0,150],[-106,-106]]",diamond,red,hori,left,"[0,150]","[-106,-106]",left,1,,,,,,001,2025-03-11_12h31.12.779,SL_base,2021.2.3,Win32,60.24096386,1.0675,,,63,0,63,0,1,,,,,,,,
,,"[""diamond"",""red"",""vert"",""up"",[106,106],[-106,-106]]",diamond,red,vert,up,"[106,106]","[-106,-106]",up,1,,,,,,001,2025-03-11_12h31.12.779,SL_base,2021.2.3,Win32,60.24096386,0.85,,,64,0,64,0,1,,,,,,,,
,,"[""circle"",""no_dis"",""hori"",""left"",[99999,99999],[106,106]]",circle,no_dis,hori,left,"[99999,99999]","[106,106]",left,1,,,,,,001,2025-03-11_12h31.12.779,SL_base,2021.2.3,Win32,60.24096386,0.8006,,,65,0,65,0,1,,,,,,,,
,,"[""diamond"",""green"",""hori"",""left"",[-106,106],[106,-106]]",diamond,green,hori,left,"[-106,106]","[106,-106]",left,1,,,,,,001,2025-03-11_12h31.12.779,SL_base,2021.2.3,Win32,60.24096386,0.9343,,,66,0,66,0,1,,,,,,,,
,,"[""circle"",""green"",""vert"",""up"",[-150,0],[0,150]]",circle,green,vert,up,"[-150,0]","[0,150]",up,1,,,,,,001,2025-03-11_12h31.12.779,SL_base,2021.2.3,Win32,60.24096386,1.1503,,,67,0,67,0,1,,,,,,,,
,,"[""diamond"",""no_dis"",""hori"",""left"",[99999,99999],[-150,0]]",diamond,no_dis,hori,left,"[99999,99999]","[-150,0]",left,1,,,,,,001,2025-03-11_12h31.12.779,SL_base,2021.2.3,Win32,60.24096386,1.4518,,,68,0,68,0,1,,,,,,,,
,,"[""circle"",""red"",""hori"",""left"",[106,-106],[-150,0]]",circle,red,hori,left,"[106,-106]","[-150,0]",left,1,,,,,,001,2025-03-11_12h31.12.779,SL_base,2021.2.3,Win32,60.24096386,1.2675,,,69,0,69,0,1,,,,,,,,
,,"[""circle"",""no_dis"",""hori"",""left"",[99999,99999],[0,150]]",circle,no_dis,hori,left,"[99999,99999]","[0,150]",left,1,,,,,,001,2025-03-11_12h31.12.779,SL_base,2021.2.3,Win32,60.24096386,1.9509,,,70,0,70,0,1,,,,,,,,
,,"[""diamond"",""no_dis"",""vert"",""up"",[99999,99999],[150,0]]",diamond,no_dis,vert,up,"[99999,99999]","[150,0]",up,1,,,,,,001,2025-03-11_12h31.12.779,SL_base,2021.2.3,Win32,60.24096386,1.4344,,,71,0,71,0,1,,,,,,,,
,,"[""circle"",""green"",""hori"",""left"",[-106,-106],[0,-150]]",circle,green,hori,left,"[-106,-106]","[0,-150]",left,1,,,,,,001,2025-03-11_12h31.12.779,SL_base,2021.2.3,Win32,60.24096386,1.4176,,,72,0,72,0,1,,,,,,,,
,,"[""circle"",""green"",""hori"",""left"",[106,106],[0,-150]]",circle,green,hori,left,"[106,106]","[0,-150]",left,1,,,,,,001,2025-03-11_12h31.12.779,SL_base,2021.2.3,Win32,60.24096386,1.6,,,73,0,73,0,1,,,,,,,,
,,"[""diamond"",""red"",""vert"",""up"",[-150,0],[0,-150]]",diamond,red,vert,up,"[-150,0]","[0,-150]",up,1,,,,,,001,2025-03-11_12h31.12.779,SL_base,2021.2.3,Win32,60.24096386,1.0179,,,74,0,74,0,1,,,,,,,,
,,"[""circle"",""red"",""vert"",""up"",[106,106],[0,150]]",circle,red,vert,up,"[106,106]","[0,150]",up,1,,,,,,001,2025-03-11_12h31.12.779,SL_base,2021.2.3,Win32,60.24096386,1.0834,,,75,0,75,0,1,,,,,,,,
,,"[""diamond"",""no_dis"",""vert"",""up"",[99999,99999],[0,150]]",diamond,no_dis,vert,up,"[99999,99999]","[0,150]",up,1,,,,,,001,2025-03-11_12h31.12.779,SL_base,2021.2.3,Win32,60.24096386,1.3842,,,76,0,76,0,1,,,,,,,,
,,"[""circle"",""green"",""hori"",""left"",[-150,0],[0,-150]]",circle,green,hori,left,"[-150,0]","[0,-150]",left,1,,,,,,001,2025-03-11_12h31.12.779,SL_base,2021.2.3,Win32,60.24096386,1.8332,,,77,0,77,0,1,,,,,,,,
,,"[""diamond"",""no_dis"",""hori"",""left"",[99999,99999],[-150,0]]",diamond,no_dis,hori,left,"[99999,99999]","[-150,0]",left,1,,,,,,001,2025-03-11_12h31.12.779,SL_base,2021.2.3,Win32,60.24096386,1.3006,,,78,0,78,0,1,,,,,,,,
,,"[""diamond"",""green"",""vert"",""up"",[0,150],[-150,0]]",diamond,green,vert,up,"[0,150]","[-150,0]",up,1,,,,,,001,2025-03-11_12h31.12.779,SL_base,2021.2.3,Win32,60.24096386,1.0512,,,79,0,79,0,1,,,,,,,,
,,"[""diamond"",""green"",""vert"",""up"",[106,-106],[-106,106]]",diamond,green,vert,up,"[106,-106]","[-106,106]",up,1,,,,,,001,2025-03-11_12h31.12.779,SL_base,2021.2.3,Win32,60.24096386,2.3513,,,80,0,80,0,1,,,,,,,,
,,"[""diamond"",""no_dis"",""vert"",""up"",[99999,99999],[106,-106]]",diamond,no_dis,vert,up,"[99999,99999]","[106,-106]",up,1,,,,,,001,2025-03-11_12h31.12.779,SL_base,2021.2.3,Win32,60.24096386,0.7518,,,81,0,81,0,1,,,,,,,,
,,"[""diamond"",""green"",""hori"",""left"",[0,-150],[-106,106]]",diamond,green,hori,left,"[0,-150]","[-106,106]",left,1,,,,,,001,2025-03-11_12h31.12.779,SL_base,2021.2.3,Win32,60.24096386,0.7356,,,82,0,82,0,1,,,,,,,,
,,"[""circle"",""no_dis"",""hori"",""left"",[99999,99999],[150,0]]",circle,no_dis,hori,left,"[99999,99999]","[150,0]",left,1,,,,,,001,2025-03-11_12h31.12.779,SL_base,2021.2.3,Win32,60.24096386,1.5001,,,83,0,83,0,1,,,,,,,,
,,"[""circle"",""no_dis"",""hori"",""left"",[99999,99999],[106,106]]",circle,no_dis,hori,left,"[99999,99999]","[106,106]",left,1,,,,,,001,2025-03-11_12h31.12.779,SL_base,2021.2.3,Win32,60.24096386,0.8687,,,84,0,84,0,1,,,,,,,,
,,"[""diamond"",""red"",""vert"",""up"",[-150,0],[0,150]]",diamond,red,vert,up,"[-150,0]","[0,150]",up,1,,,,,,001,2025-03-11_12h31.12.779,SL_base,2021.2.3,Win32,60.24096386,0.9517,,,85,0,85,0,1,,,,,,,,
,,"[""diamond"",""no_dis"",""hori"",""left"",[99999,99999],[0,150]]",diamond,no_dis,hori,left,"[99999,99999]","[0,150]",left,1,,,,,,001,2025-03-11_12h31.12.779,SL_base,2021.2.3,Win32,60.24096386,1.6346,,,86,0,86,0,1,,,,,,,,
,,"[""diamond"",""green"",""hori"",""left"",[150,0],[-150,0]]",diamond,green,hori,left,"[150,0]","[-150,0]",left,1,,,,,,001,2025-03-11_12h31.12.779,SL_base,2021.2.3,Win32,60.24096386,0.8171,,,87,0,87,0,1,,,,,,,,
,,"[""circle"",""no_dis"",""hori"",""left"",[99999,99999],[0,150]]",circle,no_dis,hori,left,"[99999,99999]","[0,150]",left,1,,,,,,001,2025-03-11_12h31.12.779,SL_base,2021.2.3,Win32,60.24096386,1.3853,,,88,0,88,0,1,,,,,,,,
,,"[""diamond"",""no_dis"",""vert"",""up"",[99999,99999],[-106,-106]]",diamond,no_dis,vert,up,"[99999,99999]","[-106,-106]",up,1,,,,,,001,2025-03-11_12h31.12.779,SL_base,2021.2.3,Win32,60.24096386,0.9509,,,89,0,89,0,1,,,,,,,,
,,"[""circle"",""no_dis"",""vert"",""up"",[99999,99999],[106,-106]]",circle,no_dis,vert,up,"[99999,99999]","[106,-106]",up,1,,,,,,001,2025-03-11_12h31.12.779,SL_base,2021.2.3,Win32,60.24096386,1.2678,,,90,0,90,0,1,,,,,,,,
,,"[""diamond"",""no_dis"",""vert"",""up"",[99999,99999],[0,-150]]",diamond,no_dis,vert,up,"[99999,99999]","[0,-150]",up,1,,,,,,001,2025-03-11_12h31.12.779,SL_base,2021.2.3,Win32,60.24096386,0.8506,,,91,0,91,0,1,,,,,,,,
