﻿key_resp.keys,key_resp.rt,trial_para,tar_shape,dis_color_condi,tar_line,cor_resp,dis_loc,tar_loc,resp.keys,resp.corr,resp.rt,trials.thisRepN,trials.thisTrialN,trials.thisN,trials.thisIndex,trials.ran,participant,date,expName,psychopyVersion,OS,frameRate,key_resp_2.keys,key_resp_2.rt,trials_2.thisRepN,trials_2.thisTrialN,trials_2.thisN,trials_2.thisIndex,trials_2.ran,block_num,key_resp_3.keys,key_resp_3.rt,trials_3.thisRepN,trials_3.thisTrialN,trials_3.thisN,trials_3.thisIndex,trials_3.ran
space,33.0778,"[""diamond"",""no_dis"",""hori"",""left"",[99999,99999],[-106,106]]",diamond,no_dis,hori,left,"[99999,99999]","[-106,106]",left,1,1.5327,0,0,0,0,1,001,2025-03-10_17h06.27.927,SL_base,2021.2.3,Win32,250,,,,,,,,,,,,,,,
,,"[""diamond"",""no_dis"",""vert"",""up"",[99999,99999],[0,-150]]",diamond,no_dis,vert,up,"[99999,99999]","[0,-150]",up,1,2.4499,1,0,1,0,1,001,2025-03-10_17h06.27.927,SL_base,2021.2.3,Win32,250,,,,,,,,,,,,,,,
,,"[""circle"",""red"",""hori"",""left"",[106,-106],[-106,-106]]",circle,red,hori,left,"[106,-106]","[-106,-106]",left,1,2.2025,2,0,2,0,1,001,2025-03-10_17h06.27.927,SL_base,2021.2.3,Win32,250,,,,,,,,,,,,,,,
,,"[""diamond"",""red"",""hori"",""left"",[-106,106],[150,0]]",diamond,red,hori,left,"[-106,106]","[150,0]",up,0,2.3683,3,0,3,0,1,001,2025-03-10_17h06.27.927,SL_base,2021.2.3,Win32,250,,,,,,,,,,,,,,,
,,"[""circle"",""green"",""vert"",""up"",[-106,106],[-106,-106]]",circle,green,vert,up,"[-106,106]","[-106,-106]",left,0,1.7059,4,0,4,0,1,001,2025-03-10_17h06.27.927,SL_base,2021.2.3,Win32,250,,,,,,,,,,,,,,,
,,"[""diamond"",""no_dis"",""hori"",""left"",[99999,99999],[-150,0]]",diamond,no_dis,hori,left,"[99999,99999]","[-150,0]",left,1,2.1466,5,0,5,0,1,001,2025-03-10_17h06.27.927,SL_base,2021.2.3,Win32,250,,,,,,,,,,,,,,,
,,"[""diamond"",""red"",""vert"",""up"",[0,150],[-150,0]]",diamond,red,vert,up,"[0,150]","[-150,0]",up,1,1.4258,6,0,6,0,1,001,2025-03-10_17h06.27.927,SL_base,2021.2.3,Win32,250,,,,,,,,,,,,,,,
,,"[""circle"",""no_dis"",""vert"",""up"",[99999,99999],[0,150]]",circle,no_dis,vert,up,"[99999,99999]","[0,150]",up,1,2.5613,7,0,7,0,1,001,2025-03-10_17h06.27.927,SL_base,2021.2.3,Win32,250,,,,,,,,,,,,,,,
,,"[""circle"",""red"",""hori"",""left"",[-150,0],[106,106]]",circle,red,hori,left,"[-150,0]","[106,106]",left,1,1.8161,8,0,8,0,1,001,2025-03-10_17h06.27.927,SL_base,2021.2.3,Win32,250,,,,,,,,,,,,,,,
,,"[""circle"",""no_dis"",""vert"",""up"",[99999,99999],[106,106]]",circle,no_dis,vert,up,"[99999,99999]","[106,106]",up,1,1.9503,9,0,9,0,1,001,2025-03-10_17h06.27.927,SL_base,2021.2.3,Win32,250,,,,,,,,,,,,,,,
,,"[""diamond"",""no_dis"",""hori"",""left"",[99999,99999],[-106,106]]",diamond,no_dis,hori,left,"[99999,99999]","[-106,106]",left,1,1.8757,,,,,,001,2025-03-10_17h06.27.927,SL_base,2021.2.3,Win32,250,space,42.7727,0,0,0,0,1,,,,,,,,
,,"[""diamond"",""no_dis"",""vert"",""up"",[99999,99999],[0,-150]]",diamond,no_dis,vert,up,"[99999,99999]","[0,-150]",up,1,1.4029,,,,,,001,2025-03-10_17h06.27.927,SL_base,2021.2.3,Win32,250,,,1,0,1,0,1,,,,,,,,
,,"[""circle"",""red"",""hori"",""left"",[106,-106],[-106,-106]]",circle,red,hori,left,"[106,-106]","[-106,-106]",left,1,1.5289,,,,,,001,2025-03-10_17h06.27.927,SL_base,2021.2.3,Win32,250,,,2,0,2,0,1,,,,,,,,
,,"[""diamond"",""red"",""hori"",""left"",[-106,106],[150,0]]",diamond,red,hori,left,"[-106,106]","[150,0]",left,1,1.4429,,,,,,001,2025-03-10_17h06.27.927,SL_base,2021.2.3,Win32,250,,,3,0,3,0,1,,,,,,,,
,,"[""circle"",""green"",""vert"",""up"",[-106,106],[-106,-106]]",circle,green,vert,up,"[-106,106]","[-106,-106]",up,1,1.3979,,,,,,001,2025-03-10_17h06.27.927,SL_base,2021.2.3,Win32,250,,,4,0,4,0,1,,,,,,,,
,,"[""diamond"",""no_dis"",""hori"",""left"",[99999,99999],[-150,0]]",diamond,no_dis,hori,left,"[99999,99999]","[-150,0]",left,1,1.095,,,,,,001,2025-03-10_17h06.27.927,SL_base,2021.2.3,Win32,250,,,5,0,5,0,1,,,,,,,,
,,"[""diamond"",""red"",""vert"",""up"",[0,150],[-150,0]]",diamond,red,vert,up,"[0,150]","[-150,0]",up,1,1.6538,,,,,,001,2025-03-10_17h06.27.927,SL_base,2021.2.3,Win32,250,,,6,0,6,0,1,,,,,,,,
,,"[""circle"",""no_dis"",""vert"",""up"",[99999,99999],[0,150]]",circle,no_dis,vert,up,"[99999,99999]","[0,150]",left,0,1.7739,,,,,,001,2025-03-10_17h06.27.927,SL_base,2021.2.3,Win32,250,,,7,0,7,0,1,,,,,,,,
,,"[""circle"",""red"",""hori"",""left"",[-150,0],[106,106]]",circle,red,hori,left,"[-150,0]","[106,106]",up,0,1.2504,,,,,,001,2025-03-10_17h06.27.927,SL_base,2021.2.3,Win32,250,,,8,0,8,0,1,,,,,,,,
,,"[""circle"",""no_dis"",""vert"",""up"",[99999,99999],[106,106]]",circle,no_dis,vert,up,"[99999,99999]","[106,106]",left,0,1.4827,,,,,,001,2025-03-10_17h06.27.927,SL_base,2021.2.3,Win32,250,,,9,0,9,0,1,,,,,,,,
,,"[""diamond"",""green"",""hori"",""left"",[-106,-106],[150,0]]",diamond,green,hori,left,"[-106,-106]","[150,0]",up,0,1.7341,,,,,,001,2025-03-10_17h06.27.927,SL_base,2021.2.3,Win32,250,,,10,0,10,0,1,,,,,,,,
,,"[""circle"",""green"",""hori"",""left"",[0,-150],[0,150]]",circle,green,hori,left,"[0,-150]","[0,150]",left,1,1.9792,,,,,,001,2025-03-10_17h06.27.927,SL_base,2021.2.3,Win32,250,,,11,0,11,0,1,,,,,,,,
,,"[""circle"",""red"",""hori"",""left"",[0,-150],[106,-106]]",circle,red,hori,left,"[0,-150]","[106,-106]",up,0,1.6831,,,,,,001,2025-03-10_17h06.27.927,SL_base,2021.2.3,Win32,250,,,12,0,12,0,1,,,,,,,,
,,"[""diamond"",""green"",""vert"",""up"",[0,-150],[0,150]]",diamond,green,vert,up,"[0,-150]","[0,150]",up,1,1.9417,,,,,,001,2025-03-10_17h06.27.927,SL_base,2021.2.3,Win32,250,,,13,0,13,0,1,,,,,,,,
,,"[""diamond"",""no_dis"",""hori"",""left"",[99999,99999],[-106,-106]]",diamond,no_dis,hori,left,"[99999,99999]","[-106,-106]",left,1,1.2033,,,,,,001,2025-03-10_17h06.27.927,SL_base,2021.2.3,Win32,250,,,14,0,14,0,1,,,,,,,,
,,"[""diamond"",""red"",""vert"",""up"",[106,106],[150,0]]",diamond,red,vert,up,"[106,106]","[150,0]",left,0,1.6066,,,,,,001,2025-03-10_17h06.27.927,SL_base,2021.2.3,Win32,250,,,15,0,15,0,1,,,,,,,,
,,"[""circle"",""red"",""hori"",""left"",[106,106],[0,150]]",circle,red,hori,left,"[106,106]","[0,150]",up,0,1.4877,,,,,,001,2025-03-10_17h06.27.927,SL_base,2021.2.3,Win32,250,,,16,0,16,0,1,,,,,,,,
,,"[""diamond"",""no_dis"",""hori"",""left"",[99999,99999],[106,106]]",diamond,no_dis,hori,left,"[99999,99999]","[106,106]",left,1,1.3177,,,,,,001,2025-03-10_17h06.27.927,SL_base,2021.2.3,Win32,250,,,17,0,17,0,1,,,,,,,,
,,"[""circle"",""red"",""vert"",""up"",[106,-106],[106,106]]",circle,red,vert,up,"[106,-106]","[106,106]",up,1,1.424,,,,,,001,2025-03-10_17h06.27.927,SL_base,2021.2.3,Win32,250,,,18,0,18,0,1,,,,,,,,
,,"[""diamond"",""no_dis"",""hori"",""left"",[99999,99999],[106,-106]]",diamond,no_dis,hori,left,"[99999,99999]","[106,-106]",left,1,1.3838,,,,,,001,2025-03-10_17h06.27.927,SL_base,2021.2.3,Win32,250,,,19,0,19,0,1,,,,,,,,
,,"[""circle"",""red"",""hori"",""left"",[0,-150],[106,-106]]",circle,red,hori,left,"[0,-150]","[106,-106]",up,0,1.857,,,,,,001,2025-03-10_17h06.27.927,SL_base,2021.2.3,Win32,250,,,20,0,20,0,1,,,,,,,,
,,"[""circle"",""green"",""vert"",""up"",[106,-106],[0,150]]",circle,green,vert,up,"[106,-106]","[0,150]",up,1,1.366,,,,,,001,2025-03-10_17h06.27.927,SL_base,2021.2.3,Win32,250,,,21,0,21,0,1,,,,,,,,
,,"[""circle"",""red"",""vert"",""up"",[106,-106],[-106,-106]]",circle,red,vert,up,"[106,-106]","[-106,-106]",up,1,1.142,,,,,,001,2025-03-10_17h06.27.927,SL_base,2021.2.3,Win32,250,,,22,0,22,0,1,,,,,,,,
,,"[""diamond"",""red"",""hori"",""left"",[-106,-106],[106,-106]]",diamond,red,hori,left,"[-106,-106]","[106,-106]",left,1,2.0019,,,,,,001,2025-03-10_17h06.27.927,SL_base,2021.2.3,Win32,250,,,23,0,23,0,1,,,,,,,,
,,"[""diamond"",""red"",""vert"",""up"",[0,-150],[-106,-106]]",diamond,red,vert,up,"[0,-150]","[-106,-106]",up,1,1.4458,,,,,,001,2025-03-10_17h06.27.927,SL_base,2021.2.3,Win32,250,,,24,0,24,0,1,,,,,,,,
,,"[""diamond"",""no_dis"",""vert"",""up"",[99999,99999],[0,-150]]",diamond,no_dis,vert,up,"[99999,99999]","[0,-150]",up,1,1.6041,,,,,,001,2025-03-10_17h06.27.927,SL_base,2021.2.3,Win32,250,,,25,0,25,0,1,,,,,,,,
,,"[""diamond"",""red"",""vert"",""up"",[-106,-106],[150,0]]",diamond,red,vert,up,"[-106,-106]","[150,0]",up,1,1.5555,,,,,,001,2025-03-10_17h06.27.927,SL_base,2021.2.3,Win32,250,,,26,0,26,0,1,,,,,,,,
,,"[""circle"",""green"",""vert"",""up"",[-150,0],[0,-150]]",circle,green,vert,up,"[-150,0]","[0,-150]",up,1,1.9437,,,,,,001,2025-03-10_17h06.27.927,SL_base,2021.2.3,Win32,250,,,27,0,27,0,1,,,,,,,,
,,"[""diamond"",""no_dis"",""hori"",""left"",[99999,99999],[106,106]]",diamond,no_dis,hori,left,"[99999,99999]","[106,106]",left,1,1.1005,,,,,,001,2025-03-10_17h06.27.927,SL_base,2021.2.3,Win32,250,,,28,0,28,0,1,,,,,,,,
,,"[""diamond"",""red"",""vert"",""up"",[106,106],[-150,0]]",diamond,red,vert,up,"[106,106]","[-150,0]",up,1,1.2187,,,,,,001,2025-03-10_17h06.27.927,SL_base,2021.2.3,Win32,250,,,29,0,29,0,1,,,,,,,,
,,"[""circle"",""green"",""hori"",""left"",[-106,-106],[-150,0]]",circle,green,hori,left,"[-106,-106]","[-150,0]",left,1,1.3216,,,,,,001,2025-03-10_17h06.27.927,SL_base,2021.2.3,Win32,250,,,30,0,30,0,1,,,,,,,,
,,"[""diamond"",""no_dis"",""hori"",""left"",[99999,99999],[150,0]]",diamond,no_dis,hori,left,"[99999,99999]","[150,0]",left,1,1.1418,,,,,,001,2025-03-10_17h06.27.927,SL_base,2021.2.3,Win32,250,,,31,0,31,0,1,,,,,,,,
,,"[""circle"",""green"",""hori"",""left"",[-106,106],[0,150]]",circle,green,hori,left,"[-106,106]","[0,150]",up,0,1.5117,,,,,,001,2025-03-10_17h06.27.927,SL_base,2021.2.3,Win32,250,,,32,0,32,0,1,,,,,,,,
,,"[""circle"",""no_dis"",""vert"",""up"",[99999,99999],[-150,0]]",circle,no_dis,vert,up,"[99999,99999]","[-150,0]",up,1,1.4596,,,,,,001,2025-03-10_17h06.27.927,SL_base,2021.2.3,Win32,250,,,33,0,33,0,1,,,,,,,,
,,"[""diamond"",""red"",""hori"",""left"",[-106,106],[-106,-106]]",diamond,red,hori,left,"[-106,106]","[-106,-106]",left,1,0.8738,,,,,,001,2025-03-10_17h06.27.927,SL_base,2021.2.3,Win32,250,,,34,0,34,0,1,,,,,,,,
,,"[""diamond"",""green"",""vert"",""up"",[0,-150],[-150,0]]",diamond,green,vert,up,"[0,-150]","[-150,0]",up,1,1.4859,,,,,,001,2025-03-10_17h06.27.927,SL_base,2021.2.3,Win32,250,,,35,0,35,0,1,,,,,,,,
,,"[""circle"",""red"",""hori"",""left"",[-150,0],[0,150]]",circle,red,hori,left,"[-150,0]","[0,150]",left,1,1.2176,,,,,,001,2025-03-10_17h06.27.927,SL_base,2021.2.3,Win32,250,,,36,0,36,0,1,,,,,,,,
,,"[""circle"",""red"",""hori"",""left"",[0,-150],[-106,-106]]",circle,red,hori,left,"[0,-150]","[-106,-106]",left,1,1.885,,,,,,001,2025-03-10_17h06.27.927,SL_base,2021.2.3,Win32,250,,,37,0,37,0,1,,,,,,,,
,,"[""diamond"",""no_dis"",""vert"",""up"",[99999,99999],[0,150]]",diamond,no_dis,vert,up,"[99999,99999]","[0,150]",up,1,0.8168,,,,,,001,2025-03-10_17h06.27.927,SL_base,2021.2.3,Win32,250,,,38,0,38,0,1,,,,,,,,
,,"[""diamond"",""no_dis"",""hori"",""left"",[99999,99999],[106,-106]]",diamond,no_dis,hori,left,"[99999,99999]","[106,-106]",left,1,0.8499,,,,,,001,2025-03-10_17h06.27.927,SL_base,2021.2.3,Win32,250,,,39,0,39,0,1,,,,,,,,
,,"[""circle"",""green"",""hori"",""left"",[0,-150],[0,150]]",circle,green,hori,left,"[0,-150]","[0,150]",left,1,1.5633,,,,,,001,2025-03-10_17h06.27.927,SL_base,2021.2.3,Win32,250,,,40,0,40,0,1,,,,,,,,
,,"[""diamond"",""green"",""hori"",""left"",[-106,-106],[0,150]]",diamond,green,hori,left,"[-106,-106]","[0,150]",left,1,2.0551,,,,,,001,2025-03-10_17h06.27.927,SL_base,2021.2.3,Win32,250,,,41,0,41,0,1,,,,,,,,
,,"[""circle"",""red"",""hori"",""left"",[0,150],[-150,0]]",circle,red,hori,left,"[0,150]","[-150,0]",left,1,1.4363,,,,,,001,2025-03-10_17h06.27.927,SL_base,2021.2.3,Win32,250,,,42,0,42,0,1,,,,,,,,
,,"[""circle"",""green"",""vert"",""up"",[150,0],[0,-150]]",circle,green,vert,up,"[150,0]","[0,-150]",up,1,1.4595,,,,,,001,2025-03-10_17h06.27.927,SL_base,2021.2.3,Win32,250,,,43,0,43,0,1,,,,,,,,
,,"[""diamond"",""no_dis"",""vert"",""up"",[99999,99999],[150,0]]",diamond,no_dis,vert,up,"[99999,99999]","[150,0]",up,1,0.9862,,,,,,001,2025-03-10_17h06.27.927,SL_base,2021.2.3,Win32,250,,,44,0,44,0,1,,,,,,,,
,,"[""circle"",""red"",""hori"",""left"",[-150,0],[0,-150]]",circle,red,hori,left,"[-150,0]","[0,-150]",left,1,1.3252,,,,,,001,2025-03-10_17h06.27.927,SL_base,2021.2.3,Win32,250,,,45,0,45,0,1,,,,,,,,
,,"[""diamond"",""no_dis"",""vert"",""up"",[99999,99999],[106,-106]]",diamond,no_dis,vert,up,"[99999,99999]","[106,-106]",up,1,1.1546,,,,,,001,2025-03-10_17h06.27.927,SL_base,2021.2.3,Win32,250,,,46,0,46,0,1,,,,,,,,
,,"[""circle"",""no_dis"",""vert"",""up"",[99999,99999],[-106,-106]]",circle,no_dis,vert,up,"[99999,99999]","[-106,-106]",up,1,1.5964,,,,,,001,2025-03-10_17h06.27.927,SL_base,2021.2.3,Win32,250,,,47,0,47,0,1,,,,,,,,
,,"[""diamond"",""red"",""hori"",""left"",[150,0],[106,106]]",diamond,red,hori,left,"[150,0]","[106,106]",left,1,1.1399,,,,,,001,2025-03-10_17h06.27.927,SL_base,2021.2.3,Win32,250,,,48,0,48,0,1,,,,,,,,
,,"[""diamond"",""green"",""hori"",""left"",[-106,106],[150,0]]",diamond,green,hori,left,"[-106,106]","[150,0]",left,1,1.0034,,,,,,001,2025-03-10_17h06.27.927,SL_base,2021.2.3,Win32,250,,,49,0,49,0,1,,,,,,,,
,,"[""circle"",""green"",""vert"",""up"",[106,-106],[106,106]]",circle,green,vert,up,"[106,-106]","[106,106]",left,0,1.0085,,,,,,001,2025-03-10_17h06.27.927,SL_base,2021.2.3,Win32,250,,,50,0,50,0,1,,,,,,,,
,,"[""diamond"",""red"",""vert"",""up"",[0,-150],[0,150]]",diamond,red,vert,up,"[0,-150]","[0,150]",up,1,0.863,,,,,,001,2025-03-10_17h06.27.927,SL_base,2021.2.3,Win32,250,,,51,0,51,0,1,,,,,,,,
,,"[""circle"",""no_dis"",""hori"",""left"",[99999,99999],[-106,106]]",circle,no_dis,hori,left,"[99999,99999]","[-106,106]",left,1,1.1811,,,,,,001,2025-03-10_17h06.27.927,SL_base,2021.2.3,Win32,250,,,52,0,52,0,1,,,,,,,,
,,"[""circle"",""no_dis"",""vert"",""up"",[99999,99999],[-106,106]]",circle,no_dis,vert,up,"[99999,99999]","[-106,106]",left,0,1.2715,,,,,,001,2025-03-10_17h06.27.927,SL_base,2021.2.3,Win32,250,,,53,0,53,0,1,,,,,,,,
,,"[""diamond"",""no_dis"",""vert"",""up"",[99999,99999],[106,-106]]",diamond,no_dis,vert,up,"[99999,99999]","[106,-106]",up,1,1.5557,,,,,,001,2025-03-10_17h06.27.927,SL_base,2021.2.3,Win32,250,,,54,0,54,0,1,,,,,,,,
,,"[""circle"",""green"",""vert"",""up"",[106,106],[0,150]]",circle,green,vert,up,"[106,106]","[0,150]",up,1,2.6627,,,,,,001,2025-03-10_17h06.27.927,SL_base,2021.2.3,Win32,250,,,55,0,55,0,1,,,,,,,,
,,"[""diamond"",""red"",""hori"",""left"",[150,0],[106,106]]",diamond,red,hori,left,"[150,0]","[106,106]",up,0,1.8771,,,,,,001,2025-03-10_17h06.27.927,SL_base,2021.2.3,Win32,250,,,56,0,56,0,1,,,,,,,,
,,"[""diamond"",""green"",""vert"",""up"",[-106,106],[0,150]]",diamond,green,vert,up,"[-106,106]","[0,150]",left,0,1.1587,,,,,,001,2025-03-10_17h06.27.927,SL_base,2021.2.3,Win32,250,,,57,0,57,0,1,,,,,,,,
,,"[""circle"",""green"",""vert"",""up"",[0,-150],[-106,106]]",circle,green,vert,up,"[0,-150]","[-106,106]",up,1,0.968,,,,,,001,2025-03-10_17h06.27.927,SL_base,2021.2.3,Win32,250,,,58,0,58,0,1,,,,,,,,
,,"[""circle"",""green"",""vert"",""up"",[0,-150],[-106,-106]]",circle,green,vert,up,"[0,-150]","[-106,-106]",up,1,2.2712,,,,,,001,2025-03-10_17h06.27.927,SL_base,2021.2.3,Win32,250,,,59,0,59,0,1,,,,,,,,
,,"[""circle"",""no_dis"",""hori"",""left"",[99999,99999],[-150,0]]",circle,no_dis,hori,left,"[99999,99999]","[-150,0]",left,1,1.1702,,,,,,001,2025-03-10_17h06.27.927,SL_base,2021.2.3,Win32,250,,,60,0,60,0,1,,,,,,,,
,,"[""diamond"",""red"",""hori"",""left"",[0,150],[-106,106]]",diamond,red,hori,left,"[0,150]","[-106,106]",left,1,1.9584,,,,,,001,2025-03-10_17h06.27.927,SL_base,2021.2.3,Win32,250,,,61,0,61,0,1,,,,,,,,
,,"[""diamond"",""no_dis"",""vert"",""up"",[99999,99999],[0,-150]]",diamond,no_dis,vert,up,"[99999,99999]","[0,-150]",up,1,1.6445,,,,,,001,2025-03-10_17h06.27.927,SL_base,2021.2.3,Win32,250,,,62,0,62,0,1,,,,,,,,
,,"[""circle"",""green"",""hori"",""left"",[106,106],[106,-106]]",circle,green,hori,left,"[106,106]","[106,-106]",left,1,1.4204,,,,,,001,2025-03-10_17h06.27.927,SL_base,2021.2.3,Win32,250,,,63,0,63,0,1,,,,,,,,
,,"[""diamond"",""green"",""vert"",""up"",[0,-150],[0,150]]",diamond,green,vert,up,"[0,-150]","[0,150]",up,1,1.7987,,,,,,001,2025-03-10_17h06.27.927,SL_base,2021.2.3,Win32,250,,,64,0,64,0,1,,,,,,,,
,,"[""diamond"",""no_dis"",""hori"",""left"",[99999,99999],[106,-106]]",diamond,no_dis,hori,left,"[99999,99999]","[106,-106]",left,1,1.5832,,,,,,001,2025-03-10_17h06.27.927,SL_base,2021.2.3,Win32,250,,,65,0,65,0,1,,,,,,,,
,,"[""circle"",""no_dis"",""vert"",""up"",[99999,99999],[0,-150]]",circle,no_dis,vert,up,"[99999,99999]","[0,-150]",up,1,1.5874,,,,,,001,2025-03-10_17h06.27.927,SL_base,2021.2.3,Win32,250,,,66,0,66,0,1,,,,,,,,
,,"[""circle"",""green"",""hori"",""left"",[0,150],[-106,-106]]",circle,green,hori,left,"[0,150]","[-106,-106]",up,0,1.5142,,,,,,001,2025-03-10_17h06.27.927,SL_base,2021.2.3,Win32,250,,,67,0,67,0,1,,,,,,,,
,,"[""circle"",""no_dis"",""hori"",""left"",[99999,99999],[0,150]]",circle,no_dis,hori,left,"[99999,99999]","[0,150]",left,1,1.3126,,,,,,001,2025-03-10_17h06.27.927,SL_base,2021.2.3,Win32,250,,,68,0,68,0,1,,,,,,,,
,,"[""circle"",""green"",""vert"",""up"",[0,150],[0,-150]]",circle,green,vert,up,"[0,150]","[0,-150]",up,1,1.0545,,,,,,001,2025-03-10_17h06.27.927,SL_base,2021.2.3,Win32,250,,,69,0,69,0,1,,,,,,,,
,,"[""diamond"",""no_dis"",""vert"",""up"",[99999,99999],[0,-150]]",diamond,no_dis,vert,up,"[99999,99999]","[0,-150]",up,1,1.1668,,,,,,001,2025-03-10_17h06.27.927,SL_base,2021.2.3,Win32,250,,,70,0,70,0,1,,,,,,,,
,,"[""circle"",""no_dis"",""hori"",""left"",[99999,99999],[150,0]]",circle,no_dis,hori,left,"[99999,99999]","[150,0]",left,1,2.004,,,,,,001,2025-03-10_17h06.27.927,SL_base,2021.2.3,Win32,250,,,71,0,71,0,1,,,,,,,,
,,"[""circle"",""red"",""vert"",""up"",[150,0],[106,106]]",circle,red,vert,up,"[150,0]","[106,106]",left,0,2.3955,,,,,,001,2025-03-10_17h06.27.927,SL_base,2021.2.3,Win32,250,,,72,0,72,0,1,,,,,,,,
,,"[""diamond"",""no_dis"",""vert"",""up"",[99999,99999],[150,0]]",diamond,no_dis,vert,up,"[99999,99999]","[150,0]",up,1,1.2982,,,,,,001,2025-03-10_17h06.27.927,SL_base,2021.2.3,Win32,250,,,73,0,73,0,1,,,,,,,,
,,"[""circle"",""red"",""vert"",""up"",[106,-106],[106,106]]",circle,red,vert,up,"[106,-106]","[106,106]",up,1,2.1334,,,,,,001,2025-03-10_17h06.27.927,SL_base,2021.2.3,Win32,250,,,74,0,74,0,1,,,,,,,,
,,"[""circle"",""red"",""vert"",""up"",[0,-150],[106,106]]",circle,red,vert,up,"[0,-150]","[106,106]",left,0,1.2447,,,,,,001,2025-03-10_17h06.27.927,SL_base,2021.2.3,Win32,250,,,75,0,75,0,1,,,,,,,,
,,"[""diamond"",""red"",""vert"",""up"",[106,106],[0,-150]]",diamond,red,vert,up,"[106,106]","[0,-150]",up,1,1.5918,,,,,,001,2025-03-10_17h06.27.927,SL_base,2021.2.3,Win32,250,,,76,0,76,0,1,,,,,,,,
,,"[""circle"",""no_dis"",""hori"",""left"",[99999,99999],[-150,0]]",circle,no_dis,hori,left,"[99999,99999]","[-150,0]",left,1,1.3618,,,,,,001,2025-03-10_17h06.27.927,SL_base,2021.2.3,Win32,250,,,77,0,77,0,1,,,,,,,,
,,"[""diamond"",""green"",""vert"",""up"",[0,150],[106,106]]",diamond,green,vert,up,"[0,150]","[106,106]",left,0,1.3087,,,,,,001,2025-03-10_17h06.27.927,SL_base,2021.2.3,Win32,250,,,78,0,78,0,1,,,,,,,,
,,"[""diamond"",""green"",""hori"",""left"",[-106,-106],[0,150]]",diamond,green,hori,left,"[-106,-106]","[0,150]",left,1,1.5295,,,,,,001,2025-03-10_17h06.27.927,SL_base,2021.2.3,Win32,250,,,79,0,79,0,1,,,,,,,,
,,"[""diamond"",""green"",""vert"",""up"",[-150,0],[0,-150]]",diamond,green,vert,up,"[-150,0]","[0,-150]",up,1,1.2433,,,,,,001,2025-03-10_17h06.27.927,SL_base,2021.2.3,Win32,250,,,80,0,80,0,1,,,,,,,,
,,"[""circle"",""no_dis"",""vert"",""up"",[99999,99999],[-106,106]]",circle,no_dis,vert,up,"[99999,99999]","[-106,106]",up,1,0.999,,,,,,001,2025-03-10_17h06.27.927,SL_base,2021.2.3,Win32,250,,,81,0,81,0,1,,,,,,,,
,,"[""diamond"",""green"",""hori"",""left"",[150,0],[0,-150]]",diamond,green,hori,left,"[150,0]","[0,-150]",left,1,1.0563,,,,,,001,2025-03-10_17h06.27.927,SL_base,2021.2.3,Win32,250,,,82,0,82,0,1,,,,,,,,
,,"[""circle"",""no_dis"",""hori"",""left"",[99999,99999],[0,150]]",circle,no_dis,hori,left,"[99999,99999]","[0,150]",left,1,1.7296,,,,,,001,2025-03-10_17h06.27.927,SL_base,2021.2.3,Win32,250,,,83,0,83,0,1,,,,,,,,
,,"[""diamond"",""green"",""hori"",""left"",[0,-150],[150,0]]",diamond,green,hori,left,"[0,-150]","[150,0]",left,1,1.5575,,,,,,001,2025-03-10_17h06.27.927,SL_base,2021.2.3,Win32,250,,,84,0,84,0,1,,,,,,,,
,,"[""diamond"",""green"",""hori"",""left"",[150,0],[0,150]]",diamond,green,hori,left,"[150,0]","[0,150]",up,0,1.7966,,,,,,001,2025-03-10_17h06.27.927,SL_base,2021.2.3,Win32,250,,,85,0,85,0,1,,,,,,,,
,,"[""circle"",""no_dis"",""hori"",""left"",[99999,99999],[106,106]]",circle,no_dis,hori,left,"[99999,99999]","[106,106]",left,1,1.1953,,,,,,001,2025-03-10_17h06.27.927,SL_base,2021.2.3,Win32,250,,,86,0,86,0,1,,,,,,,,
,,"[""circle"",""red"",""vert"",""up"",[0,-150],[-106,-106]]",circle,red,vert,up,"[0,-150]","[-106,-106]",up,1,1.0818,,,,,,001,2025-03-10_17h06.27.927,SL_base,2021.2.3,Win32,250,,,87,0,87,0,1,,,,,,,,
,,"[""circle"",""green"",""vert"",""up"",[0,-150],[-150,0]]",circle,green,vert,up,"[0,-150]","[-150,0]",up,1,1.4718,,,,,,001,2025-03-10_17h06.27.927,SL_base,2021.2.3,Win32,250,,,88,0,88,0,1,,,,,,,,
,,"[""diamond"",""no_dis"",""hori"",""left"",[99999,99999],[106,106]]",diamond,no_dis,hori,left,"[99999,99999]","[106,106]",left,1,1.1995,,,,,,001,2025-03-10_17h06.27.927,SL_base,2021.2.3,Win32,250,,,89,0,89,0,1,,,,,,,,
,,"[""diamond"",""red"",""hori"",""left"",[-106,-106],[106,-106]]",diamond,red,hori,left,"[-106,-106]","[106,-106]",left,1,0.8539,,,,,,001,2025-03-10_17h06.27.927,SL_base,2021.2.3,Win32,250,,,90,0,90,0,1,,,,,,,,
,,"[""circle"",""green"",""hori"",""left"",[106,-106],[150,0]]",circle,green,hori,left,"[106,-106]","[150,0]",left,1,1.7833,,,,,,001,2025-03-10_17h06.27.927,SL_base,2021.2.3,Win32,250,,,91,0,91,0,1,,,,,,,,
,,"[""circle"",""no_dis"",""vert"",""up"",[99999,99999],[-106,106]]",circle,no_dis,vert,up,"[99999,99999]","[-106,106]",up,1,1.1281,,,,,,001,2025-03-10_17h06.27.927,SL_base,2021.2.3,Win32,250,,,92,0,92,0,1,,,,,,,,
,,"[""circle"",""no_dis"",""vert"",""up"",[99999,99999],[-106,-106]]",circle,no_dis,vert,up,"[99999,99999]","[-106,-106]",up,1,1.3003,,,,,,001,2025-03-10_17h06.27.927,SL_base,2021.2.3,Win32,250,,,93,0,93,0,1,,,,,,,,
,,"[""circle"",""green"",""hori"",""left"",[106,106],[0,-150]]",circle,green,hori,left,"[106,106]","[0,-150]",left,1,1.0176,,,,,,001,2025-03-10_17h06.27.927,SL_base,2021.2.3,Win32,250,,,94,0,94,0,1,,,,,,,,
,,"[""circle"",""red"",""vert"",""up"",[0,-150],[106,106]]",circle,red,vert,up,"[0,-150]","[106,106]",up,1,1.1966,,,,,,001,2025-03-10_17h06.27.927,SL_base,2021.2.3,Win32,250,,,95,0,95,0,1,,,,,,,,
,,"[""circle"",""red"",""vert"",""up"",[150,0],[0,-150]]",circle,red,vert,up,"[150,0]","[0,-150]",up,1,1.2683,,,,,,001,2025-03-10_17h06.27.927,SL_base,2021.2.3,Win32,250,,,96,0,96,0,1,,,,,,,,
,,"[""circle"",""red"",""hori"",""left"",[-106,106],[-150,0]]",circle,red,hori,left,"[-106,106]","[-150,0]",up,0,1.0749,,,,,,001,2025-03-10_17h06.27.927,SL_base,2021.2.3,Win32,250,,,97,0,97,0,1,,,,,,,,
,,"[""diamond"",""green"",""vert"",""up"",[0,-150],[106,-106]]",diamond,green,vert,up,"[0,-150]","[106,-106]",left,0,1.0305,,,,,,001,2025-03-10_17h06.27.927,SL_base,2021.2.3,Win32,250,,,98,0,98,0,1,,,,,,,,
,,"[""diamond"",""red"",""hori"",""left"",[106,106],[-106,106]]",diamond,red,hori,left,"[106,106]","[-106,106]",up,0,1.5758,,,,,,001,2025-03-10_17h06.27.927,SL_base,2021.2.3,Win32,250,,,99,0,99,0,1,,,,,,,,
,,"[""circle"",""no_dis"",""vert"",""up"",[99999,99999],[-106,-106]]",circle,no_dis,vert,up,"[99999,99999]","[-106,-106]",left,0,1.3847,,,,,,001,2025-03-10_17h06.27.927,SL_base,2021.2.3,Win32,250,,,100,0,100,0,1,,,,,,,,
,,"[""circle"",""green"",""hori"",""left"",[0,-150],[-106,-106]]",circle,green,hori,left,"[0,-150]","[-106,-106]",left,1,1.5416,,,,,,001,2025-03-10_17h06.27.927,SL_base,2021.2.3,Win32,250,,,101,0,101,0,1,,,,,,,,
,,"[""diamond"",""green"",""vert"",""up"",[-150,0],[0,-150]]",diamond,green,vert,up,"[-150,0]","[0,-150]",up,1,2.1715,,,,,,001,2025-03-10_17h06.27.927,SL_base,2021.2.3,Win32,250,,,102,0,102,0,1,,,,,,,,
,,"[""diamond"",""green"",""vert"",""up"",[0,-150],[106,106]]",diamond,green,vert,up,"[0,-150]","[106,106]",up,1,1.7704,,,,,,001,2025-03-10_17h06.27.927,SL_base,2021.2.3,Win32,250,,,103,0,103,0,1,,,,,,,,
,,"[""diamond"",""green"",""hori"",""left"",[0,-150],[150,0]]",diamond,green,hori,left,"[0,-150]","[150,0]",left,1,1.2251,,,,,,001,2025-03-10_17h06.27.927,SL_base,2021.2.3,Win32,250,,,104,0,104,0,1,,,,,,,,
,,"[""diamond"",""red"",""vert"",""up"",[-106,106],[150,0]]",diamond,red,vert,up,"[-106,106]","[150,0]",up,1,1.1514,,,,,,001,2025-03-10_17h06.27.927,SL_base,2021.2.3,Win32,250,,,105,0,105,0,1,,,,,,,,
,,"[""circle"",""no_dis"",""hori"",""left"",[99999,99999],[0,150]]",circle,no_dis,hori,left,"[99999,99999]","[0,150]",left,1,2.1707,,,,,,001,2025-03-10_17h06.27.927,SL_base,2021.2.3,Win32,250,,,106,0,106,0,1,,,,,,,,
,,"[""circle"",""no_dis"",""hori"",""left"",[99999,99999],[150,0]]",circle,no_dis,hori,left,"[99999,99999]","[150,0]",left,1,1.1695,,,,,,001,2025-03-10_17h06.27.927,SL_base,2021.2.3,Win32,250,,,107,0,107,0,1,,,,,,,,
,,"[""diamond"",""green"",""hori"",""left"",[0,150],[106,-106]]",diamond,green,hori,left,"[0,150]","[106,-106]",left,1,1.1164,,,,,,001,2025-03-10_17h06.27.927,SL_base,2021.2.3,Win32,250,,,108,0,108,0,1,,,,,,,,
,,"[""diamond"",""red"",""hori"",""left"",[150,0],[106,106]]",diamond,red,hori,left,"[150,0]","[106,106]",left,1,1.8175,,,,,,001,2025-03-10_17h06.27.927,SL_base,2021.2.3,Win32,250,,,109,0,109,0,1,,,,,,,,
,,"[""diamond"",""no_dis"",""vert"",""up"",[99999,99999],[-106,-106]]",diamond,no_dis,vert,up,"[99999,99999]","[-106,-106]",up,1,1.0472,,,,,,001,2025-03-10_17h06.27.927,SL_base,2021.2.3,Win32,250,,,110,0,110,0,1,,,,,,,,
,,"[""circle"",""green"",""hori"",""left"",[0,-150],[106,106]]",circle,green,hori,left,"[0,-150]","[106,106]",left,1,1.2028,,,,,,001,2025-03-10_17h06.27.927,SL_base,2021.2.3,Win32,250,,,111,0,111,0,1,,,,,,,,
,,"[""circle"",""red"",""vert"",""up"",[106,-106],[106,106]]",circle,red,vert,up,"[106,-106]","[106,106]",up,1,1.2589,,,,,,001,2025-03-10_17h06.27.927,SL_base,2021.2.3,Win32,250,,,112,0,112,0,1,,,,,,,,
,,"[""diamond"",""red"",""hori"",""left"",[0,-150],[150,0]]",diamond,red,hori,left,"[0,-150]","[150,0]",left,1,1.0119,,,,,,001,2025-03-10_17h06.27.927,SL_base,2021.2.3,Win32,250,,,113,0,113,0,1,,,,,,,,
,,"[""circle"",""no_dis"",""hori"",""left"",[99999,99999],[-150,0]]",circle,no_dis,hori,left,"[99999,99999]","[-150,0]",left,1,1.5589,,,,,,001,2025-03-10_17h06.27.927,SL_base,2021.2.3,Win32,250,,,114,0,114,0,1,,,,,,,,
,,"[""diamond"",""green"",""hori"",""left"",[-150,0],[-106,106]]",diamond,green,hori,left,"[-150,0]","[-106,106]",left,1,1.6994,,,,,,001,2025-03-10_17h06.27.927,SL_base,2021.2.3,Win32,250,,,115,0,115,0,1,,,,,,,,
,,"[""diamond"",""green"",""vert"",""up"",[0,-150],[-106,106]]",diamond,green,vert,up,"[0,-150]","[-106,106]",up,1,1.5469,,,,,,001,2025-03-10_17h06.27.927,SL_base,2021.2.3,Win32,250,,,116,0,116,0,1,,,,,,,,
,,"[""circle"",""red"",""vert"",""up"",[-106,-106],[150,0]]",circle,red,vert,up,"[-106,-106]","[150,0]",up,1,2.3742,,,,,,001,2025-03-10_17h06.27.927,SL_base,2021.2.3,Win32,250,,,117,0,117,0,1,,,,,,,,
,,"[""diamond"",""red"",""vert"",""up"",[-150,0],[-106,106]]",diamond,red,vert,up,"[-150,0]","[-106,106]",up,1,1.1212,,,,,,001,2025-03-10_17h06.27.927,SL_base,2021.2.3,Win32,250,,,118,0,118,0,1,,,,,,,,
,,"[""diamond"",""red"",""vert"",""up"",[0,150],[150,0]]",diamond,red,vert,up,"[0,150]","[150,0]",up,1,1.3632,,,,,,001,2025-03-10_17h06.27.927,SL_base,2021.2.3,Win32,250,,,119,0,119,0,1,,,,,,,,
,,,,,,,,,,,,,,,,,001,2025-03-10_17h06.27.927,SL_base,2021.2.3,Win32,250,,,,,,,,1,space,119.8019,0,0,0,0,1
,,"[""circle"",""green"",""vert"",""up"",[150,0],[0,-150]]",circle,green,vert,up,"[150,0]","[0,-150]",up,1,1.3792,,,,,,001,2025-03-10_17h06.27.927,SL_base,2021.2.3,Win32,250,,,0,0,0,0,1,,,,,,,,
,,"[""circle"",""red"",""hori"",""left"",[0,-150],[-106,-106]]",circle,red,hori,left,"[0,-150]","[-106,-106]",left,1,0.9376,,,,,,001,2025-03-10_17h06.27.927,SL_base,2021.2.3,Win32,250,,,1,0,1,0,1,,,,,,,,
,,"[""diamond"",""no_dis"",""vert"",""up"",[99999,99999],[0,-150]]",diamond,no_dis,vert,up,"[99999,99999]","[0,-150]",up,1,1.3214,,,,,,001,2025-03-10_17h06.27.927,SL_base,2021.2.3,Win32,250,,,2,0,2,0,1,,,,,,,,
,,"[""diamond"",""red"",""hori"",""left"",[150,0],[106,106]]",diamond,red,hori,left,"[150,0]","[106,106]",left,1,1.2328,,,,,,001,2025-03-10_17h06.27.927,SL_base,2021.2.3,Win32,250,,,3,0,3,0,1,,,,,,,,
,,"[""diamond"",""red"",""hori"",""left"",[-106,-106],[106,-106]]",diamond,red,hori,left,"[-106,-106]","[106,-106]",left,1,0.8872,,,,,,001,2025-03-10_17h06.27.927,SL_base,2021.2.3,Win32,250,,,4,0,4,0,1,,,,,,,,
,,"[""circle"",""green"",""vert"",""up"",[-150,0],[0,-150]]",circle,green,vert,up,"[-150,0]","[0,-150]",up,1,2.1133,,,,,,001,2025-03-10_17h06.27.927,SL_base,2021.2.3,Win32,250,,,5,0,5,0,1,,,,,,,,
,,"[""diamond"",""no_dis"",""hori"",""left"",[99999,99999],[-150,0]]",diamond,no_dis,hori,left,"[99999,99999]","[-150,0]",left,1,1.2976,,,,,,001,2025-03-10_17h06.27.927,SL_base,2021.2.3,Win32,250,,,6,0,6,0,1,,,,,,,,
,,"[""diamond"",""no_dis"",""hori"",""left"",[99999,99999],[106,106]]",diamond,no_dis,hori,left,"[99999,99999]","[106,106]",left,1,1.1101,,,,,,001,2025-03-10_17h06.27.927,SL_base,2021.2.3,Win32,250,,,7,0,7,0,1,,,,,,,,
,,"[""circle"",""no_dis"",""vert"",""up"",[99999,99999],[-106,-106]]",circle,no_dis,vert,up,"[99999,99999]","[-106,-106]",up,1,1.0642,,,,,,001,2025-03-10_17h06.27.927,SL_base,2021.2.3,Win32,250,,,8,0,8,0,1,,,,,,,,
,,"[""circle"",""green"",""hori"",""left"",[106,-106],[150,0]]",circle,green,hori,left,"[106,-106]","[150,0]",left,1,0.914,,,,,,001,2025-03-10_17h06.27.927,SL_base,2021.2.3,Win32,250,,,9,0,9,0,1,,,,,,,,
,,"[""circle"",""red"",""vert"",""up"",[150,0],[0,-150]]",circle,red,vert,up,"[150,0]","[0,-150]",up,1,1.0595,,,,,,001,2025-03-10_17h06.27.927,SL_base,2021.2.3,Win32,250,,,10,0,10,0,1,,,,,,,,
,,"[""diamond"",""green"",""hori"",""left"",[0,-150],[150,0]]",diamond,green,hori,left,"[0,-150]","[150,0]",up,0,1.4157,,,,,,001,2025-03-10_17h06.27.927,SL_base,2021.2.3,Win32,250,,,11,0,11,0,1,,,,,,,,
,,"[""circle"",""red"",""hori"",""left"",[-106,106],[-150,0]]",circle,red,hori,left,"[-106,106]","[-150,0]",left,1,0.8719,,,,,,001,2025-03-10_17h06.27.927,SL_base,2021.2.3,Win32,250,,,12,0,12,0,1,,,,,,,,
,,"[""diamond"",""no_dis"",""vert"",""up"",[99999,99999],[0,-150]]",diamond,no_dis,vert,up,"[99999,99999]","[0,-150]",up,1,1.0544,,,,,,001,2025-03-10_17h06.27.927,SL_base,2021.2.3,Win32,250,,,13,0,13,0,1,,,,,,,,
,,"[""circle"",""red"",""hori"",""left"",[-150,0],[106,106]]",circle,red,hori,left,"[-150,0]","[106,106]",left,1,0.774,,,,,,001,2025-03-10_17h06.27.927,SL_base,2021.2.3,Win32,250,,,14,0,14,0,1,,,,,,,,
,,"[""circle"",""green"",""hori"",""left"",[0,-150],[0,150]]",circle,green,hori,left,"[0,-150]","[0,150]",up,0,1.0179,,,,,,001,2025-03-10_17h06.27.927,SL_base,2021.2.3,Win32,250,,,15,0,15,0,1,,,,,,,,
,,"[""circle"",""no_dis"",""hori"",""left"",[99999,99999],[-150,0]]",circle,no_dis,hori,left,"[99999,99999]","[-150,0]",left,1,0.6511,,,,,,001,2025-03-10_17h06.27.927,SL_base,2021.2.3,Win32,250,,,16,0,16,0,1,,,,,,,,
,,"[""diamond"",""green"",""hori"",""left"",[-106,106],[150,0]]",diamond,green,hori,left,"[-106,106]","[150,0]",left,1,1.3834,,,,,,001,2025-03-10_17h06.27.927,SL_base,2021.2.3,Win32,250,,,17,0,17,0,1,,,,,,,,
,,"[""circle"",""no_dis"",""vert"",""up"",[99999,99999],[-106,106]]",circle,no_dis,vert,up,"[99999,99999]","[-106,106]",up,1,0.857,,,,,,001,2025-03-10_17h06.27.927,SL_base,2021.2.3,Win32,250,,,18,0,18,0,1,,,,,,,,
,,"[""circle"",""green"",""hori"",""left"",[0,-150],[106,106]]",circle,green,hori,left,"[0,-150]","[106,106]",left,1,0.7416,,,,,,001,2025-03-10_17h06.27.927,SL_base,2021.2.3,Win32,250,,,19,0,19,0,1,,,,,,,,
,,"[""circle"",""green"",""vert"",""up"",[-106,106],[-106,-106]]",circle,green,vert,up,"[-106,106]","[-106,-106]",left,0,1.1133,,,,,,001,2025-03-10_17h06.27.927,SL_base,2021.2.3,Win32,250,,,20,0,20,0,1,,,,,,,,
,,"[""circle"",""red"",""vert"",""up"",[150,0],[106,106]]",circle,red,vert,up,"[150,0]","[106,106]",left,0,2.0368,,,,,,001,2025-03-10_17h06.27.927,SL_base,2021.2.3,Win32,250,,,21,0,21,0,1,,,,,,,,
,,"[""diamond"",""red"",""hori"",""left"",[150,0],[106,106]]",diamond,red,hori,left,"[150,0]","[106,106]",up,0,1.2318,,,,,,001,2025-03-10_17h06.27.927,SL_base,2021.2.3,Win32,250,,,22,0,22,0,1,,,,,,,,
,,"[""diamond"",""no_dis"",""hori"",""left"",[99999,99999],[106,106]]",diamond,no_dis,hori,left,"[99999,99999]","[106,106]",left,1,1.2705,,,,,,001,2025-03-10_17h06.27.927,SL_base,2021.2.3,Win32,250,,,23,0,23,0,1,,,,,,,,
,,"[""diamond"",""green"",""vert"",""up"",[0,-150],[0,150]]",diamond,green,vert,up,"[0,-150]","[0,150]",up,1,1.1274,,,,,,001,2025-03-10_17h06.27.927,SL_base,2021.2.3,Win32,250,,,24,0,24,0,1,,,,,,,,
,,"[""diamond"",""red"",""hori"",""left"",[0,150],[-106,106]]",diamond,red,hori,left,"[0,150]","[-106,106]",left,1,1.6993,,,,,,001,2025-03-10_17h06.27.927,SL_base,2021.2.3,Win32,250,,,25,0,25,0,1,,,,,,,,
,,"[""circle"",""no_dis"",""vert"",""up"",[99999,99999],[0,150]]",circle,no_dis,vert,up,"[99999,99999]","[0,150]",up,1,1.2844,,,,,,001,2025-03-10_17h06.27.927,SL_base,2021.2.3,Win32,250,,,26,0,26,0,1,,,,,,,,
,,"[""diamond"",""no_dis"",""hori"",""left"",[99999,99999],[-106,106]]",diamond,no_dis,hori,left,"[99999,99999]","[-106,106]",left,1,1.0086,,,,,,001,2025-03-10_17h06.27.927,SL_base,2021.2.3,Win32,250,,,27,0,27,0,1,,,,,,,,
,,"[""diamond"",""green"",""hori"",""left"",[-106,-106],[0,150]]",diamond,green,hori,left,"[-106,-106]","[0,150]",left,1,1.6,,,,,,001,2025-03-10_17h06.27.927,SL_base,2021.2.3,Win32,250,,,28,0,28,0,1,,,,,,,,
,,"[""diamond"",""no_dis"",""vert"",""up"",[99999,99999],[0,-150]]",diamond,no_dis,vert,up,"[99999,99999]","[0,-150]",up,1,1.2642,,,,,,001,2025-03-10_17h06.27.927,SL_base,2021.2.3,Win32,250,,,29,0,29,0,1,,,,,,,,
,,"[""circle"",""no_dis"",""hori"",""left"",[99999,99999],[-150,0]]",circle,no_dis,hori,left,"[99999,99999]","[-150,0]",left,1,0.8069,,,,,,001,2025-03-10_17h06.27.927,SL_base,2021.2.3,Win32,250,,,30,0,30,0,1,,,,,,,,
,,"[""circle"",""red"",""hori"",""left"",[0,-150],[106,-106]]",circle,red,hori,left,"[0,-150]","[106,-106]",left,1,0.9346,,,,,,001,2025-03-10_17h06.27.927,SL_base,2021.2.3,Win32,250,,,31,0,31,0,1,,,,,,,,
,,"[""circle"",""green"",""hori"",""left"",[0,-150],[-106,-106]]",circle,green,hori,left,"[0,-150]","[-106,-106]",left,1,0.9155,,,,,,001,2025-03-10_17h06.27.927,SL_base,2021.2.3,Win32,250,,,32,0,32,0,1,,,,,,,,
,,"[""diamond"",""red"",""vert"",""up"",[0,150],[-150,0]]",diamond,red,vert,up,"[0,150]","[-150,0]",up,1,1.2899,,,,,,001,2025-03-10_17h06.27.927,SL_base,2021.2.3,Win32,250,,,33,0,33,0,1,,,,,,,,
,,"[""diamond"",""red"",""hori"",""left"",[-106,-106],[106,-106]]",diamond,red,hori,left,"[-106,-106]","[106,-106]",left,1,1.2646,,,,,,001,2025-03-10_17h06.27.927,SL_base,2021.2.3,Win32,250,,,34,0,34,0,1,,,,,,,,
,,"[""diamond"",""red"",""hori"",""left"",[-106,106],[150,0]]",diamond,red,hori,left,"[-106,106]","[150,0]",left,1,0.9297,,,,,,001,2025-03-10_17h06.27.927,SL_base,2021.2.3,Win32,250,,,35,0,35,0,1,,,,,,,,
,,"[""circle"",""no_dis"",""vert"",""up"",[99999,99999],[-150,0]]",circle,no_dis,vert,up,"[99999,99999]","[-150,0]",up,1,1.3009,,,,,,001,2025-03-10_17h06.27.927,SL_base,2021.2.3,Win32,250,,,36,0,36,0,1,,,,,,,,
,,"[""circle"",""red"",""hori"",""left"",[0,-150],[106,-106]]",circle,red,hori,left,"[0,-150]","[106,-106]",left,1,0.6298,,,,,,001,2025-03-10_17h06.27.927,SL_base,2021.2.3,Win32,250,,,37,0,37,0,1,,,,,,,,
,,"[""circle"",""green"",""vert"",""up"",[0,-150],[-106,106]]",circle,green,vert,up,"[0,-150]","[-106,106]",up,1,0.996,,,,,,001,2025-03-10_17h06.27.927,SL_base,2021.2.3,Win32,250,,,38,0,38,0,1,,,,,,,,
,,"[""diamond"",""green"",""hori"",""left"",[150,0],[0,150]]",diamond,green,hori,left,"[150,0]","[0,150]",left,1,1.2818,,,,,,001,2025-03-10_17h06.27.927,SL_base,2021.2.3,Win32,250,,,39,0,39,0,1,,,,,,,,
,,"[""diamond"",""no_dis"",""hori"",""left"",[99999,99999],[106,-106]]",diamond,no_dis,hori,left,"[99999,99999]","[106,-106]",left,1,0.793,,,,,,001,2025-03-10_17h06.27.927,SL_base,2021.2.3,Win32,250,,,40,0,40,0,1,,,,,,,,
,,"[""circle"",""no_dis"",""hori"",""left"",[99999,99999],[150,0]]",circle,no_dis,hori,left,"[99999,99999]","[150,0]",left,1,1.3711,,,,,,001,2025-03-10_17h06.27.927,SL_base,2021.2.3,Win32,250,,,41,0,41,0,1,,,,,,,,
,,"[""diamond"",""green"",""vert"",""up"",[0,-150],[0,150]]",diamond,green,vert,up,"[0,-150]","[0,150]",up,1,1.0715,,,,,,001,2025-03-10_17h06.27.927,SL_base,2021.2.3,Win32,250,,,42,0,42,0,1,,,,,,,,
,,"[""circle"",""no_dis"",""vert"",""up"",[99999,99999],[-106,-106]]",circle,no_dis,vert,up,"[99999,99999]","[-106,-106]",up,1,1.0881,,,,,,001,2025-03-10_17h06.27.927,SL_base,2021.2.3,Win32,250,,,43,0,43,0,1,,,,,,,,
,,"[""circle"",""no_dis"",""hori"",""left"",[99999,99999],[0,150]]",circle,no_dis,hori,left,"[99999,99999]","[0,150]",left,1,0.9847,,,,,,001,2025-03-10_17h06.27.927,SL_base,2021.2.3,Win32,250,,,44,0,44,0,1,,,,,,,,
,,"[""circle"",""green"",""vert"",""up"",[106,-106],[0,150]]",circle,green,vert,up,"[106,-106]","[0,150]",up,1,1.3391,,,,,,001,2025-03-10_17h06.27.927,SL_base,2021.2.3,Win32,250,,,45,0,45,0,1,,,,,,,,
,,"[""diamond"",""red"",""vert"",""up"",[106,106],[0,-150]]",diamond,red,vert,up,"[106,106]","[0,-150]",up,1,1.3433,,,,,,001,2025-03-10_17h06.27.927,SL_base,2021.2.3,Win32,250,,,46,0,46,0,1,,,,,,,,
,,"[""diamond"",""red"",""vert"",""up"",[0,-150],[-106,-106]]",diamond,red,vert,up,"[0,-150]","[-106,-106]",left,0,1.0866,,,,,,001,2025-03-10_17h06.27.927,SL_base,2021.2.3,Win32,250,,,47,0,47,0,1,,,,,,,,
,,"[""circle"",""red"",""vert"",""up"",[106,-106],[-106,-106]]",circle,red,vert,up,"[106,-106]","[-106,-106]",up,1,1.6591,,,,,,001,2025-03-10_17h06.27.927,SL_base,2021.2.3,Win32,250,,,48,0,48,0,1,,,,,,,,
,,"[""circle"",""red"",""hori"",""left"",[106,106],[0,150]]",circle,red,hori,left,"[106,106]","[0,150]",left,1,1.7457,,,,,,001,2025-03-10_17h06.27.927,SL_base,2021.2.3,Win32,250,,,49,0,49,0,1,,,,,,,,
,,"[""diamond"",""red"",""hori"",""left"",[106,106],[-106,106]]",diamond,red,hori,left,"[106,106]","[-106,106]",left,1,1.3745,,,,,,001,2025-03-10_17h06.27.927,SL_base,2021.2.3,Win32,250,,,50,0,50,0,1,,,,,,,,
,,"[""diamond"",""green"",""hori"",""left"",[-150,0],[-106,106]]",diamond,green,hori,left,"[-150,0]","[-106,106]",up,0,0.8988,,,,,,001,2025-03-10_17h06.27.927,SL_base,2021.2.3,Win32,250,,,51,0,51,0,1,,,,,,,,
,,"[""diamond"",""red"",""hori"",""left"",[0,-150],[150,0]]",diamond,red,hori,left,"[0,-150]","[150,0]",left,1,1.1767,,,,,,001,2025-03-10_17h06.27.927,SL_base,2021.2.3,Win32,250,,,52,0,52,0,1,,,,,,,,
,,"[""diamond"",""red"",""vert"",""up"",[-150,0],[-106,106]]",diamond,red,vert,up,"[-150,0]","[-106,106]",up,1,1.0395,,,,,,001,2025-03-10_17h06.27.927,SL_base,2021.2.3,Win32,250,,,53,0,53,0,1,,,,,,,,
,,"[""diamond"",""green"",""hori"",""left"",[0,-150],[150,0]]",diamond,green,hori,left,"[0,-150]","[150,0]",left,1,1.0496,,,,,,001,2025-03-10_17h06.27.927,SL_base,2021.2.3,Win32,250,,,54,0,54,0,1,,,,,,,,
,,"[""diamond"",""no_dis"",""vert"",""up"",[99999,99999],[150,0]]",diamond,no_dis,vert,up,"[99999,99999]","[150,0]",up,1,1.1241,,,,,,001,2025-03-10_17h06.27.927,SL_base,2021.2.3,Win32,250,,,55,0,55,0,1,,,,,,,,
,,"[""circle"",""green"",""vert"",""up"",[0,150],[0,-150]]",circle,green,vert,up,"[0,150]","[0,-150]",up,1,1.7218,,,,,,001,2025-03-10_17h06.27.927,SL_base,2021.2.3,Win32,250,,,56,0,56,0,1,,,,,,,,
,,"[""circle"",""red"",""vert"",""up"",[0,-150],[106,106]]",circle,red,vert,up,"[0,-150]","[106,106]",up,1,1.3272,,,,,,001,2025-03-10_17h06.27.927,SL_base,2021.2.3,Win32,250,,,57,0,57,0,1,,,,,,,,
,,"[""circle"",""no_dis"",""vert"",""up"",[99999,99999],[-106,106]]",circle,no_dis,vert,up,"[99999,99999]","[-106,106]",up,1,1.3402,,,,,,001,2025-03-10_17h06.27.927,SL_base,2021.2.3,Win32,250,,,58,0,58,0,1,,,,,,,,
,,"[""diamond"",""red"",""vert"",""up"",[0,-150],[0,150]]",diamond,red,vert,up,"[0,-150]","[0,150]",left,0,1.7682,,,,,,001,2025-03-10_17h06.27.927,SL_base,2021.2.3,Win32,250,,,59,0,59,0,1,,,,,,,,
,,"[""diamond"",""green"",""hori"",""left"",[150,0],[0,-150]]",diamond,green,hori,left,"[150,0]","[0,-150]",left,1,1.0636,,,,,,001,2025-03-10_17h06.27.927,SL_base,2021.2.3,Win32,250,,,60,0,60,0,1,,,,,,,,
,,"[""circle"",""red"",""vert"",""up"",[0,-150],[-106,-106]]",circle,red,vert,up,"[0,-150]","[-106,-106]",up,1,1.6131,,,,,,001,2025-03-10_17h06.27.927,SL_base,2021.2.3,Win32,250,,,61,0,61,0,1,,,,,,,,
,,"[""diamond"",""green"",""vert"",""up"",[0,150],[106,106]]",diamond,green,vert,up,"[0,150]","[106,106]",left,0,1.1421,,,,,,001,2025-03-10_17h06.27.927,SL_base,2021.2.3,Win32,250,,,62,0,62,0,1,,,,,,,,
,,"[""diamond"",""red"",""vert"",""up"",[-106,106],[150,0]]",diamond,red,vert,up,"[-106,106]","[150,0]",up,1,1.2405,,,,,,001,2025-03-10_17h06.27.927,SL_base,2021.2.3,Win32,250,,,63,0,63,0,1,,,,,,,,
,,"[""circle"",""green"",""vert"",""up"",[0,-150],[-150,0]]",circle,green,vert,up,"[0,-150]","[-150,0]",up,1,0.9672,,,,,,001,2025-03-10_17h06.27.927,SL_base,2021.2.3,Win32,250,,,64,0,64,0,1,,,,,,,,
,,"[""diamond"",""green"",""vert"",""up"",[-150,0],[0,-150]]",diamond,green,vert,up,"[-150,0]","[0,-150]",left,0,1.6341,,,,,,001,2025-03-10_17h06.27.927,SL_base,2021.2.3,Win32,250,,,65,0,65,0,1,,,,,,,,
,,"[""diamond"",""green"",""hori"",""left"",[0,150],[106,-106]]",diamond,green,hori,left,"[0,150]","[106,-106]",,0,,,,,,,001,2025-03-10_17h06.27.927,SL_base,2021.2.3,Win32,250,,,66,0,66,0,1,,,,,,,,
,,"[""circle"",""no_dis"",""vert"",""up"",[99999,99999],[-106,-106]]",circle,no_dis,vert,up,"[99999,99999]","[-106,-106]",up,1,0.9082,,,,,,001,2025-03-10_17h06.27.927,SL_base,2021.2.3,Win32,250,,,67,0,67,0,1,,,,,,,,
,,"[""circle"",""green"",""vert"",""up"",[106,106],[0,150]]",circle,green,vert,up,"[106,106]","[0,150]",up,1,1.2166,,,,,,001,2025-03-10_17h06.27.927,SL_base,2021.2.3,Win32,250,,,68,0,68,0,1,,,,,,,,
,,"[""diamond"",""green"",""vert"",""up"",[0,-150],[106,-106]]",diamond,green,vert,up,"[0,-150]","[106,-106]",up,1,1.1281,,,,,,001,2025-03-10_17h06.27.927,SL_base,2021.2.3,Win32,250,,,69,0,69,0,1,,,,,,,,
,,"[""circle"",""no_dis"",""vert"",""up"",[99999,99999],[0,-150]]",circle,no_dis,vert,up,"[99999,99999]","[0,-150]",up,1,1.1013,,,,,,001,2025-03-10_17h06.27.927,SL_base,2021.2.3,Win32,250,,,70,0,70,0,1,,,,,,,,
,,"[""circle"",""no_dis"",""vert"",""up"",[99999,99999],[106,106]]",circle,no_dis,vert,up,"[99999,99999]","[106,106]",up,1,0.9885,,,,,,001,2025-03-10_17h06.27.927,SL_base,2021.2.3,Win32,250,,,71,0,71,0,1,,,,,,,,
,,"[""diamond"",""no_dis"",""vert"",""up"",[99999,99999],[0,150]]",diamond,no_dis,vert,up,"[99999,99999]","[0,150]",up,1,0.9804,,,,,,001,2025-03-10_17h06.27.927,SL_base,2021.2.3,Win32,250,,,72,0,72,0,1,,,,,,,,
,,"[""diamond"",""green"",""hori"",""left"",[-106,-106],[0,150]]",diamond,green,hori,left,"[-106,-106]","[0,150]",left,1,1.2306,,,,,,001,2025-03-10_17h06.27.927,SL_base,2021.2.3,Win32,250,,,73,0,73,0,1,,,,,,,,
,,"[""diamond"",""no_dis"",""hori"",""left"",[99999,99999],[106,-106]]",diamond,no_dis,hori,left,"[99999,99999]","[106,-106]",left,1,1.2255,,,,,,001,2025-03-10_17h06.27.927,SL_base,2021.2.3,Win32,250,,,74,0,74,0,1,,,,,,,,
,,"[""circle"",""red"",""vert"",""up"",[-106,-106],[150,0]]",circle,red,vert,up,"[-106,-106]","[150,0]",up,1,1.4304,,,,,,001,2025-03-10_17h06.27.927,SL_base,2021.2.3,Win32,250,,,75,0,75,0,1,,,,,,,,
,,"[""circle"",""no_dis"",""hori"",""left"",[99999,99999],[0,150]]",circle,no_dis,hori,left,"[99999,99999]","[0,150]",left,1,0.7642,,,,,,001,2025-03-10_17h06.27.927,SL_base,2021.2.3,Win32,250,,,76,0,76,0,1,,,,,,,,
,,"[""circle"",""no_dis"",""hori"",""left"",[99999,99999],[-106,106]]",circle,no_dis,hori,left,"[99999,99999]","[-106,106]",up,0,0.9118,,,,,,001,2025-03-10_17h06.27.927,SL_base,2021.2.3,Win32,250,,,77,0,77,0,1,,,,,,,,
,,"[""diamond"",""red"",""vert"",""up"",[-106,-106],[150,0]]",diamond,red,vert,up,"[-106,-106]","[150,0]",left,0,0.6756,,,,,,001,2025-03-10_17h06.27.927,SL_base,2021.2.3,Win32,250,,,78,0,78,0,1,,,,,,,,
,,"[""diamond"",""red"",""vert"",""up"",[0,150],[150,0]]",diamond,red,vert,up,"[0,150]","[150,0]",left,0,0.983,,,,,,001,2025-03-10_17h06.27.927,SL_base,2021.2.3,Win32,250,,,79,0,79,0,1,,,,,,,,
,,"[""circle"",""green"",""vert"",""up"",[106,-106],[106,106]]",circle,green,vert,up,"[106,-106]","[106,106]",up,1,1.6412,,,,,,001,2025-03-10_17h06.27.927,SL_base,2021.2.3,Win32,250,,,80,0,80,0,1,,,,,,,,
,,"[""diamond"",""no_dis"",""hori"",""left"",[99999,99999],[106,106]]",diamond,no_dis,hori,left,"[99999,99999]","[106,106]",left,1,0.8442,,,,,,001,2025-03-10_17h06.27.927,SL_base,2021.2.3,Win32,250,,,81,0,81,0,1,,,,,,,,
,,"[""circle"",""red"",""hori"",""left"",[0,150],[-150,0]]",circle,red,hori,left,"[0,150]","[-150,0]",left,1,1.2874,,,,,,001,2025-03-10_17h06.27.927,SL_base,2021.2.3,Win32,250,,,82,0,82,0,1,,,,,,,,
,,"[""diamond"",""no_dis"",""hori"",""left"",[99999,99999],[150,0]]",diamond,no_dis,hori,left,"[99999,99999]","[150,0]",left,1,0.8785,,,,,,001,2025-03-10_17h06.27.927,SL_base,2021.2.3,Win32,250,,,83,0,83,0,1,,,,,,,,
,,"[""circle"",""no_dis"",""hori"",""left"",[99999,99999],[-150,0]]",circle,no_dis,hori,left,"[99999,99999]","[-150,0]",left,1,0.8423,,,,,,001,2025-03-10_17h06.27.927,SL_base,2021.2.3,Win32,250,,,84,0,84,0,1,,,,,,,,
,,"[""diamond"",""red"",""vert"",""up"",[106,106],[150,0]]",diamond,red,vert,up,"[106,106]","[150,0]",up,1,2.4817,,,,,,001,2025-03-10_17h06.27.927,SL_base,2021.2.3,Win32,250,,,85,0,85,0,1,,,,,,,,
,,"[""circle"",""red"",""hori"",""left"",[-150,0],[0,150]]",circle,red,hori,left,"[-150,0]","[0,150]",left,1,1.1665,,,,,,001,2025-03-10_17h06.27.927,SL_base,2021.2.3,Win32,250,,,86,0,86,0,1,,,,,,,,
,,"[""diamond"",""green"",""vert"",""up"",[-150,0],[0,-150]]",diamond,green,vert,up,"[-150,0]","[0,-150]",up,1,1.6087,,,,,,001,2025-03-10_17h06.27.927,SL_base,2021.2.3,Win32,250,,,87,0,87,0,1,,,,,,,,
,,"[""diamond"",""no_dis"",""vert"",""up"",[99999,99999],[150,0]]",diamond,no_dis,vert,up,"[99999,99999]","[150,0]",up,1,1.0149,,,,,,001,2025-03-10_17h06.27.927,SL_base,2021.2.3,Win32,250,,,88,0,88,0,1,,,,,,,,
,,"[""circle"",""green"",""hori"",""left"",[106,106],[106,-106]]",circle,green,hori,left,"[106,106]","[106,-106]",left,1,1.7798,,,,,,001,2025-03-10_17h06.27.927,SL_base,2021.2.3,Win32,250,,,89,0,89,0,1,,,,,,,,
,,"[""diamond"",""red"",""hori"",""left"",[150,0],[106,106]]",diamond,red,hori,left,"[150,0]","[106,106]",left,1,0.8754,,,,,,001,2025-03-10_17h06.27.927,SL_base,2021.2.3,Win32,250,,,90,0,90,0,1,,,,,,,,
,,"[""circle"",""green"",""hori"",""left"",[-106,-106],[-150,0]]",circle,green,hori,left,"[-106,-106]","[-150,0]",up,0,1.012,,,,,,001,2025-03-10_17h06.27.927,SL_base,2021.2.3,Win32,250,,,91,0,91,0,1,,,,,,,,
,,"[""circle"",""red"",""vert"",""up"",[106,-106],[106,106]]",circle,red,vert,up,"[106,-106]","[106,106]",left,0,0.7686,,,,,,001,2025-03-10_17h06.27.927,SL_base,2021.2.3,Win32,250,,,92,0,92,0,1,,,,,,,,
,,"[""diamond"",""green"",""vert"",""up"",[-106,106],[0,150]]",diamond,green,vert,up,"[-106,106]","[0,150]",up,1,0.8281,,,,,,001,2025-03-10_17h06.27.927,SL_base,2021.2.3,Win32,250,,,93,0,93,0,1,,,,,,,,
,,"[""circle"",""red"",""vert"",""up"",[0,-150],[106,106]]",circle,red,vert,up,"[0,-150]","[106,106]",left,0,1.0312,,,,,,001,2025-03-10_17h06.27.927,SL_base,2021.2.3,Win32,250,,,94,0,94,0,1,,,,,,,,
,,"[""circle"",""red"",""vert"",""up"",[106,-106],[106,106]]",circle,red,vert,up,"[106,-106]","[106,106]",up,1,1.0048,,,,,,001,2025-03-10_17h06.27.927,SL_base,2021.2.3,Win32,250,,,95,0,95,0,1,,,,,,,,
,,"[""circle"",""red"",""vert"",""up"",[106,-106],[106,106]]",circle,red,vert,up,"[106,-106]","[106,106]",left,0,0.9471,,,,,,001,2025-03-10_17h06.27.927,SL_base,2021.2.3,Win32,250,,,96,0,96,0,1,,,,,,,,
,,"[""diamond"",""no_dis"",""hori"",""left"",[99999,99999],[-106,-106]]",diamond,no_dis,hori,left,"[99999,99999]","[-106,-106]",left,1,1.2025,,,,,,001,2025-03-10_17h06.27.927,SL_base,2021.2.3,Win32,250,,,97,0,97,0,1,,,,,,,,
,,"[""circle"",""green"",""hori"",""left"",[0,150],[-106,-106]]",circle,green,hori,left,"[0,150]","[-106,-106]",left,1,0.8674,,,,,,001,2025-03-10_17h06.27.927,SL_base,2021.2.3,Win32,250,,,98,0,98,0,1,,,,,,,,
,,"[""circle"",""no_dis"",""hori"",""left"",[99999,99999],[106,106]]",circle,no_dis,hori,left,"[99999,99999]","[106,106]",left,1,1.8762,,,,,,001,2025-03-10_17h06.27.927,SL_base,2021.2.3,Win32,250,,,99,0,99,0,1,,,,,,,,
,,"[""diamond"",""red"",""vert"",""up"",[106,106],[-150,0]]",diamond,red,vert,up,"[106,106]","[-150,0]",up,1,1.267,,,,,,001,2025-03-10_17h06.27.927,SL_base,2021.2.3,Win32,250,,,100,0,100,0,1,,,,,,,,
,,"[""circle"",""green"",""vert"",""up"",[0,-150],[-106,-106]]",circle,green,vert,up,"[0,-150]","[-106,-106]",left,0,0.8667,,,,,,001,2025-03-10_17h06.27.927,SL_base,2021.2.3,Win32,250,,,101,0,101,0,1,,,,,,,,
,,"[""circle"",""no_dis"",""hori"",""left"",[99999,99999],[0,150]]",circle,no_dis,hori,left,"[99999,99999]","[0,150]",left,1,1.1879,,,,,,001,2025-03-10_17h06.27.927,SL_base,2021.2.3,Win32,250,,,102,0,102,0,1,,,,,,,,
,,"[""circle"",""green"",""hori"",""left"",[106,106],[0,-150]]",circle,green,hori,left,"[106,106]","[0,-150]",left,1,1.1636,,,,,,001,2025-03-10_17h06.27.927,SL_base,2021.2.3,Win32,250,,,103,0,103,0,1,,,,,,,,
,,"[""diamond"",""no_dis"",""vert"",""up"",[99999,99999],[0,-150]]",diamond,no_dis,vert,up,"[99999,99999]","[0,-150]",up,1,0.8748,,,,,,001,2025-03-10_17h06.27.927,SL_base,2021.2.3,Win32,250,,,104,0,104,0,1,,,,,,,,
,,"[""diamond"",""green"",""vert"",""up"",[0,-150],[106,106]]",diamond,green,vert,up,"[0,-150]","[106,106]",up,1,1.4677,,,,,,001,2025-03-10_17h06.27.927,SL_base,2021.2.3,Win32,250,,,105,0,105,0,1,,,,,,,,
,,"[""diamond"",""no_dis"",""hori"",""left"",[99999,99999],[106,-106]]",diamond,no_dis,hori,left,"[99999,99999]","[106,-106]",left,1,1.02,,,,,,001,2025-03-10_17h06.27.927,SL_base,2021.2.3,Win32,250,,,106,0,106,0,1,,,,,,,,
,,"[""diamond"",""green"",""hori"",""left"",[-106,-106],[150,0]]",diamond,green,hori,left,"[-106,-106]","[150,0]",left,1,0.9595,,,,,,001,2025-03-10_17h06.27.927,SL_base,2021.2.3,Win32,250,,,107,0,107,0,1,,,,,,,,
,,"[""diamond"",""green"",""vert"",""up"",[0,-150],[-150,0]]",diamond,green,vert,up,"[0,-150]","[-150,0]",up,1,1.259,,,,,,001,2025-03-10_17h06.27.927,SL_base,2021.2.3,Win32,250,,,108,0,108,0,1,,,,,,,,
,,"[""circle"",""no_dis"",""hori"",""left"",[99999,99999],[150,0]]",circle,no_dis,hori,left,"[99999,99999]","[150,0]",left,1,1.0895,,,,,,001,2025-03-10_17h06.27.927,SL_base,2021.2.3,Win32,250,,,109,0,109,0,1,,,,,,,,
,,"[""circle"",""no_dis"",""vert"",""up"",[99999,99999],[-106,106]]",circle,no_dis,vert,up,"[99999,99999]","[-106,106]",up,1,1.0152,,,,,,001,2025-03-10_17h06.27.927,SL_base,2021.2.3,Win32,250,,,110,0,110,0,1,,,,,,,,
,,"[""diamond"",""no_dis"",""vert"",""up"",[99999,99999],[-106,-106]]",diamond,no_dis,vert,up,"[99999,99999]","[-106,-106]",up,1,1.2352,,,,,,001,2025-03-10_17h06.27.927,SL_base,2021.2.3,Win32,250,,,111,0,111,0,1,,,,,,,,
,,"[""circle"",""red"",""hori"",""left"",[106,-106],[-106,-106]]",circle,red,hori,left,"[106,-106]","[-106,-106]",left,1,1.0003,,,,,,001,2025-03-10_17h06.27.927,SL_base,2021.2.3,Win32,250,,,112,0,112,0,1,,,,,,,,
,,"[""diamond"",""no_dis"",""vert"",""up"",[99999,99999],[106,-106]]",diamond,no_dis,vert,up,"[99999,99999]","[106,-106]",up,1,0.9691,,,,,,001,2025-03-10_17h06.27.927,SL_base,2021.2.3,Win32,250,,,113,0,113,0,1,,,,,,,,
,,"[""diamond"",""no_dis"",""vert"",""up"",[99999,99999],[106,-106]]",diamond,no_dis,vert,up,"[99999,99999]","[106,-106]",up,1,0.9515,,,,,,001,2025-03-10_17h06.27.927,SL_base,2021.2.3,Win32,250,,,114,0,114,0,1,,,,,,,,
,,"[""circle"",""green"",""hori"",""left"",[0,-150],[0,150]]",circle,green,hori,left,"[0,-150]","[0,150]",left,1,0.7368,,,,,,001,2025-03-10_17h06.27.927,SL_base,2021.2.3,Win32,250,,,115,0,115,0,1,,,,,,,,
,,"[""circle"",""red"",""hori"",""left"",[-150,0],[0,-150]]",circle,red,hori,left,"[-150,0]","[0,-150]",left,1,1.395,,,,,,001,2025-03-10_17h06.27.927,SL_base,2021.2.3,Win32,250,,,116,0,116,0,1,,,,,,,,
,,"[""circle"",""green"",""hori"",""left"",[-106,106],[0,150]]",circle,green,hori,left,"[-106,106]","[0,150]",up,0,0.7174,,,,,,001,2025-03-10_17h06.27.927,SL_base,2021.2.3,Win32,250,,,117,0,117,0,1,,,,,,,,
,,"[""diamond"",""green"",""vert"",""up"",[0,-150],[-106,106]]",diamond,green,vert,up,"[0,-150]","[-106,106]",up,1,1.8835,,,,,,001,2025-03-10_17h06.27.927,SL_base,2021.2.3,Win32,250,,,118,0,118,0,1,,,,,,,,
,,"[""diamond"",""red"",""hori"",""left"",[-106,106],[-106,-106]]",diamond,red,hori,left,"[-106,106]","[-106,-106]",left,1,1.1493,,,,,,001,2025-03-10_17h06.27.927,SL_base,2021.2.3,Win32,250,,,119,0,119,0,1,,,,,,,,
,,,,,,,,,,,,,,,,,001,2025-03-10_17h06.27.927,SL_base,2021.2.3,Win32,250,,,,,,,,2,space,75.4039,1,0,1,0,1
,,"[""diamond"",""red"",""hori"",""left"",[150,0],[106,106]]",diamond,red,hori,left,"[150,0]","[106,106]",left,1,1.0502,,,,,,001,2025-03-10_17h06.27.927,SL_base,2021.2.3,Win32,250,,,0,0,0,0,1,,,,,,,,
,,"[""diamond"",""red"",""hori"",""left"",[0,150],[-106,106]]",diamond,red,hori,left,"[0,150]","[-106,106]",up,0,0.8256,,,,,,001,2025-03-10_17h06.27.927,SL_base,2021.2.3,Win32,250,,,1,0,1,0,1,,,,,,,,
,,"[""circle"",""no_dis"",""vert"",""up"",[99999,99999],[-106,-106]]",circle,no_dis,vert,up,"[99999,99999]","[-106,-106]",up,1,1.0669,,,,,,001,2025-03-10_17h06.27.927,SL_base,2021.2.3,Win32,250,,,2,0,2,0,1,,,,,,,,
,,"[""diamond"",""no_dis"",""vert"",""up"",[99999,99999],[150,0]]",diamond,no_dis,vert,up,"[99999,99999]","[150,0]",up,1,1.1237,,,,,,001,2025-03-10_17h06.27.927,SL_base,2021.2.3,Win32,250,,,3,0,3,0,1,,,,,,,,
,,"[""circle"",""green"",""hori"",""left"",[0,-150],[0,150]]",circle,green,hori,left,"[0,-150]","[0,150]",left,1,1.2003,,,,,,001,2025-03-10_17h06.27.927,SL_base,2021.2.3,Win32,250,,,4,0,4,0,1,,,,,,,,
,,"[""circle"",""no_dis"",""vert"",""up"",[99999,99999],[106,106]]",circle,no_dis,vert,up,"[99999,99999]","[106,106]",up,1,1.3726,,,,,,001,2025-03-10_17h06.27.927,SL_base,2021.2.3,Win32,250,,,5,0,5,0,1,,,,,,,,
,,"[""diamond"",""green"",""hori"",""left"",[-150,0],[-106,106]]",diamond,green,hori,left,"[-150,0]","[-106,106]",left,1,1.9594,,,,,,001,2025-03-10_17h06.27.927,SL_base,2021.2.3,Win32,250,,,6,0,6,0,1,,,,,,,,
,,"[""diamond"",""green"",""hori"",""left"",[-106,-106],[150,0]]",diamond,green,hori,left,"[-106,-106]","[150,0]",left,1,1.0119,,,,,,001,2025-03-10_17h06.27.927,SL_base,2021.2.3,Win32,250,,,7,0,7,0,1,,,,,,,,
,,"[""diamond"",""green"",""hori"",""left"",[150,0],[0,150]]",diamond,green,hori,left,"[150,0]","[0,150]",up,0,1.7121,,,,,,001,2025-03-10_17h06.27.927,SL_base,2021.2.3,Win32,250,,,8,0,8,0,1,,,,,,,,
,,"[""diamond"",""no_dis"",""vert"",""up"",[99999,99999],[150,0]]",diamond,no_dis,vert,up,"[99999,99999]","[150,0]",up,1,1.0093,,,,,,001,2025-03-10_17h06.27.927,SL_base,2021.2.3,Win32,250,,,9,0,9,0,1,,,,,,,,
,,"[""diamond"",""red"",""hori"",""left"",[-106,106],[150,0]]",diamond,red,hori,left,"[-106,106]","[150,0]",left,1,0.7304,,,,,,001,2025-03-10_17h06.27.927,SL_base,2021.2.3,Win32,250,,,10,0,10,0,1,,,,,,,,
,,"[""diamond"",""red"",""hori"",""left"",[150,0],[106,106]]",diamond,red,hori,left,"[150,0]","[106,106]",left,1,1.0259,,,,,,001,2025-03-10_17h06.27.927,SL_base,2021.2.3,Win32,250,,,11,0,11,0,1,,,,,,,,
,,"[""circle"",""green"",""vert"",""up"",[-106,106],[-106,-106]]",circle,green,vert,up,"[-106,106]","[-106,-106]",up,1,1.6172,,,,,,001,2025-03-10_17h06.27.927,SL_base,2021.2.3,Win32,250,,,12,0,12,0,1,,,,,,,,
,,"[""diamond"",""green"",""vert"",""up"",[-150,0],[0,-150]]",diamond,green,vert,up,"[-150,0]","[0,-150]",up,1,1.1218,,,,,,001,2025-03-10_17h06.27.927,SL_base,2021.2.3,Win32,250,,,13,0,13,0,1,,,,,,,,
,,"[""diamond"",""red"",""vert"",""up"",[0,-150],[-106,-106]]",diamond,red,vert,up,"[0,-150]","[-106,-106]",left,0,0.8581,,,,,,001,2025-03-10_17h06.27.927,SL_base,2021.2.3,Win32,250,,,14,0,14,0,1,,,,,,,,
,,"[""diamond"",""no_dis"",""hori"",""left"",[99999,99999],[106,106]]",diamond,no_dis,hori,left,"[99999,99999]","[106,106]",left,1,0.7607,,,,,,001,2025-03-10_17h06.27.927,SL_base,2021.2.3,Win32,250,,,15,0,15,0,1,,,,,,,,
,,"[""diamond"",""red"",""hori"",""left"",[-106,-106],[106,-106]]",diamond,red,hori,left,"[-106,-106]","[106,-106]",left,1,0.8226,,,,,,001,2025-03-10_17h06.27.927,SL_base,2021.2.3,Win32,250,,,16,0,16,0,1,,,,,,,,
,,"[""diamond"",""green"",""vert"",""up"",[0,-150],[0,150]]",diamond,green,vert,up,"[0,-150]","[0,150]",up,1,0.7838,,,,,,001,2025-03-10_17h06.27.927,SL_base,2021.2.3,Win32,250,,,17,0,17,0,1,,,,,,,,
,,"[""diamond"",""red"",""hori"",""left"",[0,-150],[150,0]]",diamond,red,hori,left,"[0,-150]","[150,0]",left,1,0.6848,,,,,,001,2025-03-10_17h06.27.927,SL_base,2021.2.3,Win32,250,,,18,0,18,0,1,,,,,,,,
,,"[""diamond"",""green"",""vert"",""up"",[0,-150],[-150,0]]",diamond,green,vert,up,"[0,-150]","[-150,0]",up,1,0.8619,,,,,,001,2025-03-10_17h06.27.927,SL_base,2021.2.3,Win32,250,,,19,0,19,0,1,,,,,,,,
,,"[""diamond"",""no_dis"",""hori"",""left"",[99999,99999],[106,-106]]",diamond,no_dis,hori,left,"[99999,99999]","[106,-106]",left,1,0.7104,,,,,,001,2025-03-10_17h06.27.927,SL_base,2021.2.3,Win32,250,,,20,0,20,0,1,,,,,,,,
,,"[""circle"",""no_dis"",""hori"",""left"",[99999,99999],[0,150]]",circle,no_dis,hori,left,"[99999,99999]","[0,150]",left,1,1.5591,,,,,,001,2025-03-10_17h06.27.927,SL_base,2021.2.3,Win32,250,,,21,0,21,0,1,,,,,,,,
,,"[""circle"",""no_dis"",""vert"",""up"",[99999,99999],[0,150]]",circle,no_dis,vert,up,"[99999,99999]","[0,150]",up,1,2.8625,,,,,,001,2025-03-10_17h06.27.927,SL_base,2021.2.3,Win32,250,,,22,0,22,0,1,,,,,,,,
,,"[""diamond"",""red"",""vert"",""up"",[106,106],[0,-150]]",diamond,red,vert,up,"[106,106]","[0,-150]",up,1,1.1656,,,,,,001,2025-03-10_17h06.27.927,SL_base,2021.2.3,Win32,250,,,23,0,23,0,1,,,,,,,,
,,"[""circle"",""green"",""hori"",""left"",[0,-150],[0,150]]",circle,green,hori,left,"[0,-150]","[0,150]",left,1,1.1361,,,,,,001,2025-03-10_17h06.27.927,SL_base,2021.2.3,Win32,250,,,24,0,24,0,1,,,,,,,,
,,"[""diamond"",""red"",""hori"",""left"",[106,106],[-106,106]]",diamond,red,hori,left,"[106,106]","[-106,106]",up,0,1.2812,,,,,,001,2025-03-10_17h06.27.927,SL_base,2021.2.3,Win32,250,,,25,0,25,0,1,,,,,,,,
,,"[""diamond"",""no_dis"",""vert"",""up"",[99999,99999],[106,-106]]",diamond,no_dis,vert,up,"[99999,99999]","[106,-106]",left,0,0.689,,,,,,001,2025-03-10_17h06.27.927,SL_base,2021.2.3,Win32,250,,,26,0,26,0,1,,,,,,,,
,,"[""circle"",""red"",""vert"",""up"",[106,-106],[106,106]]",circle,red,vert,up,"[106,-106]","[106,106]",up,1,1.7482,,,,,,001,2025-03-10_17h06.27.927,SL_base,2021.2.3,Win32,250,,,27,0,27,0,1,,,,,,,,
,,"[""circle"",""green"",""vert"",""up"",[0,-150],[-106,-106]]",circle,green,vert,up,"[0,-150]","[-106,-106]",up,1,1.2085,,,,,,001,2025-03-10_17h06.27.927,SL_base,2021.2.3,Win32,250,,,28,0,28,0,1,,,,,,,,
,,"[""diamond"",""green"",""vert"",""up"",[-150,0],[0,-150]]",diamond,green,vert,up,"[-150,0]","[0,-150]",up,1,1.1414,,,,,,001,2025-03-10_17h06.27.927,SL_base,2021.2.3,Win32,250,,,29,0,29,0,1,,,,,,,,
,,"[""diamond"",""no_dis"",""vert"",""up"",[99999,99999],[106,-106]]",diamond,no_dis,vert,up,"[99999,99999]","[106,-106]",up,1,0.7976,,,,,,001,2025-03-10_17h06.27.927,SL_base,2021.2.3,Win32,250,,,30,0,30,0,1,,,,,,,,
,,"[""diamond"",""no_dis"",""hori"",""left"",[99999,99999],[106,106]]",diamond,no_dis,hori,left,"[99999,99999]","[106,106]",left,1,0.9387,,,,,,001,2025-03-10_17h06.27.927,SL_base,2021.2.3,Win32,250,,,31,0,31,0,1,,,,,,,,
,,"[""diamond"",""red"",""vert"",""up"",[0,150],[-150,0]]",diamond,red,vert,up,"[0,150]","[-150,0]",up,1,0.9436,,,,,,001,2025-03-10_17h06.27.927,SL_base,2021.2.3,Win32,250,,,32,0,32,0,1,,,,,,,,
,,"[""diamond"",""green"",""vert"",""up"",[0,-150],[-106,106]]",diamond,green,vert,up,"[0,-150]","[-106,106]",up,1,0.7923,,,,,,001,2025-03-10_17h06.27.927,SL_base,2021.2.3,Win32,250,,,33,0,33,0,1,,,,,,,,
,,"[""circle"",""red"",""hori"",""left"",[0,150],[-150,0]]",circle,red,hori,left,"[0,150]","[-150,0]",left,1,1.1381,,,,,,001,2025-03-10_17h06.27.927,SL_base,2021.2.3,Win32,250,,,34,0,34,0,1,,,,,,,,
,,"[""circle"",""red"",""hori"",""left"",[0,-150],[-106,-106]]",circle,red,hori,left,"[0,-150]","[-106,-106]",left,1,0.9569,,,,,,001,2025-03-10_17h06.27.927,SL_base,2021.2.3,Win32,250,,,35,0,35,0,1,,,,,,,,
,,"[""diamond"",""green"",""hori"",""left"",[0,-150],[150,0]]",diamond,green,hori,left,"[0,-150]","[150,0]",left,1,0.8549,,,,,,001,2025-03-10_17h06.27.927,SL_base,2021.2.3,Win32,250,,,36,0,36,0,1,,,,,,,,
,,"[""diamond"",""no_dis"",""vert"",""up"",[99999,99999],[0,-150]]",diamond,no_dis,vert,up,"[99999,99999]","[0,-150]",up,1,0.8963,,,,,,001,2025-03-10_17h06.27.927,SL_base,2021.2.3,Win32,250,,,37,0,37,0,1,,,,,,,,
,,"[""diamond"",""no_dis"",""vert"",""up"",[99999,99999],[-106,-106]]",diamond,no_dis,vert,up,"[99999,99999]","[-106,-106]",up,1,1.0044,,,,,,001,2025-03-10_17h06.27.927,SL_base,2021.2.3,Win32,250,,,38,0,38,0,1,,,,,,,,
,,"[""circle"",""no_dis"",""vert"",""up"",[99999,99999],[-106,106]]",circle,no_dis,vert,up,"[99999,99999]","[-106,106]",up,1,1.5892,,,,,,001,2025-03-10_17h06.27.927,SL_base,2021.2.3,Win32,250,,,39,0,39,0,1,,,,,,,,
,,"[""circle"",""red"",""vert"",""up"",[106,-106],[106,106]]",circle,red,vert,up,"[106,-106]","[106,106]",left,0,1.004,,,,,,001,2025-03-10_17h06.27.927,SL_base,2021.2.3,Win32,250,,,40,0,40,0,1,,,,,,,,
,,"[""circle"",""green"",""hori"",""left"",[106,-106],[150,0]]",circle,green,hori,left,"[106,-106]","[150,0]",left,1,0.9324,,,,,,001,2025-03-10_17h06.27.927,SL_base,2021.2.3,Win32,250,,,41,0,41,0,1,,,,,,,,
,,"[""circle"",""no_dis"",""vert"",""up"",[99999,99999],[0,-150]]",circle,no_dis,vert,up,"[99999,99999]","[0,-150]",up,1,0.9821,,,,,,001,2025-03-10_17h06.27.927,SL_base,2021.2.3,Win32,250,,,42,0,42,0,1,,,,,,,,
,,"[""diamond"",""no_dis"",""hori"",""left"",[99999,99999],[150,0]]",diamond,no_dis,hori,left,"[99999,99999]","[150,0]",left,1,1.0339,,,,,,001,2025-03-10_17h06.27.927,SL_base,2021.2.3,Win32,250,,,43,0,43,0,1,,,,,,,,
,,"[""diamond"",""red"",""vert"",""up"",[0,-150],[0,150]]",diamond,red,vert,up,"[0,-150]","[0,150]",up,1,1.3418,,,,,,001,2025-03-10_17h06.27.927,SL_base,2021.2.3,Win32,250,,,44,0,44,0,1,,,,,,,,
,,"[""circle"",""green"",""hori"",""left"",[-106,-106],[-150,0]]",circle,green,hori,left,"[-106,-106]","[-150,0]",left,1,1.0129,,,,,,001,2025-03-10_17h06.27.927,SL_base,2021.2.3,Win32,250,,,45,0,45,0,1,,,,,,,,
,,"[""diamond"",""green"",""hori"",""left"",[-106,-106],[0,150]]",diamond,green,hori,left,"[-106,-106]","[0,150]",left,1,1.2069,,,,,,001,2025-03-10_17h06.27.927,SL_base,2021.2.3,Win32,250,,,46,0,46,0,1,,,,,,,,
,,"[""diamond"",""no_dis"",""hori"",""left"",[99999,99999],[-150,0]]",diamond,no_dis,hori,left,"[99999,99999]","[-150,0]",left,1,1.1673,,,,,,001,2025-03-10_17h06.27.927,SL_base,2021.2.3,Win32,250,,,47,0,47,0,1,,,,,,,,
,,"[""circle"",""no_dis"",""vert"",""up"",[99999,99999],[-150,0]]",circle,no_dis,vert,up,"[99999,99999]","[-150,0]",up,1,1.3461,,,,,,001,2025-03-10_17h06.27.927,SL_base,2021.2.3,Win32,250,,,48,0,48,0,1,,,,,,,,
,,"[""diamond"",""green"",""vert"",""up"",[0,-150],[0,150]]",diamond,green,vert,up,"[0,-150]","[0,150]",up,1,1.1009,,,,,,001,2025-03-10_17h06.27.927,SL_base,2021.2.3,Win32,250,,,49,0,49,0,1,,,,,,,,
,,"[""circle"",""red"",""vert"",""up"",[150,0],[0,-150]]",circle,red,vert,up,"[150,0]","[0,-150]",up,1,1.5926,,,,,,001,2025-03-10_17h06.27.927,SL_base,2021.2.3,Win32,250,,,50,0,50,0,1,,,,,,,,
,,"[""circle"",""red"",""hori"",""left"",[-106,106],[-150,0]]",circle,red,hori,left,"[-106,106]","[-150,0]",left,1,0.9923,,,,,,001,2025-03-10_17h06.27.927,SL_base,2021.2.3,Win32,250,,,51,0,51,0,1,,,,,,,,
,,"[""circle"",""green"",""hori"",""left"",[106,106],[0,-150]]",circle,green,hori,left,"[106,106]","[0,-150]",left,1,2.6719,,,,,,001,2025-03-10_17h06.27.927,SL_base,2021.2.3,Win32,250,,,52,0,52,0,1,,,,,,,,
,,"[""circle"",""red"",""vert"",""up"",[-106,-106],[150,0]]",circle,red,vert,up,"[-106,-106]","[150,0]",up,1,0.9671,,,,,,001,2025-03-10_17h06.27.927,SL_base,2021.2.3,Win32,250,,,53,0,53,0,1,,,,,,,,
,,"[""diamond"",""red"",""vert"",""up"",[106,106],[150,0]]",diamond,red,vert,up,"[106,106]","[150,0]",up,1,1.9965,,,,,,001,2025-03-10_17h06.27.927,SL_base,2021.2.3,Win32,250,,,54,0,54,0,1,,,,,,,,
,,"[""circle"",""red"",""vert"",""up"",[0,-150],[106,106]]",circle,red,vert,up,"[0,-150]","[106,106]",up,1,1.7208,,,,,,001,2025-03-10_17h06.27.927,SL_base,2021.2.3,Win32,250,,,55,0,55,0,1,,,,,,,,
,,"[""diamond"",""red"",""vert"",""up"",[106,106],[-150,0]]",diamond,red,vert,up,"[106,106]","[-150,0]",up,1,1.5358,,,,,,001,2025-03-10_17h06.27.927,SL_base,2021.2.3,Win32,250,,,56,0,56,0,1,,,,,,,,
,,"[""diamond"",""green"",""hori"",""left"",[0,150],[106,-106]]",diamond,green,hori,left,"[0,150]","[106,-106]",left,1,0.8836,,,,,,001,2025-03-10_17h06.27.927,SL_base,2021.2.3,Win32,250,,,57,0,57,0,1,,,,,,,,
,,"[""circle"",""green"",""vert"",""up"",[150,0],[0,-150]]",circle,green,vert,up,"[150,0]","[0,-150]",left,0,1.9917,,,,,,001,2025-03-10_17h06.27.927,SL_base,2021.2.3,Win32,250,,,58,0,58,0,1,,,,,,,,
,,"[""circle"",""red"",""hori"",""left"",[0,-150],[106,-106]]",circle,red,hori,left,"[0,-150]","[106,-106]",left,1,0.9418,,,,,,001,2025-03-10_17h06.27.927,SL_base,2021.2.3,Win32,250,,,59,0,59,0,1,,,,,,,,
,,"[""circle"",""red"",""vert"",""up"",[0,-150],[-106,-106]]",circle,red,vert,up,"[0,-150]","[-106,-106]",up,1,1.0007,,,,,,001,2025-03-10_17h06.27.927,SL_base,2021.2.3,Win32,250,,,60,0,60,0,1,,,,,,,,
,,"[""circle"",""red"",""hori"",""left"",[106,106],[0,150]]",circle,red,hori,left,"[106,106]","[0,150]",left,1,0.9827,,,,,,001,2025-03-10_17h06.27.927,SL_base,2021.2.3,Win32,250,,,61,0,61,0,1,,,,,,,,
,,"[""circle"",""no_dis"",""hori"",""left"",[99999,99999],[-106,106]]",circle,no_dis,hori,left,"[99999,99999]","[-106,106]",left,1,0.8746,,,,,,001,2025-03-10_17h06.27.927,SL_base,2021.2.3,Win32,250,,,62,0,62,0,1,,,,,,,,
,,"[""circle"",""no_dis"",""vert"",""up"",[99999,99999],[-106,106]]",circle,no_dis,vert,up,"[99999,99999]","[-106,106]",up,1,0.8036,,,,,,001,2025-03-10_17h06.27.927,SL_base,2021.2.3,Win32,250,,,63,0,63,0,1,,,,,,,,
,,"[""circle"",""no_dis"",""hori"",""left"",[99999,99999],[0,150]]",circle,no_dis,hori,left,"[99999,99999]","[0,150]",left,1,0.7078,,,,,,001,2025-03-10_17h06.27.927,SL_base,2021.2.3,Win32,250,,,64,0,64,0,1,,,,,,,,
,,"[""circle"",""green"",""vert"",""up"",[106,-106],[106,106]]",circle,green,vert,up,"[106,-106]","[106,106]",up,1,0.9992,,,,,,001,2025-03-10_17h06.27.927,SL_base,2021.2.3,Win32,250,,,65,0,65,0,1,,,,,,,,
,,"[""diamond"",""green"",""hori"",""left"",[-106,106],[150,0]]",diamond,green,hori,left,"[-106,106]","[150,0]",left,1,0.9014,,,,,,001,2025-03-10_17h06.27.927,SL_base,2021.2.3,Win32,250,,,66,0,66,0,1,,,,,,,,
,,"[""circle"",""no_dis"",""vert"",""up"",[99999,99999],[-106,106]]",circle,no_dis,vert,up,"[99999,99999]","[-106,106]",up,1,0.7732,,,,,,001,2025-03-10_17h06.27.927,SL_base,2021.2.3,Win32,250,,,67,0,67,0,1,,,,,,,,
,,"[""diamond"",""green"",""hori"",""left"",[150,0],[0,-150]]",diamond,green,hori,left,"[150,0]","[0,-150]",left,1,1.1961,,,,,,001,2025-03-10_17h06.27.927,SL_base,2021.2.3,Win32,250,,,68,0,68,0,1,,,,,,,,
,,"[""circle"",""green"",""hori"",""left"",[-106,106],[0,150]]",circle,green,hori,left,"[-106,106]","[0,150]",left,1,0.7952,,,,,,001,2025-03-10_17h06.27.927,SL_base,2021.2.3,Win32,250,,,69,0,69,0,1,,,,,,,,
,,"[""circle"",""no_dis"",""hori"",""left"",[99999,99999],[150,0]]",circle,no_dis,hori,left,"[99999,99999]","[150,0]",left,1,0.5881,,,,,,001,2025-03-10_17h06.27.927,SL_base,2021.2.3,Win32,250,,,70,0,70,0,1,,,,,,,,
,,"[""diamond"",""green"",""hori"",""left"",[-106,-106],[0,150]]",diamond,green,hori,left,"[-106,-106]","[0,150]",left,1,1.3586,,,,,,001,2025-03-10_17h06.27.927,SL_base,2021.2.3,Win32,250,,,71,0,71,0,1,,,,,,,,
,,"[""diamond"",""red"",""hori"",""left"",[-106,-106],[106,-106]]",diamond,red,hori,left,"[-106,-106]","[106,-106]",left,1,0.8363,,,,,,001,2025-03-10_17h06.27.927,SL_base,2021.2.3,Win32,250,,,72,0,72,0,1,,,,,,,,
,,"[""diamond"",""green"",""vert"",""up"",[0,-150],[106,-106]]",diamond,green,vert,up,"[0,-150]","[106,-106]",up,1,0.7934,,,,,,001,2025-03-10_17h06.27.927,SL_base,2021.2.3,Win32,250,,,73,0,73,0,1,,,,,,,,
,,"[""circle"",""red"",""hori"",""left"",[-150,0],[0,-150]]",circle,red,hori,left,"[-150,0]","[0,-150]",left,1,0.86,,,,,,001,2025-03-10_17h06.27.927,SL_base,2021.2.3,Win32,250,,,74,0,74,0,1,,,,,,,,
,,"[""diamond"",""red"",""vert"",""up"",[-106,106],[150,0]]",diamond,red,vert,up,"[-106,106]","[150,0]",left,0,0.7128,,,,,,001,2025-03-10_17h06.27.927,SL_base,2021.2.3,Win32,250,,,75,0,75,0,1,,,,,,,,
,,"[""diamond"",""green"",""vert"",""up"",[-106,106],[0,150]]",diamond,green,vert,up,"[-106,106]","[0,150]",up,1,0.7574,,,,,,001,2025-03-10_17h06.27.927,SL_base,2021.2.3,Win32,250,,,76,0,76,0,1,,,,,,,,
,,"[""circle"",""red"",""vert"",""up"",[106,-106],[-106,-106]]",circle,red,vert,up,"[106,-106]","[-106,-106]",left,0,0.9253,,,,,,001,2025-03-10_17h06.27.927,SL_base,2021.2.3,Win32,250,,,77,0,77,0,1,,,,,,,,
,,"[""diamond"",""red"",""hori"",""left"",[150,0],[106,106]]",diamond,red,hori,left,"[150,0]","[106,106]",left,1,0.9383,,,,,,001,2025-03-10_17h06.27.927,SL_base,2021.2.3,Win32,250,,,78,0,78,0,1,,,,,,,,
,,"[""circle"",""green"",""hori"",""left"",[0,-150],[106,106]]",circle,green,hori,left,"[0,-150]","[106,106]",left,1,1.2993,,,,,,001,2025-03-10_17h06.27.927,SL_base,2021.2.3,Win32,250,,,79,0,79,0,1,,,,,,,,
,,"[""diamond"",""no_dis"",""hori"",""left"",[99999,99999],[106,106]]",diamond,no_dis,hori,left,"[99999,99999]","[106,106]",left,1,0.807,,,,,,001,2025-03-10_17h06.27.927,SL_base,2021.2.3,Win32,250,,,80,0,80,0,1,,,,,,,,
,,"[""circle"",""green"",""vert"",""up"",[0,150],[0,-150]]",circle,green,vert,up,"[0,150]","[0,-150]",up,1,1.7168,,,,,,001,2025-03-10_17h06.27.927,SL_base,2021.2.3,Win32,250,,,81,0,81,0,1,,,,,,,,
,,"[""diamond"",""no_dis"",""vert"",""up"",[99999,99999],[0,-150]]",diamond,no_dis,vert,up,"[99999,99999]","[0,-150]",up,1,1.0571,,,,,,001,2025-03-10_17h06.27.927,SL_base,2021.2.3,Win32,250,,,82,0,82,0,1,,,,,,,,
,,"[""circle"",""no_dis"",""vert"",""up"",[99999,99999],[-106,-106]]",circle,no_dis,vert,up,"[99999,99999]","[-106,-106]",up,1,1.9027,,,,,,001,2025-03-10_17h06.27.927,SL_base,2021.2.3,Win32,250,,,83,0,83,0,1,,,,,,,,
,,"[""circle"",""no_dis"",""hori"",""left"",[99999,99999],[-150,0]]",circle,no_dis,hori,left,"[99999,99999]","[-150,0]",left,1,0.8035,,,,,,001,2025-03-10_17h06.27.927,SL_base,2021.2.3,Win32,250,,,84,0,84,0,1,,,,,,,,
,,"[""circle"",""red"",""vert"",""up"",[0,-150],[106,106]]",circle,red,vert,up,"[0,-150]","[106,106]",up,1,0.8843,,,,,,001,2025-03-10_17h06.27.927,SL_base,2021.2.3,Win32,250,,,85,0,85,0,1,,,,,,,,
,,"[""circle"",""red"",""hori"",""left"",[-150,0],[106,106]]",circle,red,hori,left,"[-150,0]","[106,106]",left,1,0.8706,,,,,,001,2025-03-10_17h06.27.927,SL_base,2021.2.3,Win32,250,,,86,0,86,0,1,,,,,,,,
,,"[""circle"",""green"",""vert"",""up"",[0,-150],[-106,106]]",circle,green,vert,up,"[0,-150]","[-106,106]",up,1,0.9765,,,,,,001,2025-03-10_17h06.27.927,SL_base,2021.2.3,Win32,250,,,87,0,87,0,1,,,,,,,,
,,"[""diamond"",""red"",""vert"",""up"",[-150,0],[-106,106]]",diamond,red,vert,up,"[-150,0]","[-106,106]",left,0,0.8969,,,,,,001,2025-03-10_17h06.27.927,SL_base,2021.2.3,Win32,250,,,88,0,88,0,1,,,,,,,,
,,"[""diamond"",""red"",""vert"",""up"",[-106,-106],[150,0]]",diamond,red,vert,up,"[-106,-106]","[150,0]",up,1,1.4555,,,,,,001,2025-03-10_17h06.27.927,SL_base,2021.2.3,Win32,250,,,89,0,89,0,1,,,,,,,,
,,"[""circle"",""green"",""vert"",""up"",[0,-150],[-150,0]]",circle,green,vert,up,"[0,-150]","[-150,0]",up,1,2.4388,,,,,,001,2025-03-10_17h06.27.927,SL_base,2021.2.3,Win32,250,,,90,0,90,0,1,,,,,,,,
,,"[""circle"",""green"",""hori"",""left"",[0,150],[-106,-106]]",circle,green,hori,left,"[0,150]","[-106,-106]",left,1,0.8013,,,,,,001,2025-03-10_17h06.27.927,SL_base,2021.2.3,Win32,250,,,91,0,91,0,1,,,,,,,,
,,"[""circle"",""no_dis"",""hori"",""left"",[99999,99999],[150,0]]",circle,no_dis,hori,left,"[99999,99999]","[150,0]",left,1,0.7475,,,,,,001,2025-03-10_17h06.27.927,SL_base,2021.2.3,Win32,250,,,92,0,92,0,1,,,,,,,,
,,"[""diamond"",""no_dis"",""vert"",""up"",[99999,99999],[0,-150]]",diamond,no_dis,vert,up,"[99999,99999]","[0,-150]",up,1,0.8123,,,,,,001,2025-03-10_17h06.27.927,SL_base,2021.2.3,Win32,250,,,93,0,93,0,1,,,,,,,,
,,"[""diamond"",""no_dis"",""vert"",""up"",[99999,99999],[0,150]]",diamond,no_dis,vert,up,"[99999,99999]","[0,150]",up,1,1.0384,,,,,,001,2025-03-10_17h06.27.927,SL_base,2021.2.3,Win32,250,,,94,0,94,0,1,,,,,,,,
,,"[""circle"",""no_dis"",""hori"",""left"",[99999,99999],[0,150]]",circle,no_dis,hori,left,"[99999,99999]","[0,150]",left,1,1.0621,,,,,,001,2025-03-10_17h06.27.927,SL_base,2021.2.3,Win32,250,,,95,0,95,0,1,,,,,,,,
,,"[""circle"",""red"",""hori"",""left"",[0,-150],[106,-106]]",circle,red,hori,left,"[0,-150]","[106,-106]",left,1,1.168,,,,,,001,2025-03-10_17h06.27.927,SL_base,2021.2.3,Win32,250,,,96,0,96,0,1,,,,,,,,
,,"[""diamond"",""red"",""vert"",""up"",[0,150],[150,0]]",diamond,red,vert,up,"[0,150]","[150,0]",up,1,1.4734,,,,,,001,2025-03-10_17h06.27.927,SL_base,2021.2.3,Win32,250,,,97,0,97,0,1,,,,,,,,
,,"[""circle"",""green"",""vert"",""up"",[106,106],[0,150]]",circle,green,vert,up,"[106,106]","[0,150]",up,1,1.2449,,,,,,001,2025-03-10_17h06.27.927,SL_base,2021.2.3,Win32,250,,,98,0,98,0,1,,,,,,,,
,,"[""diamond"",""green"",""vert"",""up"",[0,150],[106,106]]",diamond,green,vert,up,"[0,150]","[106,106]",up,1,1.2564,,,,,,001,2025-03-10_17h06.27.927,SL_base,2021.2.3,Win32,250,,,99,0,99,0,1,,,,,,,,
,,"[""diamond"",""no_dis"",""hori"",""left"",[99999,99999],[-106,-106]]",diamond,no_dis,hori,left,"[99999,99999]","[-106,-106]",left,1,0.946,,,,,,001,2025-03-10_17h06.27.927,SL_base,2021.2.3,Win32,250,,,100,0,100,0,1,,,,,,,,
,,"[""diamond"",""no_dis"",""hori"",""left"",[99999,99999],[-106,106]]",diamond,no_dis,hori,left,"[99999,99999]","[-106,106]",left,1,1.7924,,,,,,001,2025-03-10_17h06.27.927,SL_base,2021.2.3,Win32,250,,,101,0,101,0,1,,,,,,,,
,,"[""circle"",""red"",""vert"",""up"",[106,-106],[106,106]]",circle,red,vert,up,"[106,-106]","[106,106]",up,1,2.2256,,,,,,001,2025-03-10_17h06.27.927,SL_base,2021.2.3,Win32,250,,,102,0,102,0,1,,,,,,,,
,,"[""circle"",""red"",""vert"",""up"",[150,0],[106,106]]",circle,red,vert,up,"[150,0]","[106,106]",up,1,0.9795,,,,,,001,2025-03-10_17h06.27.927,SL_base,2021.2.3,Win32,250,,,103,0,103,0,1,,,,,,,,
,,"[""circle"",""no_dis"",""vert"",""up"",[99999,99999],[-106,-106]]",circle,no_dis,vert,up,"[99999,99999]","[-106,-106]",up,1,1.1115,,,,,,001,2025-03-10_17h06.27.927,SL_base,2021.2.3,Win32,250,,,104,0,104,0,1,,,,,,,,
,,"[""diamond"",""green"",""hori"",""left"",[0,-150],[150,0]]",diamond,green,hori,left,"[0,-150]","[150,0]",left,1,0.9633,,,,,,001,2025-03-10_17h06.27.927,SL_base,2021.2.3,Win32,250,,,105,0,105,0,1,,,,,,,,
,,"[""circle"",""green"",""vert"",""up"",[-150,0],[0,-150]]",circle,green,vert,up,"[-150,0]","[0,-150]",up,1,1.1085,,,,,,001,2025-03-10_17h06.27.927,SL_base,2021.2.3,Win32,250,,,106,0,106,0,1,,,,,,,,
,,"[""circle"",""no_dis"",""hori"",""left"",[99999,99999],[106,106]]",circle,no_dis,hori,left,"[99999,99999]","[106,106]",left,1,0.7898,,,,,,001,2025-03-10_17h06.27.927,SL_base,2021.2.3,Win32,250,,,107,0,107,0,1,,,,,,,,
,,"[""circle"",""red"",""hori"",""left"",[-150,0],[0,150]]",circle,red,hori,left,"[-150,0]","[0,150]",left,1,0.7323,,,,,,001,2025-03-10_17h06.27.927,SL_base,2021.2.3,Win32,250,,,108,0,108,0,1,,,,,,,,
,,"[""diamond"",""red"",""hori"",""left"",[-106,106],[-106,-106]]",diamond,red,hori,left,"[-106,106]","[-106,-106]",left,1,1.4827,,,,,,001,2025-03-10_17h06.27.927,SL_base,2021.2.3,Win32,250,,,109,0,109,0,1,,,,,,,,
,,"[""circle"",""green"",""hori"",""left"",[0,-150],[-106,-106]]",circle,green,hori,left,"[0,-150]","[-106,-106]",left,1,1.4501,,,,,,001,2025-03-10_17h06.27.927,SL_base,2021.2.3,Win32,250,,,110,0,110,0,1,,,,,,,,
,,"[""diamond"",""no_dis"",""hori"",""left"",[99999,99999],[106,-106]]",diamond,no_dis,hori,left,"[99999,99999]","[106,-106]",left,1,1.096,,,,,,001,2025-03-10_17h06.27.927,SL_base,2021.2.3,Win32,250,,,111,0,111,0,1,,,,,,,,
,,"[""diamond"",""no_dis"",""hori"",""left"",[99999,99999],[106,-106]]",diamond,no_dis,hori,left,"[99999,99999]","[106,-106]",left,1,1.4508,,,,,,001,2025-03-10_17h06.27.927,SL_base,2021.2.3,Win32,250,,,112,0,112,0,1,,,,,,,,
,,"[""diamond"",""green"",""vert"",""up"",[0,-150],[106,106]]",diamond,green,vert,up,"[0,-150]","[106,106]",up,1,0.9785,,,,,,001,2025-03-10_17h06.27.927,SL_base,2021.2.3,Win32,250,,,113,0,113,0,1,,,,,,,,
,,"[""circle"",""no_dis"",""hori"",""left"",[99999,99999],[-150,0]]",circle,no_dis,hori,left,"[99999,99999]","[-150,0]",left,1,1.3991,,,,,,001,2025-03-10_17h06.27.927,SL_base,2021.2.3,Win32,250,,,114,0,114,0,1,,,,,,,,
,,"[""circle"",""no_dis"",""hori"",""left"",[99999,99999],[-150,0]]",circle,no_dis,hori,left,"[99999,99999]","[-150,0]",left,1,1.3075,,,,,,001,2025-03-10_17h06.27.927,SL_base,2021.2.3,Win32,250,,,115,0,115,0,1,,,,,,,,
,,"[""diamond"",""no_dis"",""vert"",""up"",[99999,99999],[0,-150]]",diamond,no_dis,vert,up,"[99999,99999]","[0,-150]",up,1,1.1095,,,,,,001,2025-03-10_17h06.27.927,SL_base,2021.2.3,Win32,250,,,116,0,116,0,1,,,,,,,,
,,"[""circle"",""green"",""hori"",""left"",[106,106],[106,-106]]",circle,green,hori,left,"[106,106]","[106,-106]",left,1,1.704,,,,,,001,2025-03-10_17h06.27.927,SL_base,2021.2.3,Win32,250,,,117,0,117,0,1,,,,,,,,
,,"[""circle"",""red"",""hori"",""left"",[106,-106],[-106,-106]]",circle,red,hori,left,"[106,-106]","[-106,-106]",left,1,0.9854,,,,,,001,2025-03-10_17h06.27.927,SL_base,2021.2.3,Win32,250,,,118,0,118,0,1,,,,,,,,
,,"[""circle"",""green"",""vert"",""up"",[106,-106],[0,150]]",circle,green,vert,up,"[106,-106]","[0,150]",up,1,1.1317,,,,,,001,2025-03-10_17h06.27.927,SL_base,2021.2.3,Win32,250,,,119,0,119,0,1,,,,,,,,
,,,,,,,,,,,,,,,,,001,2025-03-10_17h06.27.927,SL_base,2021.2.3,Win32,250,,,,,,,,3,space,92.2926,2,0,2,0,1
,,"[""diamond"",""no_dis"",""hori"",""left"",[99999,99999],[106,-106]]",diamond,no_dis,hori,left,"[99999,99999]","[106,-106]",left,1,0.8389,,,,,,001,2025-03-10_17h06.27.927,SL_base,2021.2.3,Win32,250,,,0,0,0,0,1,,,,,,,,
,,"[""diamond"",""no_dis"",""hori"",""left"",[99999,99999],[106,-106]]",diamond,no_dis,hori,left,"[99999,99999]","[106,-106]",left,1,0.8505,,,,,,001,2025-03-10_17h06.27.927,SL_base,2021.2.3,Win32,250,,,1,0,1,0,1,,,,,,,,
,,"[""diamond"",""green"",""vert"",""up"",[0,-150],[-150,0]]",diamond,green,vert,up,"[0,-150]","[-150,0]",up,1,1.2595,,,,,,001,2025-03-10_17h06.27.927,SL_base,2021.2.3,Win32,250,,,2,0,2,0,1,,,,,,,,
,,"[""diamond"",""red"",""vert"",""up"",[0,-150],[0,150]]",diamond,red,vert,up,"[0,-150]","[0,150]",up,1,1.0539,,,,,,001,2025-03-10_17h06.27.927,SL_base,2021.2.3,Win32,250,,,3,0,3,0,1,,,,,,,,
,,"[""diamond"",""green"",""vert"",""up"",[0,-150],[0,150]]",diamond,green,vert,up,"[0,-150]","[0,150]",up,1,0.6801,,,,,,001,2025-03-10_17h06.27.927,SL_base,2021.2.3,Win32,250,,,4,0,4,0,1,,,,,,,,
,,"[""diamond"",""no_dis"",""hori"",""left"",[99999,99999],[150,0]]",diamond,no_dis,hori,left,"[99999,99999]","[150,0]",left,1,0.7299,,,,,,001,2025-03-10_17h06.27.927,SL_base,2021.2.3,Win32,250,,,5,0,5,0,1,,,,,,,,
,,"[""diamond"",""no_dis"",""hori"",""left"",[99999,99999],[-106,106]]",diamond,no_dis,hori,left,"[99999,99999]","[-106,106]",left,1,0.8747,,,,,,001,2025-03-10_17h06.27.927,SL_base,2021.2.3,Win32,250,,,6,0,6,0,1,,,,,,,,
,,"[""diamond"",""green"",""vert"",""up"",[-150,0],[0,-150]]",diamond,green,vert,up,"[-150,0]","[0,-150]",up,1,1.0606,,,,,,001,2025-03-10_17h06.27.927,SL_base,2021.2.3,Win32,250,,,7,0,7,0,1,,,,,,,,
,,"[""diamond"",""green"",""vert"",""up"",[0,-150],[0,150]]",diamond,green,vert,up,"[0,-150]","[0,150]",left,0,0.784,,,,,,001,2025-03-10_17h06.27.927,SL_base,2021.2.3,Win32,250,,,8,0,8,0,1,,,,,,,,
,,"[""circle"",""red"",""hori"",""left"",[-150,0],[0,150]]",circle,red,hori,left,"[-150,0]","[0,150]",left,1,0.7652,,,,,,001,2025-03-10_17h06.27.927,SL_base,2021.2.3,Win32,250,,,9,0,9,0,1,,,,,,,,
,,"[""diamond"",""green"",""hori"",""left"",[0,-150],[150,0]]",diamond,green,hori,left,"[0,-150]","[150,0]",left,1,0.9479,,,,,,001,2025-03-10_17h06.27.927,SL_base,2021.2.3,Win32,250,,,10,0,10,0,1,,,,,,,,
,,"[""circle"",""red"",""vert"",""up"",[150,0],[106,106]]",circle,red,vert,up,"[150,0]","[106,106]",up,1,1.358,,,,,,001,2025-03-10_17h06.27.927,SL_base,2021.2.3,Win32,250,,,11,0,11,0,1,,,,,,,,
,,"[""diamond"",""no_dis"",""hori"",""left"",[99999,99999],[106,106]]",diamond,no_dis,hori,left,"[99999,99999]","[106,106]",left,1,1.1844,,,,,,001,2025-03-10_17h06.27.927,SL_base,2021.2.3,Win32,250,,,12,0,12,0,1,,,,,,,,
,,"[""circle"",""green"",""hori"",""left"",[106,-106],[150,0]]",circle,green,hori,left,"[106,-106]","[150,0]",left,1,1.622,,,,,,001,2025-03-10_17h06.27.927,SL_base,2021.2.3,Win32,250,,,13,0,13,0,1,,,,,,,,
,,"[""circle"",""green"",""vert"",""up"",[0,-150],[-106,106]]",circle,green,vert,up,"[0,-150]","[-106,106]",up,1,1.2129,,,,,,001,2025-03-10_17h06.27.927,SL_base,2021.2.3,Win32,250,,,14,0,14,0,1,,,,,,,,
,,"[""diamond"",""no_dis"",""vert"",""up"",[99999,99999],[-106,-106]]",diamond,no_dis,vert,up,"[99999,99999]","[-106,-106]",up,1,1.233,,,,,,001,2025-03-10_17h06.27.927,SL_base,2021.2.3,Win32,250,,,15,0,15,0,1,,,,,,,,
,,"[""circle"",""green"",""vert"",""up"",[0,-150],[-150,0]]",circle,green,vert,up,"[0,-150]","[-150,0]",up,1,1.0785,,,,,,001,2025-03-10_17h06.27.927,SL_base,2021.2.3,Win32,250,,,16,0,16,0,1,,,,,,,,
,,"[""diamond"",""red"",""vert"",""up"",[0,150],[150,0]]",diamond,red,vert,up,"[0,150]","[150,0]",left,0,0.7705,,,,,,001,2025-03-10_17h06.27.927,SL_base,2021.2.3,Win32,250,,,17,0,17,0,1,,,,,,,,
,,"[""circle"",""no_dis"",""vert"",""up"",[99999,99999],[-106,106]]",circle,no_dis,vert,up,"[99999,99999]","[-106,106]",up,1,0.9535,,,,,,001,2025-03-10_17h06.27.927,SL_base,2021.2.3,Win32,250,,,18,0,18,0,1,,,,,,,,
,,"[""circle"",""green"",""vert"",""up"",[-150,0],[0,-150]]",circle,green,vert,up,"[-150,0]","[0,-150]",up,1,0.9662,,,,,,001,2025-03-10_17h06.27.927,SL_base,2021.2.3,Win32,250,,,19,0,19,0,1,,,,,,,,
,,"[""diamond"",""green"",""vert"",""up"",[0,-150],[106,-106]]",diamond,green,vert,up,"[0,-150]","[106,-106]",up,1,1.2342,,,,,,001,2025-03-10_17h06.27.927,SL_base,2021.2.3,Win32,250,,,20,0,20,0,1,,,,,,,,
,,"[""diamond"",""red"",""hori"",""left"",[150,0],[106,106]]",diamond,red,hori,left,"[150,0]","[106,106]",left,1,1.0665,,,,,,001,2025-03-10_17h06.27.927,SL_base,2021.2.3,Win32,250,,,21,0,21,0,1,,,,,,,,
,,"[""circle"",""green"",""vert"",""up"",[0,-150],[-106,-106]]",circle,green,vert,up,"[0,-150]","[-106,-106]",up,1,1.0527,,,,,,001,2025-03-10_17h06.27.927,SL_base,2021.2.3,Win32,250,,,22,0,22,0,1,,,,,,,,
,,"[""diamond"",""green"",""hori"",""left"",[-106,-106],[0,150]]",diamond,green,hori,left,"[-106,-106]","[0,150]",left,1,0.7849,,,,,,001,2025-03-10_17h06.27.927,SL_base,2021.2.3,Win32,250,,,23,0,23,0,1,,,,,,,,
,,"[""diamond"",""green"",""vert"",""up"",[-150,0],[0,-150]]",diamond,green,vert,up,"[-150,0]","[0,-150]",up,1,1.2636,,,,,,001,2025-03-10_17h06.27.927,SL_base,2021.2.3,Win32,250,,,24,0,24,0,1,,,,,,,,
,,"[""circle"",""green"",""hori"",""left"",[0,-150],[0,150]]",circle,green,hori,left,"[0,-150]","[0,150]",left,1,1.1715,,,,,,001,2025-03-10_17h06.27.927,SL_base,2021.2.3,Win32,250,,,25,0,25,0,1,,,,,,,,
,,"[""circle"",""red"",""vert"",""up"",[0,-150],[106,106]]",circle,red,vert,up,"[0,-150]","[106,106]",up,1,1.2547,,,,,,001,2025-03-10_17h06.27.927,SL_base,2021.2.3,Win32,250,,,26,0,26,0,1,,,,,,,,
,,"[""circle"",""green"",""vert"",""up"",[106,106],[0,150]]",circle,green,vert,up,"[106,106]","[0,150]",up,1,0.8463,,,,,,001,2025-03-10_17h06.27.927,SL_base,2021.2.3,Win32,250,,,27,0,27,0,1,,,,,,,,
,,"[""diamond"",""red"",""vert"",""up"",[106,106],[150,0]]",diamond,red,vert,up,"[106,106]","[150,0]",up,1,1.2577,,,,,,001,2025-03-10_17h06.27.927,SL_base,2021.2.3,Win32,250,,,28,0,28,0,1,,,,,,,,
,,"[""circle"",""green"",""hori"",""left"",[0,-150],[106,106]]",circle,green,hori,left,"[0,-150]","[106,106]",left,1,1.0959,,,,,,001,2025-03-10_17h06.27.927,SL_base,2021.2.3,Win32,250,,,29,0,29,0,1,,,,,,,,
,,"[""diamond"",""red"",""hori"",""left"",[0,-150],[150,0]]",diamond,red,hori,left,"[0,-150]","[150,0]",left,1,1.2959,,,,,,001,2025-03-10_17h06.27.927,SL_base,2021.2.3,Win32,250,,,30,0,30,0,1,,,,,,,,
,,"[""circle"",""red"",""hori"",""left"",[106,106],[0,150]]",circle,red,hori,left,"[106,106]","[0,150]",left,1,1.1179,,,,,,001,2025-03-10_17h06.27.927,SL_base,2021.2.3,Win32,250,,,31,0,31,0,1,,,,,,,,
,,"[""circle"",""red"",""hori"",""left"",[0,150],[-150,0]]",circle,red,hori,left,"[0,150]","[-150,0]",left,1,0.8205,,,,,,001,2025-03-10_17h06.27.927,SL_base,2021.2.3,Win32,250,,,32,0,32,0,1,,,,,,,,
,,"[""diamond"",""green"",""hori"",""left"",[-106,-106],[150,0]]",diamond,green,hori,left,"[-106,-106]","[150,0]",left,1,0.7715,,,,,,001,2025-03-10_17h06.27.927,SL_base,2021.2.3,Win32,250,,,33,0,33,0,1,,,,,,,,
,,"[""circle"",""green"",""vert"",""up"",[106,-106],[0,150]]",circle,green,vert,up,"[106,-106]","[0,150]",up,1,1.1347,,,,,,001,2025-03-10_17h06.27.927,SL_base,2021.2.3,Win32,250,,,34,0,34,0,1,,,,,,,,
,,"[""diamond"",""no_dis"",""hori"",""left"",[99999,99999],[106,106]]",diamond,no_dis,hori,left,"[99999,99999]","[106,106]",left,1,1.3786,,,,,,001,2025-03-10_17h06.27.927,SL_base,2021.2.3,Win32,250,,,35,0,35,0,1,,,,,,,,
,,"[""diamond"",""no_dis"",""vert"",""up"",[99999,99999],[0,-150]]",diamond,no_dis,vert,up,"[99999,99999]","[0,-150]",up,1,0.9432,,,,,,001,2025-03-10_17h06.27.927,SL_base,2021.2.3,Win32,250,,,36,0,36,0,1,,,,,,,,
,,"[""circle"",""green"",""vert"",""up"",[-106,106],[-106,-106]]",circle,green,vert,up,"[-106,106]","[-106,-106]",up,1,1.2889,,,,,,001,2025-03-10_17h06.27.927,SL_base,2021.2.3,Win32,250,,,37,0,37,0,1,,,,,,,,
,,"[""diamond"",""green"",""hori"",""left"",[0,-150],[150,0]]",diamond,green,hori,left,"[0,-150]","[150,0]",left,1,0.7259,,,,,,001,2025-03-10_17h06.27.927,SL_base,2021.2.3,Win32,250,,,38,0,38,0,1,,,,,,,,
,,"[""circle"",""red"",""vert"",""up"",[106,-106],[-106,-106]]",circle,red,vert,up,"[106,-106]","[-106,-106]",left,0,0.8307,,,,,,001,2025-03-10_17h06.27.927,SL_base,2021.2.3,Win32,250,,,39,0,39,0,1,,,,,,,,
,,"[""diamond"",""no_dis"",""hori"",""left"",[99999,99999],[106,-106]]",diamond,no_dis,hori,left,"[99999,99999]","[106,-106]",left,1,0.798,,,,,,001,2025-03-10_17h06.27.927,SL_base,2021.2.3,Win32,250,,,40,0,40,0,1,,,,,,,,
,,"[""diamond"",""red"",""vert"",""up"",[-106,106],[150,0]]",diamond,red,vert,up,"[-106,106]","[150,0]",up,1,1.2071,,,,,,001,2025-03-10_17h06.27.927,SL_base,2021.2.3,Win32,250,,,41,0,41,0,1,,,,,,,,
,,"[""circle"",""green"",""hori"",""left"",[0,-150],[0,150]]",circle,green,hori,left,"[0,-150]","[0,150]",left,1,1.4004,,,,,,001,2025-03-10_17h06.27.927,SL_base,2021.2.3,Win32,250,,,42,0,42,0,1,,,,,,,,
,,"[""diamond"",""green"",""vert"",""up"",[-106,106],[0,150]]",diamond,green,vert,up,"[-106,106]","[0,150]",up,1,1.4797,,,,,,001,2025-03-10_17h06.27.927,SL_base,2021.2.3,Win32,250,,,43,0,43,0,1,,,,,,,,
,,"[""circle"",""red"",""vert"",""up"",[106,-106],[106,106]]",circle,red,vert,up,"[106,-106]","[106,106]",up,1,1.1275,,,,,,001,2025-03-10_17h06.27.927,SL_base,2021.2.3,Win32,250,,,44,0,44,0,1,,,,,,,,
,,"[""diamond"",""red"",""hori"",""left"",[-106,106],[150,0]]",diamond,red,hori,left,"[-106,106]","[150,0]",left,1,0.8201,,,,,,001,2025-03-10_17h06.27.927,SL_base,2021.2.3,Win32,250,,,45,0,45,0,1,,,,,,,,
,,"[""diamond"",""red"",""vert"",""up"",[-150,0],[-106,106]]",diamond,red,vert,up,"[-150,0]","[-106,106]",up,1,0.9111,,,,,,001,2025-03-10_17h06.27.927,SL_base,2021.2.3,Win32,250,,,46,0,46,0,1,,,,,,,,
,,"[""diamond"",""red"",""vert"",""up"",[0,-150],[-106,-106]]",diamond,red,vert,up,"[0,-150]","[-106,-106]",up,1,0.9584,,,,,,001,2025-03-10_17h06.27.927,SL_base,2021.2.3,Win32,250,,,47,0,47,0,1,,,,,,,,
,,"[""diamond"",""green"",""vert"",""up"",[0,150],[106,106]]",diamond,green,vert,up,"[0,150]","[106,106]",up,1,1.6254,,,,,,001,2025-03-10_17h06.27.927,SL_base,2021.2.3,Win32,250,,,48,0,48,0,1,,,,,,,,
,,"[""circle"",""no_dis"",""vert"",""up"",[99999,99999],[-106,106]]",circle,no_dis,vert,up,"[99999,99999]","[-106,106]",up,1,1.0263,,,,,,001,2025-03-10_17h06.27.927,SL_base,2021.2.3,Win32,250,,,49,0,49,0,1,,,,,,,,
,,"[""circle"",""no_dis"",""hori"",""left"",[99999,99999],[0,150]]",circle,no_dis,hori,left,"[99999,99999]","[0,150]",left,1,0.8291,,,,,,001,2025-03-10_17h06.27.927,SL_base,2021.2.3,Win32,250,,,50,0,50,0,1,,,,,,,,
,,"[""circle"",""red"",""hori"",""left"",[-150,0],[0,-150]]",circle,red,hori,left,"[-150,0]","[0,-150]",left,1,1.173,,,,,,001,2025-03-10_17h06.27.927,SL_base,2021.2.3,Win32,250,,,51,0,51,0,1,,,,,,,,
,,"[""diamond"",""red"",""hori"",""left"",[-106,106],[-106,-106]]",diamond,red,hori,left,"[-106,106]","[-106,-106]",left,1,1.3209,,,,,,001,2025-03-10_17h06.27.927,SL_base,2021.2.3,Win32,250,,,52,0,52,0,1,,,,,,,,
,,"[""circle"",""no_dis"",""vert"",""up"",[99999,99999],[0,-150]]",circle,no_dis,vert,up,"[99999,99999]","[0,-150]",up,1,1.334,,,,,,001,2025-03-10_17h06.27.927,SL_base,2021.2.3,Win32,250,,,53,0,53,0,1,,,,,,,,
,,"[""circle"",""no_dis"",""vert"",""up"",[99999,99999],[-106,106]]",circle,no_dis,vert,up,"[99999,99999]","[-106,106]",up,1,1.117,,,,,,001,2025-03-10_17h06.27.927,SL_base,2021.2.3,Win32,250,,,54,0,54,0,1,,,,,,,,
,,"[""circle"",""green"",""hori"",""left"",[-106,-106],[-150,0]]",circle,green,hori,left,"[-106,-106]","[-150,0]",left,1,1.37,,,,,,001,2025-03-10_17h06.27.927,SL_base,2021.2.3,Win32,250,,,55,0,55,0,1,,,,,,,,
,,"[""circle"",""red"",""vert"",""up"",[150,0],[0,-150]]",circle,red,vert,up,"[150,0]","[0,-150]",up,1,0.947,,,,,,001,2025-03-10_17h06.27.927,SL_base,2021.2.3,Win32,250,,,56,0,56,0,1,,,,,,,,
,,"[""diamond"",""no_dis"",""vert"",""up"",[99999,99999],[150,0]]",diamond,no_dis,vert,up,"[99999,99999]","[150,0]",left,0,1.1947,,,,,,001,2025-03-10_17h06.27.927,SL_base,2021.2.3,Win32,250,,,57,0,57,0,1,,,,,,,,
,,"[""diamond"",""red"",""vert"",""up"",[106,106],[-150,0]]",diamond,red,vert,up,"[106,106]","[-150,0]",up,1,1.2885,,,,,,001,2025-03-10_17h06.27.927,SL_base,2021.2.3,Win32,250,,,58,0,58,0,1,,,,,,,,
,,"[""diamond"",""green"",""vert"",""up"",[0,-150],[106,106]]",diamond,green,vert,up,"[0,-150]","[106,106]",up,1,1.3143,,,,,,001,2025-03-10_17h06.27.927,SL_base,2021.2.3,Win32,250,,,59,0,59,0,1,,,,,,,,
,,"[""diamond"",""no_dis"",""vert"",""up"",[99999,99999],[106,-106]]",diamond,no_dis,vert,up,"[99999,99999]","[106,-106]",up,1,0.9085,,,,,,001,2025-03-10_17h06.27.927,SL_base,2021.2.3,Win32,250,,,60,0,60,0,1,,,,,,,,
,,"[""circle"",""green"",""hori"",""left"",[-106,106],[0,150]]",circle,green,hori,left,"[-106,106]","[0,150]",left,1,1.5013,,,,,,001,2025-03-10_17h06.27.927,SL_base,2021.2.3,Win32,250,,,61,0,61,0,1,,,,,,,,
,,"[""circle"",""no_dis"",""hori"",""left"",[99999,99999],[-150,0]]",circle,no_dis,hori,left,"[99999,99999]","[-150,0]",left,1,0.7749,,,,,,001,2025-03-10_17h06.27.927,SL_base,2021.2.3,Win32,250,,,62,0,62,0,1,,,,,,,,
,,"[""circle"",""no_dis"",""hori"",""left"",[99999,99999],[-150,0]]",circle,no_dis,hori,left,"[99999,99999]","[-150,0]",left,1,0.7822,,,,,,001,2025-03-10_17h06.27.927,SL_base,2021.2.3,Win32,250,,,63,0,63,0,1,,,,,,,,
,,"[""circle"",""red"",""hori"",""left"",[0,-150],[-106,-106]]",circle,red,hori,left,"[0,-150]","[-106,-106]",up,0,0.89,,,,,,001,2025-03-10_17h06.27.927,SL_base,2021.2.3,Win32,250,,,64,0,64,0,1,,,,,,,,
,,"[""diamond"",""no_dis"",""hori"",""left"",[99999,99999],[-106,-106]]",diamond,no_dis,hori,left,"[99999,99999]","[-106,-106]",left,1,0.8467,,,,,,001,2025-03-10_17h06.27.927,SL_base,2021.2.3,Win32,250,,,65,0,65,0,1,,,,,,,,
,,"[""diamond"",""green"",""hori"",""left"",[0,150],[106,-106]]",diamond,green,hori,left,"[0,150]","[106,-106]",left,1,0.8052,,,,,,001,2025-03-10_17h06.27.927,SL_base,2021.2.3,Win32,250,,,66,0,66,0,1,,,,,,,,
,,"[""circle"",""green"",""vert"",""up"",[150,0],[0,-150]]",circle,green,vert,up,"[150,0]","[0,-150]",up,1,1.2443,,,,,,001,2025-03-10_17h06.27.927,SL_base,2021.2.3,Win32,250,,,67,0,67,0,1,,,,,,,,
,,"[""diamond"",""green"",""hori"",""left"",[150,0],[0,150]]",diamond,green,hori,left,"[150,0]","[0,150]",up,0,1.4458,,,,,,001,2025-03-10_17h06.27.927,SL_base,2021.2.3,Win32,250,,,68,0,68,0,1,,,,,,,,
,,"[""diamond"",""no_dis"",""hori"",""left"",[99999,99999],[-150,0]]",diamond,no_dis,hori,left,"[99999,99999]","[-150,0]",left,1,1.024,,,,,,001,2025-03-10_17h06.27.927,SL_base,2021.2.3,Win32,250,,,69,0,69,0,1,,,,,,,,
,,"[""diamond"",""no_dis"",""vert"",""up"",[99999,99999],[0,-150]]",diamond,no_dis,vert,up,"[99999,99999]","[0,-150]",up,1,0.9338,,,,,,001,2025-03-10_17h06.27.927,SL_base,2021.2.3,Win32,250,,,70,0,70,0,1,,,,,,,,
,,"[""circle"",""no_dis"",""hori"",""left"",[99999,99999],[-106,106]]",circle,no_dis,hori,left,"[99999,99999]","[-106,106]",left,1,1.2136,,,,,,001,2025-03-10_17h06.27.927,SL_base,2021.2.3,Win32,250,,,71,0,71,0,1,,,,,,,,
,,"[""circle"",""green"",""hori"",""left"",[106,106],[106,-106]]",circle,green,hori,left,"[106,106]","[106,-106]",left,1,0.9887,,,,,,001,2025-03-10_17h06.27.927,SL_base,2021.2.3,Win32,250,,,72,0,72,0,1,,,,,,,,
,,"[""circle"",""no_dis"",""hori"",""left"",[99999,99999],[150,0]]",circle,no_dis,hori,left,"[99999,99999]","[150,0]",left,1,0.7853,,,,,,001,2025-03-10_17h06.27.927,SL_base,2021.2.3,Win32,250,,,73,0,73,0,1,,,,,,,,
,,"[""diamond"",""red"",""vert"",""up"",[0,150],[-150,0]]",diamond,red,vert,up,"[0,150]","[-150,0]",up,1,0.92,,,,,,001,2025-03-10_17h06.27.927,SL_base,2021.2.3,Win32,250,,,74,0,74,0,1,,,,,,,,
,,"[""circle"",""green"",""hori"",""left"",[106,106],[0,-150]]",circle,green,hori,left,"[106,106]","[0,-150]",left,1,1.0393,,,,,,001,2025-03-10_17h06.27.927,SL_base,2021.2.3,Win32,250,,,75,0,75,0,1,,,,,,,,
,,"[""circle"",""no_dis"",""hori"",""left"",[99999,99999],[-150,0]]",circle,no_dis,hori,left,"[99999,99999]","[-150,0]",left,1,0.614,,,,,,001,2025-03-10_17h06.27.927,SL_base,2021.2.3,Win32,250,,,76,0,76,0,1,,,,,,,,
,,"[""diamond"",""green"",""hori"",""left"",[-106,-106],[0,150]]",diamond,green,hori,left,"[-106,-106]","[0,150]",left,1,0.7296,,,,,,001,2025-03-10_17h06.27.927,SL_base,2021.2.3,Win32,250,,,77,0,77,0,1,,,,,,,,
,,"[""circle"",""no_dis"",""hori"",""left"",[99999,99999],[0,150]]",circle,no_dis,hori,left,"[99999,99999]","[0,150]",left,1,1.0123,,,,,,001,2025-03-10_17h06.27.927,SL_base,2021.2.3,Win32,250,,,78,0,78,0,1,,,,,,,,
,,"[""diamond"",""red"",""hori"",""left"",[0,150],[-106,106]]",diamond,red,hori,left,"[0,150]","[-106,106]",left,1,0.7704,,,,,,001,2025-03-10_17h06.27.927,SL_base,2021.2.3,Win32,250,,,79,0,79,0,1,,,,,,,,
,,"[""circle"",""green"",""hori"",""left"",[0,150],[-106,-106]]",circle,green,hori,left,"[0,150]","[-106,-106]",left,1,0.9037,,,,,,001,2025-03-10_17h06.27.927,SL_base,2021.2.3,Win32,250,,,80,0,80,0,1,,,,,,,,
,,"[""diamond"",""no_dis"",""vert"",""up"",[99999,99999],[0,150]]",diamond,no_dis,vert,up,"[99999,99999]","[0,150]",up,1,0.9869,,,,,,001,2025-03-10_17h06.27.927,SL_base,2021.2.3,Win32,250,,,81,0,81,0,1,,,,,,,,
,,"[""circle"",""red"",""hori"",""left"",[-150,0],[106,106]]",circle,red,hori,left,"[-150,0]","[106,106]",left,1,0.9735,,,,,,001,2025-03-10_17h06.27.927,SL_base,2021.2.3,Win32,250,,,82,0,82,0,1,,,,,,,,
,,"[""diamond"",""no_dis"",""vert"",""up"",[99999,99999],[0,-150]]",diamond,no_dis,vert,up,"[99999,99999]","[0,-150]",up,1,1.1116,,,,,,001,2025-03-10_17h06.27.927,SL_base,2021.2.3,Win32,250,,,83,0,83,0,1,,,,,,,,
,,"[""diamond"",""green"",""hori"",""left"",[-106,106],[150,0]]",diamond,green,hori,left,"[-106,106]","[150,0]",left,1,0.6327,,,,,,001,2025-03-10_17h06.27.927,SL_base,2021.2.3,Win32,250,,,84,0,84,0,1,,,,,,,,
,,"[""diamond"",""red"",""hori"",""left"",[150,0],[106,106]]",diamond,red,hori,left,"[150,0]","[106,106]",left,1,1.2038,,,,,,001,2025-03-10_17h06.27.927,SL_base,2021.2.3,Win32,250,,,85,0,85,0,1,,,,,,,,
,,"[""circle"",""red"",""hori"",""left"",[-106,106],[-150,0]]",circle,red,hori,left,"[-106,106]","[-150,0]",left,1,1.2881,,,,,,001,2025-03-10_17h06.27.927,SL_base,2021.2.3,Win32,250,,,86,0,86,0,1,,,,,,,,
,,"[""circle"",""red"",""hori"",""left"",[0,-150],[106,-106]]",circle,red,hori,left,"[0,-150]","[106,-106]",left,1,1.864,,,,,,001,2025-03-10_17h06.27.927,SL_base,2021.2.3,Win32,250,,,87,0,87,0,1,,,,,,,,
,,"[""diamond"",""red"",""hori"",""left"",[-106,-106],[106,-106]]",diamond,red,hori,left,"[-106,-106]","[106,-106]",left,1,0.8378,,,,,,001,2025-03-10_17h06.27.927,SL_base,2021.2.3,Win32,250,,,88,0,88,0,1,,,,,,,,
,,"[""diamond"",""no_dis"",""hori"",""left"",[99999,99999],[106,106]]",diamond,no_dis,hori,left,"[99999,99999]","[106,106]",left,1,0.6627,,,,,,001,2025-03-10_17h06.27.927,SL_base,2021.2.3,Win32,250,,,89,0,89,0,1,,,,,,,,
,,"[""circle"",""no_dis"",""vert"",""up"",[99999,99999],[-106,-106]]",circle,no_dis,vert,up,"[99999,99999]","[-106,-106]",up,1,1.2917,,,,,,001,2025-03-10_17h06.27.927,SL_base,2021.2.3,Win32,250,,,90,0,90,0,1,,,,,,,,
,,"[""circle"",""red"",""vert"",""up"",[-106,-106],[150,0]]",circle,red,vert,up,"[-106,-106]","[150,0]",up,1,2.3391,,,,,,001,2025-03-10_17h06.27.927,SL_base,2021.2.3,Win32,250,,,91,0,91,0,1,,,,,,,,
,,"[""circle"",""no_dis"",""hori"",""left"",[99999,99999],[0,150]]",circle,no_dis,hori,left,"[99999,99999]","[0,150]",left,1,0.6634,,,,,,001,2025-03-10_17h06.27.927,SL_base,2021.2.3,Win32,250,,,92,0,92,0,1,,,,,,,,
,,"[""circle"",""red"",""vert"",""up"",[106,-106],[106,106]]",circle,red,vert,up,"[106,-106]","[106,106]",up,1,0.9311,,,,,,001,2025-03-10_17h06.27.927,SL_base,2021.2.3,Win32,250,,,93,0,93,0,1,,,,,,,,
,,"[""circle"",""red"",""vert"",""up"",[0,-150],[-106,-106]]",circle,red,vert,up,"[0,-150]","[-106,-106]",left,0,0.7803,,,,,,001,2025-03-10_17h06.27.927,SL_base,2021.2.3,Win32,250,,,94,0,94,0,1,,,,,,,,
,,"[""diamond"",""green"",""vert"",""up"",[0,-150],[-106,106]]",diamond,green,vert,up,"[0,-150]","[-106,106]",up,1,1.0762,,,,,,001,2025-03-10_17h06.27.927,SL_base,2021.2.3,Win32,250,,,95,0,95,0,1,,,,,,,,
,,"[""diamond"",""no_dis"",""vert"",""up"",[99999,99999],[106,-106]]",diamond,no_dis,vert,up,"[99999,99999]","[106,-106]",up,1,0.8731,,,,,,001,2025-03-10_17h06.27.927,SL_base,2021.2.3,Win32,250,,,96,0,96,0,1,,,,,,,,
,,"[""diamond"",""red"",""hori"",""left"",[-106,-106],[106,-106]]",diamond,red,hori,left,"[-106,-106]","[106,-106]",up,0,1.3456,,,,,,001,2025-03-10_17h06.27.927,SL_base,2021.2.3,Win32,250,,,97,0,97,0,1,,,,,,,,
,,"[""circle"",""no_dis"",""vert"",""up"",[99999,99999],[0,150]]",circle,no_dis,vert,up,"[99999,99999]","[0,150]",up,1,2.133,,,,,,001,2025-03-10_17h06.27.927,SL_base,2021.2.3,Win32,250,,,98,0,98,0,1,,,,,,,,
,,"[""circle"",""green"",""hori"",""left"",[0,-150],[-106,-106]]",circle,green,hori,left,"[0,-150]","[-106,-106]",left,1,0.8528,,,,,,001,2025-03-10_17h06.27.927,SL_base,2021.2.3,Win32,250,,,99,0,99,0,1,,,,,,,,
,,"[""diamond"",""red"",""vert"",""up"",[106,106],[0,-150]]",diamond,red,vert,up,"[106,106]","[0,-150]",up,1,1.0053,,,,,,001,2025-03-10_17h06.27.927,SL_base,2021.2.3,Win32,250,,,100,0,100,0,1,,,,,,,,
,,"[""circle"",""green"",""vert"",""up"",[0,150],[0,-150]]",circle,green,vert,up,"[0,150]","[0,-150]",up,1,2.1475,,,,,,001,2025-03-10_17h06.27.927,SL_base,2021.2.3,Win32,250,,,101,0,101,0,1,,,,,,,,
,,"[""circle"",""red"",""vert"",""up"",[0,-150],[106,106]]",circle,red,vert,up,"[0,-150]","[106,106]",up,1,0.9036,,,,,,001,2025-03-10_17h06.27.927,SL_base,2021.2.3,Win32,250,,,102,0,102,0,1,,,,,,,,
,,"[""circle"",""red"",""hori"",""left"",[106,-106],[-106,-106]]",circle,red,hori,left,"[106,-106]","[-106,-106]",left,1,0.825,,,,,,001,2025-03-10_17h06.27.927,SL_base,2021.2.3,Win32,250,,,103,0,103,0,1,,,,,,,,
,,"[""circle"",""no_dis"",""hori"",""left"",[99999,99999],[150,0]]",circle,no_dis,hori,left,"[99999,99999]","[150,0]",left,1,0.7841,,,,,,001,2025-03-10_17h06.27.927,SL_base,2021.2.3,Win32,250,,,104,0,104,0,1,,,,,,,,
,,"[""diamond"",""no_dis"",""vert"",""up"",[99999,99999],[150,0]]",diamond,no_dis,vert,up,"[99999,99999]","[150,0]",up,1,1.3095,,,,,,001,2025-03-10_17h06.27.927,SL_base,2021.2.3,Win32,250,,,105,0,105,0,1,,,,,,,,
,,"[""diamond"",""red"",""hori"",""left"",[106,106],[-106,106]]",diamond,red,hori,left,"[106,106]","[-106,106]",left,1,1.0176,,,,,,001,2025-03-10_17h06.27.927,SL_base,2021.2.3,Win32,250,,,106,0,106,0,1,,,,,,,,
,,"[""circle"",""red"",""vert"",""up"",[106,-106],[106,106]]",circle,red,vert,up,"[106,-106]","[106,106]",up,1,0.9047,,,,,,001,2025-03-10_17h06.27.927,SL_base,2021.2.3,Win32,250,,,107,0,107,0,1,,,,,,,,
,,"[""circle"",""no_dis"",""vert"",""up"",[99999,99999],[106,106]]",circle,no_dis,vert,up,"[99999,99999]","[106,106]",up,1,0.9828,,,,,,001,2025-03-10_17h06.27.927,SL_base,2021.2.3,Win32,250,,,108,0,108,0,1,,,,,,,,
