﻿key_resp.keys,key_resp.rt,trial_para,tar_shape,dis_color_condi,tar_line,cor_resp,dis_loc,tar_loc,resp.keys,resp.corr,resp.rt,trials.thisRepN,trials.thisTrialN,trials.thisN,trials.thisIndex,trials.ran,participant,date,expName,psychopyVersion,OS,frameRate,key_resp_2.keys,key_resp_2.rt,trials_2.thisRepN,trials_2.thisTrialN,trials_2.thisN,trials_2.thisIndex,trials_2.ran,block_num,key_resp_3.keys,key_resp_3.rt,trials_3.thisRepN,trials_3.thisTrialN,trials_3.thisN,trials_3.thisIndex,trials_3.ran
space,26.7433,"[""diamond"",""green"",""hori"",""left"",[150,0],[0,150]]",diamond,green,hori,left,"[150,0]","[0,150]",up,0,1.7148,0,0,0,0,1,001,2025-03-17_15h07.03.023,SL_base,2021.2.3,Win32,59.88023952,,,,,,,,,,,,,,,
,,"[""diamond"",""no_dis"",""hori"",""left"",[99999,99999],[106,106]]",diamond,no_dis,hori,left,"[99999,99999]","[106,106]",left,1,1.04,1,0,1,0,1,001,2025-03-17_15h07.03.023,SL_base,2021.2.3,Win32,59.88023952,,,,,,,,,,,,,,,
,,"[""circle"",""no_dis"",""hori"",""left"",[99999,99999],[150,0]]",circle,no_dis,hori,left,"[99999,99999]","[150,0]",left,1,1.3292,2,0,2,0,1,001,2025-03-17_15h07.03.023,SL_base,2021.2.3,Win32,59.88023952,,,,,,,,,,,,,,,
,,"[""circle"",""no_dis"",""vert"",""up"",[99999,99999],[0,-150]]",circle,no_dis,vert,up,"[99999,99999]","[0,-150]",up,1,1.2854,3,0,3,0,1,001,2025-03-17_15h07.03.023,SL_base,2021.2.3,Win32,59.88023952,,,,,,,,,,,,,,,
,,"[""diamond"",""green"",""vert"",""up"",[0,-150],[-150,0]]",diamond,green,vert,up,"[0,-150]","[-150,0]",up,1,1.3525,4,0,4,0,1,001,2025-03-17_15h07.03.023,SL_base,2021.2.3,Win32,59.88023952,,,,,,,,,,,,,,,
,,"[""diamond"",""no_dis"",""vert"",""up"",[99999,99999],[0,-150]]",diamond,no_dis,vert,up,"[99999,99999]","[0,-150]",up,1,1.1186,5,0,5,0,1,001,2025-03-17_15h07.03.023,SL_base,2021.2.3,Win32,59.88023952,,,,,,,,,,,,,,,
,,"[""circle"",""no_dis"",""vert"",""up"",[99999,99999],[-106,106]]",circle,no_dis,vert,up,"[99999,99999]","[-106,106]",up,1,1.1281,6,0,6,0,1,001,2025-03-17_15h07.03.023,SL_base,2021.2.3,Win32,59.88023952,,,,,,,,,,,,,,,
,,"[""diamond"",""red"",""vert"",""up"",[150,0],[-106,-106]]",diamond,red,vert,up,"[150,0]","[-106,-106]",up,1,1.4647,7,0,7,0,1,001,2025-03-17_15h07.03.023,SL_base,2021.2.3,Win32,59.88023952,,,,,,,,,,,,,,,
,,"[""diamond"",""no_dis"",""hori"",""left"",[99999,99999],[106,-106]]",diamond,no_dis,hori,left,"[99999,99999]","[106,-106]",,0,,8,0,8,0,1,001,2025-03-17_15h07.03.023,SL_base,2021.2.3,Win32,59.88023952,,,,,,,,,,,,,,,
,,"[""circle"",""red"",""hori"",""left"",[106,-106],[-150,0]]",circle,red,hori,left,"[106,-106]","[-150,0]",left,1,1.1083,9,0,9,0,1,001,2025-03-17_15h07.03.023,SL_base,2021.2.3,Win32,59.88023952,,,,,,,,,,,,,,,
,,"[""diamond"",""green"",""hori"",""left"",[150,0],[0,150]]",diamond,green,hori,left,"[150,0]","[0,150]",left,1,1.1259,,,,,,001,2025-03-17_15h07.03.023,SL_base,2021.2.3,Win32,59.88023952,space,21.4766,0,0,0,0,1,,,,,,,,
,,"[""diamond"",""no_dis"",""hori"",""left"",[99999,99999],[106,106]]",diamond,no_dis,hori,left,"[99999,99999]","[106,106]",left,1,1.1192,,,,,,001,2025-03-17_15h07.03.023,SL_base,2021.2.3,Win32,59.88023952,,,1,0,1,0,1,,,,,,,,
,,"[""circle"",""no_dis"",""hori"",""left"",[99999,99999],[150,0]]",circle,no_dis,hori,left,"[99999,99999]","[150,0]",left,1,1.1211,,,,,,001,2025-03-17_15h07.03.023,SL_base,2021.2.3,Win32,59.88023952,,,2,0,2,0,1,,,,,,,,
,,"[""circle"",""no_dis"",""vert"",""up"",[99999,99999],[0,-150]]",circle,no_dis,vert,up,"[99999,99999]","[0,-150]",up,1,0.952,,,,,,001,2025-03-17_15h07.03.023,SL_base,2021.2.3,Win32,59.88023952,,,3,0,3,0,1,,,,,,,,
,,"[""diamond"",""green"",""vert"",""up"",[0,-150],[-150,0]]",diamond,green,vert,up,"[0,-150]","[-150,0]",up,1,1.3647,,,,,,001,2025-03-17_15h07.03.023,SL_base,2021.2.3,Win32,59.88023952,,,4,0,4,0,1,,,,,,,,
,,"[""diamond"",""no_dis"",""vert"",""up"",[99999,99999],[0,-150]]",diamond,no_dis,vert,up,"[99999,99999]","[0,-150]",up,1,0.7582,,,,,,001,2025-03-17_15h07.03.023,SL_base,2021.2.3,Win32,59.88023952,,,5,0,5,0,1,,,,,,,,
,,"[""circle"",""no_dis"",""vert"",""up"",[99999,99999],[-106,106]]",circle,no_dis,vert,up,"[99999,99999]","[-106,106]",up,1,1.0371,,,,,,001,2025-03-17_15h07.03.023,SL_base,2021.2.3,Win32,59.88023952,,,6,0,6,0,1,,,,,,,,
,,"[""diamond"",""red"",""vert"",""up"",[150,0],[-106,-106]]",diamond,red,vert,up,"[150,0]","[-106,-106]",up,1,1.0568,,,,,,001,2025-03-17_15h07.03.023,SL_base,2021.2.3,Win32,59.88023952,,,7,0,7,0,1,,,,,,,,
,,"[""diamond"",""no_dis"",""hori"",""left"",[99999,99999],[106,-106]]",diamond,no_dis,hori,left,"[99999,99999]","[106,-106]",left,1,0.9264,,,,,,001,2025-03-17_15h07.03.023,SL_base,2021.2.3,Win32,59.88023952,,,8,0,8,0,1,,,,,,,,
,,"[""circle"",""red"",""hori"",""left"",[106,-106],[-150,0]]",circle,red,hori,left,"[106,-106]","[-150,0]",left,1,1.5792,,,,,,001,2025-03-17_15h07.03.023,SL_base,2021.2.3,Win32,59.88023952,,,9,0,9,0,1,,,,,,,,
,,"[""circle"",""green"",""hori"",""left"",[150,0],[-150,0]]",circle,green,hori,left,"[150,0]","[-150,0]",left,1,1.0234,,,,,,001,2025-03-17_15h07.03.023,SL_base,2021.2.3,Win32,59.88023952,,,10,0,10,0,1,,,,,,,,
,,"[""circle"",""red"",""vert"",""up"",[-150,0],[-106,-106]]",circle,red,vert,up,"[-150,0]","[-106,-106]",up,1,1.2018,,,,,,001,2025-03-17_15h07.03.023,SL_base,2021.2.3,Win32,59.88023952,,,11,0,11,0,1,,,,,,,,
,,"[""diamond"",""no_dis"",""vert"",""up"",[99999,99999],[106,106]]",diamond,no_dis,vert,up,"[99999,99999]","[106,106]",up,1,1.1486,,,,,,001,2025-03-17_15h07.03.023,SL_base,2021.2.3,Win32,59.88023952,,,12,0,12,0,1,,,,,,,,
,,"[""diamond"",""red"",""hori"",""left"",[150,0],[-106,-106]]",diamond,red,hori,left,"[150,0]","[-106,-106]",left,1,1.5239,,,,,,001,2025-03-17_15h07.03.023,SL_base,2021.2.3,Win32,59.88023952,,,13,0,13,0,1,,,,,,,,
,,"[""diamond"",""red"",""vert"",""up"",[106,-106],[0,150]]",diamond,red,vert,up,"[106,-106]","[0,150]",up,1,0.8438,,,,,,001,2025-03-17_15h07.03.023,SL_base,2021.2.3,Win32,59.88023952,,,14,0,14,0,1,,,,,,,,
,,"[""diamond"",""red"",""hori"",""left"",[106,-106],[-150,0]]",diamond,red,hori,left,"[106,-106]","[-150,0]",left,1,1.2189,,,,,,001,2025-03-17_15h07.03.023,SL_base,2021.2.3,Win32,59.88023952,,,15,0,15,0,1,,,,,,,,
,,"[""diamond"",""no_dis"",""vert"",""up"",[99999,99999],[-150,0]]",diamond,no_dis,vert,up,"[99999,99999]","[-150,0]",up,1,0.9963,,,,,,001,2025-03-17_15h07.03.023,SL_base,2021.2.3,Win32,59.88023952,,,16,0,16,0,1,,,,,,,,
,,"[""circle"",""red"",""hori"",""left"",[-106,106],[0,-150]]",circle,red,hori,left,"[-106,106]","[0,-150]",left,1,0.8839,,,,,,001,2025-03-17_15h07.03.023,SL_base,2021.2.3,Win32,59.88023952,,,17,0,17,0,1,,,,,,,,
,,"[""diamond"",""green"",""hori"",""left"",[150,0],[106,106]]",diamond,green,hori,left,"[150,0]","[106,106]",left,1,1.7322,,,,,,001,2025-03-17_15h07.03.023,SL_base,2021.2.3,Win32,59.88023952,,,18,0,18,0,1,,,,,,,,
,,"[""diamond"",""red"",""vert"",""up"",[-150,0],[0,150]]",diamond,red,vert,up,"[-150,0]","[0,150]",up,1,1.0098,,,,,,001,2025-03-17_15h07.03.023,SL_base,2021.2.3,Win32,59.88023952,,,19,0,19,0,1,,,,,,,,
,,"[""diamond"",""red"",""hori"",""left"",[-106,106],[0,150]]",diamond,red,hori,left,"[-106,106]","[0,150]",left,1,1.0675,,,,,,001,2025-03-17_15h07.03.023,SL_base,2021.2.3,Win32,59.88023952,,,20,0,20,0,1,,,,,,,,
,,"[""diamond"",""no_dis"",""hori"",""left"",[99999,99999],[-106,-106]]",diamond,no_dis,hori,left,"[99999,99999]","[-106,-106]",left,1,1.1097,,,,,,001,2025-03-17_15h07.03.023,SL_base,2021.2.3,Win32,59.88023952,,,21,0,21,0,1,,,,,,,,
,,"[""circle"",""no_dis"",""hori"",""left"",[99999,99999],[-106,-106]]",circle,no_dis,hori,left,"[99999,99999]","[-106,-106]",left,1,1.4784,,,,,,001,2025-03-17_15h07.03.023,SL_base,2021.2.3,Win32,59.88023952,,,22,0,22,0,1,,,,,,,,
,,"[""diamond"",""red"",""hori"",""left"",[0,150],[-106,106]]",diamond,red,hori,left,"[0,150]","[-106,106]",left,1,1.269,,,,,,001,2025-03-17_15h07.03.023,SL_base,2021.2.3,Win32,59.88023952,,,23,0,23,0,1,,,,,,,,
,,"[""circle"",""no_dis"",""vert"",""up"",[99999,99999],[0,150]]",circle,no_dis,vert,up,"[99999,99999]","[0,150]",up,1,1.2537,,,,,,001,2025-03-17_15h07.03.023,SL_base,2021.2.3,Win32,59.88023952,,,24,0,24,0,1,,,,,,,,
,,"[""diamond"",""no_dis"",""vert"",""up"",[99999,99999],[106,-106]]",diamond,no_dis,vert,up,"[99999,99999]","[106,-106]",up,1,0.9094,,,,,,001,2025-03-17_15h07.03.023,SL_base,2021.2.3,Win32,59.88023952,,,25,0,25,0,1,,,,,,,,
,,"[""circle"",""green"",""hori"",""left"",[150,0],[-106,106]]",circle,green,hori,left,"[150,0]","[-106,106]",left,1,0.9178,,,,,,001,2025-03-17_15h07.03.023,SL_base,2021.2.3,Win32,59.88023952,,,26,0,26,0,1,,,,,,,,
,,"[""circle"",""green"",""vert"",""up"",[150,0],[0,150]]",circle,green,vert,up,"[150,0]","[0,150]",up,1,1.6567,,,,,,001,2025-03-17_15h07.03.023,SL_base,2021.2.3,Win32,59.88023952,,,27,0,27,0,1,,,,,,,,
,,"[""diamond"",""no_dis"",""vert"",""up"",[99999,99999],[106,106]]",diamond,no_dis,vert,up,"[99999,99999]","[106,106]",up,1,1.1119,,,,,,001,2025-03-17_15h07.03.023,SL_base,2021.2.3,Win32,59.88023952,,,28,0,28,0,1,,,,,,,,
,,"[""circle"",""green"",""vert"",""up"",[-150,0],[-106,-106]]",circle,green,vert,up,"[-150,0]","[-106,-106]",up,1,1.4299,,,,,,001,2025-03-17_15h07.03.023,SL_base,2021.2.3,Win32,59.88023952,,,29,0,29,0,1,,,,,,,,
,,"[""diamond"",""no_dis"",""vert"",""up"",[99999,99999],[-106,-106]]",diamond,no_dis,vert,up,"[99999,99999]","[-106,-106]",up,1,1.1851,,,,,,001,2025-03-17_15h07.03.023,SL_base,2021.2.3,Win32,59.88023952,,,30,0,30,0,1,,,,,,,,
,,"[""circle"",""red"",""vert"",""up"",[150,0],[-150,0]]",circle,red,vert,up,"[150,0]","[-150,0]",up,1,1.0885,,,,,,001,2025-03-17_15h07.03.023,SL_base,2021.2.3,Win32,59.88023952,,,31,0,31,0,1,,,,,,,,
,,"[""diamond"",""red"",""hori"",""left"",[150,0],[106,-106]]",diamond,red,hori,left,"[150,0]","[106,-106]",left,1,1.0205,,,,,,001,2025-03-17_15h07.03.023,SL_base,2021.2.3,Win32,59.88023952,,,32,0,32,0,1,,,,,,,,
,,"[""diamond"",""red"",""vert"",""up"",[0,-150],[-150,0]]",diamond,red,vert,up,"[0,-150]","[-150,0]",up,1,1.3872,,,,,,001,2025-03-17_15h07.03.023,SL_base,2021.2.3,Win32,59.88023952,,,33,0,33,0,1,,,,,,,,
,,"[""circle"",""green"",""vert"",""up"",[-106,106],[-106,-106]]",circle,green,vert,up,"[-106,106]","[-106,-106]",up,1,1.0929,,,,,,001,2025-03-17_15h07.03.023,SL_base,2021.2.3,Win32,59.88023952,,,34,0,34,0,1,,,,,,,,
,,"[""diamond"",""red"",""hori"",""left"",[0,150],[-106,-106]]",diamond,red,hori,left,"[0,150]","[-106,-106]",left,1,1.2527,,,,,,001,2025-03-17_15h07.03.023,SL_base,2021.2.3,Win32,59.88023952,,,35,0,35,0,1,,,,,,,,
,,"[""circle"",""no_dis"",""hori"",""left"",[99999,99999],[-106,-106]]",circle,no_dis,hori,left,"[99999,99999]","[-106,-106]",left,1,1.3909,,,,,,001,2025-03-17_15h07.03.023,SL_base,2021.2.3,Win32,59.88023952,,,36,0,36,0,1,,,,,,,,
,,"[""diamond"",""red"",""vert"",""up"",[-150,0],[0,150]]",diamond,red,vert,up,"[-150,0]","[0,150]",up,1,1.2875,,,,,,001,2025-03-17_15h07.03.023,SL_base,2021.2.3,Win32,59.88023952,,,37,0,37,0,1,,,,,,,,
,,"[""circle"",""red"",""vert"",""up"",[106,106],[0,150]]",circle,red,vert,up,"[106,106]","[0,150]",up,1,1.5811,,,,,,001,2025-03-17_15h07.03.023,SL_base,2021.2.3,Win32,59.88023952,,,38,0,38,0,1,,,,,,,,
,,"[""diamond"",""green"",""vert"",""up"",[106,106],[0,-150]]",diamond,green,vert,up,"[106,106]","[0,-150]",up,1,1.4233,,,,,,001,2025-03-17_15h07.03.023,SL_base,2021.2.3,Win32,59.88023952,,,39,0,39,0,1,,,,,,,,
,,"[""diamond"",""green"",""hori"",""left"",[106,-106],[150,0]]",diamond,green,hori,left,"[106,-106]","[150,0]",left,1,1.1445,,,,,,001,2025-03-17_15h07.03.023,SL_base,2021.2.3,Win32,59.88023952,,,40,0,40,0,1,,,,,,,,
,,"[""diamond"",""green"",""hori"",""left"",[0,150],[-106,106]]",diamond,green,hori,left,"[0,150]","[-106,106]",left,1,1.7663,,,,,,001,2025-03-17_15h07.03.023,SL_base,2021.2.3,Win32,59.88023952,,,41,0,41,0,1,,,,,,,,
,,"[""circle"",""green"",""hori"",""left"",[150,0],[0,-150]]",circle,green,hori,left,"[150,0]","[0,-150]",left,1,1.1966,,,,,,001,2025-03-17_15h07.03.023,SL_base,2021.2.3,Win32,59.88023952,,,42,0,42,0,1,,,,,,,,
,,"[""circle"",""no_dis"",""vert"",""up"",[99999,99999],[0,150]]",circle,no_dis,vert,up,"[99999,99999]","[0,150]",up,1,1.6467,,,,,,001,2025-03-17_15h07.03.023,SL_base,2021.2.3,Win32,59.88023952,,,43,0,43,0,1,,,,,,,,
,,"[""diamond"",""green"",""vert"",""up"",[150,0],[0,-150]]",diamond,green,vert,up,"[150,0]","[0,-150]",up,1,1.0508,,,,,,001,2025-03-17_15h07.03.023,SL_base,2021.2.3,Win32,59.88023952,,,44,0,44,0,1,,,,,,,,
,,"[""circle"",""red"",""vert"",""up"",[0,-150],[106,-106]]",circle,red,vert,up,"[0,-150]","[106,-106]",up,1,0.8904,,,,,,001,2025-03-17_15h07.03.023,SL_base,2021.2.3,Win32,59.88023952,,,45,0,45,0,1,,,,,,,,
,,"[""circle"",""red"",""vert"",""up"",[0,-150],[0,150]]",circle,red,vert,up,"[0,-150]","[0,150]",up,1,1.0779,,,,,,001,2025-03-17_15h07.03.023,SL_base,2021.2.3,Win32,59.88023952,,,46,0,46,0,1,,,,,,,,
,,"[""circle"",""red"",""vert"",""up"",[-106,-106],[-150,0]]",circle,red,vert,up,"[-106,-106]","[-150,0]",up,1,1.0167,,,,,,001,2025-03-17_15h07.03.023,SL_base,2021.2.3,Win32,59.88023952,,,47,0,47,0,1,,,,,,,,
,,"[""circle"",""green"",""vert"",""up"",[106,106],[106,-106]]",circle,green,vert,up,"[106,106]","[106,-106]",up,1,0.8357,,,,,,001,2025-03-17_15h07.03.023,SL_base,2021.2.3,Win32,59.88023952,,,48,0,48,0,1,,,,,,,,
,,"[""circle"",""red"",""vert"",""up"",[150,0],[-106,106]]",circle,red,vert,up,"[150,0]","[-106,106]",up,1,0.8231,,,,,,001,2025-03-17_15h07.03.023,SL_base,2021.2.3,Win32,59.88023952,,,49,0,49,0,1,,,,,,,,
,,"[""circle"",""green"",""hori"",""left"",[0,150],[-150,0]]",circle,green,hori,left,"[0,150]","[-150,0]",left,1,0.7141,,,,,,001,2025-03-17_15h07.03.023,SL_base,2021.2.3,Win32,59.88023952,,,50,0,50,0,1,,,,,,,,
,,"[""diamond"",""green"",""hori"",""left"",[-106,-106],[106,106]]",diamond,green,hori,left,"[-106,-106]","[106,106]",left,1,0.9543,,,,,,001,2025-03-17_15h07.03.023,SL_base,2021.2.3,Win32,59.88023952,,,51,0,51,0,1,,,,,,,,
,,"[""circle"",""red"",""hori"",""left"",[-106,-106],[-106,106]]",circle,red,hori,left,"[-106,-106]","[-106,106]",left,1,0.8422,,,,,,001,2025-03-17_15h07.03.023,SL_base,2021.2.3,Win32,59.88023952,,,52,0,52,0,1,,,,,,,,
,,"[""circle"",""no_dis"",""vert"",""up"",[99999,99999],[150,0]]",circle,no_dis,vert,up,"[99999,99999]","[150,0]",up,1,1.4237,,,,,,001,2025-03-17_15h07.03.023,SL_base,2021.2.3,Win32,59.88023952,,,53,0,53,0,1,,,,,,,,
,,"[""diamond"",""no_dis"",""hori"",""left"",[99999,99999],[-106,106]]",diamond,no_dis,hori,left,"[99999,99999]","[-106,106]",left,1,1.5194,,,,,,001,2025-03-17_15h07.03.023,SL_base,2021.2.3,Win32,59.88023952,,,54,0,54,0,1,,,,,,,,
,,"[""diamond"",""green"",""vert"",""up"",[-106,106],[0,150]]",diamond,green,vert,up,"[-106,106]","[0,150]",up,1,1.09,,,,,,001,2025-03-17_15h07.03.023,SL_base,2021.2.3,Win32,59.88023952,,,55,0,55,0,1,,,,,,,,
,,"[""circle"",""green"",""vert"",""up"",[-106,-106],[0,150]]",circle,green,vert,up,"[-106,-106]","[0,150]",up,1,1.5915,,,,,,001,2025-03-17_15h07.03.023,SL_base,2021.2.3,Win32,59.88023952,,,56,0,56,0,1,,,,,,,,
,,"[""diamond"",""green"",""vert"",""up"",[0,-150],[106,-106]]",diamond,green,vert,up,"[0,-150]","[106,-106]",up,1,0.7546,,,,,,001,2025-03-17_15h07.03.023,SL_base,2021.2.3,Win32,59.88023952,,,57,0,57,0,1,,,,,,,,
,,"[""diamond"",""no_dis"",""vert"",""up"",[99999,99999],[-150,0]]",diamond,no_dis,vert,up,"[99999,99999]","[-150,0]",up,1,0.8941,,,,,,001,2025-03-17_15h07.03.023,SL_base,2021.2.3,Win32,59.88023952,,,58,0,58,0,1,,,,,,,,
,,"[""circle"",""red"",""vert"",""up"",[106,106],[-150,0]]",circle,red,vert,up,"[106,106]","[-150,0]",up,1,1.6108,,,,,,001,2025-03-17_15h07.03.023,SL_base,2021.2.3,Win32,59.88023952,,,59,0,59,0,1,,,,,,,,
,,"[""diamond"",""green"",""hori"",""left"",[150,0],[-106,106]]",diamond,green,hori,left,"[150,0]","[-106,106]",up,0,0.9532,,,,,,001,2025-03-17_15h07.03.023,SL_base,2021.2.3,Win32,59.88023952,,,60,0,60,0,1,,,,,,,,
,,"[""diamond"",""green"",""vert"",""up"",[-106,-106],[106,106]]",diamond,green,vert,up,"[-106,-106]","[106,106]",up,1,1.0609,,,,,,001,2025-03-17_15h07.03.023,SL_base,2021.2.3,Win32,59.88023952,,,61,0,61,0,1,,,,,,,,
,,"[""circle"",""green"",""vert"",""up"",[0,-150],[106,-106]]",circle,green,vert,up,"[0,-150]","[106,-106]",up,1,1.0472,,,,,,001,2025-03-17_15h07.03.023,SL_base,2021.2.3,Win32,59.88023952,,,62,0,62,0,1,,,,,,,,
,,"[""diamond"",""green"",""vert"",""up"",[-106,-106],[0,150]]",diamond,green,vert,up,"[-106,-106]","[0,150]",up,1,1.151,,,,,,001,2025-03-17_15h07.03.023,SL_base,2021.2.3,Win32,59.88023952,,,63,0,63,0,1,,,,,,,,
,,"[""diamond"",""no_dis"",""hori"",""left"",[99999,99999],[150,0]]",diamond,no_dis,hori,left,"[99999,99999]","[150,0]",left,1,1.2142,,,,,,001,2025-03-17_15h07.03.023,SL_base,2021.2.3,Win32,59.88023952,,,64,0,64,0,1,,,,,,,,
,,"[""diamond"",""green"",""hori"",""left"",[150,0],[106,106]]",diamond,green,hori,left,"[150,0]","[106,106]",left,1,1.1474,,,,,,001,2025-03-17_15h07.03.023,SL_base,2021.2.3,Win32,59.88023952,,,65,0,65,0,1,,,,,,,,
,,"[""circle"",""green"",""hori"",""left"",[106,-106],[150,0]]",circle,green,hori,left,"[106,-106]","[150,0]",left,1,1.3869,,,,,,001,2025-03-17_15h07.03.023,SL_base,2021.2.3,Win32,59.88023952,,,66,0,66,0,1,,,,,,,,
,,"[""circle"",""no_dis"",""hori"",""left"",[99999,99999],[-106,106]]",circle,no_dis,hori,left,"[99999,99999]","[-106,106]",left,1,0.9317,,,,,,001,2025-03-17_15h07.03.023,SL_base,2021.2.3,Win32,59.88023952,,,67,0,67,0,1,,,,,,,,
,,"[""circle"",""red"",""hori"",""left"",[-106,106],[-150,0]]",circle,red,hori,left,"[-106,106]","[-150,0]",left,1,0.9906,,,,,,001,2025-03-17_15h07.03.023,SL_base,2021.2.3,Win32,59.88023952,,,68,0,68,0,1,,,,,,,,
,,"[""circle"",""no_dis"",""vert"",""up"",[99999,99999],[-106,-106]]",circle,no_dis,vert,up,"[99999,99999]","[-106,-106]",up,1,1.0201,,,,,,001,2025-03-17_15h07.03.023,SL_base,2021.2.3,Win32,59.88023952,,,69,0,69,0,1,,,,,,,,
,,"[""circle"",""red"",""hori"",""left"",[150,0],[106,-106]]",circle,red,hori,left,"[150,0]","[106,-106]",left,1,0.9244,,,,,,001,2025-03-17_15h07.03.023,SL_base,2021.2.3,Win32,59.88023952,,,70,0,70,0,1,,,,,,,,
,,"[""circle"",""green"",""hori"",""left"",[-106,106],[106,106]]",circle,green,hori,left,"[-106,106]","[106,106]",left,1,0.8547,,,,,,001,2025-03-17_15h07.03.023,SL_base,2021.2.3,Win32,59.88023952,,,71,0,71,0,1,,,,,,,,
,,"[""diamond"",""red"",""hori"",""left"",[106,106],[150,0]]",diamond,red,hori,left,"[106,106]","[150,0]",left,1,1.5296,,,,,,001,2025-03-17_15h07.03.023,SL_base,2021.2.3,Win32,59.88023952,,,72,0,72,0,1,,,,,,,,
,,"[""diamond"",""green"",""hori"",""left"",[-106,-106],[0,-150]]",diamond,green,hori,left,"[-106,-106]","[0,-150]",left,1,1.4717,,,,,,001,2025-03-17_15h07.03.023,SL_base,2021.2.3,Win32,59.88023952,,,73,0,73,0,1,,,,,,,,
,,"[""diamond"",""red"",""vert"",""up"",[150,0],[0,150]]",diamond,red,vert,up,"[150,0]","[0,150]",up,1,1.178,,,,,,001,2025-03-17_15h07.03.023,SL_base,2021.2.3,Win32,59.88023952,,,74,0,74,0,1,,,,,,,,
,,"[""circle"",""green"",""vert"",""up"",[150,0],[-106,-106]]",circle,green,vert,up,"[150,0]","[-106,-106]",up,1,1.1629,,,,,,001,2025-03-17_15h07.03.023,SL_base,2021.2.3,Win32,59.88023952,,,75,0,75,0,1,,,,,,,,
,,"[""diamond"",""green"",""vert"",""up"",[106,-106],[0,150]]",diamond,green,vert,up,"[106,-106]","[0,150]",up,1,1.3737,,,,,,001,2025-03-17_15h07.03.023,SL_base,2021.2.3,Win32,59.88023952,,,76,0,76,0,1,,,,,,,,
,,"[""diamond"",""no_dis"",""vert"",""up"",[99999,99999],[-150,0]]",diamond,no_dis,vert,up,"[99999,99999]","[-150,0]",up,1,1.5751,,,,,,001,2025-03-17_15h07.03.023,SL_base,2021.2.3,Win32,59.88023952,,,77,0,77,0,1,,,,,,,,
,,"[""circle"",""green"",""vert"",""up"",[106,106],[-106,106]]",circle,green,vert,up,"[106,106]","[-106,106]",up,1,1.2612,,,,,,001,2025-03-17_15h07.03.023,SL_base,2021.2.3,Win32,59.88023952,,,78,0,78,0,1,,,,,,,,
,,"[""circle"",""no_dis"",""hori"",""left"",[99999,99999],[150,0]]",circle,no_dis,hori,left,"[99999,99999]","[150,0]",left,1,1.2895,,,,,,001,2025-03-17_15h07.03.023,SL_base,2021.2.3,Win32,59.88023952,,,79,0,79,0,1,,,,,,,,
,,"[""circle"",""green"",""hori"",""left"",[-106,106],[-150,0]]",circle,green,hori,left,"[-106,106]","[-150,0]",left,1,1.21,,,,,,001,2025-03-17_15h07.03.023,SL_base,2021.2.3,Win32,59.88023952,,,80,0,80,0,1,,,,,,,,
,,"[""circle"",""red"",""hori"",""left"",[-150,0],[0,150]]",circle,red,hori,left,"[-150,0]","[0,150]",left,1,1.1044,,,,,,001,2025-03-17_15h07.03.023,SL_base,2021.2.3,Win32,59.88023952,,,81,0,81,0,1,,,,,,,,
,,"[""circle"",""no_dis"",""vert"",""up"",[99999,99999],[106,-106]]",circle,no_dis,vert,up,"[99999,99999]","[106,-106]",up,1,0.8685,,,,,,001,2025-03-17_15h07.03.023,SL_base,2021.2.3,Win32,59.88023952,,,82,0,82,0,1,,,,,,,,
,,"[""diamond"",""no_dis"",""vert"",""up"",[99999,99999],[-150,0]]",diamond,no_dis,vert,up,"[99999,99999]","[-150,0]",up,1,1.5638,,,,,,001,2025-03-17_15h07.03.023,SL_base,2021.2.3,Win32,59.88023952,,,83,0,83,0,1,,,,,,,,
,,"[""diamond"",""no_dis"",""hori"",""left"",[99999,99999],[-106,106]]",diamond,no_dis,hori,left,"[99999,99999]","[-106,106]",left,1,1.0008,,,,,,001,2025-03-17_15h07.03.023,SL_base,2021.2.3,Win32,59.88023952,,,84,0,84,0,1,,,,,,,,
,,"[""circle"",""green"",""hori"",""left"",[-106,-106],[106,106]]",circle,green,hori,left,"[-106,-106]","[106,106]",left,1,1.8684,,,,,,001,2025-03-17_15h07.03.023,SL_base,2021.2.3,Win32,59.88023952,,,85,0,85,0,1,,,,,,,,
,,"[""diamond"",""no_dis"",""vert"",""up"",[99999,99999],[106,-106]]",diamond,no_dis,vert,up,"[99999,99999]","[106,-106]",up,1,1.1674,,,,,,001,2025-03-17_15h07.03.023,SL_base,2021.2.3,Win32,59.88023952,,,86,0,86,0,1,,,,,,,,
,,"[""diamond"",""red"",""hori"",""left"",[0,-150],[106,-106]]",diamond,red,hori,left,"[0,-150]","[106,-106]",left,1,1.3305,,,,,,001,2025-03-17_15h07.03.023,SL_base,2021.2.3,Win32,59.88023952,,,87,0,87,0,1,,,,,,,,
,,"[""circle"",""red"",""vert"",""up"",[150,0],[106,-106]]",circle,red,vert,up,"[150,0]","[106,-106]",up,1,1.1181,,,,,,001,2025-03-17_15h07.03.023,SL_base,2021.2.3,Win32,59.88023952,,,88,0,88,0,1,,,,,,,,
,,"[""diamond"",""green"",""vert"",""up"",[0,150],[150,0]]",diamond,green,vert,up,"[0,150]","[150,0]",up,1,1.4247,,,,,,001,2025-03-17_15h07.03.023,SL_base,2021.2.3,Win32,59.88023952,,,89,0,89,0,1,,,,,,,,
,,"[""circle"",""red"",""hori"",""left"",[150,0],[-106,106]]",circle,red,hori,left,"[150,0]","[-106,106]",left,1,1.0444,,,,,,001,2025-03-17_15h07.03.023,SL_base,2021.2.3,Win32,59.88023952,,,90,0,90,0,1,,,,,,,,
,,"[""diamond"",""no_dis"",""hori"",""left"",[99999,99999],[106,-106]]",diamond,no_dis,hori,left,"[99999,99999]","[106,-106]",left,1,1.5327,,,,,,001,2025-03-17_15h07.03.023,SL_base,2021.2.3,Win32,59.88023952,,,91,0,91,0,1,,,,,,,,
,,"[""diamond"",""no_dis"",""hori"",""left"",[99999,99999],[0,-150]]",diamond,no_dis,hori,left,"[99999,99999]","[0,-150]",left,1,1.3896,,,,,,001,2025-03-17_15h07.03.023,SL_base,2021.2.3,Win32,59.88023952,,,92,0,92,0,1,,,,,,,,
,,"[""circle"",""red"",""hori"",""left"",[-150,0],[0,150]]",circle,red,hori,left,"[-150,0]","[0,150]",left,1,1.7551,,,,,,001,2025-03-17_15h07.03.023,SL_base,2021.2.3,Win32,59.88023952,,,93,0,93,0,1,,,,,,,,
,,"[""diamond"",""green"",""hori"",""left"",[150,0],[-150,0]]",diamond,green,hori,left,"[150,0]","[-150,0]",left,1,1.561,,,,,,001,2025-03-17_15h07.03.023,SL_base,2021.2.3,Win32,59.88023952,,,94,0,94,0,1,,,,,,,,
,,"[""circle"",""no_dis"",""hori"",""left"",[99999,99999],[0,150]]",circle,no_dis,hori,left,"[99999,99999]","[0,150]",left,1,1.6133,,,,,,001,2025-03-17_15h07.03.023,SL_base,2021.2.3,Win32,59.88023952,,,95,0,95,0,1,,,,,,,,
,,"[""circle"",""red"",""vert"",""up"",[0,-150],[0,150]]",circle,red,vert,up,"[0,-150]","[0,150]",up,1,1.463,,,,,,001,2025-03-17_15h07.03.023,SL_base,2021.2.3,Win32,59.88023952,,,96,0,96,0,1,,,,,,,,
,,"[""circle"",""no_dis"",""vert"",""up"",[99999,99999],[-150,0]]",circle,no_dis,vert,up,"[99999,99999]","[-150,0]",up,1,1.2847,,,,,,001,2025-03-17_15h07.03.023,SL_base,2021.2.3,Win32,59.88023952,,,97,0,97,0,1,,,,,,,,
,,"[""circle"",""red"",""hori"",""left"",[-150,0],[-106,106]]",circle,red,hori,left,"[-150,0]","[-106,106]",left,1,1.2458,,,,,,001,2025-03-17_15h07.03.023,SL_base,2021.2.3,Win32,59.88023952,,,98,0,98,0,1,,,,,,,,
,,"[""diamond"",""red"",""vert"",""up"",[150,0],[0,-150]]",diamond,red,vert,up,"[150,0]","[0,-150]",up,1,1.341,,,,,,001,2025-03-17_15h07.03.023,SL_base,2021.2.3,Win32,59.88023952,,,99,0,99,0,1,,,,,,,,
,,"[""diamond"",""red"",""vert"",""up"",[0,150],[-150,0]]",diamond,red,vert,up,"[0,150]","[-150,0]",up,1,1.5643,,,,,,001,2025-03-17_15h07.03.023,SL_base,2021.2.3,Win32,59.88023952,,,100,0,100,0,1,,,,,,,,
,,"[""circle"",""green"",""vert"",""up"",[106,106],[-150,0]]",circle,green,vert,up,"[106,106]","[-150,0]",up,1,1.2944,,,,,,001,2025-03-17_15h07.03.023,SL_base,2021.2.3,Win32,59.88023952,,,101,0,101,0,1,,,,,,,,
,,"[""circle"",""no_dis"",""hori"",""left"",[99999,99999],[0,-150]]",circle,no_dis,hori,left,"[99999,99999]","[0,-150]",left,1,0.8955,,,,,,001,2025-03-17_15h07.03.023,SL_base,2021.2.3,Win32,59.88023952,,,102,0,102,0,1,,,,,,,,
,,"[""circle"",""no_dis"",""vert"",""up"",[99999,99999],[0,-150]]",circle,no_dis,vert,up,"[99999,99999]","[0,-150]",up,1,1.2158,,,,,,001,2025-03-17_15h07.03.023,SL_base,2021.2.3,Win32,59.88023952,,,103,0,103,0,1,,,,,,,,
,,"[""diamond"",""red"",""vert"",""up"",[150,0],[-106,106]]",diamond,red,vert,up,"[150,0]","[-106,106]",up,1,1.4823,,,,,,001,2025-03-17_15h07.03.023,SL_base,2021.2.3,Win32,59.88023952,,,104,0,104,0,1,,,,,,,,
,,"[""diamond"",""green"",""vert"",""up"",[-150,0],[0,-150]]",diamond,green,vert,up,"[-150,0]","[0,-150]",up,1,0.9921,,,,,,001,2025-03-17_15h07.03.023,SL_base,2021.2.3,Win32,59.88023952,,,105,0,105,0,1,,,,,,,,
,,"[""diamond"",""red"",""hori"",""left"",[150,0],[-106,106]]",diamond,red,hori,left,"[150,0]","[-106,106]",left,1,0.7487,,,,,,001,2025-03-17_15h07.03.023,SL_base,2021.2.3,Win32,59.88023952,,,106,0,106,0,1,,,,,,,,
,,"[""circle"",""no_dis"",""hori"",""left"",[99999,99999],[-106,106]]",circle,no_dis,hori,left,"[99999,99999]","[-106,106]",left,1,1.2448,,,,,,001,2025-03-17_15h07.03.023,SL_base,2021.2.3,Win32,59.88023952,,,107,0,107,0,1,,,,,,,,
,,"[""circle"",""no_dis"",""hori"",""left"",[99999,99999],[106,106]]",circle,no_dis,hori,left,"[99999,99999]","[106,106]",left,1,0.9341,,,,,,001,2025-03-17_15h07.03.023,SL_base,2021.2.3,Win32,59.88023952,,,108,0,108,0,1,,,,,,,,
,,"[""diamond"",""red"",""hori"",""left"",[-106,106],[106,-106]]",diamond,red,hori,left,"[-106,106]","[106,-106]",left,1,0.9096,,,,,,001,2025-03-17_15h07.03.023,SL_base,2021.2.3,Win32,59.88023952,,,109,0,109,0,1,,,,,,,,
,,"[""circle"",""green"",""hori"",""left"",[106,-106],[-106,-106]]",circle,green,hori,left,"[106,-106]","[-106,-106]",left,1,1.2403,,,,,,001,2025-03-17_15h07.03.023,SL_base,2021.2.3,Win32,59.88023952,,,110,0,110,0,1,,,,,,,,
,,"[""circle"",""green"",""vert"",""up"",[106,-106],[0,-150]]",circle,green,vert,up,"[106,-106]","[0,-150]",up,1,0.9691,,,,,,001,2025-03-17_15h07.03.023,SL_base,2021.2.3,Win32,59.88023952,,,111,0,111,0,1,,,,,,,,
,,"[""diamond"",""green"",""hori"",""left"",[150,0],[0,-150]]",diamond,green,hori,left,"[150,0]","[0,-150]",left,1,1.327,,,,,,001,2025-03-17_15h07.03.023,SL_base,2021.2.3,Win32,59.88023952,,,112,0,112,0,1,,,,,,,,
,,"[""circle"",""red"",""hori"",""left"",[106,106],[0,-150]]",circle,red,hori,left,"[106,106]","[0,-150]",left,1,1.0556,,,,,,001,2025-03-17_15h07.03.023,SL_base,2021.2.3,Win32,59.88023952,,,113,0,113,0,1,,,,,,,,
,,"[""circle"",""no_dis"",""hori"",""left"",[99999,99999],[0,150]]",circle,no_dis,hori,left,"[99999,99999]","[0,150]",left,1,0.9006,,,,,,001,2025-03-17_15h07.03.023,SL_base,2021.2.3,Win32,59.88023952,,,114,0,114,0,1,,,,,,,,
,,"[""circle"",""no_dis"",""vert"",""up"",[99999,99999],[150,0]]",circle,no_dis,vert,up,"[99999,99999]","[150,0]",up,1,0.9363,,,,,,001,2025-03-17_15h07.03.023,SL_base,2021.2.3,Win32,59.88023952,,,115,0,115,0,1,,,,,,,,
,,"[""diamond"",""no_dis"",""hori"",""left"",[99999,99999],[106,106]]",diamond,no_dis,hori,left,"[99999,99999]","[106,106]",left,1,1.1183,,,,,,001,2025-03-17_15h07.03.023,SL_base,2021.2.3,Win32,59.88023952,,,116,0,116,0,1,,,,,,,,
,,"[""diamond"",""red"",""vert"",""up"",[0,150],[106,-106]]",diamond,red,vert,up,"[0,150]","[106,-106]",up,1,1.3241,,,,,,001,2025-03-17_15h07.03.023,SL_base,2021.2.3,Win32,59.88023952,,,117,0,117,0,1,,,,,,,,
,,"[""circle"",""green"",""hori"",""left"",[0,150],[106,-106]]",circle,green,hori,left,"[0,150]","[106,-106]",left,1,1.204,,,,,,001,2025-03-17_15h07.03.023,SL_base,2021.2.3,Win32,59.88023952,,,118,0,118,0,1,,,,,,,,
,,"[""diamond"",""no_dis"",""hori"",""left"",[99999,99999],[0,150]]",diamond,no_dis,hori,left,"[99999,99999]","[0,150]",left,1,1.1239,,,,,,001,2025-03-17_15h07.03.023,SL_base,2021.2.3,Win32,59.88023952,,,119,0,119,0,1,,,,,,,,
,,,,,,,,,,,,,,,,,001,2025-03-17_15h07.03.023,SL_base,2021.2.3,Win32,59.88023952,,,,,,,,1,space,81.3351,0,0,0,0,1
,,"[""diamond"",""green"",""hori"",""left"",[150,0],[0,150]]",diamond,green,hori,left,"[150,0]","[0,150]",,0,,,,,,,001,2025-03-17_15h07.03.023,SL_base,2021.2.3,Win32,59.88023952,,,0,0,0,0,1,,,,,,,,
,,"[""diamond"",""green"",""vert"",""up"",[0,150],[150,0]]",diamond,green,vert,up,"[0,150]","[150,0]",up,1,0.9135,,,,,,001,2025-03-17_15h07.03.023,SL_base,2021.2.3,Win32,59.88023952,,,1,0,1,0,1,,,,,,,,
,,"[""circle"",""no_dis"",""vert"",""up"",[99999,99999],[150,0]]",circle,no_dis,vert,up,"[99999,99999]","[150,0]",up,1,1.2202,,,,,,001,2025-03-17_15h07.03.023,SL_base,2021.2.3,Win32,59.88023952,,,2,0,2,0,1,,,,,,,,
,,"[""diamond"",""green"",""vert"",""up"",[150,0],[0,-150]]",diamond,green,vert,up,"[150,0]","[0,-150]",up,1,0.9423,,,,,,001,2025-03-17_15h07.03.023,SL_base,2021.2.3,Win32,59.88023952,,,3,0,3,0,1,,,,,,,,
,,"[""diamond"",""no_dis"",""hori"",""left"",[99999,99999],[-106,-106]]",diamond,no_dis,hori,left,"[99999,99999]","[-106,-106]",left,1,0.9263,,,,,,001,2025-03-17_15h07.03.023,SL_base,2021.2.3,Win32,59.88023952,,,4,0,4,0,1,,,,,,,,
,,"[""circle"",""no_dis"",""hori"",""left"",[99999,99999],[150,0]]",circle,no_dis,hori,left,"[99999,99999]","[150,0]",left,1,0.9564,,,,,,001,2025-03-17_15h07.03.023,SL_base,2021.2.3,Win32,59.88023952,,,5,0,5,0,1,,,,,,,,
,,"[""circle"",""green"",""hori"",""left"",[-106,-106],[106,106]]",circle,green,hori,left,"[-106,-106]","[106,106]",left,1,1.3797,,,,,,001,2025-03-17_15h07.03.023,SL_base,2021.2.3,Win32,59.88023952,,,6,0,6,0,1,,,,,,,,
,,"[""diamond"",""red"",""hori"",""left"",[150,0],[-106,-106]]",diamond,red,hori,left,"[150,0]","[-106,-106]",left,1,1.7408,,,,,,001,2025-03-17_15h07.03.023,SL_base,2021.2.3,Win32,59.88023952,,,7,0,7,0,1,,,,,,,,
,,"[""diamond"",""red"",""vert"",""up"",[0,150],[106,-106]]",diamond,red,vert,up,"[0,150]","[106,-106]",up,1,0.9173,,,,,,001,2025-03-17_15h07.03.023,SL_base,2021.2.3,Win32,59.88023952,,,8,0,8,0,1,,,,,,,,
,,"[""diamond"",""no_dis"",""hori"",""left"",[99999,99999],[106,106]]",diamond,no_dis,hori,left,"[99999,99999]","[106,106]",left,1,0.9322,,,,,,001,2025-03-17_15h07.03.023,SL_base,2021.2.3,Win32,59.88023952,,,9,0,9,0,1,,,,,,,,
,,"[""circle"",""green"",""vert"",""up"",[150,0],[0,150]]",circle,green,vert,up,"[150,0]","[0,150]",up,1,0.967,,,,,,001,2025-03-17_15h07.03.023,SL_base,2021.2.3,Win32,59.88023952,,,10,0,10,0,1,,,,,,,,
,,"[""diamond"",""red"",""hori"",""left"",[0,150],[-106,-106]]",diamond,red,hori,left,"[0,150]","[-106,-106]",left,1,1.1008,,,,,,001,2025-03-17_15h07.03.023,SL_base,2021.2.3,Win32,59.88023952,,,11,0,11,0,1,,,,,,,,
,,"[""circle"",""no_dis"",""vert"",""up"",[99999,99999],[106,-106]]",circle,no_dis,vert,up,"[99999,99999]","[106,-106]",up,1,0.8943,,,,,,001,2025-03-17_15h07.03.023,SL_base,2021.2.3,Win32,59.88023952,,,12,0,12,0,1,,,,,,,,
,,"[""diamond"",""red"",""vert"",""up"",[-150,0],[0,150]]",diamond,red,vert,up,"[-150,0]","[0,150]",up,1,1.0303,,,,,,001,2025-03-17_15h07.03.023,SL_base,2021.2.3,Win32,59.88023952,,,13,0,13,0,1,,,,,,,,
,,"[""circle"",""no_dis"",""hori"",""left"",[99999,99999],[-106,106]]",circle,no_dis,hori,left,"[99999,99999]","[-106,106]",left,1,1.2303,,,,,,001,2025-03-17_15h07.03.023,SL_base,2021.2.3,Win32,59.88023952,,,14,0,14,0,1,,,,,,,,
,,"[""circle"",""no_dis"",""hori"",""left"",[99999,99999],[-106,-106]]",circle,no_dis,hori,left,"[99999,99999]","[-106,-106]",left,1,1.1134,,,,,,001,2025-03-17_15h07.03.023,SL_base,2021.2.3,Win32,59.88023952,,,15,0,15,0,1,,,,,,,,
,,"[""diamond"",""green"",""vert"",""up"",[-106,-106],[0,150]]",diamond,green,vert,up,"[-106,-106]","[0,150]",up,1,1.2089,,,,,,001,2025-03-17_15h07.03.023,SL_base,2021.2.3,Win32,59.88023952,,,16,0,16,0,1,,,,,,,,
,,"[""circle"",""no_dis"",""vert"",""up"",[99999,99999],[0,150]]",circle,no_dis,vert,up,"[99999,99999]","[0,150]",up,1,1.1716,,,,,,001,2025-03-17_15h07.03.023,SL_base,2021.2.3,Win32,59.88023952,,,17,0,17,0,1,,,,,,,,
,,"[""diamond"",""red"",""hori"",""left"",[-106,106],[106,-106]]",diamond,red,hori,left,"[-106,106]","[106,-106]",left,1,0.8499,,,,,,001,2025-03-17_15h07.03.023,SL_base,2021.2.3,Win32,59.88023952,,,18,0,18,0,1,,,,,,,,
,,"[""diamond"",""no_dis"",""vert"",""up"",[99999,99999],[-150,0]]",diamond,no_dis,vert,up,"[99999,99999]","[-150,0]",up,1,0.8393,,,,,,001,2025-03-17_15h07.03.023,SL_base,2021.2.3,Win32,59.88023952,,,19,0,19,0,1,,,,,,,,
,,"[""diamond"",""green"",""vert"",""up"",[-106,-106],[106,106]]",diamond,green,vert,up,"[-106,-106]","[106,106]",up,1,0.975,,,,,,001,2025-03-17_15h07.03.023,SL_base,2021.2.3,Win32,59.88023952,,,20,0,20,0,1,,,,,,,,
,,"[""diamond"",""red"",""hori"",""left"",[106,106],[150,0]]",diamond,red,hori,left,"[106,106]","[150,0]",left,1,1.0818,,,,,,001,2025-03-17_15h07.03.023,SL_base,2021.2.3,Win32,59.88023952,,,21,0,21,0,1,,,,,,,,
,,"[""diamond"",""red"",""vert"",""up"",[150,0],[-106,106]]",diamond,red,vert,up,"[150,0]","[-106,106]",up,1,0.8304,,,,,,001,2025-03-17_15h07.03.023,SL_base,2021.2.3,Win32,59.88023952,,,22,0,22,0,1,,,,,,,,
,,"[""diamond"",""no_dis"",""vert"",""up"",[99999,99999],[-150,0]]",diamond,no_dis,vert,up,"[99999,99999]","[-150,0]",up,1,0.771,,,,,,001,2025-03-17_15h07.03.023,SL_base,2021.2.3,Win32,59.88023952,,,23,0,23,0,1,,,,,,,,
,,"[""circle"",""red"",""hori"",""left"",[106,106],[0,-150]]",circle,red,hori,left,"[106,106]","[0,-150]",left,1,2.1727,,,,,,001,2025-03-17_15h07.03.023,SL_base,2021.2.3,Win32,59.88023952,,,24,0,24,0,1,,,,,,,,
,,"[""diamond"",""green"",""hori"",""left"",[-106,-106],[0,-150]]",diamond,green,hori,left,"[-106,-106]","[0,-150]",left,1,2.0961,,,,,,001,2025-03-17_15h07.03.023,SL_base,2021.2.3,Win32,59.88023952,,,25,0,25,0,1,,,,,,,,
,,"[""circle"",""no_dis"",""hori"",""left"",[99999,99999],[106,106]]",circle,no_dis,hori,left,"[99999,99999]","[106,106]",left,1,0.7565,,,,,,001,2025-03-17_15h07.03.023,SL_base,2021.2.3,Win32,59.88023952,,,26,0,26,0,1,,,,,,,,
,,"[""circle"",""red"",""hori"",""left"",[-150,0],[0,150]]",circle,red,hori,left,"[-150,0]","[0,150]",left,1,1.278,,,,,,001,2025-03-17_15h07.03.023,SL_base,2021.2.3,Win32,59.88023952,,,27,0,27,0,1,,,,,,,,
,,"[""diamond"",""green"",""hori"",""left"",[0,150],[-106,106]]",diamond,green,hori,left,"[0,150]","[-106,106]",left,1,1.5677,,,,,,001,2025-03-17_15h07.03.023,SL_base,2021.2.3,Win32,59.88023952,,,28,0,28,0,1,,,,,,,,
,,"[""circle"",""green"",""vert"",""up"",[-106,106],[-106,-106]]",circle,green,vert,up,"[-106,106]","[-106,-106]",up,1,1.6163,,,,,,001,2025-03-17_15h07.03.023,SL_base,2021.2.3,Win32,59.88023952,,,29,0,29,0,1,,,,,,,,
,,"[""circle"",""green"",""hori"",""left"",[-106,106],[-150,0]]",circle,green,hori,left,"[-106,106]","[-150,0]",left,1,0.8095,,,,,,001,2025-03-17_15h07.03.023,SL_base,2021.2.3,Win32,59.88023952,,,30,0,30,0,1,,,,,,,,
,,"[""diamond"",""no_dis"",""hori"",""left"",[99999,99999],[-106,106]]",diamond,no_dis,hori,left,"[99999,99999]","[-106,106]",left,1,1.6909,,,,,,001,2025-03-17_15h07.03.023,SL_base,2021.2.3,Win32,59.88023952,,,31,0,31,0,1,,,,,,,,
,,"[""diamond"",""no_dis"",""hori"",""left"",[99999,99999],[150,0]]",diamond,no_dis,hori,left,"[99999,99999]","[150,0]",left,1,0.9316,,,,,,001,2025-03-17_15h07.03.023,SL_base,2021.2.3,Win32,59.88023952,,,32,0,32,0,1,,,,,,,,
,,"[""circle"",""red"",""hori"",""left"",[150,0],[106,-106]]",circle,red,hori,left,"[150,0]","[106,-106]",left,1,0.9283,,,,,,001,2025-03-17_15h07.03.023,SL_base,2021.2.3,Win32,59.88023952,,,33,0,33,0,1,,,,,,,,
,,"[""diamond"",""no_dis"",""vert"",""up"",[99999,99999],[-106,-106]]",diamond,no_dis,vert,up,"[99999,99999]","[-106,-106]",up,1,1.1494,,,,,,001,2025-03-17_15h07.03.023,SL_base,2021.2.3,Win32,59.88023952,,,34,0,34,0,1,,,,,,,,
,,"[""circle"",""green"",""vert"",""up"",[0,-150],[106,-106]]",circle,green,vert,up,"[0,-150]","[106,-106]",up,1,1.2464,,,,,,001,2025-03-17_15h07.03.023,SL_base,2021.2.3,Win32,59.88023952,,,35,0,35,0,1,,,,,,,,
,,"[""circle"",""red"",""vert"",""up"",[0,-150],[0,150]]",circle,red,vert,up,"[0,-150]","[0,150]",up,1,1.0589,,,,,,001,2025-03-17_15h07.03.023,SL_base,2021.2.3,Win32,59.88023952,,,36,0,36,0,1,,,,,,,,
,,"[""circle"",""red"",""vert"",""up"",[0,-150],[0,150]]",circle,red,vert,up,"[0,-150]","[0,150]",up,1,0.9097,,,,,,001,2025-03-17_15h07.03.023,SL_base,2021.2.3,Win32,59.88023952,,,37,0,37,0,1,,,,,,,,
,,"[""circle"",""red"",""vert"",""up"",[0,-150],[106,-106]]",circle,red,vert,up,"[0,-150]","[106,-106]",up,1,1.061,,,,,,001,2025-03-17_15h07.03.023,SL_base,2021.2.3,Win32,59.88023952,,,38,0,38,0,1,,,,,,,,
,,"[""diamond"",""no_dis"",""vert"",""up"",[99999,99999],[-150,0]]",diamond,no_dis,vert,up,"[99999,99999]","[-150,0]",up,1,1.5171,,,,,,001,2025-03-17_15h07.03.023,SL_base,2021.2.3,Win32,59.88023952,,,39,0,39,0,1,,,,,,,,
,,"[""diamond"",""green"",""hori"",""left"",[150,0],[106,106]]",diamond,green,hori,left,"[150,0]","[106,106]",left,1,1.081,,,,,,001,2025-03-17_15h07.03.023,SL_base,2021.2.3,Win32,59.88023952,,,40,0,40,0,1,,,,,,,,
,,"[""diamond"",""red"",""hori"",""left"",[106,-106],[-150,0]]",diamond,red,hori,left,"[106,-106]","[-150,0]",left,1,1.5929,,,,,,001,2025-03-17_15h07.03.023,SL_base,2021.2.3,Win32,59.88023952,,,41,0,41,0,1,,,,,,,,
,,"[""diamond"",""no_dis"",""hori"",""left"",[99999,99999],[0,-150]]",diamond,no_dis,hori,left,"[99999,99999]","[0,-150]",left,1,0.9195,,,,,,001,2025-03-17_15h07.03.023,SL_base,2021.2.3,Win32,59.88023952,,,42,0,42,0,1,,,,,,,,
,,"[""circle"",""red"",""vert"",""up"",[106,106],[0,150]]",circle,red,vert,up,"[106,106]","[0,150]",up,1,1.5769,,,,,,001,2025-03-17_15h07.03.023,SL_base,2021.2.3,Win32,59.88023952,,,43,0,43,0,1,,,,,,,,
,,"[""circle"",""red"",""hori"",""left"",[-150,0],[0,150]]",circle,red,hori,left,"[-150,0]","[0,150]",left,1,1.4762,,,,,,001,2025-03-17_15h07.03.023,SL_base,2021.2.3,Win32,59.88023952,,,44,0,44,0,1,,,,,,,,
,,"[""diamond"",""green"",""hori"",""left"",[106,-106],[150,0]]",diamond,green,hori,left,"[106,-106]","[150,0]",left,1,1.1579,,,,,,001,2025-03-17_15h07.03.023,SL_base,2021.2.3,Win32,59.88023952,,,45,0,45,0,1,,,,,,,,
,,"[""diamond"",""no_dis"",""vert"",""up"",[99999,99999],[106,106]]",diamond,no_dis,vert,up,"[99999,99999]","[106,106]",up,1,1.0508,,,,,,001,2025-03-17_15h07.03.023,SL_base,2021.2.3,Win32,59.88023952,,,46,0,46,0,1,,,,,,,,
,,"[""diamond"",""red"",""hori"",""left"",[-106,106],[0,150]]",diamond,red,hori,left,"[-106,106]","[0,150]",left,1,1.3189,,,,,,001,2025-03-17_15h07.03.023,SL_base,2021.2.3,Win32,59.88023952,,,47,0,47,0,1,,,,,,,,
,,"[""circle"",""green"",""vert"",""up"",[106,-106],[0,-150]]",circle,green,vert,up,"[106,-106]","[0,-150]",up,1,1.5514,,,,,,001,2025-03-17_15h07.03.023,SL_base,2021.2.3,Win32,59.88023952,,,48,0,48,0,1,,,,,,,,
,,"[""circle"",""green"",""hori"",""left"",[106,-106],[150,0]]",circle,green,hori,left,"[106,-106]","[150,0]",left,1,0.9316,,,,,,001,2025-03-17_15h07.03.023,SL_base,2021.2.3,Win32,59.88023952,,,49,0,49,0,1,,,,,,,,
,,"[""circle"",""red"",""vert"",""up"",[-150,0],[-106,-106]]",circle,red,vert,up,"[-150,0]","[-106,-106]",up,1,0.8907,,,,,,001,2025-03-17_15h07.03.023,SL_base,2021.2.3,Win32,59.88023952,,,50,0,50,0,1,,,,,,,,
,,"[""diamond"",""no_dis"",""hori"",""left"",[99999,99999],[-106,106]]",diamond,no_dis,hori,left,"[99999,99999]","[-106,106]",left,1,2.5721,,,,,,001,2025-03-17_15h07.03.023,SL_base,2021.2.3,Win32,59.88023952,,,51,0,51,0,1,,,,,,,,
,,"[""diamond"",""red"",""vert"",""up"",[150,0],[0,-150]]",diamond,red,vert,up,"[150,0]","[0,-150]",up,1,1.0912,,,,,,001,2025-03-17_15h07.03.023,SL_base,2021.2.3,Win32,59.88023952,,,52,0,52,0,1,,,,,,,,
,,"[""diamond"",""no_dis"",""vert"",""up"",[99999,99999],[106,-106]]",diamond,no_dis,vert,up,"[99999,99999]","[106,-106]",up,1,0.9649,,,,,,001,2025-03-17_15h07.03.023,SL_base,2021.2.3,Win32,59.88023952,,,53,0,53,0,1,,,,,,,,
,,"[""diamond"",""red"",""vert"",""up"",[150,0],[0,150]]",diamond,red,vert,up,"[150,0]","[0,150]",up,1,0.8959,,,,,,001,2025-03-17_15h07.03.023,SL_base,2021.2.3,Win32,59.88023952,,,54,0,54,0,1,,,,,,,,
,,"[""circle"",""green"",""hori"",""left"",[0,150],[106,-106]]",circle,green,hori,left,"[0,150]","[106,-106]",left,1,1.0461,,,,,,001,2025-03-17_15h07.03.023,SL_base,2021.2.3,Win32,59.88023952,,,55,0,55,0,1,,,,,,,,
,,"[""diamond"",""red"",""vert"",""up"",[106,-106],[0,150]]",diamond,red,vert,up,"[106,-106]","[0,150]",up,1,1.0368,,,,,,001,2025-03-17_15h07.03.023,SL_base,2021.2.3,Win32,59.88023952,,,56,0,56,0,1,,,,,,,,
,,"[""diamond"",""green"",""vert"",""up"",[-106,106],[0,150]]",diamond,green,vert,up,"[-106,106]","[0,150]",up,1,0.8509,,,,,,001,2025-03-17_15h07.03.023,SL_base,2021.2.3,Win32,59.88023952,,,57,0,57,0,1,,,,,,,,
,,"[""circle"",""green"",""hori"",""left"",[106,-106],[-106,-106]]",circle,green,hori,left,"[106,-106]","[-106,-106]",left,1,1.0302,,,,,,001,2025-03-17_15h07.03.023,SL_base,2021.2.3,Win32,59.88023952,,,58,0,58,0,1,,,,,,,,
,,"[""circle"",""green"",""hori"",""left"",[-106,106],[106,106]]",circle,green,hori,left,"[-106,106]","[106,106]",left,1,1.3075,,,,,,001,2025-03-17_15h07.03.023,SL_base,2021.2.3,Win32,59.88023952,,,59,0,59,0,1,,,,,,,,
,,"[""diamond"",""no_dis"",""vert"",""up"",[99999,99999],[-150,0]]",diamond,no_dis,vert,up,"[99999,99999]","[-150,0]",up,1,1.1397,,,,,,001,2025-03-17_15h07.03.023,SL_base,2021.2.3,Win32,59.88023952,,,60,0,60,0,1,,,,,,,,
,,"[""diamond"",""green"",""hori"",""left"",[150,0],[-150,0]]",diamond,green,hori,left,"[150,0]","[-150,0]",left,1,0.8434,,,,,,001,2025-03-17_15h07.03.023,SL_base,2021.2.3,Win32,59.88023952,,,61,0,61,0,1,,,,,,,,
,,"[""diamond"",""green"",""vert"",""up"",[106,106],[0,-150]]",diamond,green,vert,up,"[106,106]","[0,-150]",up,1,0.8153,,,,,,001,2025-03-17_15h07.03.023,SL_base,2021.2.3,Win32,59.88023952,,,62,0,62,0,1,,,,,,,,
,,"[""circle"",""red"",""hori"",""left"",[150,0],[-106,106]]",circle,red,hori,left,"[150,0]","[-106,106]",left,1,1.0613,,,,,,001,2025-03-17_15h07.03.023,SL_base,2021.2.3,Win32,59.88023952,,,63,0,63,0,1,,,,,,,,
,,"[""circle"",""green"",""hori"",""left"",[150,0],[-106,106]]",circle,green,hori,left,"[150,0]","[-106,106]",left,1,1.0663,,,,,,001,2025-03-17_15h07.03.023,SL_base,2021.2.3,Win32,59.88023952,,,64,0,64,0,1,,,,,,,,
,,"[""circle"",""no_dis"",""vert"",""up"",[99999,99999],[0,-150]]",circle,no_dis,vert,up,"[99999,99999]","[0,-150]",up,1,1.3415,,,,,,001,2025-03-17_15h07.03.023,SL_base,2021.2.3,Win32,59.88023952,,,65,0,65,0,1,,,,,,,,
,,"[""circle"",""green"",""hori"",""left"",[150,0],[-150,0]]",circle,green,hori,left,"[150,0]","[-150,0]",left,1,0.8616,,,,,,001,2025-03-17_15h07.03.023,SL_base,2021.2.3,Win32,59.88023952,,,66,0,66,0,1,,,,,,,,
,,"[""diamond"",""red"",""hori"",""left"",[0,150],[-106,106]]",diamond,red,hori,left,"[0,150]","[-106,106]",left,1,1.4835,,,,,,001,2025-03-17_15h07.03.023,SL_base,2021.2.3,Win32,59.88023952,,,67,0,67,0,1,,,,,,,,
,,"[""diamond"",""green"",""hori"",""left"",[150,0],[-106,106]]",diamond,green,hori,left,"[150,0]","[-106,106]",left,1,0.8147,,,,,,001,2025-03-17_15h07.03.023,SL_base,2021.2.3,Win32,59.88023952,,,68,0,68,0,1,,,,,,,,
,,"[""circle"",""red"",""hori"",""left"",[-106,106],[-150,0]]",circle,red,hori,left,"[-106,106]","[-150,0]",left,1,1.5023,,,,,,001,2025-03-17_15h07.03.023,SL_base,2021.2.3,Win32,59.88023952,,,69,0,69,0,1,,,,,,,,
,,"[""circle"",""green"",""vert"",""up"",[106,106],[-150,0]]",circle,green,vert,up,"[106,106]","[-150,0]",up,1,1.0036,,,,,,001,2025-03-17_15h07.03.023,SL_base,2021.2.3,Win32,59.88023952,,,70,0,70,0,1,,,,,,,,
,,"[""circle"",""red"",""hori"",""left"",[106,-106],[-150,0]]",circle,red,hori,left,"[106,-106]","[-150,0]",left,1,0.7797,,,,,,001,2025-03-17_15h07.03.023,SL_base,2021.2.3,Win32,59.88023952,,,71,0,71,0,1,,,,,,,,
,,"[""circle"",""red"",""hori"",""left"",[-150,0],[-106,106]]",circle,red,hori,left,"[-150,0]","[-106,106]",left,1,1.6501,,,,,,001,2025-03-17_15h07.03.023,SL_base,2021.2.3,Win32,59.88023952,,,72,0,72,0,1,,,,,,,,
,,"[""diamond"",""green"",""vert"",""up"",[106,-106],[0,150]]",diamond,green,vert,up,"[106,-106]","[0,150]",up,1,1.295,,,,,,001,2025-03-17_15h07.03.023,SL_base,2021.2.3,Win32,59.88023952,,,73,0,73,0,1,,,,,,,,
,,"[""diamond"",""green"",""hori"",""left"",[150,0],[106,106]]",diamond,green,hori,left,"[150,0]","[106,106]",left,1,1.2177,,,,,,001,2025-03-17_15h07.03.023,SL_base,2021.2.3,Win32,59.88023952,,,74,0,74,0,1,,,,,,,,
,,"[""circle"",""green"",""vert"",""up"",[-106,-106],[0,150]]",circle,green,vert,up,"[-106,-106]","[0,150]",up,1,0.8013,,,,,,001,2025-03-17_15h07.03.023,SL_base,2021.2.3,Win32,59.88023952,,,75,0,75,0,1,,,,,,,,
,,"[""circle"",""no_dis"",""hori"",""left"",[99999,99999],[0,150]]",circle,no_dis,hori,left,"[99999,99999]","[0,150]",left,1,1.4174,,,,,,001,2025-03-17_15h07.03.023,SL_base,2021.2.3,Win32,59.88023952,,,76,0,76,0,1,,,,,,,,
,,"[""circle"",""red"",""vert"",""up"",[106,106],[-150,0]]",circle,red,vert,up,"[106,106]","[-150,0]",up,1,0.899,,,,,,001,2025-03-17_15h07.03.023,SL_base,2021.2.3,Win32,59.88023952,,,77,0,77,0,1,,,,,,,,
,,"[""diamond"",""red"",""vert"",""up"",[150,0],[-106,-106]]",diamond,red,vert,up,"[150,0]","[-106,-106]",up,1,1.3499,,,,,,001,2025-03-17_15h07.03.023,SL_base,2021.2.3,Win32,59.88023952,,,78,0,78,0,1,,,,,,,,
,,"[""diamond"",""green"",""hori"",""left"",[-106,-106],[106,106]]",diamond,green,hori,left,"[-106,-106]","[106,106]",left,1,1.0062,,,,,,001,2025-03-17_15h07.03.023,SL_base,2021.2.3,Win32,59.88023952,,,79,0,79,0,1,,,,,,,,
,,"[""circle"",""green"",""vert"",""up"",[106,106],[106,-106]]",circle,green,vert,up,"[106,106]","[106,-106]",up,1,1.4357,,,,,,001,2025-03-17_15h07.03.023,SL_base,2021.2.3,Win32,59.88023952,,,80,0,80,0,1,,,,,,,,
,,"[""circle"",""no_dis"",""hori"",""left"",[99999,99999],[0,150]]",circle,no_dis,hori,left,"[99999,99999]","[0,150]",left,1,1.2168,,,,,,001,2025-03-17_15h07.03.023,SL_base,2021.2.3,Win32,59.88023952,,,81,0,81,0,1,,,,,,,,
,,"[""diamond"",""red"",""vert"",""up"",[0,-150],[-150,0]]",diamond,red,vert,up,"[0,-150]","[-150,0]",up,1,1.1884,,,,,,001,2025-03-17_15h07.03.023,SL_base,2021.2.3,Win32,59.88023952,,,82,0,82,0,1,,,,,,,,
,,"[""circle"",""no_dis"",""vert"",""up"",[99999,99999],[-150,0]]",circle,no_dis,vert,up,"[99999,99999]","[-150,0]",up,1,1.6687,,,,,,001,2025-03-17_15h07.03.023,SL_base,2021.2.3,Win32,59.88023952,,,83,0,83,0,1,,,,,,,,
,,"[""diamond"",""no_dis"",""hori"",""left"",[99999,99999],[106,106]]",diamond,no_dis,hori,left,"[99999,99999]","[106,106]",left,1,1.0129,,,,,,001,2025-03-17_15h07.03.023,SL_base,2021.2.3,Win32,59.88023952,,,84,0,84,0,1,,,,,,,,
,,"[""diamond"",""no_dis"",""hori"",""left"",[99999,99999],[106,-106]]",diamond,no_dis,hori,left,"[99999,99999]","[106,-106]",left,1,0.8488,,,,,,001,2025-03-17_15h07.03.023,SL_base,2021.2.3,Win32,59.88023952,,,85,0,85,0,1,,,,,,,,
,,"[""diamond"",""green"",""vert"",""up"",[0,-150],[-150,0]]",diamond,green,vert,up,"[0,-150]","[-150,0]",up,1,1.0162,,,,,,001,2025-03-17_15h07.03.023,SL_base,2021.2.3,Win32,59.88023952,,,86,0,86,0,1,,,,,,,,
,,"[""diamond"",""no_dis"",""vert"",""up"",[99999,99999],[106,-106]]",diamond,no_dis,vert,up,"[99999,99999]","[106,-106]",up,1,0.9689,,,,,,001,2025-03-17_15h07.03.023,SL_base,2021.2.3,Win32,59.88023952,,,87,0,87,0,1,,,,,,,,
,,"[""circle"",""no_dis"",""hori"",""left"",[99999,99999],[150,0]]",circle,no_dis,hori,left,"[99999,99999]","[150,0]",left,1,0.9205,,,,,,001,2025-03-17_15h07.03.023,SL_base,2021.2.3,Win32,59.88023952,,,88,0,88,0,1,,,,,,,,
,,"[""circle"",""no_dis"",""hori"",""left"",[99999,99999],[-106,106]]",circle,no_dis,hori,left,"[99999,99999]","[-106,106]",left,1,0.9158,,,,,,001,2025-03-17_15h07.03.023,SL_base,2021.2.3,Win32,59.88023952,,,89,0,89,0,1,,,,,,,,
,,"[""circle"",""no_dis"",""vert"",""up"",[99999,99999],[0,150]]",circle,no_dis,vert,up,"[99999,99999]","[0,150]",up,1,0.8366,,,,,,001,2025-03-17_15h07.03.023,SL_base,2021.2.3,Win32,59.88023952,,,90,0,90,0,1,,,,,,,,
,,"[""diamond"",""red"",""hori"",""left"",[150,0],[-106,106]]",diamond,red,hori,left,"[150,0]","[-106,106]",left,1,1.3704,,,,,,001,2025-03-17_15h07.03.023,SL_base,2021.2.3,Win32,59.88023952,,,91,0,91,0,1,,,,,,,,
,,"[""circle"",""no_dis"",""vert"",""up"",[99999,99999],[-106,-106]]",circle,no_dis,vert,up,"[99999,99999]","[-106,-106]",up,1,0.8485,,,,,,001,2025-03-17_15h07.03.023,SL_base,2021.2.3,Win32,59.88023952,,,92,0,92,0,1,,,,,,,,
,,"[""circle"",""no_dis"",""hori"",""left"",[99999,99999],[-106,-106]]",circle,no_dis,hori,left,"[99999,99999]","[-106,-106]",left,1,0.9337,,,,,,001,2025-03-17_15h07.03.023,SL_base,2021.2.3,Win32,59.88023952,,,93,0,93,0,1,,,,,,,,
,,"[""diamond"",""red"",""hori"",""left"",[150,0],[106,-106]]",diamond,red,hori,left,"[150,0]","[106,-106]",left,1,1.7354,,,,,,001,2025-03-17_15h07.03.023,SL_base,2021.2.3,Win32,59.88023952,,,94,0,94,0,1,,,,,,,,
,,"[""diamond"",""no_dis"",""hori"",""left"",[99999,99999],[106,-106]]",diamond,no_dis,hori,left,"[99999,99999]","[106,-106]",left,1,1.1319,,,,,,001,2025-03-17_15h07.03.023,SL_base,2021.2.3,Win32,59.88023952,,,95,0,95,0,1,,,,,,,,
,,"[""circle"",""no_dis"",""vert"",""up"",[99999,99999],[0,-150]]",circle,no_dis,vert,up,"[99999,99999]","[0,-150]",up,1,1.907,,,,,,001,2025-03-17_15h07.03.023,SL_base,2021.2.3,Win32,59.88023952,,,96,0,96,0,1,,,,,,,,
,,"[""circle"",""red"",""vert"",""up"",[150,0],[-150,0]]",circle,red,vert,up,"[150,0]","[-150,0]",up,1,1.2073,,,,,,001,2025-03-17_15h07.03.023,SL_base,2021.2.3,Win32,59.88023952,,,97,0,97,0,1,,,,,,,,
,,"[""circle"",""green"",""vert"",""up"",[150,0],[-106,-106]]",circle,green,vert,up,"[150,0]","[-106,-106]",up,1,1.2976,,,,,,001,2025-03-17_15h07.03.023,SL_base,2021.2.3,Win32,59.88023952,,,98,0,98,0,1,,,,,,,,
,,"[""circle"",""red"",""vert"",""up"",[-106,-106],[-150,0]]",circle,red,vert,up,"[-106,-106]","[-150,0]",up,1,1.0926,,,,,,001,2025-03-17_15h07.03.023,SL_base,2021.2.3,Win32,59.88023952,,,99,0,99,0,1,,,,,,,,
,,"[""diamond"",""red"",""vert"",""up"",[-150,0],[0,150]]",diamond,red,vert,up,"[-150,0]","[0,150]",up,1,1.3828,,,,,,001,2025-03-17_15h07.03.023,SL_base,2021.2.3,Win32,59.88023952,,,100,0,100,0,1,,,,,,,,
,,"[""diamond"",""no_dis"",""vert"",""up"",[99999,99999],[0,-150]]",diamond,no_dis,vert,up,"[99999,99999]","[0,-150]",up,1,0.7822,,,,,,001,2025-03-17_15h07.03.023,SL_base,2021.2.3,Win32,59.88023952,,,101,0,101,0,1,,,,,,,,
,,"[""diamond"",""green"",""vert"",""up"",[-150,0],[0,-150]]",diamond,green,vert,up,"[-150,0]","[0,-150]",up,1,0.791,,,,,,001,2025-03-17_15h07.03.023,SL_base,2021.2.3,Win32,59.88023952,,,102,0,102,0,1,,,,,,,,
,,"[""circle"",""green"",""hori"",""left"",[0,150],[-150,0]]",circle,green,hori,left,"[0,150]","[-150,0]",left,1,0.8168,,,,,,001,2025-03-17_15h07.03.023,SL_base,2021.2.3,Win32,59.88023952,,,103,0,103,0,1,,,,,,,,
,,"[""circle"",""green"",""hori"",""left"",[150,0],[0,-150]]",circle,green,hori,left,"[150,0]","[0,-150]",left,1,0.9229,,,,,,001,2025-03-17_15h07.03.023,SL_base,2021.2.3,Win32,59.88023952,,,104,0,104,0,1,,,,,,,,
,,"[""circle"",""red"",""hori"",""left"",[-106,106],[0,-150]]",circle,red,hori,left,"[-106,106]","[0,-150]",left,1,0.8156,,,,,,001,2025-03-17_15h07.03.023,SL_base,2021.2.3,Win32,59.88023952,,,105,0,105,0,1,,,,,,,,
,,"[""diamond"",""red"",""hori"",""left"",[0,-150],[106,-106]]",diamond,red,hori,left,"[0,-150]","[106,-106]",left,1,1.1299,,,,,,001,2025-03-17_15h07.03.023,SL_base,2021.2.3,Win32,59.88023952,,,106,0,106,0,1,,,,,,,,
,,"[""diamond"",""no_dis"",""hori"",""left"",[99999,99999],[0,150]]",diamond,no_dis,hori,left,"[99999,99999]","[0,150]",left,1,0.8936,,,,,,001,2025-03-17_15h07.03.023,SL_base,2021.2.3,Win32,59.88023952,,,107,0,107,0,1,,,,,,,,
,,"[""diamond"",""green"",""vert"",""up"",[0,-150],[106,-106]]",diamond,green,vert,up,"[0,-150]","[106,-106]",up,1,1.7326,,,,,,001,2025-03-17_15h07.03.023,SL_base,2021.2.3,Win32,59.88023952,,,108,0,108,0,1,,,,,,,,
,,"[""circle"",""no_dis"",""vert"",""up"",[99999,99999],[-106,106]]",circle,no_dis,vert,up,"[99999,99999]","[-106,106]",up,1,1.9003,,,,,,001,2025-03-17_15h07.03.023,SL_base,2021.2.3,Win32,59.88023952,,,109,0,109,0,1,,,,,,,,
,,"[""circle"",""red"",""vert"",""up"",[150,0],[106,-106]]",circle,red,vert,up,"[150,0]","[106,-106]",up,1,0.8314,,,,,,001,2025-03-17_15h07.03.023,SL_base,2021.2.3,Win32,59.88023952,,,110,0,110,0,1,,,,,,,,
,,"[""circle"",""green"",""vert"",""up"",[106,106],[-106,106]]",circle,green,vert,up,"[106,106]","[-106,106]",up,1,0.7335,,,,,,001,2025-03-17_15h07.03.023,SL_base,2021.2.3,Win32,59.88023952,,,111,0,111,0,1,,,,,,,,
,,"[""diamond"",""green"",""hori"",""left"",[150,0],[0,-150]]",diamond,green,hori,left,"[150,0]","[0,-150]",left,1,1.1781,,,,,,001,2025-03-17_15h07.03.023,SL_base,2021.2.3,Win32,59.88023952,,,112,0,112,0,1,,,,,,,,
,,"[""circle"",""no_dis"",""vert"",""up"",[99999,99999],[150,0]]",circle,no_dis,vert,up,"[99999,99999]","[150,0]",up,1,0.9765,,,,,,001,2025-03-17_15h07.03.023,SL_base,2021.2.3,Win32,59.88023952,,,113,0,113,0,1,,,,,,,,
,,"[""circle"",""red"",""hori"",""left"",[-106,-106],[-106,106]]",circle,red,hori,left,"[-106,-106]","[-106,106]",left,1,0.9831,,,,,,001,2025-03-17_15h07.03.023,SL_base,2021.2.3,Win32,59.88023952,,,114,0,114,0,1,,,,,,,,
,,"[""diamond"",""red"",""vert"",""up"",[0,150],[-150,0]]",diamond,red,vert,up,"[0,150]","[-150,0]",up,1,0.9834,,,,,,001,2025-03-17_15h07.03.023,SL_base,2021.2.3,Win32,59.88023952,,,115,0,115,0,1,,,,,,,,
,,"[""circle"",""green"",""vert"",""up"",[-150,0],[-106,-106]]",circle,green,vert,up,"[-150,0]","[-106,-106]",up,1,0.7779,,,,,,001,2025-03-17_15h07.03.023,SL_base,2021.2.3,Win32,59.88023952,,,116,0,116,0,1,,,,,,,,
,,"[""circle"",""red"",""vert"",""up"",[150,0],[-106,106]]",circle,red,vert,up,"[150,0]","[-106,106]",up,1,1.016,,,,,,001,2025-03-17_15h07.03.023,SL_base,2021.2.3,Win32,59.88023952,,,117,0,117,0,1,,,,,,,,
,,"[""diamond"",""no_dis"",""vert"",""up"",[99999,99999],[106,106]]",diamond,no_dis,vert,up,"[99999,99999]","[106,106]",up,1,1.1756,,,,,,001,2025-03-17_15h07.03.023,SL_base,2021.2.3,Win32,59.88023952,,,118,0,118,0,1,,,,,,,,
,,"[""circle"",""no_dis"",""hori"",""left"",[99999,99999],[0,-150]]",circle,no_dis,hori,left,"[99999,99999]","[0,-150]",left,1,1.0291,,,,,,001,2025-03-17_15h07.03.023,SL_base,2021.2.3,Win32,59.88023952,,,119,0,119,0,1,,,,,,,,
,,,,,,,,,,,,,,,,,001,2025-03-17_15h07.03.023,SL_base,2021.2.3,Win32,59.88023952,,,,,,,,2,space,135.1645,1,0,1,0,1
,,"[""circle"",""red"",""hori"",""left"",[-106,106],[-150,0]]",circle,red,hori,left,"[-106,106]","[-150,0]",left,1,1.4405,,,,,,001,2025-03-17_15h07.03.023,SL_base,2021.2.3,Win32,59.88023952,,,0,0,0,0,1,,,,,,,,
,,"[""circle"",""red"",""hori"",""left"",[-150,0],[-106,106]]",circle,red,hori,left,"[-150,0]","[-106,106]",left,1,0.8487,,,,,,001,2025-03-17_15h07.03.023,SL_base,2021.2.3,Win32,59.88023952,,,1,0,1,0,1,,,,,,,,
,,"[""diamond"",""red"",""vert"",""up"",[150,0],[-106,-106]]",diamond,red,vert,up,"[150,0]","[-106,-106]",up,1,1.6308,,,,,,001,2025-03-17_15h07.03.023,SL_base,2021.2.3,Win32,59.88023952,,,2,0,2,0,1,,,,,,,,
,,"[""diamond"",""no_dis"",""hori"",""left"",[99999,99999],[106,106]]",diamond,no_dis,hori,left,"[99999,99999]","[106,106]",left,1,1.3242,,,,,,001,2025-03-17_15h07.03.023,SL_base,2021.2.3,Win32,59.88023952,,,3,0,3,0,1,,,,,,,,
,,"[""circle"",""no_dis"",""hori"",""left"",[99999,99999],[106,106]]",circle,no_dis,hori,left,"[99999,99999]","[106,106]",left,1,0.9455,,,,,,001,2025-03-17_15h07.03.023,SL_base,2021.2.3,Win32,59.88023952,,,4,0,4,0,1,,,,,,,,
,,"[""diamond"",""green"",""vert"",""up"",[150,0],[0,-150]]",diamond,green,vert,up,"[150,0]","[0,-150]",up,1,0.8734,,,,,,001,2025-03-17_15h07.03.023,SL_base,2021.2.3,Win32,59.88023952,,,5,0,5,0,1,,,,,,,,
,,"[""diamond"",""red"",""vert"",""up"",[150,0],[0,-150]]",diamond,red,vert,up,"[150,0]","[0,-150]",up,1,1.0383,,,,,,001,2025-03-17_15h07.03.023,SL_base,2021.2.3,Win32,59.88023952,,,6,0,6,0,1,,,,,,,,
,,"[""circle"",""red"",""vert"",""up"",[106,106],[-150,0]]",circle,red,vert,up,"[106,106]","[-150,0]",up,1,0.9832,,,,,,001,2025-03-17_15h07.03.023,SL_base,2021.2.3,Win32,59.88023952,,,7,0,7,0,1,,,,,,,,
,,"[""diamond"",""green"",""vert"",""up"",[-106,-106],[106,106]]",diamond,green,vert,up,"[-106,-106]","[106,106]",up,1,0.7599,,,,,,001,2025-03-17_15h07.03.023,SL_base,2021.2.3,Win32,59.88023952,,,8,0,8,0,1,,,,,,,,
,,"[""diamond"",""red"",""vert"",""up"",[0,-150],[-150,0]]",diamond,red,vert,up,"[0,-150]","[-150,0]",up,1,0.6064,,,,,,001,2025-03-17_15h07.03.023,SL_base,2021.2.3,Win32,59.88023952,,,9,0,9,0,1,,,,,,,,
,,"[""diamond"",""no_dis"",""vert"",""up"",[99999,99999],[106,-106]]",diamond,no_dis,vert,up,"[99999,99999]","[106,-106]",up,1,0.622,,,,,,001,2025-03-17_15h07.03.023,SL_base,2021.2.3,Win32,59.88023952,,,10,0,10,0,1,,,,,,,,
,,"[""circle"",""no_dis"",""vert"",""up"",[99999,99999],[-106,-106]]",circle,no_dis,vert,up,"[99999,99999]","[-106,-106]",up,1,1.0578,,,,,,001,2025-03-17_15h07.03.023,SL_base,2021.2.3,Win32,59.88023952,,,11,0,11,0,1,,,,,,,,
,,"[""diamond"",""green"",""hori"",""left"",[150,0],[-106,106]]",diamond,green,hori,left,"[150,0]","[-106,106]",left,1,0.7316,,,,,,001,2025-03-17_15h07.03.023,SL_base,2021.2.3,Win32,59.88023952,,,12,0,12,0,1,,,,,,,,
,,"[""circle"",""green"",""hori"",""left"",[106,-106],[150,0]]",circle,green,hori,left,"[106,-106]","[150,0]",left,1,0.8755,,,,,,001,2025-03-17_15h07.03.023,SL_base,2021.2.3,Win32,59.88023952,,,13,0,13,0,1,,,,,,,,
,,"[""circle"",""no_dis"",""hori"",""left"",[99999,99999],[-106,106]]",circle,no_dis,hori,left,"[99999,99999]","[-106,106]",left,1,0.8914,,,,,,001,2025-03-17_15h07.03.023,SL_base,2021.2.3,Win32,59.88023952,,,14,0,14,0,1,,,,,,,,
,,"[""circle"",""green"",""vert"",""up"",[0,-150],[106,-106]]",circle,green,vert,up,"[0,-150]","[106,-106]",up,1,0.8517,,,,,,001,2025-03-17_15h07.03.023,SL_base,2021.2.3,Win32,59.88023952,,,15,0,15,0,1,,,,,,,,
,,"[""circle"",""no_dis"",""vert"",""up"",[99999,99999],[-106,106]]",circle,no_dis,vert,up,"[99999,99999]","[-106,106]",up,1,0.789,,,,,,001,2025-03-17_15h07.03.023,SL_base,2021.2.3,Win32,59.88023952,,,16,0,16,0,1,,,,,,,,
,,"[""circle"",""no_dis"",""hori"",""left"",[99999,99999],[0,150]]",circle,no_dis,hori,left,"[99999,99999]","[0,150]",left,1,0.6751,,,,,,001,2025-03-17_15h07.03.023,SL_base,2021.2.3,Win32,59.88023952,,,17,0,17,0,1,,,,,,,,
,,"[""diamond"",""no_dis"",""hori"",""left"",[99999,99999],[-106,106]]",diamond,no_dis,hori,left,"[99999,99999]","[-106,106]",left,1,1.001,,,,,,001,2025-03-17_15h07.03.023,SL_base,2021.2.3,Win32,59.88023952,,,18,0,18,0,1,,,,,,,,
,,"[""diamond"",""green"",""vert"",""up"",[106,-106],[0,150]]",diamond,green,vert,up,"[106,-106]","[0,150]",up,1,0.6173,,,,,,001,2025-03-17_15h07.03.023,SL_base,2021.2.3,Win32,59.88023952,,,19,0,19,0,1,,,,,,,,
,,"[""diamond"",""no_dis"",""vert"",""up"",[99999,99999],[-106,-106]]",diamond,no_dis,vert,up,"[99999,99999]","[-106,-106]",up,1,0.95,,,,,,001,2025-03-17_15h07.03.023,SL_base,2021.2.3,Win32,59.88023952,,,20,0,20,0,1,,,,,,,,
,,"[""circle"",""red"",""hori"",""left"",[106,106],[0,-150]]",circle,red,hori,left,"[106,106]","[0,-150]",left,1,0.7696,,,,,,001,2025-03-17_15h07.03.023,SL_base,2021.2.3,Win32,59.88023952,,,21,0,21,0,1,,,,,,,,
,,"[""diamond"",""no_dis"",""hori"",""left"",[99999,99999],[0,150]]",diamond,no_dis,hori,left,"[99999,99999]","[0,150]",left,1,0.9687,,,,,,001,2025-03-17_15h07.03.023,SL_base,2021.2.3,Win32,59.88023952,,,22,0,22,0,1,,,,,,,,
,,"[""diamond"",""green"",""hori"",""left"",[150,0],[0,-150]]",diamond,green,hori,left,"[150,0]","[0,-150]",left,1,0.7377,,,,,,001,2025-03-17_15h07.03.023,SL_base,2021.2.3,Win32,59.88023952,,,23,0,23,0,1,,,,,,,,
,,"[""diamond"",""red"",""vert"",""up"",[106,-106],[0,150]]",diamond,red,vert,up,"[106,-106]","[0,150]",up,1,0.6549,,,,,,001,2025-03-17_15h07.03.023,SL_base,2021.2.3,Win32,59.88023952,,,24,0,24,0,1,,,,,,,,
,,"[""diamond"",""red"",""hori"",""left"",[0,150],[-106,106]]",diamond,red,hori,left,"[0,150]","[-106,106]",left,1,0.6938,,,,,,001,2025-03-17_15h07.03.023,SL_base,2021.2.3,Win32,59.88023952,,,25,0,25,0,1,,,,,,,,
,,"[""diamond"",""red"",""hori"",""left"",[150,0],[106,-106]]",diamond,red,hori,left,"[150,0]","[106,-106]",left,1,0.7979,,,,,,001,2025-03-17_15h07.03.023,SL_base,2021.2.3,Win32,59.88023952,,,26,0,26,0,1,,,,,,,,
,,"[""circle"",""no_dis"",""hori"",""left"",[99999,99999],[-106,106]]",circle,no_dis,hori,left,"[99999,99999]","[-106,106]",left,1,1.2311,,,,,,001,2025-03-17_15h07.03.023,SL_base,2021.2.3,Win32,59.88023952,,,27,0,27,0,1,,,,,,,,
,,"[""circle"",""red"",""vert"",""up"",[150,0],[106,-106]]",circle,red,vert,up,"[150,0]","[106,-106]",up,1,0.7708,,,,,,001,2025-03-17_15h07.03.023,SL_base,2021.2.3,Win32,59.88023952,,,28,0,28,0,1,,,,,,,,
,,"[""diamond"",""no_dis"",""hori"",""left"",[99999,99999],[-106,-106]]",diamond,no_dis,hori,left,"[99999,99999]","[-106,-106]",left,1,0.9211,,,,,,001,2025-03-17_15h07.03.023,SL_base,2021.2.3,Win32,59.88023952,,,29,0,29,0,1,,,,,,,,
,,"[""diamond"",""green"",""vert"",""up"",[-106,106],[0,150]]",diamond,green,vert,up,"[-106,106]","[0,150]",up,1,0.8081,,,,,,001,2025-03-17_15h07.03.023,SL_base,2021.2.3,Win32,59.88023952,,,30,0,30,0,1,,,,,,,,
,,"[""circle"",""red"",""vert"",""up"",[0,-150],[0,150]]",circle,red,vert,up,"[0,-150]","[0,150]",up,1,0.9279,,,,,,001,2025-03-17_15h07.03.023,SL_base,2021.2.3,Win32,59.88023952,,,31,0,31,0,1,,,,,,,,
,,"[""circle"",""red"",""vert"",""up"",[0,-150],[0,150]]",circle,red,vert,up,"[0,-150]","[0,150]",up,1,0.7738,,,,,,001,2025-03-17_15h07.03.023,SL_base,2021.2.3,Win32,59.88023952,,,32,0,32,0,1,,,,,,,,
,,"[""circle"",""no_dis"",""vert"",""up"",[99999,99999],[0,150]]",circle,no_dis,vert,up,"[99999,99999]","[0,150]",up,1,0.9107,,,,,,001,2025-03-17_15h07.03.023,SL_base,2021.2.3,Win32,59.88023952,,,33,0,33,0,1,,,,,,,,
,,"[""circle"",""green"",""hori"",""left"",[-106,-106],[106,106]]",circle,green,hori,left,"[-106,-106]","[106,106]",left,1,0.7846,,,,,,001,2025-03-17_15h07.03.023,SL_base,2021.2.3,Win32,59.88023952,,,34,0,34,0,1,,,,,,,,
,,"[""diamond"",""red"",""hori"",""left"",[106,-106],[-150,0]]",diamond,red,hori,left,"[106,-106]","[-150,0]",left,1,0.9859,,,,,,001,2025-03-17_15h07.03.023,SL_base,2021.2.3,Win32,59.88023952,,,35,0,35,0,1,,,,,,,,
,,"[""diamond"",""green"",""hori"",""left"",[-106,-106],[106,106]]",diamond,green,hori,left,"[-106,-106]","[106,106]",left,1,1.1834,,,,,,001,2025-03-17_15h07.03.023,SL_base,2021.2.3,Win32,59.88023952,,,36,0,36,0,1,,,,,,,,
,,"[""diamond"",""green"",""vert"",""up"",[-106,-106],[0,150]]",diamond,green,vert,up,"[-106,-106]","[0,150]",up,1,0.8566,,,,,,001,2025-03-17_15h07.03.023,SL_base,2021.2.3,Win32,59.88023952,,,37,0,37,0,1,,,,,,,,
,,"[""diamond"",""no_dis"",""vert"",""up"",[99999,99999],[0,-150]]",diamond,no_dis,vert,up,"[99999,99999]","[0,-150]",up,1,0.6451,,,,,,001,2025-03-17_15h07.03.023,SL_base,2021.2.3,Win32,59.88023952,,,38,0,38,0,1,,,,,,,,
,,"[""diamond"",""no_dis"",""hori"",""left"",[99999,99999],[106,-106]]",diamond,no_dis,hori,left,"[99999,99999]","[106,-106]",left,1,0.7643,,,,,,001,2025-03-17_15h07.03.023,SL_base,2021.2.3,Win32,59.88023952,,,39,0,39,0,1,,,,,,,,
,,"[""circle"",""red"",""vert"",""up"",[106,106],[0,150]]",circle,red,vert,up,"[106,106]","[0,150]",up,1,1.5871,,,,,,001,2025-03-17_15h07.03.023,SL_base,2021.2.3,Win32,59.88023952,,,40,0,40,0,1,,,,,,,,
,,"[""diamond"",""red"",""hori"",""left"",[0,-150],[106,-106]]",diamond,red,hori,left,"[0,-150]","[106,-106]",left,1,1.1128,,,,,,001,2025-03-17_15h07.03.023,SL_base,2021.2.3,Win32,59.88023952,,,41,0,41,0,1,,,,,,,,
,,"[""circle"",""red"",""hori"",""left"",[150,0],[106,-106]]",circle,red,hori,left,"[150,0]","[106,-106]",left,1,1.3237,,,,,,001,2025-03-17_15h07.03.023,SL_base,2021.2.3,Win32,59.88023952,,,42,0,42,0,1,,,,,,,,
,,"[""circle"",""no_dis"",""hori"",""left"",[99999,99999],[-106,-106]]",circle,no_dis,hori,left,"[99999,99999]","[-106,-106]",left,1,0.8122,,,,,,001,2025-03-17_15h07.03.023,SL_base,2021.2.3,Win32,59.88023952,,,43,0,43,0,1,,,,,,,,
,,"[""circle"",""green"",""hori"",""left"",[0,150],[-150,0]]",circle,green,hori,left,"[0,150]","[-150,0]",left,1,0.7133,,,,,,001,2025-03-17_15h07.03.023,SL_base,2021.2.3,Win32,59.88023952,,,44,0,44,0,1,,,,,,,,
,,"[""circle"",""green"",""vert"",""up"",[106,106],[-106,106]]",circle,green,vert,up,"[106,106]","[-106,106]",up,1,1.1881,,,,,,001,2025-03-17_15h07.03.023,SL_base,2021.2.3,Win32,59.88023952,,,45,0,45,0,1,,,,,,,,
,,"[""diamond"",""red"",""vert"",""up"",[0,150],[106,-106]]",diamond,red,vert,up,"[0,150]","[106,-106]",left,0,1.4054,,,,,,001,2025-03-17_15h07.03.023,SL_base,2021.2.3,Win32,59.88023952,,,46,0,46,0,1,,,,,,,,
,,"[""diamond"",""green"",""vert"",""up"",[0,-150],[-150,0]]",diamond,green,vert,up,"[0,-150]","[-150,0]",up,1,0.892,,,,,,001,2025-03-17_15h07.03.023,SL_base,2021.2.3,Win32,59.88023952,,,47,0,47,0,1,,,,,,,,
,,"[""circle"",""no_dis"",""vert"",""up"",[99999,99999],[0,-150]]",circle,no_dis,vert,up,"[99999,99999]","[0,-150]",up,1,1.3882,,,,,,001,2025-03-17_15h07.03.023,SL_base,2021.2.3,Win32,59.88023952,,,48,0,48,0,1,,,,,,,,
,,"[""circle"",""no_dis"",""vert"",""up"",[99999,99999],[0,-150]]",circle,no_dis,vert,up,"[99999,99999]","[0,-150]",up,1,0.7037,,,,,,001,2025-03-17_15h07.03.023,SL_base,2021.2.3,Win32,59.88023952,,,49,0,49,0,1,,,,,,,,
,,"[""diamond"",""no_dis"",""vert"",""up"",[99999,99999],[-150,0]]",diamond,no_dis,vert,up,"[99999,99999]","[-150,0]",up,1,1.6339,,,,,,001,2025-03-17_15h07.03.023,SL_base,2021.2.3,Win32,59.88023952,,,50,0,50,0,1,,,,,,,,
,,"[""circle"",""green"",""hori"",""left"",[150,0],[0,-150]]",circle,green,hori,left,"[150,0]","[0,-150]",left,1,1.1116,,,,,,001,2025-03-17_15h07.03.023,SL_base,2021.2.3,Win32,59.88023952,,,51,0,51,0,1,,,,,,,,
,,"[""circle"",""no_dis"",""vert"",""up"",[99999,99999],[-150,0]]",circle,no_dis,vert,up,"[99999,99999]","[-150,0]",up,1,0.8822,,,,,,001,2025-03-17_15h07.03.023,SL_base,2021.2.3,Win32,59.88023952,,,52,0,52,0,1,,,,,,,,
,,"[""diamond"",""no_dis"",""hori"",""left"",[99999,99999],[-106,106]]",diamond,no_dis,hori,left,"[99999,99999]","[-106,106]",up,0,0.9265,,,,,,001,2025-03-17_15h07.03.023,SL_base,2021.2.3,Win32,59.88023952,,,53,0,53,0,1,,,,,,,,
,,"[""circle"",""red"",""vert"",""up"",[150,0],[-106,106]]",circle,red,vert,up,"[150,0]","[-106,106]",up,1,1.3113,,,,,,001,2025-03-17_15h07.03.023,SL_base,2021.2.3,Win32,59.88023952,,,54,0,54,0,1,,,,,,,,
,,"[""diamond"",""no_dis"",""hori"",""left"",[99999,99999],[150,0]]",diamond,no_dis,hori,left,"[99999,99999]","[150,0]",left,1,1.0438,,,,,,001,2025-03-17_15h07.03.023,SL_base,2021.2.3,Win32,59.88023952,,,55,0,55,0,1,,,,,,,,
,,"[""diamond"",""red"",""hori"",""left"",[-106,106],[106,-106]]",diamond,red,hori,left,"[-106,106]","[106,-106]",left,1,0.9065,,,,,,001,2025-03-17_15h07.03.023,SL_base,2021.2.3,Win32,59.88023952,,,56,0,56,0,1,,,,,,,,
,,"[""diamond"",""no_dis"",""hori"",""left"",[99999,99999],[106,-106]]",diamond,no_dis,hori,left,"[99999,99999]","[106,-106]",left,1,0.7997,,,,,,001,2025-03-17_15h07.03.023,SL_base,2021.2.3,Win32,59.88023952,,,57,0,57,0,1,,,,,,,,
,,"[""diamond"",""no_dis"",""vert"",""up"",[99999,99999],[-150,0]]",diamond,no_dis,vert,up,"[99999,99999]","[-150,0]",up,1,1.0754,,,,,,001,2025-03-17_15h07.03.023,SL_base,2021.2.3,Win32,59.88023952,,,58,0,58,0,1,,,,,,,,
,,"[""diamond"",""red"",""vert"",""up"",[150,0],[-106,106]]",diamond,red,vert,up,"[150,0]","[-106,106]",up,1,0.7427,,,,,,001,2025-03-17_15h07.03.023,SL_base,2021.2.3,Win32,59.88023952,,,59,0,59,0,1,,,,,,,,
,,"[""circle"",""green"",""vert"",""up"",[106,106],[-150,0]]",circle,green,vert,up,"[106,106]","[-150,0]",up,1,1.2061,,,,,,001,2025-03-17_15h07.03.023,SL_base,2021.2.3,Win32,59.88023952,,,60,0,60,0,1,,,,,,,,
,,"[""circle"",""no_dis"",""vert"",""up"",[99999,99999],[150,0]]",circle,no_dis,vert,up,"[99999,99999]","[150,0]",up,1,1.2429,,,,,,001,2025-03-17_15h07.03.023,SL_base,2021.2.3,Win32,59.88023952,,,61,0,61,0,1,,,,,,,,
,,"[""diamond"",""red"",""hori"",""left"",[0,150],[-106,-106]]",diamond,red,hori,left,"[0,150]","[-106,-106]",left,1,1.4586,,,,,,001,2025-03-17_15h07.03.023,SL_base,2021.2.3,Win32,59.88023952,,,62,0,62,0,1,,,,,,,,
,,"[""diamond"",""no_dis"",""vert"",""up"",[99999,99999],[106,-106]]",diamond,no_dis,vert,up,"[99999,99999]","[106,-106]",up,1,0.8104,,,,,,001,2025-03-17_15h07.03.023,SL_base,2021.2.3,Win32,59.88023952,,,63,0,63,0,1,,,,,,,,
,,"[""circle"",""red"",""hori"",""left"",[-150,0],[0,150]]",circle,red,hori,left,"[-150,0]","[0,150]",left,1,1.5923,,,,,,001,2025-03-17_15h07.03.023,SL_base,2021.2.3,Win32,59.88023952,,,64,0,64,0,1,,,,,,,,
,,"[""diamond"",""red"",""vert"",""up"",[-150,0],[0,150]]",diamond,red,vert,up,"[-150,0]","[0,150]",up,1,0.7794,,,,,,001,2025-03-17_15h07.03.023,SL_base,2021.2.3,Win32,59.88023952,,,65,0,65,0,1,,,,,,,,
,,"[""circle"",""red"",""hori"",""left"",[106,-106],[-150,0]]",circle,red,hori,left,"[106,-106]","[-150,0]",left,1,0.785,,,,,,001,2025-03-17_15h07.03.023,SL_base,2021.2.3,Win32,59.88023952,,,66,0,66,0,1,,,,,,,,
,,"[""diamond"",""no_dis"",""vert"",""up"",[99999,99999],[106,106]]",diamond,no_dis,vert,up,"[99999,99999]","[106,106]",up,1,1.5401,,,,,,001,2025-03-17_15h07.03.023,SL_base,2021.2.3,Win32,59.88023952,,,67,0,67,0,1,,,,,,,,
,,"[""circle"",""no_dis"",""hori"",""left"",[99999,99999],[-106,-106]]",circle,no_dis,hori,left,"[99999,99999]","[-106,-106]",left,1,1.1003,,,,,,001,2025-03-17_15h07.03.023,SL_base,2021.2.3,Win32,59.88023952,,,68,0,68,0,1,,,,,,,,
,,"[""circle"",""green"",""hori"",""left"",[-106,106],[106,106]]",circle,green,hori,left,"[-106,106]","[106,106]",left,1,1.5368,,,,,,001,2025-03-17_15h07.03.023,SL_base,2021.2.3,Win32,59.88023952,,,69,0,69,0,1,,,,,,,,
,,"[""diamond"",""red"",""hori"",""left"",[150,0],[-106,106]]",diamond,red,hori,left,"[150,0]","[-106,106]",left,1,0.9525,,,,,,001,2025-03-17_15h07.03.023,SL_base,2021.2.3,Win32,59.88023952,,,70,0,70,0,1,,,,,,,,
,,"[""diamond"",""green"",""hori"",""left"",[106,-106],[150,0]]",diamond,green,hori,left,"[106,-106]","[150,0]",left,1,0.6741,,,,,,001,2025-03-17_15h07.03.023,SL_base,2021.2.3,Win32,59.88023952,,,71,0,71,0,1,,,,,,,,
,,"[""circle"",""no_dis"",""vert"",""up"",[99999,99999],[0,150]]",circle,no_dis,vert,up,"[99999,99999]","[0,150]",up,1,0.7222,,,,,,001,2025-03-17_15h07.03.023,SL_base,2021.2.3,Win32,59.88023952,,,72,0,72,0,1,,,,,,,,
,,"[""diamond"",""no_dis"",""vert"",""up"",[99999,99999],[-150,0]]",diamond,no_dis,vert,up,"[99999,99999]","[-150,0]",up,1,0.8524,,,,,,001,2025-03-17_15h07.03.023,SL_base,2021.2.3,Win32,59.88023952,,,73,0,73,0,1,,,,,,,,
,,"[""circle"",""green"",""hori"",""left"",[0,150],[106,-106]]",circle,green,hori,left,"[0,150]","[106,-106]",left,1,1.2077,,,,,,001,2025-03-17_15h07.03.023,SL_base,2021.2.3,Win32,59.88023952,,,74,0,74,0,1,,,,,,,,
,,"[""diamond"",""red"",""hori"",""left"",[106,106],[150,0]]",diamond,red,hori,left,"[106,106]","[150,0]",left,1,1.1865,,,,,,001,2025-03-17_15h07.03.023,SL_base,2021.2.3,Win32,59.88023952,,,75,0,75,0,1,,,,,,,,
,,"[""diamond"",""green"",""vert"",""up"",[0,150],[150,0]]",diamond,green,vert,up,"[0,150]","[150,0]",up,1,1.0681,,,,,,001,2025-03-17_15h07.03.023,SL_base,2021.2.3,Win32,59.88023952,,,76,0,76,0,1,,,,,,,,
,,"[""diamond"",""green"",""hori"",""left"",[150,0],[0,150]]",diamond,green,hori,left,"[150,0]","[0,150]",left,1,1.0225,,,,,,001,2025-03-17_15h07.03.023,SL_base,2021.2.3,Win32,59.88023952,,,77,0,77,0,1,,,,,,,,
,,"[""diamond"",""green"",""hori"",""left"",[150,0],[106,106]]",diamond,green,hori,left,"[150,0]","[106,106]",left,1,0.686,,,,,,001,2025-03-17_15h07.03.023,SL_base,2021.2.3,Win32,59.88023952,,,78,0,78,0,1,,,,,,,,
,,"[""circle"",""green"",""vert"",""up"",[150,0],[-106,-106]]",circle,green,vert,up,"[150,0]","[-106,-106]",up,1,0.9172,,,,,,001,2025-03-17_15h07.03.023,SL_base,2021.2.3,Win32,59.88023952,,,79,0,79,0,1,,,,,,,,
,,"[""diamond"",""no_dis"",""hori"",""left"",[99999,99999],[106,106]]",diamond,no_dis,hori,left,"[99999,99999]","[106,106]",left,1,0.7154,,,,,,001,2025-03-17_15h07.03.023,SL_base,2021.2.3,Win32,59.88023952,,,80,0,80,0,1,,,,,,,,
,,"[""circle"",""no_dis"",""hori"",""left"",[99999,99999],[150,0]]",circle,no_dis,hori,left,"[99999,99999]","[150,0]",left,1,0.8125,,,,,,001,2025-03-17_15h07.03.023,SL_base,2021.2.3,Win32,59.88023952,,,81,0,81,0,1,,,,,,,,
,,"[""diamond"",""red"",""vert"",""up"",[0,150],[-150,0]]",diamond,red,vert,up,"[0,150]","[-150,0]",up,1,0.9388,,,,,,001,2025-03-17_15h07.03.023,SL_base,2021.2.3,Win32,59.88023952,,,82,0,82,0,1,,,,,,,,
,,"[""circle"",""green"",""vert"",""up"",[-150,0],[-106,-106]]",circle,green,vert,up,"[-150,0]","[-106,-106]",up,1,1.2061,,,,,,001,2025-03-17_15h07.03.023,SL_base,2021.2.3,Win32,59.88023952,,,83,0,83,0,1,,,,,,,,
,,"[""circle"",""red"",""vert"",""up"",[-106,-106],[-150,0]]",circle,red,vert,up,"[-106,-106]","[-150,0]",up,1,1.4126,,,,,,001,2025-03-17_15h07.03.023,SL_base,2021.2.3,Win32,59.88023952,,,84,0,84,0,1,,,,,,,,
,,"[""diamond"",""green"",""hori"",""left"",[150,0],[106,106]]",diamond,green,hori,left,"[150,0]","[106,106]",left,1,0.9382,,,,,,001,2025-03-17_15h07.03.023,SL_base,2021.2.3,Win32,59.88023952,,,85,0,85,0,1,,,,,,,,
,,"[""diamond"",""no_dis"",""vert"",""up"",[99999,99999],[106,106]]",diamond,no_dis,vert,up,"[99999,99999]","[106,106]",up,1,0.764,,,,,,001,2025-03-17_15h07.03.023,SL_base,2021.2.3,Win32,59.88023952,,,86,0,86,0,1,,,,,,,,
,,"[""diamond"",""green"",""hori"",""left"",[0,150],[-106,106]]",diamond,green,hori,left,"[0,150]","[-106,106]",left,1,0.8695,,,,,,001,2025-03-17_15h07.03.023,SL_base,2021.2.3,Win32,59.88023952,,,87,0,87,0,1,,,,,,,,
,,"[""circle"",""no_dis"",""hori"",""left"",[99999,99999],[0,-150]]",circle,no_dis,hori,left,"[99999,99999]","[0,-150]",left,1,1.0512,,,,,,001,2025-03-17_15h07.03.023,SL_base,2021.2.3,Win32,59.88023952,,,88,0,88,0,1,,,,,,,,
,,"[""diamond"",""red"",""hori"",""left"",[150,0],[-106,-106]]",diamond,red,hori,left,"[150,0]","[-106,-106]",left,1,0.8142,,,,,,001,2025-03-17_15h07.03.023,SL_base,2021.2.3,Win32,59.88023952,,,89,0,89,0,1,,,,,,,,
,,"[""circle"",""green"",""hori"",""left"",[150,0],[-150,0]]",circle,green,hori,left,"[150,0]","[-150,0]",left,1,0.9368,,,,,,001,2025-03-17_15h07.03.023,SL_base,2021.2.3,Win32,59.88023952,,,90,0,90,0,1,,,,,,,,
,,"[""circle"",""no_dis"",""hori"",""left"",[99999,99999],[0,150]]",circle,no_dis,hori,left,"[99999,99999]","[0,150]",left,1,0.6832,,,,,,001,2025-03-17_15h07.03.023,SL_base,2021.2.3,Win32,59.88023952,,,91,0,91,0,1,,,,,,,,
,,"[""circle"",""green"",""vert"",""up"",[-106,106],[-106,-106]]",circle,green,vert,up,"[-106,106]","[-106,-106]",up,1,1.1704,,,,,,001,2025-03-17_15h07.03.023,SL_base,2021.2.3,Win32,59.88023952,,,92,0,92,0,1,,,,,,,,
,,"[""diamond"",""red"",""vert"",""up"",[150,0],[0,150]]",diamond,red,vert,up,"[150,0]","[0,150]",up,1,1.6003,,,,,,001,2025-03-17_15h07.03.023,SL_base,2021.2.3,Win32,59.88023952,,,93,0,93,0,1,,,,,,,,
,,"[""circle"",""green"",""vert"",""up"",[106,106],[106,-106]]",circle,green,vert,up,"[106,106]","[106,-106]",up,1,0.876,,,,,,001,2025-03-17_15h07.03.023,SL_base,2021.2.3,Win32,59.88023952,,,94,0,94,0,1,,,,,,,,
,,"[""diamond"",""red"",""vert"",""up"",[-150,0],[0,150]]",diamond,red,vert,up,"[-150,0]","[0,150]",up,1,0.9807,,,,,,001,2025-03-17_15h07.03.023,SL_base,2021.2.3,Win32,59.88023952,,,95,0,95,0,1,,,,,,,,
,,"[""circle"",""red"",""hori"",""left"",[150,0],[-106,106]]",circle,red,hori,left,"[150,0]","[-106,106]",left,1,1.0148,,,,,,001,2025-03-17_15h07.03.023,SL_base,2021.2.3,Win32,59.88023952,,,96,0,96,0,1,,,,,,,,
,,"[""diamond"",""green"",""vert"",""up"",[106,106],[0,-150]]",diamond,green,vert,up,"[106,106]","[0,-150]",up,1,0.848,,,,,,001,2025-03-17_15h07.03.023,SL_base,2021.2.3,Win32,59.88023952,,,97,0,97,0,1,,,,,,,,
,,"[""diamond"",""no_dis"",""vert"",""up"",[99999,99999],[-150,0]]",diamond,no_dis,vert,up,"[99999,99999]","[-150,0]",up,1,0.7715,,,,,,001,2025-03-17_15h07.03.023,SL_base,2021.2.3,Win32,59.88023952,,,98,0,98,0,1,,,,,,,,
,,"[""circle"",""green"",""vert"",""up"",[150,0],[0,150]]",circle,green,vert,up,"[150,0]","[0,150]",up,1,1.0842,,,,,,001,2025-03-17_15h07.03.023,SL_base,2021.2.3,Win32,59.88023952,,,99,0,99,0,1,,,,,,,,
,,"[""circle"",""green"",""vert"",""up"",[106,-106],[0,-150]]",circle,green,vert,up,"[106,-106]","[0,-150]",up,1,1.0458,,,,,,001,2025-03-17_15h07.03.023,SL_base,2021.2.3,Win32,59.88023952,,,100,0,100,0,1,,,,,,,,
,,"[""circle"",""green"",""vert"",""up"",[-106,-106],[0,150]]",circle,green,vert,up,"[-106,-106]","[0,150]",up,1,0.7329,,,,,,001,2025-03-17_15h07.03.023,SL_base,2021.2.3,Win32,59.88023952,,,101,0,101,0,1,,,,,,,,
,,"[""circle"",""red"",""vert"",""up"",[0,-150],[106,-106]]",circle,red,vert,up,"[0,-150]","[106,-106]",up,1,0.8406,,,,,,001,2025-03-17_15h07.03.023,SL_base,2021.2.3,Win32,59.88023952,,,102,0,102,0,1,,,,,,,,
,,"[""diamond"",""green"",""vert"",""up"",[0,-150],[106,-106]]",diamond,green,vert,up,"[0,-150]","[106,-106]",up,1,1.4244,,,,,,001,2025-03-17_15h07.03.023,SL_base,2021.2.3,Win32,59.88023952,,,103,0,103,0,1,,,,,,,,
,,"[""circle"",""red"",""vert"",""up"",[150,0],[-150,0]]",circle,red,vert,up,"[150,0]","[-150,0]",up,1,1.0876,,,,,,001,2025-03-17_15h07.03.023,SL_base,2021.2.3,Win32,59.88023952,,,104,0,104,0,1,,,,,,,,
,,"[""circle"",""red"",""hori"",""left"",[-150,0],[0,150]]",circle,red,hori,left,"[-150,0]","[0,150]",left,1,1.13,,,,,,001,2025-03-17_15h07.03.023,SL_base,2021.2.3,Win32,59.88023952,,,105,0,105,0,1,,,,,,,,
,,"[""circle"",""no_dis"",""vert"",""up"",[99999,99999],[150,0]]",circle,no_dis,vert,up,"[99999,99999]","[150,0]",up,1,0.8095,,,,,,001,2025-03-17_15h07.03.023,SL_base,2021.2.3,Win32,59.88023952,,,106,0,106,0,1,,,,,,,,
,,"[""diamond"",""green"",""hori"",""left"",[150,0],[-150,0]]",diamond,green,hori,left,"[150,0]","[-150,0]",left,1,1.1347,,,,,,001,2025-03-17_15h07.03.023,SL_base,2021.2.3,Win32,59.88023952,,,107,0,107,0,1,,,,,,,,
,,"[""diamond"",""red"",""hori"",""left"",[-106,106],[0,150]]",diamond,red,hori,left,"[-106,106]","[0,150]",left,1,1.7782,,,,,,001,2025-03-17_15h07.03.023,SL_base,2021.2.3,Win32,59.88023952,,,108,0,108,0,1,,,,,,,,
,,"[""circle"",""red"",""vert"",""up"",[-150,0],[-106,-106]]",circle,red,vert,up,"[-150,0]","[-106,-106]",up,1,0.9983,,,,,,001,2025-03-17_15h07.03.023,SL_base,2021.2.3,Win32,59.88023952,,,109,0,109,0,1,,,,,,,,
,,"[""circle"",""no_dis"",""vert"",""up"",[99999,99999],[106,-106]]",circle,no_dis,vert,up,"[99999,99999]","[106,-106]",up,1,0.6361,,,,,,001,2025-03-17_15h07.03.023,SL_base,2021.2.3,Win32,59.88023952,,,110,0,110,0,1,,,,,,,,
,,"[""circle"",""green"",""hori"",""left"",[150,0],[-106,106]]",circle,green,hori,left,"[150,0]","[-106,106]",left,1,0.8147,,,,,,001,2025-03-17_15h07.03.023,SL_base,2021.2.3,Win32,59.88023952,,,111,0,111,0,1,,,,,,,,
,,"[""diamond"",""no_dis"",""hori"",""left"",[99999,99999],[0,-150]]",diamond,no_dis,hori,left,"[99999,99999]","[0,-150]",left,1,1.0648,,,,,,001,2025-03-17_15h07.03.023,SL_base,2021.2.3,Win32,59.88023952,,,112,0,112,0,1,,,,,,,,
,,"[""circle"",""green"",""hori"",""left"",[-106,106],[-150,0]]",circle,green,hori,left,"[-106,106]","[-150,0]",left,1,1.0786,,,,,,001,2025-03-17_15h07.03.023,SL_base,2021.2.3,Win32,59.88023952,,,113,0,113,0,1,,,,,,,,
,,"[""diamond"",""green"",""hori"",""left"",[-106,-106],[0,-150]]",diamond,green,hori,left,"[-106,-106]","[0,-150]",left,1,1.5605,,,,,,001,2025-03-17_15h07.03.023,SL_base,2021.2.3,Win32,59.88023952,,,114,0,114,0,1,,,,,,,,
,,"[""circle"",""red"",""hori"",""left"",[-106,-106],[-106,106]]",circle,red,hori,left,"[-106,-106]","[-106,106]",left,1,1.5111,,,,,,001,2025-03-17_15h07.03.023,SL_base,2021.2.3,Win32,59.88023952,,,115,0,115,0,1,,,,,,,,
,,"[""circle"",""red"",""hori"",""left"",[-106,106],[0,-150]]",circle,red,hori,left,"[-106,106]","[0,-150]",left,1,0.9426,,,,,,001,2025-03-17_15h07.03.023,SL_base,2021.2.3,Win32,59.88023952,,,116,0,116,0,1,,,,,,,,
,,"[""diamond"",""green"",""vert"",""up"",[-150,0],[0,-150]]",diamond,green,vert,up,"[-150,0]","[0,-150]",up,1,0.8779,,,,,,001,2025-03-17_15h07.03.023,SL_base,2021.2.3,Win32,59.88023952,,,117,0,117,0,1,,,,,,,,
,,"[""circle"",""green"",""hori"",""left"",[106,-106],[-106,-106]]",circle,green,hori,left,"[106,-106]","[-106,-106]",left,1,0.8441,,,,,,001,2025-03-17_15h07.03.023,SL_base,2021.2.3,Win32,59.88023952,,,118,0,118,0,1,,,,,,,,
,,"[""circle"",""no_dis"",""hori"",""left"",[99999,99999],[150,0]]",circle,no_dis,hori,left,"[99999,99999]","[150,0]",left,1,0.7295,,,,,,001,2025-03-17_15h07.03.023,SL_base,2021.2.3,Win32,59.88023952,,,119,0,119,0,1,,,,,,,,
,,,,,,,,,,,,,,,,,001,2025-03-17_15h07.03.023,SL_base,2021.2.3,Win32,59.88023952,,,,,,,,3,space,66.4031,2,0,2,0,1
,,"[""circle"",""green"",""hori"",""left"",[106,-106],[-106,-106]]",circle,green,hori,left,"[106,-106]","[-106,-106]",left,1,0.9891,,,,,,001,2025-03-17_15h07.03.023,SL_base,2021.2.3,Win32,59.88023952,,,0,0,0,0,1,,,,,,,,
,,"[""diamond"",""no_dis"",""hori"",""left"",[99999,99999],[106,106]]",diamond,no_dis,hori,left,"[99999,99999]","[106,106]",left,1,1.0317,,,,,,001,2025-03-17_15h07.03.023,SL_base,2021.2.3,Win32,59.88023952,,,1,0,1,0,1,,,,,,,,
,,"[""diamond"",""green"",""vert"",""up"",[0,-150],[-150,0]]",diamond,green,vert,up,"[0,-150]","[-150,0]",up,1,0.855,,,,,,001,2025-03-17_15h07.03.023,SL_base,2021.2.3,Win32,59.88023952,,,2,0,2,0,1,,,,,,,,
,,"[""diamond"",""green"",""hori"",""left"",[150,0],[106,106]]",diamond,green,hori,left,"[150,0]","[106,106]",left,1,0.9532,,,,,,001,2025-03-17_15h07.03.023,SL_base,2021.2.3,Win32,59.88023952,,,3,0,3,0,1,,,,,,,,
,,"[""circle"",""red"",""vert"",""up"",[106,106],[0,150]]",circle,red,vert,up,"[106,106]","[0,150]",up,1,1.2301,,,,,,001,2025-03-17_15h07.03.023,SL_base,2021.2.3,Win32,59.88023952,,,4,0,4,0,1,,,,,,,,
,,"[""circle"",""green"",""vert"",""up"",[150,0],[0,150]]",circle,green,vert,up,"[150,0]","[0,150]",up,1,1.0582,,,,,,001,2025-03-17_15h07.03.023,SL_base,2021.2.3,Win32,59.88023952,,,5,0,5,0,1,,,,,,,,
,,"[""circle"",""green"",""hori"",""left"",[150,0],[-150,0]]",circle,green,hori,left,"[150,0]","[-150,0]",left,1,0.841,,,,,,001,2025-03-17_15h07.03.023,SL_base,2021.2.3,Win32,59.88023952,,,6,0,6,0,1,,,,,,,,
,,"[""diamond"",""no_dis"",""hori"",""left"",[99999,99999],[-106,-106]]",diamond,no_dis,hori,left,"[99999,99999]","[-106,-106]",left,1,1.0611,,,,,,001,2025-03-17_15h07.03.023,SL_base,2021.2.3,Win32,59.88023952,,,7,0,7,0,1,,,,,,,,
,,"[""circle"",""no_dis"",""vert"",""up"",[99999,99999],[0,150]]",circle,no_dis,vert,up,"[99999,99999]","[0,150]",up,1,0.8447,,,,,,001,2025-03-17_15h07.03.023,SL_base,2021.2.3,Win32,59.88023952,,,8,0,8,0,1,,,,,,,,
,,"[""diamond"",""no_dis"",""vert"",""up"",[99999,99999],[-150,0]]",diamond,no_dis,vert,up,"[99999,99999]","[-150,0]",up,1,1.0438,,,,,,001,2025-03-17_15h07.03.023,SL_base,2021.2.3,Win32,59.88023952,,,9,0,9,0,1,,,,,,,,
,,"[""circle"",""red"",""hori"",""left"",[106,-106],[-150,0]]",circle,red,hori,left,"[106,-106]","[-150,0]",left,1,0.7099,,,,,,001,2025-03-17_15h07.03.023,SL_base,2021.2.3,Win32,59.88023952,,,10,0,10,0,1,,,,,,,,
,,"[""diamond"",""red"",""vert"",""up"",[150,0],[-106,106]]",diamond,red,vert,up,"[150,0]","[-106,106]",left,0,0.5794,,,,,,001,2025-03-17_15h07.03.023,SL_base,2021.2.3,Win32,59.88023952,,,11,0,11,0,1,,,,,,,,
,,"[""diamond"",""no_dis"",""hori"",""left"",[99999,99999],[150,0]]",diamond,no_dis,hori,left,"[99999,99999]","[150,0]",left,1,0.9272,,,,,,001,2025-03-17_15h07.03.023,SL_base,2021.2.3,Win32,59.88023952,,,12,0,12,0,1,,,,,,,,
,,"[""circle"",""red"",""hori"",""left"",[150,0],[-106,106]]",circle,red,hori,left,"[150,0]","[-106,106]",left,1,1.5736,,,,,,001,2025-03-17_15h07.03.023,SL_base,2021.2.3,Win32,59.88023952,,,13,0,13,0,1,,,,,,,,
,,"[""circle"",""red"",""hori"",""left"",[-106,106],[-150,0]]",circle,red,hori,left,"[-106,106]","[-150,0]",left,1,1.3454,,,,,,001,2025-03-17_15h07.03.023,SL_base,2021.2.3,Win32,59.88023952,,,14,0,14,0,1,,,,,,,,
,,"[""diamond"",""no_dis"",""vert"",""up"",[99999,99999],[0,-150]]",diamond,no_dis,vert,up,"[99999,99999]","[0,-150]",up,1,0.8796,,,,,,001,2025-03-17_15h07.03.023,SL_base,2021.2.3,Win32,59.88023952,,,15,0,15,0,1,,,,,,,,
,,"[""circle"",""red"",""vert"",""up"",[-106,-106],[-150,0]]",circle,red,vert,up,"[-106,-106]","[-150,0]",up,1,1.7095,,,,,,001,2025-03-17_15h07.03.023,SL_base,2021.2.3,Win32,59.88023952,,,16,0,16,0,1,,,,,,,,
,,"[""diamond"",""no_dis"",""vert"",""up"",[99999,99999],[-150,0]]",diamond,no_dis,vert,up,"[99999,99999]","[-150,0]",up,1,2.0232,,,,,,001,2025-03-17_15h07.03.023,SL_base,2021.2.3,Win32,59.88023952,,,17,0,17,0,1,,,,,,,,
,,"[""diamond"",""no_dis"",""vert"",""up"",[99999,99999],[106,106]]",diamond,no_dis,vert,up,"[99999,99999]","[106,106]",up,1,0.9923,,,,,,001,2025-03-17_15h07.03.023,SL_base,2021.2.3,Win32,59.88023952,,,18,0,18,0,1,,,,,,,,
,,"[""circle"",""red"",""vert"",""up"",[150,0],[-106,106]]",circle,red,vert,up,"[150,0]","[-106,106]",up,1,0.8731,,,,,,001,2025-03-17_15h07.03.023,SL_base,2021.2.3,Win32,59.88023952,,,19,0,19,0,1,,,,,,,,
,,"[""diamond"",""green"",""vert"",""up"",[-150,0],[0,-150]]",diamond,green,vert,up,"[-150,0]","[0,-150]",up,1,0.8236,,,,,,001,2025-03-17_15h07.03.023,SL_base,2021.2.3,Win32,59.88023952,,,20,0,20,0,1,,,,,,,,
,,"[""diamond"",""red"",""hori"",""left"",[-106,106],[0,150]]",diamond,red,hori,left,"[-106,106]","[0,150]",left,1,1.0184,,,,,,001,2025-03-17_15h07.03.023,SL_base,2021.2.3,Win32,59.88023952,,,21,0,21,0,1,,,,,,,,
,,"[""circle"",""red"",""vert"",""up"",[0,-150],[106,-106]]",circle,red,vert,up,"[0,-150]","[106,-106]",up,1,1.0436,,,,,,001,2025-03-17_15h07.03.023,SL_base,2021.2.3,Win32,59.88023952,,,22,0,22,0,1,,,,,,,,
,,"[""circle"",""no_dis"",""vert"",""up"",[99999,99999],[-150,0]]",circle,no_dis,vert,up,"[99999,99999]","[-150,0]",up,1,0.7312,,,,,,001,2025-03-17_15h07.03.023,SL_base,2021.2.3,Win32,59.88023952,,,23,0,23,0,1,,,,,,,,
,,"[""circle"",""green"",""hori"",""left"",[0,150],[106,-106]]",circle,green,hori,left,"[0,150]","[106,-106]",left,1,0.8107,,,,,,001,2025-03-17_15h07.03.023,SL_base,2021.2.3,Win32,59.88023952,,,24,0,24,0,1,,,,,,,,
,,"[""diamond"",""no_dis"",""hori"",""left"",[99999,99999],[106,106]]",diamond,no_dis,hori,left,"[99999,99999]","[106,106]",left,1,1.0329,,,,,,001,2025-03-17_15h07.03.023,SL_base,2021.2.3,Win32,59.88023952,,,25,0,25,0,1,,,,,,,,
,,"[""circle"",""no_dis"",""hori"",""left"",[99999,99999],[150,0]]",circle,no_dis,hori,left,"[99999,99999]","[150,0]",left,1,0.6849,,,,,,001,2025-03-17_15h07.03.023,SL_base,2021.2.3,Win32,59.88023952,,,26,0,26,0,1,,,,,,,,
,,"[""circle"",""red"",""vert"",""up"",[0,-150],[0,150]]",circle,red,vert,up,"[0,-150]","[0,150]",up,1,1.0458,,,,,,001,2025-03-17_15h07.03.023,SL_base,2021.2.3,Win32,59.88023952,,,27,0,27,0,1,,,,,,,,
,,"[""circle"",""red"",""vert"",""up"",[-150,0],[-106,-106]]",circle,red,vert,up,"[-150,0]","[-106,-106]",up,1,1.0653,,,,,,001,2025-03-17_15h07.03.023,SL_base,2021.2.3,Win32,59.88023952,,,28,0,28,0,1,,,,,,,,
,,"[""circle"",""no_dis"",""vert"",""up"",[99999,99999],[106,-106]]",circle,no_dis,vert,up,"[99999,99999]","[106,-106]",up,1,1.6461,,,,,,001,2025-03-17_15h07.03.023,SL_base,2021.2.3,Win32,59.88023952,,,29,0,29,0,1,,,,,,,,
,,"[""diamond"",""red"",""hori"",""left"",[150,0],[106,-106]]",diamond,red,hori,left,"[150,0]","[106,-106]",left,1,0.8238,,,,,,001,2025-03-17_15h07.03.023,SL_base,2021.2.3,Win32,59.88023952,,,30,0,30,0,1,,,,,,,,
,,"[""diamond"",""red"",""vert"",""up"",[0,150],[106,-106]]",diamond,red,vert,up,"[0,150]","[106,-106]",up,1,1.2203,,,,,,001,2025-03-17_15h07.03.023,SL_base,2021.2.3,Win32,59.88023952,,,31,0,31,0,1,,,,,,,,
,,"[""circle"",""red"",""vert"",""up"",[150,0],[-150,0]]",circle,red,vert,up,"[150,0]","[-150,0]",up,1,1.076,,,,,,001,2025-03-17_15h07.03.023,SL_base,2021.2.3,Win32,59.88023952,,,32,0,32,0,1,,,,,,,,
,,"[""diamond"",""green"",""hori"",""left"",[150,0],[-150,0]]",diamond,green,hori,left,"[150,0]","[-150,0]",left,1,0.9877,,,,,,001,2025-03-17_15h07.03.023,SL_base,2021.2.3,Win32,59.88023952,,,33,0,33,0,1,,,,,,,,
,,"[""diamond"",""red"",""vert"",""up"",[-150,0],[0,150]]",diamond,red,vert,up,"[-150,0]","[0,150]",up,1,0.7335,,,,,,001,2025-03-17_15h07.03.023,SL_base,2021.2.3,Win32,59.88023952,,,34,0,34,0,1,,,,,,,,
,,"[""diamond"",""red"",""hori"",""left"",[150,0],[-106,-106]]",diamond,red,hori,left,"[150,0]","[-106,-106]",left,1,0.8745,,,,,,001,2025-03-17_15h07.03.023,SL_base,2021.2.3,Win32,59.88023952,,,35,0,35,0,1,,,,,,,,
,,"[""diamond"",""red"",""hori"",""left"",[150,0],[-106,106]]",diamond,red,hori,left,"[150,0]","[-106,106]",left,1,1.0103,,,,,,001,2025-03-17_15h07.03.023,SL_base,2021.2.3,Win32,59.88023952,,,36,0,36,0,1,,,,,,,,
,,"[""diamond"",""no_dis"",""vert"",""up"",[99999,99999],[-150,0]]",diamond,no_dis,vert,up,"[99999,99999]","[-150,0]",up,1,0.6541,,,,,,001,2025-03-17_15h07.03.023,SL_base,2021.2.3,Win32,59.88023952,,,37,0,37,0,1,,,,,,,,
,,"[""diamond"",""green"",""hori"",""left"",[150,0],[-106,106]]",diamond,green,hori,left,"[150,0]","[-106,106]",left,1,1.5515,,,,,,001,2025-03-17_15h07.03.023,SL_base,2021.2.3,Win32,59.88023952,,,38,0,38,0,1,,,,,,,,
,,"[""diamond"",""red"",""hori"",""left"",[-106,106],[106,-106]]",diamond,red,hori,left,"[-106,106]","[106,-106]",left,1,1.0728,,,,,,001,2025-03-17_15h07.03.023,SL_base,2021.2.3,Win32,59.88023952,,,39,0,39,0,1,,,,,,,,
,,"[""diamond"",""no_dis"",""vert"",""up"",[99999,99999],[106,-106]]",diamond,no_dis,vert,up,"[99999,99999]","[106,-106]",up,1,0.6864,,,,,,001,2025-03-17_15h07.03.023,SL_base,2021.2.3,Win32,59.88023952,,,40,0,40,0,1,,,,,,,,
,,"[""circle"",""no_dis"",""vert"",""up"",[99999,99999],[150,0]]",circle,no_dis,vert,up,"[99999,99999]","[150,0]",up,1,1.0797,,,,,,001,2025-03-17_15h07.03.023,SL_base,2021.2.3,Win32,59.88023952,,,41,0,41,0,1,,,,,,,,
,,"[""circle"",""red"",""hori"",""left"",[-150,0],[0,150]]",circle,red,hori,left,"[-150,0]","[0,150]",left,1,0.8463,,,,,,001,2025-03-17_15h07.03.023,SL_base,2021.2.3,Win32,59.88023952,,,42,0,42,0,1,,,,,,,,
,,"[""diamond"",""red"",""vert"",""up"",[150,0],[0,150]]",diamond,red,vert,up,"[150,0]","[0,150]",up,1,2.0951,,,,,,001,2025-03-17_15h07.03.023,SL_base,2021.2.3,Win32,59.88023952,,,43,0,43,0,1,,,,,,,,
,,"[""diamond"",""no_dis"",""hori"",""left"",[99999,99999],[-106,106]]",diamond,no_dis,hori,left,"[99999,99999]","[-106,106]",left,1,0.67,,,,,,001,2025-03-17_15h07.03.023,SL_base,2021.2.3,Win32,59.88023952,,,44,0,44,0,1,,,,,,,,
,,"[""diamond"",""red"",""hori"",""left"",[0,-150],[106,-106]]",diamond,red,hori,left,"[0,-150]","[106,-106]",left,1,0.7983,,,,,,001,2025-03-17_15h07.03.023,SL_base,2021.2.3,Win32,59.88023952,,,45,0,45,0,1,,,,,,,,
,,"[""diamond"",""no_dis"",""hori"",""left"",[99999,99999],[106,-106]]",diamond,no_dis,hori,left,"[99999,99999]","[106,-106]",left,1,0.6745,,,,,,001,2025-03-17_15h07.03.023,SL_base,2021.2.3,Win32,59.88023952,,,46,0,46,0,1,,,,,,,,
,,"[""diamond"",""red"",""vert"",""up"",[0,-150],[-150,0]]",diamond,red,vert,up,"[0,-150]","[-150,0]",up,1,0.7091,,,,,,001,2025-03-17_15h07.03.023,SL_base,2021.2.3,Win32,59.88023952,,,47,0,47,0,1,,,,,,,,
,,"[""diamond"",""no_dis"",""hori"",""left"",[99999,99999],[106,-106]]",diamond,no_dis,hori,left,"[99999,99999]","[106,-106]",left,1,0.8166,,,,,,001,2025-03-17_15h07.03.023,SL_base,2021.2.3,Win32,59.88023952,,,48,0,48,0,1,,,,,,,,
,,"[""diamond"",""green"",""hori"",""left"",[150,0],[0,150]]",diamond,green,hori,left,"[150,0]","[0,150]",left,1,0.5941,,,,,,001,2025-03-17_15h07.03.023,SL_base,2021.2.3,Win32,59.88023952,,,49,0,49,0,1,,,,,,,,
,,"[""diamond"",""green"",""hori"",""left"",[150,0],[0,-150]]",diamond,green,hori,left,"[150,0]","[0,-150]",left,1,0.7719,,,,,,001,2025-03-17_15h07.03.023,SL_base,2021.2.3,Win32,59.88023952,,,50,0,50,0,1,,,,,,,,
,,"[""circle"",""no_dis"",""hori"",""left"",[99999,99999],[0,-150]]",circle,no_dis,hori,left,"[99999,99999]","[0,-150]",left,1,0.9138,,,,,,001,2025-03-17_15h07.03.023,SL_base,2021.2.3,Win32,59.88023952,,,51,0,51,0,1,,,,,,,,
,,"[""circle"",""green"",""hori"",""left"",[0,150],[-150,0]]",circle,green,hori,left,"[0,150]","[-150,0]",left,1,1.0449,,,,,,001,2025-03-17_15h07.03.023,SL_base,2021.2.3,Win32,59.88023952,,,52,0,52,0,1,,,,,,,,
,,"[""circle"",""no_dis"",""vert"",""up"",[99999,99999],[0,150]]",circle,no_dis,vert,up,"[99999,99999]","[0,150]",up,1,0.6203,,,,,,001,2025-03-17_15h07.03.023,SL_base,2021.2.3,Win32,59.88023952,,,53,0,53,0,1,,,,,,,,
,,"[""circle"",""no_dis"",""hori"",""left"",[99999,99999],[0,150]]",circle,no_dis,hori,left,"[99999,99999]","[0,150]",left,1,0.7804,,,,,,001,2025-03-17_15h07.03.023,SL_base,2021.2.3,Win32,59.88023952,,,54,0,54,0,1,,,,,,,,
,,"[""circle"",""green"",""hori"",""left"",[106,-106],[150,0]]",circle,green,hori,left,"[106,-106]","[150,0]",left,1,0.7941,,,,,,001,2025-03-17_15h07.03.023,SL_base,2021.2.3,Win32,59.88023952,,,55,0,55,0,1,,,,,,,,
,,"[""circle"",""green"",""vert"",""up"",[-106,-106],[0,150]]",circle,green,vert,up,"[-106,-106]","[0,150]",up,1,0.7356,,,,,,001,2025-03-17_15h07.03.023,SL_base,2021.2.3,Win32,59.88023952,,,56,0,56,0,1,,,,,,,,
,,"[""diamond"",""red"",""hori"",""left"",[0,150],[-106,106]]",diamond,red,hori,left,"[0,150]","[-106,106]",left,1,1.2984,,,,,,001,2025-03-17_15h07.03.023,SL_base,2021.2.3,Win32,59.88023952,,,57,0,57,0,1,,,,,,,,
,,"[""circle"",""no_dis"",""hori"",""left"",[99999,99999],[-106,-106]]",circle,no_dis,hori,left,"[99999,99999]","[-106,-106]",left,1,0.9074,,,,,,001,2025-03-17_15h07.03.023,SL_base,2021.2.3,Win32,59.88023952,,,58,0,58,0,1,,,,,,,,
,,"[""circle"",""no_dis"",""vert"",""up"",[99999,99999],[-106,106]]",circle,no_dis,vert,up,"[99999,99999]","[-106,106]",up,1,1.2754,,,,,,001,2025-03-17_15h07.03.023,SL_base,2021.2.3,Win32,59.88023952,,,59,0,59,0,1,,,,,,,,
,,"[""circle"",""green"",""hori"",""left"",[-106,106],[106,106]]",circle,green,hori,left,"[-106,106]","[106,106]",left,1,1.9808,,,,,,001,2025-03-17_15h07.03.023,SL_base,2021.2.3,Win32,59.88023952,,,60,0,60,0,1,,,,,,,,
,,"[""circle"",""red"",""hori"",""left"",[-150,0],[0,150]]",circle,red,hori,left,"[-150,0]","[0,150]",left,1,0.9755,,,,,,001,2025-03-17_15h07.03.023,SL_base,2021.2.3,Win32,59.88023952,,,61,0,61,0,1,,,,,,,,
,,"[""circle"",""no_dis"",""hori"",""left"",[99999,99999],[-106,106]]",circle,no_dis,hori,left,"[99999,99999]","[-106,106]",left,1,0.6448,,,,,,001,2025-03-17_15h07.03.023,SL_base,2021.2.3,Win32,59.88023952,,,62,0,62,0,1,,,,,,,,
,,"[""diamond"",""red"",""vert"",""up"",[150,0],[-106,-106]]",diamond,red,vert,up,"[150,0]","[-106,-106]",up,1,1.6095,,,,,,001,2025-03-17_15h07.03.023,SL_base,2021.2.3,Win32,59.88023952,,,63,0,63,0,1,,,,,,,,
,,"[""circle"",""no_dis"",""vert"",""up"",[99999,99999],[150,0]]",circle,no_dis,vert,up,"[99999,99999]","[150,0]",up,1,0.8761,,,,,,001,2025-03-17_15h07.03.023,SL_base,2021.2.3,Win32,59.88023952,,,64,0,64,0,1,,,,,,,,
,,"[""diamond"",""no_dis"",""hori"",""left"",[99999,99999],[0,-150]]",diamond,no_dis,hori,left,"[99999,99999]","[0,-150]",left,1,1.0484,,,,,,001,2025-03-17_15h07.03.023,SL_base,2021.2.3,Win32,59.88023952,,,65,0,65,0,1,,,,,,,,
,,"[""circle"",""no_dis"",""vert"",""up"",[99999,99999],[0,-150]]",circle,no_dis,vert,up,"[99999,99999]","[0,-150]",left,0,1.0271,,,,,,001,2025-03-17_15h07.03.023,SL_base,2021.2.3,Win32,59.88023952,,,66,0,66,0,1,,,,,,,,
,,"[""circle"",""no_dis"",""hori"",""left"",[99999,99999],[0,150]]",circle,no_dis,hori,left,"[99999,99999]","[0,150]",left,1,1.4258,,,,,,001,2025-03-17_15h07.03.023,SL_base,2021.2.3,Win32,59.88023952,,,67,0,67,0,1,,,,,,,,
,,"[""circle"",""red"",""vert"",""up"",[0,-150],[0,150]]",circle,red,vert,up,"[0,-150]","[0,150]",up,1,0.8568,,,,,,001,2025-03-17_15h07.03.023,SL_base,2021.2.3,Win32,59.88023952,,,68,0,68,0,1,,,,,,,,
,,"[""diamond"",""green"",""hori"",""left"",[106,-106],[150,0]]",diamond,green,hori,left,"[106,-106]","[150,0]",left,1,1.0148,,,,,,001,2025-03-17_15h07.03.023,SL_base,2021.2.3,Win32,59.88023952,,,69,0,69,0,1,,,,,,,,
,,"[""circle"",""no_dis"",""hori"",""left"",[99999,99999],[106,106]]",circle,no_dis,hori,left,"[99999,99999]","[106,106]",left,1,1.0289,,,,,,001,2025-03-17_15h07.03.023,SL_base,2021.2.3,Win32,59.88023952,,,70,0,70,0,1,,,,,,,,
,,"[""diamond"",""green"",""hori"",""left"",[150,0],[106,106]]",diamond,green,hori,left,"[150,0]","[106,106]",left,1,1.52,,,,,,001,2025-03-17_15h07.03.023,SL_base,2021.2.3,Win32,59.88023952,,,71,0,71,0,1,,,,,,,,
,,"[""circle"",""red"",""hori"",""left"",[150,0],[106,-106]]",circle,red,hori,left,"[150,0]","[106,-106]",left,1,0.8391,,,,,,001,2025-03-17_15h07.03.023,SL_base,2021.2.3,Win32,59.88023952,,,72,0,72,0,1,,,,,,,,
,,"[""circle"",""green"",""vert"",""up"",[-106,106],[-106,-106]]",circle,green,vert,up,"[-106,106]","[-106,-106]",up,1,0.9202,,,,,,001,2025-03-17_15h07.03.023,SL_base,2021.2.3,Win32,59.88023952,,,73,0,73,0,1,,,,,,,,
,,"[""circle"",""red"",""vert"",""up"",[106,106],[-150,0]]",circle,red,vert,up,"[106,106]","[-150,0]",up,1,0.8279,,,,,,001,2025-03-17_15h07.03.023,SL_base,2021.2.3,Win32,59.88023952,,,74,0,74,0,1,,,,,,,,
,,"[""diamond"",""green"",""vert"",""up"",[106,106],[0,-150]]",diamond,green,vert,up,"[106,106]","[0,-150]",up,1,1.2751,,,,,,001,2025-03-17_15h07.03.023,SL_base,2021.2.3,Win32,59.88023952,,,75,0,75,0,1,,,,,,,,
,,"[""diamond"",""green"",""vert"",""up"",[0,150],[150,0]]",diamond,green,vert,up,"[0,150]","[150,0]",up,1,0.6821,,,,,,001,2025-03-17_15h07.03.023,SL_base,2021.2.3,Win32,59.88023952,,,76,0,76,0,1,,,,,,,,
,,"[""diamond"",""green"",""vert"",""up"",[-106,-106],[0,150]]",diamond,green,vert,up,"[-106,-106]","[0,150]",up,1,0.6521,,,,,,001,2025-03-17_15h07.03.023,SL_base,2021.2.3,Win32,59.88023952,,,77,0,77,0,1,,,,,,,,
,,"[""circle"",""green"",""vert"",""up"",[106,106],[-150,0]]",circle,green,vert,up,"[106,106]","[-150,0]",up,1,1.7509,,,,,,001,2025-03-17_15h07.03.023,SL_base,2021.2.3,Win32,59.88023952,,,78,0,78,0,1,,,,,,,,
,,"[""diamond"",""green"",""hori"",""left"",[-106,-106],[106,106]]",diamond,green,hori,left,"[-106,-106]","[106,106]",left,1,1.0886,,,,,,001,2025-03-17_15h07.03.023,SL_base,2021.2.3,Win32,59.88023952,,,79,0,79,0,1,,,,,,,,
,,"[""diamond"",""no_dis"",""vert"",""up"",[99999,99999],[106,-106]]",diamond,no_dis,vert,up,"[99999,99999]","[106,-106]",up,1,0.8451,,,,,,001,2025-03-17_15h07.03.023,SL_base,2021.2.3,Win32,59.88023952,,,80,0,80,0,1,,,,,,,,
,,"[""circle"",""red"",""hori"",""left"",[-106,-106],[-106,106]]",circle,red,hori,left,"[-106,-106]","[-106,106]",left,1,1.1125,,,,,,001,2025-03-17_15h07.03.023,SL_base,2021.2.3,Win32,59.88023952,,,81,0,81,0,1,,,,,,,,
,,"[""diamond"",""red"",""hori"",""left"",[106,106],[150,0]]",diamond,red,hori,left,"[106,106]","[150,0]",left,1,1.0275,,,,,,001,2025-03-17_15h07.03.023,SL_base,2021.2.3,Win32,59.88023952,,,82,0,82,0,1,,,,,,,,
,,"[""diamond"",""no_dis"",""vert"",""up"",[99999,99999],[-150,0]]",diamond,no_dis,vert,up,"[99999,99999]","[-150,0]",up,1,0.7093,,,,,,001,2025-03-17_15h07.03.023,SL_base,2021.2.3,Win32,59.88023952,,,83,0,83,0,1,,,,,,,,
,,"[""diamond"",""no_dis"",""hori"",""left"",[99999,99999],[-106,106]]",diamond,no_dis,hori,left,"[99999,99999]","[-106,106]",left,1,1.1129,,,,,,001,2025-03-17_15h07.03.023,SL_base,2021.2.3,Win32,59.88023952,,,84,0,84,0,1,,,,,,,,
,,"[""circle"",""red"",""hori"",""left"",[-106,106],[0,-150]]",circle,red,hori,left,"[-106,106]","[0,-150]",left,1,1.1678,,,,,,001,2025-03-17_15h07.03.023,SL_base,2021.2.3,Win32,59.88023952,,,85,0,85,0,1,,,,,,,,
,,"[""circle"",""green"",""vert"",""up"",[106,-106],[0,-150]]",circle,green,vert,up,"[106,-106]","[0,-150]",up,1,1.0696,,,,,,001,2025-03-17_15h07.03.023,SL_base,2021.2.3,Win32,59.88023952,,,86,0,86,0,1,,,,,,,,
,,"[""diamond"",""red"",""vert"",""up"",[0,150],[-150,0]]",diamond,red,vert,up,"[0,150]","[-150,0]",up,1,0.8855,,,,,,001,2025-03-17_15h07.03.023,SL_base,2021.2.3,Win32,59.88023952,,,87,0,87,0,1,,,,,,,,
,,"[""circle"",""no_dis"",""vert"",""up"",[99999,99999],[0,-150]]",circle,no_dis,vert,up,"[99999,99999]","[0,-150]",up,1,1.0254,,,,,,001,2025-03-17_15h07.03.023,SL_base,2021.2.3,Win32,59.88023952,,,88,0,88,0,1,,,,,,,,
,,"[""circle"",""red"",""hori"",""left"",[106,106],[0,-150]]",circle,red,hori,left,"[106,106]","[0,-150]",left,1,1.4116,,,,,,001,2025-03-17_15h07.03.023,SL_base,2021.2.3,Win32,59.88023952,,,89,0,89,0,1,,,,,,,,
,,"[""diamond"",""green"",""hori"",""left"",[0,150],[-106,106]]",diamond,green,hori,left,"[0,150]","[-106,106]",left,1,1.258,,,,,,001,2025-03-17_15h07.03.023,SL_base,2021.2.3,Win32,59.88023952,,,90,0,90,0,1,,,,,,,,
