﻿key_resp.keys,key_resp.rt,trial_para,tar_shape,dis_color_condi,tar_line,cor_resp,dis_loc,tar_loc,resp.keys,resp.corr,resp.rt,trials.thisRepN,trials.thisTrialN,trials.thisN,trials.thisIndex,trials.ran,participant,date,expName,psychopyVersion,OS,frameRate,key_resp_2.keys,key_resp_2.rt,trials_2.thisRepN,trials_2.thisTrialN,trials_2.thisN,trials_2.thisIndex,trials_2.ran,block_num,key_resp_3.keys,key_resp_3.rt,trials_3.thisRepN,trials_3.thisTrialN,trials_3.thisN,trials_3.thisIndex,trials_3.ran
space,27.511,"[""circle"",""green"",""hori"",""left"",[-106,-106],[106,-106]]",circle,green,hori,left,"[-106,-106]","[106,-106]",left,1,2.2419,0,0,0,0,1,001,2025-03-17_12h03.36.087,SL_base_41,2021.2.3,Win32,144.9275362,,,,,,,,,,,,,,,
,,"[""diamond"",""green"",""hori"",""left"",[106,106],[150,0]]",diamond,green,hori,left,"[106,106]","[150,0]",up,0,2.2602,1,0,1,0,1,001,2025-03-17_12h03.36.087,SL_base_41,2021.2.3,Win32,144.9275362,,,,,,,,,,,,,,,
,,"[""circle"",""no_dis"",""hori"",""left"",[99999,99999],[-106,-106]]",circle,no_dis,hori,left,"[99999,99999]","[-106,-106]",left,1,1.6734,2,0,2,0,1,001,2025-03-17_12h03.36.087,SL_base_41,2021.2.3,Win32,144.9275362,,,,,,,,,,,,,,,
,,"[""circle"",""red"",""vert"",""up"",[-106,106],[-150,0]]",circle,red,vert,up,"[-106,106]","[-150,0]",left,0,1.7445,3,0,3,0,1,001,2025-03-17_12h03.36.087,SL_base_41,2021.2.3,Win32,144.9275362,,,,,,,,,,,,,,,
,,"[""diamond"",""green"",""hori"",""left"",[106,106],[-106,106]]",diamond,green,hori,left,"[106,106]","[-106,106]",left,1,2.3062,4,0,4,0,1,001,2025-03-17_12h03.36.087,SL_base_41,2021.2.3,Win32,144.9275362,,,,,,,,,,,,,,,
,,"[""circle"",""red"",""vert"",""up"",[106,106],[-106,-106]]",circle,red,vert,up,"[106,106]","[-106,-106]",up,1,1.6193,5,0,5,0,1,001,2025-03-17_12h03.36.087,SL_base_41,2021.2.3,Win32,144.9275362,,,,,,,,,,,,,,,
,,"[""diamond"",""red"",""vert"",""up"",[-106,106],[106,106]]",diamond,red,vert,up,"[-106,106]","[106,106]",up,1,1.9639,6,0,6,0,1,001,2025-03-17_12h03.36.087,SL_base_41,2021.2.3,Win32,144.9275362,,,,,,,,,,,,,,,
,,"[""diamond"",""no_dis"",""vert"",""up"",[99999,99999],[-150,0]]",diamond,no_dis,vert,up,"[99999,99999]","[-150,0]",up,1,1.2725,7,0,7,0,1,001,2025-03-17_12h03.36.087,SL_base_41,2021.2.3,Win32,144.9275362,,,,,,,,,,,,,,,
,,"[""diamond"",""green"",""vert"",""up"",[-150,0],[150,0]]",diamond,green,vert,up,"[-150,0]","[150,0]",up,1,1.1187,8,0,8,0,1,001,2025-03-17_12h03.36.087,SL_base_41,2021.2.3,Win32,144.9275362,,,,,,,,,,,,,,,
,,"[""circle"",""red"",""hori"",""left"",[-106,106],[-106,-106]]",circle,red,hori,left,"[-106,106]","[-106,-106]",left,1,1.94,9,0,9,0,1,001,2025-03-17_12h03.36.087,SL_base_41,2021.2.3,Win32,144.9275362,,,,,,,,,,,,,,,
,,"[""circle"",""green"",""hori"",""left"",[-106,-106],[106,-106]]",circle,green,hori,left,"[-106,-106]","[106,-106]",left,1,1.2355,,,,,,001,2025-03-17_12h03.36.087,SL_base_41,2021.2.3,Win32,144.9275362,space,18.81,0,0,0,0,1,,,,,,,,
,,"[""diamond"",""green"",""hori"",""left"",[106,106],[150,0]]",diamond,green,hori,left,"[106,106]","[150,0]",up,0,1.8101,,,,,,001,2025-03-17_12h03.36.087,SL_base_41,2021.2.3,Win32,144.9275362,,,1,0,1,0,1,,,,,,,,
,,"[""circle"",""no_dis"",""hori"",""left"",[99999,99999],[-106,-106]]",circle,no_dis,hori,left,"[99999,99999]","[-106,-106]",left,1,1.986,,,,,,001,2025-03-17_12h03.36.087,SL_base_41,2021.2.3,Win32,144.9275362,,,2,0,2,0,1,,,,,,,,
,,"[""circle"",""red"",""vert"",""up"",[-106,106],[-150,0]]",circle,red,vert,up,"[-106,106]","[-150,0]",up,1,2.0937,,,,,,001,2025-03-17_12h03.36.087,SL_base_41,2021.2.3,Win32,144.9275362,,,3,0,3,0,1,,,,,,,,
,,"[""diamond"",""green"",""hori"",""left"",[106,106],[-106,106]]",diamond,green,hori,left,"[106,106]","[-106,106]",left,1,1.4364,,,,,,001,2025-03-17_12h03.36.087,SL_base_41,2021.2.3,Win32,144.9275362,,,4,0,4,0,1,,,,,,,,
,,"[""circle"",""red"",""vert"",""up"",[106,106],[-106,-106]]",circle,red,vert,up,"[106,106]","[-106,-106]",up,1,1.4909,,,,,,001,2025-03-17_12h03.36.087,SL_base_41,2021.2.3,Win32,144.9275362,,,5,0,5,0,1,,,,,,,,
,,"[""diamond"",""red"",""vert"",""up"",[-106,106],[106,106]]",diamond,red,vert,up,"[-106,106]","[106,106]",up,1,1.3948,,,,,,001,2025-03-17_12h03.36.087,SL_base_41,2021.2.3,Win32,144.9275362,,,6,0,6,0,1,,,,,,,,
,,"[""diamond"",""no_dis"",""vert"",""up"",[99999,99999],[-150,0]]",diamond,no_dis,vert,up,"[99999,99999]","[-150,0]",up,1,1.7798,,,,,,001,2025-03-17_12h03.36.087,SL_base_41,2021.2.3,Win32,144.9275362,,,7,0,7,0,1,,,,,,,,
,,"[""diamond"",""green"",""vert"",""up"",[-150,0],[150,0]]",diamond,green,vert,up,"[-150,0]","[150,0]",up,1,1.3341,,,,,,001,2025-03-17_12h03.36.087,SL_base_41,2021.2.3,Win32,144.9275362,,,8,0,8,0,1,,,,,,,,
,,"[""circle"",""red"",""hori"",""left"",[-106,106],[-106,-106]]",circle,red,hori,left,"[-106,106]","[-106,-106]",left,1,1.1898,,,,,,001,2025-03-17_12h03.36.087,SL_base_41,2021.2.3,Win32,144.9275362,,,9,0,9,0,1,,,,,,,,
,,"[""diamond"",""red"",""hori"",""left"",[-106,106],[0,-150]]",diamond,red,hori,left,"[-106,106]","[0,-150]",up,0,1.7584,,,,,,001,2025-03-17_12h03.36.087,SL_base_41,2021.2.3,Win32,144.9275362,,,10,0,10,0,1,,,,,,,,
,,"[""diamond"",""green"",""vert"",""up"",[-106,-106],[0,-150]]",diamond,green,vert,up,"[-106,-106]","[0,-150]",up,1,1.0501,,,,,,001,2025-03-17_12h03.36.087,SL_base_41,2021.2.3,Win32,144.9275362,,,11,0,11,0,1,,,,,,,,
,,"[""circle"",""green"",""vert"",""up"",[0,-150],[150,0]]",circle,green,vert,up,"[0,-150]","[150,0]",left,0,2.0746,,,,,,001,2025-03-17_12h03.36.087,SL_base_41,2021.2.3,Win32,144.9275362,,,12,0,12,0,1,,,,,,,,
,,"[""circle"",""green"",""vert"",""up"",[106,-106],[-150,0]]",circle,green,vert,up,"[106,-106]","[-150,0]",up,1,1.4844,,,,,,001,2025-03-17_12h03.36.087,SL_base_41,2021.2.3,Win32,144.9275362,,,13,0,13,0,1,,,,,,,,
,,"[""diamond"",""green"",""hori"",""left"",[106,106],[0,-150]]",diamond,green,hori,left,"[106,106]","[0,-150]",left,1,1.7689,,,,,,001,2025-03-17_12h03.36.087,SL_base_41,2021.2.3,Win32,144.9275362,,,14,0,14,0,1,,,,,,,,
,,"[""diamond"",""no_dis"",""hori"",""left"",[99999,99999],[150,0]]",diamond,no_dis,hori,left,"[99999,99999]","[150,0]",left,1,1.4125,,,,,,001,2025-03-17_12h03.36.087,SL_base_41,2021.2.3,Win32,144.9275362,,,15,0,15,0,1,,,,,,,,
,,"[""diamond"",""green"",""vert"",""up"",[106,106],[-106,-106]]",diamond,green,vert,up,"[106,106]","[-106,-106]",up,1,0.9864,,,,,,001,2025-03-17_12h03.36.087,SL_base_41,2021.2.3,Win32,144.9275362,,,16,0,16,0,1,,,,,,,,
,,"[""diamond"",""green"",""vert"",""up"",[106,106],[106,-106]]",diamond,green,vert,up,"[106,106]","[106,-106]",up,1,1.6244,,,,,,001,2025-03-17_12h03.36.087,SL_base_41,2021.2.3,Win32,144.9275362,,,17,0,17,0,1,,,,,,,,
,,"[""circle"",""red"",""hori"",""left"",[0,150],[106,-106]]",circle,red,hori,left,"[0,150]","[106,-106]",left,1,1.2841,,,,,,001,2025-03-17_12h03.36.087,SL_base_41,2021.2.3,Win32,144.9275362,,,18,0,18,0,1,,,,,,,,
,,"[""diamond"",""green"",""vert"",""up"",[106,106],[106,-106]]",diamond,green,vert,up,"[106,106]","[106,-106]",up,1,0.9453,,,,,,001,2025-03-17_12h03.36.087,SL_base_41,2021.2.3,Win32,144.9275362,,,19,0,19,0,1,,,,,,,,
,,"[""circle"",""red"",""hori"",""left"",[-106,106],[150,0]]",circle,red,hori,left,"[-106,106]","[150,0]",left,1,1.7322,,,,,,001,2025-03-17_12h03.36.087,SL_base_41,2021.2.3,Win32,144.9275362,,,20,0,20,0,1,,,,,,,,
,,"[""diamond"",""red"",""hori"",""left"",[0,-150],[-106,-106]]",diamond,red,hori,left,"[0,-150]","[-106,-106]",up,0,1.2192,,,,,,001,2025-03-17_12h03.36.087,SL_base_41,2021.2.3,Win32,144.9275362,,,21,0,21,0,1,,,,,,,,
,,"[""diamond"",""red"",""hori"",""left"",[106,106],[150,0]]",diamond,red,hori,left,"[106,106]","[150,0]",up,0,1.3562,,,,,,001,2025-03-17_12h03.36.087,SL_base_41,2021.2.3,Win32,144.9275362,,,22,0,22,0,1,,,,,,,,
,,"[""diamond"",""no_dis"",""hori"",""left"",[99999,99999],[-106,106]]",diamond,no_dis,hori,left,"[99999,99999]","[-106,106]",left,1,1.5975,,,,,,001,2025-03-17_12h03.36.087,SL_base_41,2021.2.3,Win32,144.9275362,,,23,0,23,0,1,,,,,,,,
,,"[""circle"",""green"",""hori"",""left"",[106,106],[106,-106]]",circle,green,hori,left,"[106,106]","[106,-106]",left,1,1.4691,,,,,,001,2025-03-17_12h03.36.087,SL_base_41,2021.2.3,Win32,144.9275362,,,24,0,24,0,1,,,,,,,,
,,"[""diamond"",""red"",""hori"",""left"",[106,106],[0,-150]]",diamond,red,hori,left,"[106,106]","[0,-150]",left,1,1.3748,,,,,,001,2025-03-17_12h03.36.087,SL_base_41,2021.2.3,Win32,144.9275362,,,25,0,25,0,1,,,,,,,,
,,"[""circle"",""no_dis"",""vert"",""up"",[99999,99999],[-106,106]]",circle,no_dis,vert,up,"[99999,99999]","[-106,106]",up,1,1.2909,,,,,,001,2025-03-17_12h03.36.087,SL_base_41,2021.2.3,Win32,144.9275362,,,26,0,26,0,1,,,,,,,,
,,"[""diamond"",""green"",""vert"",""up"",[0,-150],[-150,0]]",diamond,green,vert,up,"[0,-150]","[-150,0]",up,1,2.0376,,,,,,001,2025-03-17_12h03.36.087,SL_base_41,2021.2.3,Win32,144.9275362,,,27,0,27,0,1,,,,,,,,
,,"[""circle"",""no_dis"",""vert"",""up"",[99999,99999],[-106,106]]",circle,no_dis,vert,up,"[99999,99999]","[-106,106]",up,1,1.8213,,,,,,001,2025-03-17_12h03.36.087,SL_base_41,2021.2.3,Win32,144.9275362,,,28,0,28,0,1,,,,,,,,
,,"[""diamond"",""green"",""hori"",""left"",[-150,0],[0,-150]]",diamond,green,hori,left,"[-150,0]","[0,-150]",left,1,1.3754,,,,,,001,2025-03-17_12h03.36.087,SL_base_41,2021.2.3,Win32,144.9275362,,,29,0,29,0,1,,,,,,,,
,,"[""circle"",""red"",""vert"",""up"",[106,-106],[0,-150]]",circle,red,vert,up,"[106,-106]","[0,-150]",up,1,1.8009,,,,,,001,2025-03-17_12h03.36.087,SL_base_41,2021.2.3,Win32,144.9275362,,,30,0,30,0,1,,,,,,,,
,,"[""diamond"",""no_dis"",""hori"",""left"",[99999,99999],[0,150]]",diamond,no_dis,hori,left,"[99999,99999]","[0,150]",left,1,1.4986,,,,,,001,2025-03-17_12h03.36.087,SL_base_41,2021.2.3,Win32,144.9275362,,,31,0,31,0,1,,,,,,,,
,,"[""diamond"",""no_dis"",""vert"",""up"",[99999,99999],[-106,-106]]",diamond,no_dis,vert,up,"[99999,99999]","[-106,-106]",up,1,1.062,,,,,,001,2025-03-17_12h03.36.087,SL_base_41,2021.2.3,Win32,144.9275362,,,32,0,32,0,1,,,,,,,,
,,"[""circle"",""no_dis"",""hori"",""left"",[99999,99999],[-106,106]]",circle,no_dis,hori,left,"[99999,99999]","[-106,106]",left,1,1.4001,,,,,,001,2025-03-17_12h03.36.087,SL_base_41,2021.2.3,Win32,144.9275362,,,33,0,33,0,1,,,,,,,,
,,"[""diamond"",""red"",""hori"",""left"",[106,106],[-106,-106]]",diamond,red,hori,left,"[106,106]","[-106,-106]",left,1,1.9293,,,,,,001,2025-03-17_12h03.36.087,SL_base_41,2021.2.3,Win32,144.9275362,,,34,0,34,0,1,,,,,,,,
,,"[""circle"",""red"",""vert"",""up"",[150,0],[0,-150]]",circle,red,vert,up,"[150,0]","[0,-150]",up,1,1.4973,,,,,,001,2025-03-17_12h03.36.087,SL_base_41,2021.2.3,Win32,144.9275362,,,35,0,35,0,1,,,,,,,,
,,"[""diamond"",""red"",""hori"",""left"",[0,150],[106,-106]]",diamond,red,hori,left,"[0,150]","[106,-106]",left,1,2.2691,,,,,,001,2025-03-17_12h03.36.087,SL_base_41,2021.2.3,Win32,144.9275362,,,36,0,36,0,1,,,,,,,,
,,"[""circle"",""no_dis"",""hori"",""left"",[99999,99999],[106,-106]]",circle,no_dis,hori,left,"[99999,99999]","[106,-106]",left,1,1.79,,,,,,001,2025-03-17_12h03.36.087,SL_base_41,2021.2.3,Win32,144.9275362,,,37,0,37,0,1,,,,,,,,
,,"[""diamond"",""green"",""hori"",""left"",[0,150],[106,-106]]",diamond,green,hori,left,"[0,150]","[106,-106]",left,1,1.6849,,,,,,001,2025-03-17_12h03.36.087,SL_base_41,2021.2.3,Win32,144.9275362,,,38,0,38,0,1,,,,,,,,
,,"[""diamond"",""no_dis"",""vert"",""up"",[99999,99999],[150,0]]",diamond,no_dis,vert,up,"[99999,99999]","[150,0]",up,1,1.0052,,,,,,001,2025-03-17_12h03.36.087,SL_base_41,2021.2.3,Win32,144.9275362,,,39,0,39,0,1,,,,,,,,
,,"[""circle"",""red"",""vert"",""up"",[-106,-106],[0,150]]",circle,red,vert,up,"[-106,-106]","[0,150]",up,1,1.3328,,,,,,001,2025-03-17_12h03.36.087,SL_base_41,2021.2.3,Win32,144.9275362,,,40,0,40,0,1,,,,,,,,
,,"[""diamond"",""red"",""vert"",""up"",[106,-106],[-150,0]]",diamond,red,vert,up,"[106,-106]","[-150,0]",up,1,1.5241,,,,,,001,2025-03-17_12h03.36.087,SL_base_41,2021.2.3,Win32,144.9275362,,,41,0,41,0,1,,,,,,,,
,,"[""diamond"",""red"",""hori"",""left"",[106,106],[-106,106]]",diamond,red,hori,left,"[106,106]","[-106,106]",up,0,1.0855,,,,,,001,2025-03-17_12h03.36.087,SL_base_41,2021.2.3,Win32,144.9275362,,,42,0,42,0,1,,,,,,,,
,,"[""diamond"",""no_dis"",""hori"",""left"",[99999,99999],[150,0]]",diamond,no_dis,hori,left,"[99999,99999]","[150,0]",left,1,1.4957,,,,,,001,2025-03-17_12h03.36.087,SL_base_41,2021.2.3,Win32,144.9275362,,,43,0,43,0,1,,,,,,,,
,,"[""diamond"",""green"",""hori"",""left"",[150,0],[0,150]]",diamond,green,hori,left,"[150,0]","[0,150]",left,1,1.3207,,,,,,001,2025-03-17_12h03.36.087,SL_base_41,2021.2.3,Win32,144.9275362,,,44,0,44,0,1,,,,,,,,
,,"[""circle"",""no_dis"",""hori"",""left"",[99999,99999],[106,106]]",circle,no_dis,hori,left,"[99999,99999]","[106,106]",left,1,1.8358,,,,,,001,2025-03-17_12h03.36.087,SL_base_41,2021.2.3,Win32,144.9275362,,,45,0,45,0,1,,,,,,,,
,,"[""circle"",""red"",""hori"",""left"",[106,106],[106,-106]]",circle,red,hori,left,"[106,106]","[106,-106]",left,1,1.5674,,,,,,001,2025-03-17_12h03.36.087,SL_base_41,2021.2.3,Win32,144.9275362,,,46,0,46,0,1,,,,,,,,
,,"[""circle"",""red"",""hori"",""left"",[106,106],[150,0]]",circle,red,hori,left,"[106,106]","[150,0]",up,0,1.237,,,,,,001,2025-03-17_12h03.36.087,SL_base_41,2021.2.3,Win32,144.9275362,,,47,0,47,0,1,,,,,,,,
,,"[""circle"",""green"",""hori"",""left"",[106,106],[150,0]]",circle,green,hori,left,"[106,106]","[150,0]",left,1,1.5022,,,,,,001,2025-03-17_12h03.36.087,SL_base_41,2021.2.3,Win32,144.9275362,,,48,0,48,0,1,,,,,,,,
,,"[""diamond"",""green"",""vert"",""up"",[106,106],[-106,106]]",diamond,green,vert,up,"[106,106]","[-106,106]",up,1,1.4894,,,,,,001,2025-03-17_12h03.36.087,SL_base_41,2021.2.3,Win32,144.9275362,,,49,0,49,0,1,,,,,,,,
,,"[""diamond"",""no_dis"",""vert"",""up"",[99999,99999],[106,106]]",diamond,no_dis,vert,up,"[99999,99999]","[106,106]",up,1,1.4536,,,,,,001,2025-03-17_12h03.36.087,SL_base_41,2021.2.3,Win32,144.9275362,,,50,0,50,0,1,,,,,,,,
,,"[""circle"",""green"",""vert"",""up"",[-106,-106],[150,0]]",circle,green,vert,up,"[-106,-106]","[150,0]",up,1,2.0493,,,,,,001,2025-03-17_12h03.36.087,SL_base_41,2021.2.3,Win32,144.9275362,,,51,0,51,0,1,,,,,,,,
,,"[""circle"",""no_dis"",""vert"",""up"",[99999,99999],[150,0]]",circle,no_dis,vert,up,"[99999,99999]","[150,0]",up,1,1.1246,,,,,,001,2025-03-17_12h03.36.087,SL_base_41,2021.2.3,Win32,144.9275362,,,52,0,52,0,1,,,,,,,,
,,"[""diamond"",""green"",""vert"",""up"",[150,0],[-106,106]]",diamond,green,vert,up,"[150,0]","[-106,106]",up,1,1.6791,,,,,,001,2025-03-17_12h03.36.087,SL_base_41,2021.2.3,Win32,144.9275362,,,53,0,53,0,1,,,,,,,,
,,"[""circle"",""green"",""hori"",""left"",[-150,0],[106,106]]",circle,green,hori,left,"[-150,0]","[106,106]",left,1,1.8368,,,,,,001,2025-03-17_12h03.36.087,SL_base_41,2021.2.3,Win32,144.9275362,,,54,0,54,0,1,,,,,,,,
,,"[""diamond"",""green"",""hori"",""left"",[-106,-106],[-106,106]]",diamond,green,hori,left,"[-106,-106]","[-106,106]",up,0,1.4987,,,,,,001,2025-03-17_12h03.36.087,SL_base_41,2021.2.3,Win32,144.9275362,,,55,0,55,0,1,,,,,,,,
,,"[""circle"",""green"",""vert"",""up"",[0,150],[-106,-106]]",circle,green,vert,up,"[0,150]","[-106,-106]",up,1,1.4551,,,,,,001,2025-03-17_12h03.36.087,SL_base_41,2021.2.3,Win32,144.9275362,,,56,0,56,0,1,,,,,,,,
,,"[""diamond"",""no_dis"",""vert"",""up"",[99999,99999],[0,-150]]",diamond,no_dis,vert,up,"[99999,99999]","[0,-150]",up,1,1.2971,,,,,,001,2025-03-17_12h03.36.087,SL_base_41,2021.2.3,Win32,144.9275362,,,57,0,57,0,1,,,,,,,,
,,"[""circle"",""no_dis"",""hori"",""left"",[99999,99999],[-150,0]]",circle,no_dis,hori,left,"[99999,99999]","[-150,0]",left,1,2.1556,,,,,,001,2025-03-17_12h03.36.087,SL_base_41,2021.2.3,Win32,144.9275362,,,58,0,58,0,1,,,,,,,,
,,"[""diamond"",""red"",""vert"",""up"",[106,106],[0,150]]",diamond,red,vert,up,"[106,106]","[0,150]",up,1,1.3736,,,,,,001,2025-03-17_12h03.36.087,SL_base_41,2021.2.3,Win32,144.9275362,,,59,0,59,0,1,,,,,,,,
,,"[""circle"",""red"",""vert"",""up"",[106,106],[-106,-106]]",circle,red,vert,up,"[106,106]","[-106,-106]",up,1,1.647,,,,,,001,2025-03-17_12h03.36.087,SL_base_41,2021.2.3,Win32,144.9275362,,,60,0,60,0,1,,,,,,,,
,,"[""diamond"",""no_dis"",""hori"",""left"",[99999,99999],[-106,-106]]",diamond,no_dis,hori,left,"[99999,99999]","[-106,-106]",left,1,1.4173,,,,,,001,2025-03-17_12h03.36.087,SL_base_41,2021.2.3,Win32,144.9275362,,,61,0,61,0,1,,,,,,,,
,,"[""circle"",""no_dis"",""vert"",""up"",[99999,99999],[106,-106]]",circle,no_dis,vert,up,"[99999,99999]","[106,-106]",up,1,1.0519,,,,,,001,2025-03-17_12h03.36.087,SL_base_41,2021.2.3,Win32,144.9275362,,,62,0,62,0,1,,,,,,,,
,,"[""diamond"",""no_dis"",""hori"",""left"",[99999,99999],[106,106]]",diamond,no_dis,hori,left,"[99999,99999]","[106,106]",left,1,1.9363,,,,,,001,2025-03-17_12h03.36.087,SL_base_41,2021.2.3,Win32,144.9275362,,,63,0,63,0,1,,,,,,,,
,,"[""diamond"",""no_dis"",""vert"",""up"",[99999,99999],[-106,-106]]",diamond,no_dis,vert,up,"[99999,99999]","[-106,-106]",up,1,1.7728,,,,,,001,2025-03-17_12h03.36.087,SL_base_41,2021.2.3,Win32,144.9275362,,,64,0,64,0,1,,,,,,,,
,,"[""circle"",""red"",""vert"",""up"",[0,-150],[0,150]]",circle,red,vert,up,"[0,-150]","[0,150]",up,1,1.4257,,,,,,001,2025-03-17_12h03.36.087,SL_base_41,2021.2.3,Win32,144.9275362,,,65,0,65,0,1,,,,,,,,
,,"[""diamond"",""red"",""vert"",""up"",[0,-150],[150,0]]",diamond,red,vert,up,"[0,-150]","[150,0]",up,1,2.117,,,,,,001,2025-03-17_12h03.36.087,SL_base_41,2021.2.3,Win32,144.9275362,,,66,0,66,0,1,,,,,,,,
,,"[""circle"",""no_dis"",""hori"",""left"",[99999,99999],[0,150]]",circle,no_dis,hori,left,"[99999,99999]","[0,150]",left,1,2.0746,,,,,,001,2025-03-17_12h03.36.087,SL_base_41,2021.2.3,Win32,144.9275362,,,67,0,67,0,1,,,,,,,,
,,"[""circle"",""no_dis"",""vert"",""up"",[99999,99999],[106,-106]]",circle,no_dis,vert,up,"[99999,99999]","[106,-106]",up,1,2.3724,,,,,,001,2025-03-17_12h03.36.087,SL_base_41,2021.2.3,Win32,144.9275362,,,68,0,68,0,1,,,,,,,,
,,"[""diamond"",""red"",""vert"",""up"",[150,0],[-106,106]]",diamond,red,vert,up,"[150,0]","[-106,106]",up,1,1.3646,,,,,,001,2025-03-17_12h03.36.087,SL_base_41,2021.2.3,Win32,144.9275362,,,69,0,69,0,1,,,,,,,,
,,"[""diamond"",""red"",""hori"",""left"",[106,106],[106,-106]]",diamond,red,hori,left,"[106,106]","[106,-106]",left,1,1.5742,,,,,,001,2025-03-17_12h03.36.087,SL_base_41,2021.2.3,Win32,144.9275362,,,70,0,70,0,1,,,,,,,,
,,"[""circle"",""no_dis"",""vert"",""up"",[99999,99999],[0,-150]]",circle,no_dis,vert,up,"[99999,99999]","[0,-150]",left,0,1.4009,,,,,,001,2025-03-17_12h03.36.087,SL_base_41,2021.2.3,Win32,144.9275362,,,71,0,71,0,1,,,,,,,,
,,"[""diamond"",""red"",""vert"",""up"",[150,0],[-106,106]]",diamond,red,vert,up,"[150,0]","[-106,106]",up,1,1.3582,,,,,,001,2025-03-17_12h03.36.087,SL_base_41,2021.2.3,Win32,144.9275362,,,72,0,72,0,1,,,,,,,,
,,"[""diamond"",""no_dis"",""vert"",""up"",[99999,99999],[-150,0]]",diamond,no_dis,vert,up,"[99999,99999]","[-150,0]",up,1,1.6645,,,,,,001,2025-03-17_12h03.36.087,SL_base_41,2021.2.3,Win32,144.9275362,,,73,0,73,0,1,,,,,,,,
,,"[""circle"",""red"",""hori"",""left"",[-106,-106],[0,-150]]",circle,red,hori,left,"[-106,-106]","[0,-150]",left,1,1.2667,,,,,,001,2025-03-17_12h03.36.087,SL_base_41,2021.2.3,Win32,144.9275362,,,74,0,74,0,1,,,,,,,,
,,"[""circle"",""red"",""hori"",""left"",[106,106],[0,-150]]",circle,red,hori,left,"[106,106]","[0,-150]",left,1,1.3442,,,,,,001,2025-03-17_12h03.36.087,SL_base_41,2021.2.3,Win32,144.9275362,,,75,0,75,0,1,,,,,,,,
,,"[""circle"",""no_dis"",""vert"",""up"",[99999,99999],[106,106]]",circle,no_dis,vert,up,"[99999,99999]","[106,106]",up,1,1.2649,,,,,,001,2025-03-17_12h03.36.087,SL_base_41,2021.2.3,Win32,144.9275362,,,76,0,76,0,1,,,,,,,,
,,"[""circle"",""red"",""vert"",""up"",[0,150],[-106,-106]]",circle,red,vert,up,"[0,150]","[-106,-106]",left,0,2.1039,,,,,,001,2025-03-17_12h03.36.087,SL_base_41,2021.2.3,Win32,144.9275362,,,77,0,77,0,1,,,,,,,,
,,"[""diamond"",""green"",""hori"",""left"",[106,106],[-106,106]]",diamond,green,hori,left,"[106,106]","[-106,106]",left,1,1.4737,,,,,,001,2025-03-17_12h03.36.087,SL_base_41,2021.2.3,Win32,144.9275362,,,78,0,78,0,1,,,,,,,,
,,"[""diamond"",""no_dis"",""hori"",""left"",[99999,99999],[0,150]]",diamond,no_dis,hori,left,"[99999,99999]","[0,150]",left,1,1.6756,,,,,,001,2025-03-17_12h03.36.087,SL_base_41,2021.2.3,Win32,144.9275362,,,79,0,79,0,1,,,,,,,,
,,"[""circle"",""green"",""hori"",""left"",[0,-150],[-106,106]]",circle,green,hori,left,"[0,-150]","[-106,106]",left,1,1.8487,,,,,,001,2025-03-17_12h03.36.087,SL_base_41,2021.2.3,Win32,144.9275362,,,80,0,80,0,1,,,,,,,,
,,"[""diamond"",""red"",""vert"",""up"",[106,106],[-150,0]]",diamond,red,vert,up,"[106,106]","[-150,0]",up,1,1.4428,,,,,,001,2025-03-17_12h03.36.087,SL_base_41,2021.2.3,Win32,144.9275362,,,81,0,81,0,1,,,,,,,,
,,"[""diamond"",""red"",""vert"",""up"",[-106,106],[0,150]]",diamond,red,vert,up,"[-106,106]","[0,150]",up,1,1.7977,,,,,,001,2025-03-17_12h03.36.087,SL_base_41,2021.2.3,Win32,144.9275362,,,82,0,82,0,1,,,,,,,,
,,"[""circle"",""red"",""hori"",""left"",[106,106],[150,0]]",circle,red,hori,left,"[106,106]","[150,0]",left,1,2.1837,,,,,,001,2025-03-17_12h03.36.087,SL_base_41,2021.2.3,Win32,144.9275362,,,83,0,83,0,1,,,,,,,,
,,"[""circle"",""no_dis"",""vert"",""up"",[99999,99999],[106,-106]]",circle,no_dis,vert,up,"[99999,99999]","[106,-106]",up,1,1.1359,,,,,,001,2025-03-17_12h03.36.087,SL_base_41,2021.2.3,Win32,144.9275362,,,84,0,84,0,1,,,,,,,,
,,"[""diamond"",""no_dis"",""hori"",""left"",[99999,99999],[-150,0]]",diamond,no_dis,hori,left,"[99999,99999]","[-150,0]",left,1,1.2688,,,,,,001,2025-03-17_12h03.36.087,SL_base_41,2021.2.3,Win32,144.9275362,,,85,0,85,0,1,,,,,,,,
,,"[""circle"",""no_dis"",""vert"",""up"",[99999,99999],[0,-150]]",circle,no_dis,vert,up,"[99999,99999]","[0,-150]",up,1,1.4738,,,,,,001,2025-03-17_12h03.36.087,SL_base_41,2021.2.3,Win32,144.9275362,,,86,0,86,0,1,,,,,,,,
,,"[""circle"",""green"",""hori"",""left"",[-106,-106],[106,106]]",circle,green,hori,left,"[-106,-106]","[106,106]",left,1,1.3742,,,,,,001,2025-03-17_12h03.36.087,SL_base_41,2021.2.3,Win32,144.9275362,,,87,0,87,0,1,,,,,,,,
,,"[""diamond"",""green"",""hori"",""left"",[150,0],[-106,-106]]",diamond,green,hori,left,"[150,0]","[-106,-106]",left,1,1.1075,,,,,,001,2025-03-17_12h03.36.087,SL_base_41,2021.2.3,Win32,144.9275362,,,88,0,88,0,1,,,,,,,,
,,"[""diamond"",""red"",""hori"",""left"",[-150,0],[-106,106]]",diamond,red,hori,left,"[-150,0]","[-106,106]",left,1,1.1512,,,,,,001,2025-03-17_12h03.36.087,SL_base_41,2021.2.3,Win32,144.9275362,,,89,0,89,0,1,,,,,,,,
,,"[""diamond"",""no_dis"",""hori"",""left"",[99999,99999],[-150,0]]",diamond,no_dis,hori,left,"[99999,99999]","[-150,0]",left,1,1.1606,,,,,,001,2025-03-17_12h03.36.087,SL_base_41,2021.2.3,Win32,144.9275362,,,90,0,90,0,1,,,,,,,,
,,"[""circle"",""no_dis"",""hori"",""left"",[99999,99999],[106,106]]",circle,no_dis,hori,left,"[99999,99999]","[106,106]",left,1,0.9842,,,,,,001,2025-03-17_12h03.36.087,SL_base_41,2021.2.3,Win32,144.9275362,,,91,0,91,0,1,,,,,,,,
,,"[""circle"",""green"",""vert"",""up"",[150,0],[0,-150]]",circle,green,vert,up,"[150,0]","[0,-150]",left,0,1.7314,,,,,,001,2025-03-17_12h03.36.087,SL_base_41,2021.2.3,Win32,144.9275362,,,92,0,92,0,1,,,,,,,,
,,"[""diamond"",""red"",""vert"",""up"",[106,-106],[0,150]]",diamond,red,vert,up,"[106,-106]","[0,150]",up,1,1.9424,,,,,,001,2025-03-17_12h03.36.087,SL_base_41,2021.2.3,Win32,144.9275362,,,93,0,93,0,1,,,,,,,,
,,"[""circle"",""green"",""vert"",""up"",[0,150],[0,-150]]",circle,green,vert,up,"[0,150]","[0,-150]",up,1,1.8101,,,,,,001,2025-03-17_12h03.36.087,SL_base_41,2021.2.3,Win32,144.9275362,,,94,0,94,0,1,,,,,,,,
,,"[""circle"",""green"",""hori"",""left"",[-106,106],[0,150]]",circle,green,hori,left,"[-106,106]","[0,150]",left,1,2.4933,,,,,,001,2025-03-17_12h03.36.087,SL_base_41,2021.2.3,Win32,144.9275362,,,95,0,95,0,1,,,,,,,,
,,"[""diamond"",""green"",""hori"",""left"",[106,106],[106,-106]]",diamond,green,hori,left,"[106,106]","[106,-106]",left,1,2.08,,,,,,001,2025-03-17_12h03.36.087,SL_base_41,2021.2.3,Win32,144.9275362,,,96,0,96,0,1,,,,,,,,
,,"[""diamond"",""green"",""vert"",""up"",[106,-106],[-106,106]]",diamond,green,vert,up,"[106,-106]","[-106,106]",up,1,1.0228,,,,,,001,2025-03-17_12h03.36.087,SL_base_41,2021.2.3,Win32,144.9275362,,,97,0,97,0,1,,,,,,,,
,,"[""circle"",""green"",""hori"",""left"",[0,-150],[106,-106]]",circle,green,hori,left,"[0,-150]","[106,-106]",left,1,1.3442,,,,,,001,2025-03-17_12h03.36.087,SL_base_41,2021.2.3,Win32,144.9275362,,,98,0,98,0,1,,,,,,,,
,,"[""diamond"",""red"",""vert"",""up"",[106,-106],[106,106]]",diamond,red,vert,up,"[106,-106]","[106,106]",up,1,2.6927,,,,,,001,2025-03-17_12h03.36.087,SL_base_41,2021.2.3,Win32,144.9275362,,,99,0,99,0,1,,,,,,,,
,,"[""circle"",""red"",""vert"",""up"",[-150,0],[150,0]]",circle,red,vert,up,"[-150,0]","[150,0]",up,1,1.3653,,,,,,001,2025-03-17_12h03.36.087,SL_base_41,2021.2.3,Win32,144.9275362,,,100,0,100,0,1,,,,,,,,
,,"[""circle"",""no_dis"",""vert"",""up"",[99999,99999],[150,0]]",circle,no_dis,vert,up,"[99999,99999]","[150,0]",up,1,1.3741,,,,,,001,2025-03-17_12h03.36.087,SL_base_41,2021.2.3,Win32,144.9275362,,,101,0,101,0,1,,,,,,,,
,,"[""diamond"",""red"",""vert"",""up"",[106,106],[0,150]]",diamond,red,vert,up,"[106,106]","[0,150]",up,1,2.2234,,,,,,001,2025-03-17_12h03.36.087,SL_base_41,2021.2.3,Win32,144.9275362,,,102,0,102,0,1,,,,,,,,
,,"[""diamond"",""green"",""vert"",""up"",[106,106],[150,0]]",diamond,green,vert,up,"[106,106]","[150,0]",up,1,1.3763,,,,,,001,2025-03-17_12h03.36.087,SL_base_41,2021.2.3,Win32,144.9275362,,,103,0,103,0,1,,,,,,,,
,,"[""circle"",""red"",""hori"",""left"",[106,106],[150,0]]",circle,red,hori,left,"[106,106]","[150,0]",left,1,1.957,,,,,,001,2025-03-17_12h03.36.087,SL_base_41,2021.2.3,Win32,144.9275362,,,104,0,104,0,1,,,,,,,,
,,"[""circle"",""green"",""hori"",""left"",[0,150],[150,0]]",circle,green,hori,left,"[0,150]","[150,0]",left,1,1.4811,,,,,,001,2025-03-17_12h03.36.087,SL_base_41,2021.2.3,Win32,144.9275362,,,105,0,105,0,1,,,,,,,,
,,"[""circle"",""green"",""hori"",""left"",[-106,106],[-150,0]]",circle,green,hori,left,"[-106,106]","[-150,0]",left,1,1.2939,,,,,,001,2025-03-17_12h03.36.087,SL_base_41,2021.2.3,Win32,144.9275362,,,106,0,106,0,1,,,,,,,,
,,"[""circle"",""no_dis"",""hori"",""left"",[99999,99999],[0,-150]]",circle,no_dis,hori,left,"[99999,99999]","[0,-150]",left,1,1.2232,,,,,,001,2025-03-17_12h03.36.087,SL_base_41,2021.2.3,Win32,144.9275362,,,107,0,107,0,1,,,,,,,,
,,"[""circle"",""red"",""vert"",""up"",[106,106],[-106,-106]]",circle,red,vert,up,"[106,106]","[-106,-106]",up,1,2.0361,,,,,,001,2025-03-17_12h03.36.087,SL_base_41,2021.2.3,Win32,144.9275362,,,108,0,108,0,1,,,,,,,,
,,"[""diamond"",""no_dis"",""hori"",""left"",[99999,99999],[0,-150]]",diamond,no_dis,hori,left,"[99999,99999]","[0,-150]",left,1,1.2613,,,,,,001,2025-03-17_12h03.36.087,SL_base_41,2021.2.3,Win32,144.9275362,,,109,0,109,0,1,,,,,,,,
,,"[""circle"",""red"",""hori"",""left"",[-150,0],[150,0]]",circle,red,hori,left,"[-150,0]","[150,0]",left,1,2.0336,,,,,,001,2025-03-17_12h03.36.087,SL_base_41,2021.2.3,Win32,144.9275362,,,110,0,110,0,1,,,,,,,,
,,"[""circle"",""green"",""vert"",""up"",[106,106],[-106,-106]]",circle,green,vert,up,"[106,106]","[-106,-106]",up,1,2.2069,,,,,,001,2025-03-17_12h03.36.087,SL_base_41,2021.2.3,Win32,144.9275362,,,111,0,111,0,1,,,,,,,,
,,"[""circle"",""green"",""hori"",""left"",[150,0],[-106,-106]]",circle,green,hori,left,"[150,0]","[-106,-106]",left,1,1.0484,,,,,,001,2025-03-17_12h03.36.087,SL_base_41,2021.2.3,Win32,144.9275362,,,112,0,112,0,1,,,,,,,,
,,"[""circle"",""green"",""vert"",""up"",[-150,0],[-106,106]]",circle,green,vert,up,"[-150,0]","[-106,106]",up,1,1.4202,,,,,,001,2025-03-17_12h03.36.087,SL_base_41,2021.2.3,Win32,144.9275362,,,113,0,113,0,1,,,,,,,,
,,"[""diamond"",""green"",""vert"",""up"",[-150,0],[-106,106]]",diamond,green,vert,up,"[-150,0]","[-106,106]",up,1,2.4958,,,,,,001,2025-03-17_12h03.36.087,SL_base_41,2021.2.3,Win32,144.9275362,,,114,0,114,0,1,,,,,,,,
,,"[""diamond"",""no_dis"",""vert"",""up"",[99999,99999],[-106,-106]]",diamond,no_dis,vert,up,"[99999,99999]","[-106,-106]",up,1,1.6746,,,,,,001,2025-03-17_12h03.36.087,SL_base_41,2021.2.3,Win32,144.9275362,,,115,0,115,0,1,,,,,,,,
,,"[""circle"",""red"",""vert"",""up"",[106,106],[-106,106]]",circle,red,vert,up,"[106,106]","[-106,106]",up,1,1.5549,,,,,,001,2025-03-17_12h03.36.087,SL_base_41,2021.2.3,Win32,144.9275362,,,116,0,116,0,1,,,,,,,,
,,"[""circle"",""green"",""vert"",""up"",[106,106],[-106,-106]]",circle,green,vert,up,"[106,106]","[-106,-106]",up,1,1.8499,,,,,,001,2025-03-17_12h03.36.087,SL_base_41,2021.2.3,Win32,144.9275362,,,117,0,117,0,1,,,,,,,,
,,"[""circle"",""no_dis"",""hori"",""left"",[99999,99999],[0,150]]",circle,no_dis,hori,left,"[99999,99999]","[0,150]",left,1,2.0773,,,,,,001,2025-03-17_12h03.36.087,SL_base_41,2021.2.3,Win32,144.9275362,,,118,0,118,0,1,,,,,,,,
,,"[""diamond"",""red"",""hori"",""left"",[0,-150],[150,0]]",diamond,red,hori,left,"[0,-150]","[150,0]",left,1,2.1083,,,,,,001,2025-03-17_12h03.36.087,SL_base_41,2021.2.3,Win32,144.9275362,,,119,0,119,0,1,,,,,,,,
,,"[""circle"",""green"",""vert"",""up"",[106,-106],[-106,-106]]",circle,green,vert,up,"[106,-106]","[-106,-106]",up,1,1.5173,,,,,,001,2025-03-17_12h03.36.087,SL_base_41,2021.2.3,Win32,144.9275362,,,120,0,120,0,1,,,,,,,,
,,"[""circle"",""green"",""vert"",""up"",[106,106],[106,-106]]",circle,green,vert,up,"[106,106]","[106,-106]",up,1,1.8562,,,,,,001,2025-03-17_12h03.36.087,SL_base_41,2021.2.3,Win32,144.9275362,,,121,0,121,0,1,,,,,,,,
,,"[""circle"",""no_dis"",""hori"",""left"",[99999,99999],[0,150]]",circle,no_dis,hori,left,"[99999,99999]","[0,150]",left,1,1.6246,,,,,,001,2025-03-17_12h03.36.087,SL_base_41,2021.2.3,Win32,144.9275362,,,122,0,122,0,1,,,,,,,,
,,"[""circle"",""red"",""hori"",""left"",[0,150],[-106,-106]]",circle,red,hori,left,"[0,150]","[-106,-106]",left,1,1.8719,,,,,,001,2025-03-17_12h03.36.087,SL_base_41,2021.2.3,Win32,144.9275362,,,123,0,123,0,1,,,,,,,,
,,"[""diamond"",""no_dis"",""vert"",""up"",[99999,99999],[106,-106]]",diamond,no_dis,vert,up,"[99999,99999]","[106,-106]",up,1,1.673,,,,,,001,2025-03-17_12h03.36.087,SL_base_41,2021.2.3,Win32,144.9275362,,,124,0,124,0,1,,,,,,,,
,,"[""diamond"",""green"",""hori"",""left"",[-106,-106],[106,-106]]",diamond,green,hori,left,"[-106,-106]","[106,-106]",left,1,2.4676,,,,,,001,2025-03-17_12h03.36.087,SL_base_41,2021.2.3,Win32,144.9275362,,,125,0,125,0,1,,,,,,,,
,,"[""diamond"",""red"",""hori"",""left"",[106,-106],[-106,106]]",diamond,red,hori,left,"[106,-106]","[-106,106]",left,1,1.7088,,,,,,001,2025-03-17_12h03.36.087,SL_base_41,2021.2.3,Win32,144.9275362,,,126,0,126,0,1,,,,,,,,
,,"[""diamond"",""no_dis"",""vert"",""up"",[99999,99999],[-106,106]]",diamond,no_dis,vert,up,"[99999,99999]","[-106,106]",up,1,1.0839,,,,,,001,2025-03-17_12h03.36.087,SL_base_41,2021.2.3,Win32,144.9275362,,,127,0,127,0,1,,,,,,,,
,,,,,,,,,,,,,,,,,001,2025-03-17_12h03.36.087,SL_base_41,2021.2.3,Win32,144.9275362,,,,,,,,1,space,5.633,0,0,0,0,1
,,"[""diamond"",""no_dis"",""hori"",""left"",[99999,99999],[0,150]]",diamond,no_dis,hori,left,"[99999,99999]","[0,150]",left,1,1.2737,,,,,,001,2025-03-17_12h03.36.087,SL_base_41,2021.2.3,Win32,144.9275362,,,0,0,0,0,1,,,,,,,,
,,"[""diamond"",""green"",""vert"",""up"",[-106,-106],[0,-150]]",diamond,green,vert,up,"[-106,-106]","[0,-150]",up,1,1.1192,,,,,,001,2025-03-17_12h03.36.087,SL_base_41,2021.2.3,Win32,144.9275362,,,1,0,1,0,1,,,,,,,,
,,"[""circle"",""green"",""vert"",""up"",[150,0],[0,-150]]",circle,green,vert,up,"[150,0]","[0,-150]",up,1,1.5888,,,,,,001,2025-03-17_12h03.36.087,SL_base_41,2021.2.3,Win32,144.9275362,,,2,0,2,0,1,,,,,,,,
,,"[""circle"",""red"",""hori"",""left"",[106,106],[150,0]]",circle,red,hori,left,"[106,106]","[150,0]",left,1,1.0861,,,,,,001,2025-03-17_12h03.36.087,SL_base_41,2021.2.3,Win32,144.9275362,,,3,0,3,0,1,,,,,,,,
,,"[""diamond"",""red"",""vert"",""up"",[150,0],[-106,106]]",diamond,red,vert,up,"[150,0]","[-106,106]",up,1,0.9898,,,,,,001,2025-03-17_12h03.36.087,SL_base_41,2021.2.3,Win32,144.9275362,,,4,0,4,0,1,,,,,,,,
,,"[""circle"",""green"",""vert"",""up"",[106,-106],[-150,0]]",circle,green,vert,up,"[106,-106]","[-150,0]",up,1,1.5944,,,,,,001,2025-03-17_12h03.36.087,SL_base_41,2021.2.3,Win32,144.9275362,,,5,0,5,0,1,,,,,,,,
,,"[""diamond"",""no_dis"",""vert"",""up"",[99999,99999],[106,106]]",diamond,no_dis,vert,up,"[99999,99999]","[106,106]",up,1,1.3416,,,,,,001,2025-03-17_12h03.36.087,SL_base_41,2021.2.3,Win32,144.9275362,,,6,0,6,0,1,,,,,,,,
,,"[""diamond"",""green"",""vert"",""up"",[106,-106],[-106,106]]",diamond,green,vert,up,"[106,-106]","[-106,106]",up,1,1.2876,,,,,,001,2025-03-17_12h03.36.087,SL_base_41,2021.2.3,Win32,144.9275362,,,7,0,7,0,1,,,,,,,,
,,"[""diamond"",""green"",""vert"",""up"",[106,106],[-106,106]]",diamond,green,vert,up,"[106,106]","[-106,106]",up,1,0.8273,,,,,,001,2025-03-17_12h03.36.087,SL_base_41,2021.2.3,Win32,144.9275362,,,8,0,8,0,1,,,,,,,,
,,"[""diamond"",""green"",""hori"",""left"",[106,106],[0,-150]]",diamond,green,hori,left,"[106,106]","[0,-150]",left,1,1.2655,,,,,,001,2025-03-17_12h03.36.087,SL_base_41,2021.2.3,Win32,144.9275362,,,9,0,9,0,1,,,,,,,,
,,"[""diamond"",""red"",""vert"",""up"",[106,-106],[106,106]]",diamond,red,vert,up,"[106,-106]","[106,106]",up,1,1.5681,,,,,,001,2025-03-17_12h03.36.087,SL_base_41,2021.2.3,Win32,144.9275362,,,10,0,10,0,1,,,,,,,,
,,"[""circle"",""green"",""vert"",""up"",[106,106],[-106,-106]]",circle,green,vert,up,"[106,106]","[-106,-106]",up,1,1.3139,,,,,,001,2025-03-17_12h03.36.087,SL_base_41,2021.2.3,Win32,144.9275362,,,11,0,11,0,1,,,,,,,,
,,"[""circle"",""green"",""hori"",""left"",[106,106],[150,0]]",circle,green,hori,left,"[106,106]","[150,0]",left,1,1.0325,,,,,,001,2025-03-17_12h03.36.087,SL_base_41,2021.2.3,Win32,144.9275362,,,12,0,12,0,1,,,,,,,,
,,"[""diamond"",""green"",""vert"",""up"",[-150,0],[-106,106]]",diamond,green,vert,up,"[-150,0]","[-106,106]",up,1,1.4765,,,,,,001,2025-03-17_12h03.36.087,SL_base_41,2021.2.3,Win32,144.9275362,,,13,0,13,0,1,,,,,,,,
,,"[""circle"",""no_dis"",""hori"",""left"",[99999,99999],[106,106]]",circle,no_dis,hori,left,"[99999,99999]","[106,106]",left,1,1.2636,,,,,,001,2025-03-17_12h03.36.087,SL_base_41,2021.2.3,Win32,144.9275362,,,14,0,14,0,1,,,,,,,,
,,"[""circle"",""red"",""vert"",""up"",[106,106],[-106,-106]]",circle,red,vert,up,"[106,106]","[-106,-106]",up,1,1.2772,,,,,,001,2025-03-17_12h03.36.087,SL_base_41,2021.2.3,Win32,144.9275362,,,15,0,15,0,1,,,,,,,,
,,"[""circle"",""no_dis"",""hori"",""left"",[99999,99999],[106,106]]",circle,no_dis,hori,left,"[99999,99999]","[106,106]",left,1,1.0502,,,,,,001,2025-03-17_12h03.36.087,SL_base_41,2021.2.3,Win32,144.9275362,,,16,0,16,0,1,,,,,,,,
,,"[""circle"",""no_dis"",""vert"",""up"",[99999,99999],[150,0]]",circle,no_dis,vert,up,"[99999,99999]","[150,0]",up,1,2.2842,,,,,,001,2025-03-17_12h03.36.087,SL_base_41,2021.2.3,Win32,144.9275362,,,17,0,17,0,1,,,,,,,,
,,"[""diamond"",""green"",""hori"",""left"",[106,106],[106,-106]]",diamond,green,hori,left,"[106,106]","[106,-106]",left,1,1.2291,,,,,,001,2025-03-17_12h03.36.087,SL_base_41,2021.2.3,Win32,144.9275362,,,18,0,18,0,1,,,,,,,,
,,"[""circle"",""red"",""vert"",""up"",[106,106],[-106,106]]",circle,red,vert,up,"[106,106]","[-106,106]",up,1,1.4268,,,,,,001,2025-03-17_12h03.36.087,SL_base_41,2021.2.3,Win32,144.9275362,,,19,0,19,0,1,,,,,,,,
,,"[""diamond"",""red"",""vert"",""up"",[-106,106],[0,150]]",diamond,red,vert,up,"[-106,106]","[0,150]",left,0,0.8074,,,,,,001,2025-03-17_12h03.36.087,SL_base_41,2021.2.3,Win32,144.9275362,,,20,0,20,0,1,,,,,,,,
,,"[""circle"",""green"",""vert"",""up"",[0,-150],[150,0]]",circle,green,vert,up,"[0,-150]","[150,0]",up,1,2.2508,,,,,,001,2025-03-17_12h03.36.087,SL_base_41,2021.2.3,Win32,144.9275362,,,21,0,21,0,1,,,,,,,,
,,"[""circle"",""green"",""vert"",""up"",[-150,0],[-106,106]]",circle,green,vert,up,"[-150,0]","[-106,106]",up,1,1.2319,,,,,,001,2025-03-17_12h03.36.087,SL_base_41,2021.2.3,Win32,144.9275362,,,22,0,22,0,1,,,,,,,,
,,"[""circle"",""red"",""vert"",""up"",[-106,-106],[0,150]]",circle,red,vert,up,"[-106,-106]","[0,150]",up,1,2.2446,,,,,,001,2025-03-17_12h03.36.087,SL_base_41,2021.2.3,Win32,144.9275362,,,23,0,23,0,1,,,,,,,,
,,"[""diamond"",""no_dis"",""vert"",""up"",[99999,99999],[-150,0]]",diamond,no_dis,vert,up,"[99999,99999]","[-150,0]",up,1,2.2151,,,,,,001,2025-03-17_12h03.36.087,SL_base_41,2021.2.3,Win32,144.9275362,,,24,0,24,0,1,,,,,,,,
,,"[""circle"",""red"",""hori"",""left"",[-106,106],[-106,-106]]",circle,red,hori,left,"[-106,106]","[-106,-106]",left,1,1.6148,,,,,,001,2025-03-17_12h03.36.087,SL_base_41,2021.2.3,Win32,144.9275362,,,25,0,25,0,1,,,,,,,,
,,"[""diamond"",""green"",""hori"",""left"",[-150,0],[0,-150]]",diamond,green,hori,left,"[-150,0]","[0,-150]",left,1,1.708,,,,,,001,2025-03-17_12h03.36.087,SL_base_41,2021.2.3,Win32,144.9275362,,,26,0,26,0,1,,,,,,,,
,,"[""circle"",""no_dis"",""vert"",""up"",[99999,99999],[106,-106]]",circle,no_dis,vert,up,"[99999,99999]","[106,-106]",up,1,1.5378,,,,,,001,2025-03-17_12h03.36.087,SL_base_41,2021.2.3,Win32,144.9275362,,,27,0,27,0,1,,,,,,,,
,,"[""diamond"",""no_dis"",""hori"",""left"",[99999,99999],[-150,0]]",diamond,no_dis,hori,left,"[99999,99999]","[-150,0]",left,1,1.7209,,,,,,001,2025-03-17_12h03.36.087,SL_base_41,2021.2.3,Win32,144.9275362,,,28,0,28,0,1,,,,,,,,
,,"[""circle"",""red"",""hori"",""left"",[0,150],[-106,-106]]",circle,red,hori,left,"[0,150]","[-106,-106]",left,1,1.8866,,,,,,001,2025-03-17_12h03.36.087,SL_base_41,2021.2.3,Win32,144.9275362,,,29,0,29,0,1,,,,,,,,
,,"[""circle"",""green"",""hori"",""left"",[-150,0],[106,106]]",circle,green,hori,left,"[-150,0]","[106,106]",left,1,1.2456,,,,,,001,2025-03-17_12h03.36.087,SL_base_41,2021.2.3,Win32,144.9275362,,,30,0,30,0,1,,,,,,,,
,,"[""diamond"",""green"",""hori"",""left"",[150,0],[0,150]]",diamond,green,hori,left,"[150,0]","[0,150]",left,1,1.2235,,,,,,001,2025-03-17_12h03.36.087,SL_base_41,2021.2.3,Win32,144.9275362,,,31,0,31,0,1,,,,,,,,
,,"[""diamond"",""no_dis"",""vert"",""up"",[99999,99999],[-106,-106]]",diamond,no_dis,vert,up,"[99999,99999]","[-106,-106]",up,1,1.9596,,,,,,001,2025-03-17_12h03.36.087,SL_base_41,2021.2.3,Win32,144.9275362,,,32,0,32,0,1,,,,,,,,
,,"[""circle"",""green"",""hori"",""left"",[0,-150],[-106,106]]",circle,green,hori,left,"[0,-150]","[-106,106]",left,1,1.2481,,,,,,001,2025-03-17_12h03.36.087,SL_base_41,2021.2.3,Win32,144.9275362,,,33,0,33,0,1,,,,,,,,
,,"[""circle"",""no_dis"",""vert"",""up"",[99999,99999],[-106,106]]",circle,no_dis,vert,up,"[99999,99999]","[-106,106]",up,1,1.1971,,,,,,001,2025-03-17_12h03.36.087,SL_base_41,2021.2.3,Win32,144.9275362,,,34,0,34,0,1,,,,,,,,
,,"[""circle"",""red"",""hori"",""left"",[0,150],[106,-106]]",circle,red,hori,left,"[0,150]","[106,-106]",left,1,1.394,,,,,,001,2025-03-17_12h03.36.087,SL_base_41,2021.2.3,Win32,144.9275362,,,35,0,35,0,1,,,,,,,,
,,"[""circle"",""red"",""vert"",""up"",[106,-106],[0,-150]]",circle,red,vert,up,"[106,-106]","[0,-150]",up,1,1.5911,,,,,,001,2025-03-17_12h03.36.087,SL_base_41,2021.2.3,Win32,144.9275362,,,36,0,36,0,1,,,,,,,,
,,"[""diamond"",""green"",""vert"",""up"",[150,0],[-106,106]]",diamond,green,vert,up,"[150,0]","[-106,106]",up,1,2.3261,,,,,,001,2025-03-17_12h03.36.087,SL_base_41,2021.2.3,Win32,144.9275362,,,37,0,37,0,1,,,,,,,,
,,"[""circle"",""red"",""vert"",""up"",[0,150],[-106,-106]]",circle,red,vert,up,"[0,150]","[-106,-106]",up,1,1.4406,,,,,,001,2025-03-17_12h03.36.087,SL_base_41,2021.2.3,Win32,144.9275362,,,38,0,38,0,1,,,,,,,,
,,"[""diamond"",""green"",""hori"",""left"",[106,106],[-106,106]]",diamond,green,hori,left,"[106,106]","[-106,106]",left,1,1.5756,,,,,,001,2025-03-17_12h03.36.087,SL_base_41,2021.2.3,Win32,144.9275362,,,39,0,39,0,1,,,,,,,,
,,"[""diamond"",""green"",""vert"",""up"",[106,106],[-106,-106]]",diamond,green,vert,up,"[106,106]","[-106,-106]",up,1,0.8878,,,,,,001,2025-03-17_12h03.36.087,SL_base_41,2021.2.3,Win32,144.9275362,,,40,0,40,0,1,,,,,,,,
,,"[""circle"",""no_dis"",""hori"",""left"",[99999,99999],[0,150]]",circle,no_dis,hori,left,"[99999,99999]","[0,150]",left,1,1.7772,,,,,,001,2025-03-17_12h03.36.087,SL_base_41,2021.2.3,Win32,144.9275362,,,41,0,41,0,1,,,,,,,,
,,"[""circle"",""no_dis"",""vert"",""up"",[99999,99999],[0,-150]]",circle,no_dis,vert,up,"[99999,99999]","[0,-150]",up,1,1.3341,,,,,,001,2025-03-17_12h03.36.087,SL_base_41,2021.2.3,Win32,144.9275362,,,42,0,42,0,1,,,,,,,,
,,"[""diamond"",""no_dis"",""hori"",""left"",[99999,99999],[-106,106]]",diamond,no_dis,hori,left,"[99999,99999]","[-106,106]",left,1,2.0396,,,,,,001,2025-03-17_12h03.36.087,SL_base_41,2021.2.3,Win32,144.9275362,,,43,0,43,0,1,,,,,,,,
,,"[""diamond"",""green"",""vert"",""up"",[106,106],[150,0]]",diamond,green,vert,up,"[106,106]","[150,0]",up,1,1.0316,,,,,,001,2025-03-17_12h03.36.087,SL_base_41,2021.2.3,Win32,144.9275362,,,44,0,44,0,1,,,,,,,,
,,"[""circle"",""green"",""hori"",""left"",[-106,106],[-150,0]]",circle,green,hori,left,"[-106,106]","[-150,0]",left,1,1.4342,,,,,,001,2025-03-17_12h03.36.087,SL_base_41,2021.2.3,Win32,144.9275362,,,45,0,45,0,1,,,,,,,,
,,"[""circle"",""no_dis"",""hori"",""left"",[99999,99999],[0,-150]]",circle,no_dis,hori,left,"[99999,99999]","[0,-150]",left,1,1.0787,,,,,,001,2025-03-17_12h03.36.087,SL_base_41,2021.2.3,Win32,144.9275362,,,46,0,46,0,1,,,,,,,,
,,"[""diamond"",""no_dis"",""hori"",""left"",[99999,99999],[0,150]]",diamond,no_dis,hori,left,"[99999,99999]","[0,150]",left,1,0.9527,,,,,,001,2025-03-17_12h03.36.087,SL_base_41,2021.2.3,Win32,144.9275362,,,47,0,47,0,1,,,,,,,,
,,"[""circle"",""green"",""hori"",""left"",[150,0],[-106,-106]]",circle,green,hori,left,"[150,0]","[-106,-106]",left,1,1.2067,,,,,,001,2025-03-17_12h03.36.087,SL_base_41,2021.2.3,Win32,144.9275362,,,48,0,48,0,1,,,,,,,,
,,"[""diamond"",""red"",""hori"",""left"",[-150,0],[-106,106]]",diamond,red,hori,left,"[-150,0]","[-106,106]",left,1,1.2092,,,,,,001,2025-03-17_12h03.36.087,SL_base_41,2021.2.3,Win32,144.9275362,,,49,0,49,0,1,,,,,,,,
,,"[""circle"",""green"",""vert"",""up"",[106,-106],[-106,-106]]",circle,green,vert,up,"[106,-106]","[-106,-106]",up,1,1.5144,,,,,,001,2025-03-17_12h03.36.087,SL_base_41,2021.2.3,Win32,144.9275362,,,50,0,50,0,1,,,,,,,,
,,"[""diamond"",""green"",""hori"",""left"",[150,0],[-106,-106]]",diamond,green,hori,left,"[150,0]","[-106,-106]",left,1,1.0668,,,,,,001,2025-03-17_12h03.36.087,SL_base_41,2021.2.3,Win32,144.9275362,,,51,0,51,0,1,,,,,,,,
,,"[""diamond"",""green"",""vert"",""up"",[106,106],[106,-106]]",diamond,green,vert,up,"[106,106]","[106,-106]",left,0,1.2099,,,,,,001,2025-03-17_12h03.36.087,SL_base_41,2021.2.3,Win32,144.9275362,,,52,0,52,0,1,,,,,,,,
,,"[""diamond"",""no_dis"",""hori"",""left"",[99999,99999],[150,0]]",diamond,no_dis,hori,left,"[99999,99999]","[150,0]",left,1,1.3098,,,,,,001,2025-03-17_12h03.36.087,SL_base_41,2021.2.3,Win32,144.9275362,,,53,0,53,0,1,,,,,,,,
,,"[""circle"",""no_dis"",""vert"",""up"",[99999,99999],[106,-106]]",circle,no_dis,vert,up,"[99999,99999]","[106,-106]",up,1,1.578,,,,,,001,2025-03-17_12h03.36.087,SL_base_41,2021.2.3,Win32,144.9275362,,,54,0,54,0,1,,,,,,,,
,,"[""circle"",""red"",""vert"",""up"",[0,-150],[0,150]]",circle,red,vert,up,"[0,-150]","[0,150]",up,1,1.4905,,,,,,001,2025-03-17_12h03.36.087,SL_base_41,2021.2.3,Win32,144.9275362,,,55,0,55,0,1,,,,,,,,
,,"[""diamond"",""green"",""hori"",""left"",[0,150],[106,-106]]",diamond,green,hori,left,"[0,150]","[106,-106]",left,1,1.5221,,,,,,001,2025-03-17_12h03.36.087,SL_base_41,2021.2.3,Win32,144.9275362,,,56,0,56,0,1,,,,,,,,
,,"[""diamond"",""red"",""hori"",""left"",[106,106],[150,0]]",diamond,red,hori,left,"[106,106]","[150,0]",left,1,1.6326,,,,,,001,2025-03-17_12h03.36.087,SL_base_41,2021.2.3,Win32,144.9275362,,,57,0,57,0,1,,,,,,,,
,,"[""diamond"",""green"",""vert"",""up"",[0,-150],[-150,0]]",diamond,green,vert,up,"[0,-150]","[-150,0]",up,1,1.0856,,,,,,001,2025-03-17_12h03.36.087,SL_base_41,2021.2.3,Win32,144.9275362,,,58,0,58,0,1,,,,,,,,
,,"[""diamond"",""no_dis"",""hori"",""left"",[99999,99999],[-150,0]]",diamond,no_dis,hori,left,"[99999,99999]","[-150,0]",left,1,0.8742,,,,,,001,2025-03-17_12h03.36.087,SL_base_41,2021.2.3,Win32,144.9275362,,,59,0,59,0,1,,,,,,,,
,,"[""circle"",""no_dis"",""hori"",""left"",[99999,99999],[-150,0]]",circle,no_dis,hori,left,"[99999,99999]","[-150,0]",left,1,1.1803,,,,,,001,2025-03-17_12h03.36.087,SL_base_41,2021.2.3,Win32,144.9275362,,,60,0,60,0,1,,,,,,,,
,,"[""diamond"",""no_dis"",""vert"",""up"",[99999,99999],[106,-106]]",diamond,no_dis,vert,up,"[99999,99999]","[106,-106]",up,1,1.1414,,,,,,001,2025-03-17_12h03.36.087,SL_base_41,2021.2.3,Win32,144.9275362,,,61,0,61,0,1,,,,,,,,
,,"[""diamond"",""green"",""hori"",""left"",[106,106],[150,0]]",diamond,green,hori,left,"[106,106]","[150,0]",left,1,1.1215,,,,,,001,2025-03-17_12h03.36.087,SL_base_41,2021.2.3,Win32,144.9275362,,,62,0,62,0,1,,,,,,,,
,,"[""diamond"",""red"",""vert"",""up"",[106,106],[0,150]]",diamond,red,vert,up,"[106,106]","[0,150]",up,1,0.8341,,,,,,001,2025-03-17_12h03.36.087,SL_base_41,2021.2.3,Win32,144.9275362,,,63,0,63,0,1,,,,,,,,
,,"[""circle"",""red"",""vert"",""up"",[106,106],[-106,-106]]",circle,red,vert,up,"[106,106]","[-106,-106]",up,1,1.8005,,,,,,001,2025-03-17_12h03.36.087,SL_base_41,2021.2.3,Win32,144.9275362,,,64,0,64,0,1,,,,,,,,
,,"[""diamond"",""no_dis"",""vert"",""up"",[99999,99999],[-106,-106]]",diamond,no_dis,vert,up,"[99999,99999]","[-106,-106]",up,1,1.1733,,,,,,001,2025-03-17_12h03.36.087,SL_base_41,2021.2.3,Win32,144.9275362,,,65,0,65,0,1,,,,,,,,
,,"[""circle"",""green"",""vert"",""up"",[106,106],[-106,-106]]",circle,green,vert,up,"[106,106]","[-106,-106]",up,1,1.2417,,,,,,001,2025-03-17_12h03.36.087,SL_base_41,2021.2.3,Win32,144.9275362,,,66,0,66,0,1,,,,,,,,
,,"[""diamond"",""green"",""hori"",""left"",[-106,-106],[106,-106]]",diamond,green,hori,left,"[-106,-106]","[106,-106]",left,1,1.4998,,,,,,001,2025-03-17_12h03.36.087,SL_base_41,2021.2.3,Win32,144.9275362,,,67,0,67,0,1,,,,,,,,
,,"[""diamond"",""red"",""vert"",""up"",[0,-150],[150,0]]",diamond,red,vert,up,"[0,-150]","[150,0]",up,1,1.0318,,,,,,001,2025-03-17_12h03.36.087,SL_base_41,2021.2.3,Win32,144.9275362,,,68,0,68,0,1,,,,,,,,
,,"[""circle"",""red"",""hori"",""left"",[106,106],[0,-150]]",circle,red,hori,left,"[106,106]","[0,-150]",up,0,1.4754,,,,,,001,2025-03-17_12h03.36.087,SL_base_41,2021.2.3,Win32,144.9275362,,,69,0,69,0,1,,,,,,,,
,,"[""circle"",""green"",""vert"",""up"",[-106,-106],[150,0]]",circle,green,vert,up,"[-106,-106]","[150,0]",up,1,1.4376,,,,,,001,2025-03-17_12h03.36.087,SL_base_41,2021.2.3,Win32,144.9275362,,,70,0,70,0,1,,,,,,,,
,,"[""diamond"",""no_dis"",""hori"",""left"",[99999,99999],[106,106]]",diamond,no_dis,hori,left,"[99999,99999]","[106,106]",left,1,1.8711,,,,,,001,2025-03-17_12h03.36.087,SL_base_41,2021.2.3,Win32,144.9275362,,,71,0,71,0,1,,,,,,,,
,,"[""diamond"",""green"",""vert"",""up"",[106,106],[106,-106]]",diamond,green,vert,up,"[106,106]","[106,-106]",up,1,1.2663,,,,,,001,2025-03-17_12h03.36.087,SL_base_41,2021.2.3,Win32,144.9275362,,,72,0,72,0,1,,,,,,,,
,,"[""circle"",""no_dis"",""vert"",""up"",[99999,99999],[-106,106]]",circle,no_dis,vert,up,"[99999,99999]","[-106,106]",up,1,1.4189,,,,,,001,2025-03-17_12h03.36.087,SL_base_41,2021.2.3,Win32,144.9275362,,,73,0,73,0,1,,,,,,,,
,,"[""circle"",""no_dis"",""hori"",""left"",[99999,99999],[-106,106]]",circle,no_dis,hori,left,"[99999,99999]","[-106,106]",left,1,1.3811,,,,,,001,2025-03-17_12h03.36.087,SL_base_41,2021.2.3,Win32,144.9275362,,,74,0,74,0,1,,,,,,,,
,,"[""diamond"",""red"",""hori"",""left"",[0,150],[106,-106]]",diamond,red,hori,left,"[0,150]","[106,-106]",up,0,1.1566,,,,,,001,2025-03-17_12h03.36.087,SL_base_41,2021.2.3,Win32,144.9275362,,,75,0,75,0,1,,,,,,,,
,,"[""circle"",""red"",""hori"",""left"",[106,106],[150,0]]",circle,red,hori,left,"[106,106]","[150,0]",left,1,1.4675,,,,,,001,2025-03-17_12h03.36.087,SL_base_41,2021.2.3,Win32,144.9275362,,,76,0,76,0,1,,,,,,,,
,,"[""diamond"",""red"",""hori"",""left"",[106,106],[-106,-106]]",diamond,red,hori,left,"[106,106]","[-106,-106]",left,1,1.1125,,,,,,001,2025-03-17_12h03.36.087,SL_base_41,2021.2.3,Win32,144.9275362,,,77,0,77,0,1,,,,,,,,
,,"[""diamond"",""red"",""vert"",""up"",[106,-106],[0,150]]",diamond,red,vert,up,"[106,-106]","[0,150]",up,1,2.2995,,,,,,001,2025-03-17_12h03.36.087,SL_base_41,2021.2.3,Win32,144.9275362,,,78,0,78,0,1,,,,,,,,
,,"[""circle"",""no_dis"",""vert"",""up"",[99999,99999],[150,0]]",circle,no_dis,vert,up,"[99999,99999]","[150,0]",up,1,1.2595,,,,,,001,2025-03-17_12h03.36.087,SL_base_41,2021.2.3,Win32,144.9275362,,,79,0,79,0,1,,,,,,,,
,,"[""diamond"",""no_dis"",""vert"",""up"",[99999,99999],[-106,-106]]",diamond,no_dis,vert,up,"[99999,99999]","[-106,-106]",up,1,1.3184,,,,,,001,2025-03-17_12h03.36.087,SL_base_41,2021.2.3,Win32,144.9275362,,,80,0,80,0,1,,,,,,,,
,,"[""circle"",""no_dis"",""hori"",""left"",[99999,99999],[0,150]]",circle,no_dis,hori,left,"[99999,99999]","[0,150]",left,1,1.2232,,,,,,001,2025-03-17_12h03.36.087,SL_base_41,2021.2.3,Win32,144.9275362,,,81,0,81,0,1,,,,,,,,
,,"[""diamond"",""red"",""hori"",""left"",[106,106],[106,-106]]",diamond,red,hori,left,"[106,106]","[106,-106]",left,1,1.1579,,,,,,001,2025-03-17_12h03.36.087,SL_base_41,2021.2.3,Win32,144.9275362,,,82,0,82,0,1,,,,,,,,
,,"[""circle"",""green"",""vert"",""up"",[0,150],[-106,-106]]",circle,green,vert,up,"[0,150]","[-106,-106]",up,1,1.7047,,,,,,001,2025-03-17_12h03.36.087,SL_base_41,2021.2.3,Win32,144.9275362,,,83,0,83,0,1,,,,,,,,
,,"[""diamond"",""red"",""hori"",""left"",[106,-106],[-106,106]]",diamond,red,hori,left,"[106,-106]","[-106,106]",left,1,1.0427,,,,,,001,2025-03-17_12h03.36.087,SL_base_41,2021.2.3,Win32,144.9275362,,,84,0,84,0,1,,,,,,,,
,,"[""diamond"",""no_dis"",""vert"",""up"",[99999,99999],[-150,0]]",diamond,no_dis,vert,up,"[99999,99999]","[-150,0]",up,1,2.3939,,,,,,001,2025-03-17_12h03.36.087,SL_base_41,2021.2.3,Win32,144.9275362,,,85,0,85,0,1,,,,,,,,
,,"[""diamond"",""red"",""hori"",""left"",[0,-150],[150,0]]",diamond,red,hori,left,"[0,-150]","[150,0]",left,1,1.515,,,,,,001,2025-03-17_12h03.36.087,SL_base_41,2021.2.3,Win32,144.9275362,,,86,0,86,0,1,,,,,,,,
,,"[""circle"",""red"",""hori"",""left"",[-106,-106],[0,-150]]",circle,red,hori,left,"[-106,-106]","[0,-150]",left,1,1.3801,,,,,,001,2025-03-17_12h03.36.087,SL_base_41,2021.2.3,Win32,144.9275362,,,87,0,87,0,1,,,,,,,,
,,"[""circle"",""red"",""hori"",""left"",[-106,106],[150,0]]",circle,red,hori,left,"[-106,106]","[150,0]",left,1,1.2365,,,,,,001,2025-03-17_12h03.36.087,SL_base_41,2021.2.3,Win32,144.9275362,,,88,0,88,0,1,,,,,,,,
,,"[""circle"",""green"",""hori"",""left"",[0,-150],[106,-106]]",circle,green,hori,left,"[0,-150]","[106,-106]",left,1,1.0299,,,,,,001,2025-03-17_12h03.36.087,SL_base_41,2021.2.3,Win32,144.9275362,,,89,0,89,0,1,,,,,,,,
,,"[""circle"",""green"",""hori"",""left"",[-106,-106],[106,106]]",circle,green,hori,left,"[-106,-106]","[106,106]",left,1,1.0299,,,,,,001,2025-03-17_12h03.36.087,SL_base_41,2021.2.3,Win32,144.9275362,,,90,0,90,0,1,,,,,,,,
,,"[""circle"",""no_dis"",""hori"",""left"",[99999,99999],[-106,-106]]",circle,no_dis,hori,left,"[99999,99999]","[-106,-106]",left,1,1.2433,,,,,,001,2025-03-17_12h03.36.087,SL_base_41,2021.2.3,Win32,144.9275362,,,91,0,91,0,1,,,,,,,,
,,"[""circle"",""green"",""hori"",""left"",[-106,-106],[106,-106]]",circle,green,hori,left,"[-106,-106]","[106,-106]",left,1,1.3118,,,,,,001,2025-03-17_12h03.36.087,SL_base_41,2021.2.3,Win32,144.9275362,,,92,0,92,0,1,,,,,,,,
,,"[""diamond"",""red"",""hori"",""left"",[106,106],[0,-150]]",diamond,red,hori,left,"[106,106]","[0,-150]",left,1,1.3418,,,,,,001,2025-03-17_12h03.36.087,SL_base_41,2021.2.3,Win32,144.9275362,,,93,0,93,0,1,,,,,,,,
,,"[""circle"",""red"",""vert"",""up"",[-106,106],[-150,0]]",circle,red,vert,up,"[-106,106]","[-150,0]",up,1,2.1005,,,,,,001,2025-03-17_12h03.36.087,SL_base_41,2021.2.3,Win32,144.9275362,,,94,0,94,0,1,,,,,,,,
,,"[""circle"",""green"",""vert"",""up"",[0,150],[0,-150]]",circle,green,vert,up,"[0,150]","[0,-150]",up,1,0.9833,,,,,,001,2025-03-17_12h03.36.087,SL_base_41,2021.2.3,Win32,144.9275362,,,95,0,95,0,1,,,,,,,,
,,"[""diamond"",""green"",""hori"",""left"",[-106,-106],[-106,106]]",diamond,green,hori,left,"[-106,-106]","[-106,106]",left,1,1.6431,,,,,,001,2025-03-17_12h03.36.087,SL_base_41,2021.2.3,Win32,144.9275362,,,96,0,96,0,1,,,,,,,,
,,"[""circle"",""green"",""vert"",""up"",[106,106],[106,-106]]",circle,green,vert,up,"[106,106]","[106,-106]",up,1,1.3289,,,,,,001,2025-03-17_12h03.36.087,SL_base_41,2021.2.3,Win32,144.9275362,,,97,0,97,0,1,,,,,,,,
,,"[""diamond"",""red"",""vert"",""up"",[150,0],[-106,106]]",diamond,red,vert,up,"[150,0]","[-106,106]",up,1,1.6061,,,,,,001,2025-03-17_12h03.36.087,SL_base_41,2021.2.3,Win32,144.9275362,,,98,0,98,0,1,,,,,,,,
,,"[""circle"",""red"",""hori"",""left"",[106,106],[106,-106]]",circle,red,hori,left,"[106,106]","[106,-106]",left,1,1.1836,,,,,,001,2025-03-17_12h03.36.087,SL_base_41,2021.2.3,Win32,144.9275362,,,99,0,99,0,1,,,,,,,,
,,"[""diamond"",""red"",""vert"",""up"",[106,-106],[-150,0]]",diamond,red,vert,up,"[106,-106]","[-150,0]",up,1,1.4036,,,,,,001,2025-03-17_12h03.36.087,SL_base_41,2021.2.3,Win32,144.9275362,,,100,0,100,0,1,,,,,,,,
,,"[""circle"",""no_dis"",""vert"",""up"",[99999,99999],[106,106]]",circle,no_dis,vert,up,"[99999,99999]","[106,106]",left,0,1.3087,,,,,,001,2025-03-17_12h03.36.087,SL_base_41,2021.2.3,Win32,144.9275362,,,101,0,101,0,1,,,,,,,,
,,"[""diamond"",""no_dis"",""hori"",""left"",[99999,99999],[-106,-106]]",diamond,no_dis,hori,left,"[99999,99999]","[-106,-106]",left,1,1.1527,,,,,,001,2025-03-17_12h03.36.087,SL_base_41,2021.2.3,Win32,144.9275362,,,102,0,102,0,1,,,,,,,,
,,"[""circle"",""red"",""hori"",""left"",[-150,0],[150,0]]",circle,red,hori,left,"[-150,0]","[150,0]",left,1,0.8556,,,,,,001,2025-03-17_12h03.36.087,SL_base_41,2021.2.3,Win32,144.9275362,,,103,0,103,0,1,,,,,,,,
,,"[""diamond"",""red"",""hori"",""left"",[106,106],[-106,106]]",diamond,red,hori,left,"[106,106]","[-106,106]",left,1,1.125,,,,,,001,2025-03-17_12h03.36.087,SL_base_41,2021.2.3,Win32,144.9275362,,,104,0,104,0,1,,,,,,,,
,,"[""circle"",""red"",""vert"",""up"",[150,0],[0,-150]]",circle,red,vert,up,"[150,0]","[0,-150]",up,1,1.4016,,,,,,001,2025-03-17_12h03.36.087,SL_base_41,2021.2.3,Win32,144.9275362,,,105,0,105,0,1,,,,,,,,
,,"[""circle"",""red"",""vert"",""up"",[-150,0],[150,0]]",circle,red,vert,up,"[-150,0]","[150,0]",up,1,1.1755,,,,,,001,2025-03-17_12h03.36.087,SL_base_41,2021.2.3,Win32,144.9275362,,,106,0,106,0,1,,,,,,,,
,,"[""diamond"",""red"",""hori"",""left"",[0,-150],[-106,-106]]",diamond,red,hori,left,"[0,-150]","[-106,-106]",left,1,1.26,,,,,,001,2025-03-17_12h03.36.087,SL_base_41,2021.2.3,Win32,144.9275362,,,107,0,107,0,1,,,,,,,,
,,"[""circle"",""green"",""hori"",""left"",[106,106],[106,-106]]",circle,green,hori,left,"[106,106]","[106,-106]",left,1,1.3149,,,,,,001,2025-03-17_12h03.36.087,SL_base_41,2021.2.3,Win32,144.9275362,,,108,0,108,0,1,,,,,,,,
,,"[""circle"",""red"",""hori"",""left"",[106,106],[150,0]]",circle,red,hori,left,"[106,106]","[150,0]",left,1,0.8182,,,,,,001,2025-03-17_12h03.36.087,SL_base_41,2021.2.3,Win32,144.9275362,,,109,0,109,0,1,,,,,,,,
,,"[""circle"",""green"",""hori"",""left"",[-106,106],[0,150]]",circle,green,hori,left,"[-106,106]","[0,150]",left,1,1.1613,,,,,,001,2025-03-17_12h03.36.087,SL_base_41,2021.2.3,Win32,144.9275362,,,110,0,110,0,1,,,,,,,,
,,"[""diamond"",""no_dis"",""hori"",""left"",[99999,99999],[0,-150]]",diamond,no_dis,hori,left,"[99999,99999]","[0,-150]",left,1,1.0759,,,,,,001,2025-03-17_12h03.36.087,SL_base_41,2021.2.3,Win32,144.9275362,,,111,0,111,0,1,,,,,,,,
,,"[""diamond"",""red"",""vert"",""up"",[106,106],[0,150]]",diamond,red,vert,up,"[106,106]","[0,150]",up,1,1.0281,,,,,,001,2025-03-17_12h03.36.087,SL_base_41,2021.2.3,Win32,144.9275362,,,112,0,112,0,1,,,,,,,,
,,"[""diamond"",""red"",""hori"",""left"",[-106,106],[0,-150]]",diamond,red,hori,left,"[-106,106]","[0,-150]",left,1,1.5409,,,,,,001,2025-03-17_12h03.36.087,SL_base_41,2021.2.3,Win32,144.9275362,,,113,0,113,0,1,,,,,,,,
,,"[""circle"",""red"",""vert"",""up"",[106,106],[-106,-106]]",circle,red,vert,up,"[106,106]","[-106,-106]",up,1,1.2502,,,,,,001,2025-03-17_12h03.36.087,SL_base_41,2021.2.3,Win32,144.9275362,,,114,0,114,0,1,,,,,,,,
,,"[""diamond"",""red"",""vert"",""up"",[-106,106],[106,106]]",diamond,red,vert,up,"[-106,106]","[106,106]",up,1,1.6329,,,,,,001,2025-03-17_12h03.36.087,SL_base_41,2021.2.3,Win32,144.9275362,,,115,0,115,0,1,,,,,,,,
,,"[""diamond"",""red"",""vert"",""up"",[106,106],[-150,0]]",diamond,red,vert,up,"[106,106]","[-150,0]",up,1,1.2392,,,,,,001,2025-03-17_12h03.36.087,SL_base_41,2021.2.3,Win32,144.9275362,,,116,0,116,0,1,,,,,,,,
,,"[""circle"",""no_dis"",""hori"",""left"",[99999,99999],[106,-106]]",circle,no_dis,hori,left,"[99999,99999]","[106,-106]",left,1,0.9634,,,,,,001,2025-03-17_12h03.36.087,SL_base_41,2021.2.3,Win32,144.9275362,,,117,0,117,0,1,,,,,,,,
,,"[""diamond"",""no_dis"",""vert"",""up"",[99999,99999],[-106,106]]",diamond,no_dis,vert,up,"[99999,99999]","[-106,106]",up,1,1.3919,,,,,,001,2025-03-17_12h03.36.087,SL_base_41,2021.2.3,Win32,144.9275362,,,118,0,118,0,1,,,,,,,,
,,"[""circle"",""no_dis"",""hori"",""left"",[99999,99999],[0,150]]",circle,no_dis,hori,left,"[99999,99999]","[0,150]",up,0,1.1319,,,,,,001,2025-03-17_12h03.36.087,SL_base_41,2021.2.3,Win32,144.9275362,,,119,0,119,0,1,,,,,,,,
,,"[""diamond"",""no_dis"",""hori"",""left"",[99999,99999],[150,0]]",diamond,no_dis,hori,left,"[99999,99999]","[150,0]",up,0,1.2994,,,,,,001,2025-03-17_12h03.36.087,SL_base_41,2021.2.3,Win32,144.9275362,,,120,0,120,0,1,,,,,,,,
,,"[""circle"",""green"",""hori"",""left"",[0,150],[150,0]]",circle,green,hori,left,"[0,150]","[150,0]",left,1,1.6096,,,,,,001,2025-03-17_12h03.36.087,SL_base_41,2021.2.3,Win32,144.9275362,,,121,0,121,0,1,,,,,,,,
,,"[""circle"",""no_dis"",""vert"",""up"",[99999,99999],[106,-106]]",circle,no_dis,vert,up,"[99999,99999]","[106,-106]",up,1,1.0368,,,,,,001,2025-03-17_12h03.36.087,SL_base_41,2021.2.3,Win32,144.9275362,,,122,0,122,0,1,,,,,,,,
,,"[""circle"",""no_dis"",""vert"",""up"",[99999,99999],[0,-150]]",circle,no_dis,vert,up,"[99999,99999]","[0,-150]",up,1,1.6123,,,,,,001,2025-03-17_12h03.36.087,SL_base_41,2021.2.3,Win32,144.9275362,,,123,0,123,0,1,,,,,,,,
,,"[""diamond"",""green"",""hori"",""left"",[106,106],[-106,106]]",diamond,green,hori,left,"[106,106]","[-106,106]",left,1,1.3141,,,,,,001,2025-03-17_12h03.36.087,SL_base_41,2021.2.3,Win32,144.9275362,,,124,0,124,0,1,,,,,,,,
,,"[""diamond"",""no_dis"",""vert"",""up"",[99999,99999],[150,0]]",diamond,no_dis,vert,up,"[99999,99999]","[150,0]",up,1,1.4688,,,,,,001,2025-03-17_12h03.36.087,SL_base_41,2021.2.3,Win32,144.9275362,,,125,0,125,0,1,,,,,,,,
,,"[""diamond"",""no_dis"",""vert"",""up"",[99999,99999],[0,-150]]",diamond,no_dis,vert,up,"[99999,99999]","[0,-150]",up,1,1.4881,,,,,,001,2025-03-17_12h03.36.087,SL_base_41,2021.2.3,Win32,144.9275362,,,126,0,126,0,1,,,,,,,,
,,"[""diamond"",""green"",""vert"",""up"",[-150,0],[150,0]]",diamond,green,vert,up,"[-150,0]","[150,0]",up,1,1.4165,,,,,,001,2025-03-17_12h03.36.087,SL_base_41,2021.2.3,Win32,144.9275362,,,127,0,127,0,1,,,,,,,,
,,,,,,,,,,,,,,,,,001,2025-03-17_12h03.36.087,SL_base_41,2021.2.3,Win32,144.9275362,,,,,,,,2,space,21.3951,1,0,1,0,1
,,"[""diamond"",""no_dis"",""vert"",""up"",[99999,99999],[0,-150]]",diamond,no_dis,vert,up,"[99999,99999]","[0,-150]",up,1,0.9752,,,,,,001,2025-03-17_12h03.36.087,SL_base_41,2021.2.3,Win32,144.9275362,,,0,0,0,0,1,,,,,,,,
,,"[""diamond"",""no_dis"",""vert"",""up"",[99999,99999],[150,0]]",diamond,no_dis,vert,up,"[99999,99999]","[150,0]",up,1,0.9747,,,,,,001,2025-03-17_12h03.36.087,SL_base_41,2021.2.3,Win32,144.9275362,,,1,0,1,0,1,,,,,,,,
,,"[""circle"",""no_dis"",""hori"",""left"",[99999,99999],[0,150]]",circle,no_dis,hori,left,"[99999,99999]","[0,150]",left,1,1.2277,,,,,,001,2025-03-17_12h03.36.087,SL_base_41,2021.2.3,Win32,144.9275362,,,2,0,2,0,1,,,,,,,,
,,"[""diamond"",""red"",""hori"",""left"",[-150,0],[-106,106]]",diamond,red,hori,left,"[-150,0]","[-106,106]",left,1,1.1906,,,,,,001,2025-03-17_12h03.36.087,SL_base_41,2021.2.3,Win32,144.9275362,,,3,0,3,0,1,,,,,,,,
,,"[""circle"",""green"",""vert"",""up"",[150,0],[0,-150]]",circle,green,vert,up,"[150,0]","[0,-150]",up,1,1.4323,,,,,,001,2025-03-17_12h03.36.087,SL_base_41,2021.2.3,Win32,144.9275362,,,4,0,4,0,1,,,,,,,,
,,"[""circle"",""red"",""vert"",""up"",[-106,-106],[0,150]]",circle,red,vert,up,"[-106,-106]","[0,150]",up,1,1.3676,,,,,,001,2025-03-17_12h03.36.087,SL_base_41,2021.2.3,Win32,144.9275362,,,5,0,5,0,1,,,,,,,,
,,"[""diamond"",""green"",""hori"",""left"",[-150,0],[0,-150]]",diamond,green,hori,left,"[-150,0]","[0,-150]",left,1,1.1086,,,,,,001,2025-03-17_12h03.36.087,SL_base_41,2021.2.3,Win32,144.9275362,,,6,0,6,0,1,,,,,,,,
,,"[""circle"",""red"",""vert"",""up"",[0,-150],[0,150]]",circle,red,vert,up,"[0,-150]","[0,150]",up,1,1.365,,,,,,001,2025-03-17_12h03.36.087,SL_base_41,2021.2.3,Win32,144.9275362,,,7,0,7,0,1,,,,,,,,
,,"[""diamond"",""green"",""vert"",""up"",[0,-150],[-150,0]]",diamond,green,vert,up,"[0,-150]","[-150,0]",up,1,1.1642,,,,,,001,2025-03-17_12h03.36.087,SL_base_41,2021.2.3,Win32,144.9275362,,,8,0,8,0,1,,,,,,,,
,,"[""diamond"",""red"",""vert"",""up"",[0,-150],[150,0]]",diamond,red,vert,up,"[0,-150]","[150,0]",up,1,1.1575,,,,,,001,2025-03-17_12h03.36.087,SL_base_41,2021.2.3,Win32,144.9275362,,,9,0,9,0,1,,,,,,,,
,,"[""diamond"",""no_dis"",""hori"",""left"",[99999,99999],[0,-150]]",diamond,no_dis,hori,left,"[99999,99999]","[0,-150]",left,1,1.7223,,,,,,001,2025-03-17_12h03.36.087,SL_base_41,2021.2.3,Win32,144.9275362,,,10,0,10,0,1,,,,,,,,
,,"[""circle"",""no_dis"",""hori"",""left"",[99999,99999],[106,-106]]",circle,no_dis,hori,left,"[99999,99999]","[106,-106]",left,1,1.0354,,,,,,001,2025-03-17_12h03.36.087,SL_base_41,2021.2.3,Win32,144.9275362,,,11,0,11,0,1,,,,,,,,
,,"[""circle"",""red"",""vert"",""up"",[150,0],[0,-150]]",circle,red,vert,up,"[150,0]","[0,-150]",left,0,1.4564,,,,,,001,2025-03-17_12h03.36.087,SL_base_41,2021.2.3,Win32,144.9275362,,,12,0,12,0,1,,,,,,,,
,,"[""circle"",""green"",""hori"",""left"",[0,150],[150,0]]",circle,green,hori,left,"[0,150]","[150,0]",left,1,1.6151,,,,,,001,2025-03-17_12h03.36.087,SL_base_41,2021.2.3,Win32,144.9275362,,,13,0,13,0,1,,,,,,,,
,,"[""diamond"",""no_dis"",""hori"",""left"",[99999,99999],[0,150]]",diamond,no_dis,hori,left,"[99999,99999]","[0,150]",left,1,1.5898,,,,,,001,2025-03-17_12h03.36.087,SL_base_41,2021.2.3,Win32,144.9275362,,,14,0,14,0,1,,,,,,,,
,,"[""diamond"",""red"",""vert"",""up"",[150,0],[-106,106]]",diamond,red,vert,up,"[150,0]","[-106,106]",up,1,1.4447,,,,,,001,2025-03-17_12h03.36.087,SL_base_41,2021.2.3,Win32,144.9275362,,,15,0,15,0,1,,,,,,,,
,,"[""diamond"",""green"",""vert"",""up"",[106,106],[106,-106]]",diamond,green,vert,up,"[106,106]","[106,-106]",up,1,0.9584,,,,,,001,2025-03-17_12h03.36.087,SL_base_41,2021.2.3,Win32,144.9275362,,,16,0,16,0,1,,,,,,,,
,,"[""circle"",""no_dis"",""hori"",""left"",[99999,99999],[0,-150]]",circle,no_dis,hori,left,"[99999,99999]","[0,-150]",left,1,0.9681,,,,,,001,2025-03-17_12h03.36.087,SL_base_41,2021.2.3,Win32,144.9275362,,,17,0,17,0,1,,,,,,,,
,,"[""circle"",""red"",""hori"",""left"",[106,106],[150,0]]",circle,red,hori,left,"[106,106]","[150,0]",left,1,1.4718,,,,,,001,2025-03-17_12h03.36.087,SL_base_41,2021.2.3,Win32,144.9275362,,,18,0,18,0,1,,,,,,,,
,,"[""circle"",""no_dis"",""hori"",""left"",[99999,99999],[-106,-106]]",circle,no_dis,hori,left,"[99999,99999]","[-106,-106]",left,1,1.5184,,,,,,001,2025-03-17_12h03.36.087,SL_base_41,2021.2.3,Win32,144.9275362,,,19,0,19,0,1,,,,,,,,
,,"[""diamond"",""green"",""hori"",""left"",[0,150],[106,-106]]",diamond,green,hori,left,"[0,150]","[106,-106]",left,1,0.8839,,,,,,001,2025-03-17_12h03.36.087,SL_base_41,2021.2.3,Win32,144.9275362,,,20,0,20,0,1,,,,,,,,
,,"[""circle"",""red"",""hori"",""left"",[-106,106],[150,0]]",circle,red,hori,left,"[-106,106]","[150,0]",left,1,2.0108,,,,,,001,2025-03-17_12h03.36.087,SL_base_41,2021.2.3,Win32,144.9275362,,,21,0,21,0,1,,,,,,,,
,,"[""circle"",""red"",""hori"",""left"",[-150,0],[150,0]]",circle,red,hori,left,"[-150,0]","[150,0]",left,1,1.3612,,,,,,001,2025-03-17_12h03.36.087,SL_base_41,2021.2.3,Win32,144.9275362,,,22,0,22,0,1,,,,,,,,
,,"[""circle"",""green"",""hori"",""left"",[-150,0],[106,106]]",circle,green,hori,left,"[-150,0]","[106,106]",left,1,1.3293,,,,,,001,2025-03-17_12h03.36.087,SL_base_41,2021.2.3,Win32,144.9275362,,,23,0,23,0,1,,,,,,,,
,,"[""diamond"",""red"",""hori"",""left"",[106,-106],[-106,106]]",diamond,red,hori,left,"[106,-106]","[-106,106]",left,1,1.66,,,,,,001,2025-03-17_12h03.36.087,SL_base_41,2021.2.3,Win32,144.9275362,,,24,0,24,0,1,,,,,,,,
,,"[""circle"",""red"",""vert"",""up"",[106,106],[-106,-106]]",circle,red,vert,up,"[106,106]","[-106,-106]",up,1,2.5287,,,,,,001,2025-03-17_12h03.36.087,SL_base_41,2021.2.3,Win32,144.9275362,,,25,0,25,0,1,,,,,,,,
,,"[""diamond"",""no_dis"",""vert"",""up"",[99999,99999],[-106,-106]]",diamond,no_dis,vert,up,"[99999,99999]","[-106,-106]",,0,,,,,,,001,2025-03-17_12h03.36.087,SL_base_41,2021.2.3,Win32,144.9275362,,,26,0,26,0,1,,,,,,,,
,,"[""circle"",""red"",""hori"",""left"",[106,106],[0,-150]]",circle,red,hori,left,"[106,106]","[0,-150]",left,1,1.8823,,,,,,001,2025-03-17_12h03.36.087,SL_base_41,2021.2.3,Win32,144.9275362,,,27,0,27,0,1,,,,,,,,
,,"[""circle"",""no_dis"",""vert"",""up"",[99999,99999],[150,0]]",circle,no_dis,vert,up,"[99999,99999]","[150,0]",up,1,1.6738,,,,,,001,2025-03-17_12h03.36.087,SL_base_41,2021.2.3,Win32,144.9275362,,,28,0,28,0,1,,,,,,,,
,,"[""circle"",""red"",""vert"",""up"",[-106,106],[-150,0]]",circle,red,vert,up,"[-106,106]","[-150,0]",up,1,1.9661,,,,,,001,2025-03-17_12h03.36.087,SL_base_41,2021.2.3,Win32,144.9275362,,,29,0,29,0,1,,,,,,,,
,,"[""diamond"",""no_dis"",""hori"",""left"",[99999,99999],[106,106]]",diamond,no_dis,hori,left,"[99999,99999]","[106,106]",left,1,1.2624,,,,,,001,2025-03-17_12h03.36.087,SL_base_41,2021.2.3,Win32,144.9275362,,,30,0,30,0,1,,,,,,,,
,,"[""diamond"",""red"",""vert"",""up"",[106,106],[0,150]]",diamond,red,vert,up,"[106,106]","[0,150]",up,1,1.3696,,,,,,001,2025-03-17_12h03.36.087,SL_base_41,2021.2.3,Win32,144.9275362,,,31,0,31,0,1,,,,,,,,
,,"[""diamond"",""green"",""vert"",""up"",[-106,-106],[0,-150]]",diamond,green,vert,up,"[-106,-106]","[0,-150]",up,1,1.4156,,,,,,001,2025-03-17_12h03.36.087,SL_base_41,2021.2.3,Win32,144.9275362,,,32,0,32,0,1,,,,,,,,
,,"[""diamond"",""no_dis"",""hori"",""left"",[99999,99999],[-150,0]]",diamond,no_dis,hori,left,"[99999,99999]","[-150,0]",left,1,1.1237,,,,,,001,2025-03-17_12h03.36.087,SL_base_41,2021.2.3,Win32,144.9275362,,,33,0,33,0,1,,,,,,,,
,,"[""circle"",""no_dis"",""vert"",""up"",[99999,99999],[-106,106]]",circle,no_dis,vert,up,"[99999,99999]","[-106,106]",up,1,1.4381,,,,,,001,2025-03-17_12h03.36.087,SL_base_41,2021.2.3,Win32,144.9275362,,,34,0,34,0,1,,,,,,,,
,,"[""circle"",""green"",""hori"",""left"",[106,106],[106,-106]]",circle,green,hori,left,"[106,106]","[106,-106]",left,1,1.2865,,,,,,001,2025-03-17_12h03.36.087,SL_base_41,2021.2.3,Win32,144.9275362,,,35,0,35,0,1,,,,,,,,
,,"[""diamond"",""no_dis"",""hori"",""left"",[99999,99999],[150,0]]",diamond,no_dis,hori,left,"[99999,99999]","[150,0]",left,1,1.4461,,,,,,001,2025-03-17_12h03.36.087,SL_base_41,2021.2.3,Win32,144.9275362,,,36,0,36,0,1,,,,,,,,
,,"[""diamond"",""red"",""vert"",""up"",[-106,106],[106,106]]",diamond,red,vert,up,"[-106,106]","[106,106]",up,1,1.3389,,,,,,001,2025-03-17_12h03.36.087,SL_base_41,2021.2.3,Win32,144.9275362,,,37,0,37,0,1,,,,,,,,
,,"[""circle"",""red"",""hori"",""left"",[-106,-106],[0,-150]]",circle,red,hori,left,"[-106,-106]","[0,-150]",left,1,1.3102,,,,,,001,2025-03-17_12h03.36.087,SL_base_41,2021.2.3,Win32,144.9275362,,,38,0,38,0,1,,,,,,,,
,,"[""diamond"",""green"",""vert"",""up"",[-150,0],[-106,106]]",diamond,green,vert,up,"[-150,0]","[-106,106]",up,1,1.8273,,,,,,001,2025-03-17_12h03.36.087,SL_base_41,2021.2.3,Win32,144.9275362,,,39,0,39,0,1,,,,,,,,
,,"[""circle"",""red"",""hori"",""left"",[106,106],[150,0]]",circle,red,hori,left,"[106,106]","[150,0]",left,1,1.9302,,,,,,001,2025-03-17_12h03.36.087,SL_base_41,2021.2.3,Win32,144.9275362,,,40,0,40,0,1,,,,,,,,
,,"[""circle"",""green"",""vert"",""up"",[0,-150],[150,0]]",circle,green,vert,up,"[0,-150]","[150,0]",up,1,1.1554,,,,,,001,2025-03-17_12h03.36.087,SL_base_41,2021.2.3,Win32,144.9275362,,,41,0,41,0,1,,,,,,,,
,,"[""diamond"",""no_dis"",""hori"",""left"",[99999,99999],[-106,106]]",diamond,no_dis,hori,left,"[99999,99999]","[-106,106]",left,1,1.5479,,,,,,001,2025-03-17_12h03.36.087,SL_base_41,2021.2.3,Win32,144.9275362,,,42,0,42,0,1,,,,,,,,
,,"[""diamond"",""red"",""hori"",""left"",[106,106],[-106,-106]]",diamond,red,hori,left,"[106,106]","[-106,-106]",left,1,1.8743,,,,,,001,2025-03-17_12h03.36.087,SL_base_41,2021.2.3,Win32,144.9275362,,,43,0,43,0,1,,,,,,,,
,,"[""circle"",""green"",""hori"",""left"",[106,106],[150,0]]",circle,green,hori,left,"[106,106]","[150,0]",left,1,1.8535,,,,,,001,2025-03-17_12h03.36.087,SL_base_41,2021.2.3,Win32,144.9275362,,,44,0,44,0,1,,,,,,,,
,,"[""diamond"",""no_dis"",""hori"",""left"",[99999,99999],[-106,-106]]",diamond,no_dis,hori,left,"[99999,99999]","[-106,-106]",left,1,2.5124,,,,,,001,2025-03-17_12h03.36.087,SL_base_41,2021.2.3,Win32,144.9275362,,,45,0,45,0,1,,,,,,,,
,,"[""diamond"",""red"",""vert"",""up"",[106,-106],[106,106]]",diamond,red,vert,up,"[106,-106]","[106,106]",up,1,0.9376,,,,,,001,2025-03-17_12h03.36.087,SL_base_41,2021.2.3,Win32,144.9275362,,,46,0,46,0,1,,,,,,,,
,,"[""diamond"",""red"",""vert"",""up"",[106,-106],[-150,0]]",diamond,red,vert,up,"[106,-106]","[-150,0]",up,1,0.9632,,,,,,001,2025-03-17_12h03.36.087,SL_base_41,2021.2.3,Win32,144.9275362,,,47,0,47,0,1,,,,,,,,
,,"[""circle"",""red"",""hori"",""left"",[-106,106],[-106,-106]]",circle,red,hori,left,"[-106,106]","[-106,-106]",left,1,1.4837,,,,,,001,2025-03-17_12h03.36.087,SL_base_41,2021.2.3,Win32,144.9275362,,,48,0,48,0,1,,,,,,,,
,,"[""circle"",""red"",""hori"",""left"",[106,106],[106,-106]]",circle,red,hori,left,"[106,106]","[106,-106]",left,1,1.8932,,,,,,001,2025-03-17_12h03.36.087,SL_base_41,2021.2.3,Win32,144.9275362,,,49,0,49,0,1,,,,,,,,
,,"[""diamond"",""green"",""vert"",""up"",[106,106],[150,0]]",diamond,green,vert,up,"[106,106]","[150,0]",up,1,1.1321,,,,,,001,2025-03-17_12h03.36.087,SL_base_41,2021.2.3,Win32,144.9275362,,,50,0,50,0,1,,,,,,,,
,,"[""circle"",""no_dis"",""vert"",""up"",[99999,99999],[106,106]]",circle,no_dis,vert,up,"[99999,99999]","[106,106]",left,0,1.9195,,,,,,001,2025-03-17_12h03.36.087,SL_base_41,2021.2.3,Win32,144.9275362,,,51,0,51,0,1,,,,,,,,
,,"[""diamond"",""red"",""hori"",""left"",[106,106],[0,-150]]",diamond,red,hori,left,"[106,106]","[0,-150]",left,1,1.4076,,,,,,001,2025-03-17_12h03.36.087,SL_base_41,2021.2.3,Win32,144.9275362,,,52,0,52,0,1,,,,,,,,
,,"[""diamond"",""red"",""vert"",""up"",[106,-106],[0,150]]",diamond,red,vert,up,"[106,-106]","[0,150]",up,1,1.2901,,,,,,001,2025-03-17_12h03.36.087,SL_base_41,2021.2.3,Win32,144.9275362,,,53,0,53,0,1,,,,,,,,
,,"[""circle"",""no_dis"",""vert"",""up"",[99999,99999],[106,-106]]",circle,no_dis,vert,up,"[99999,99999]","[106,-106]",up,1,1.8843,,,,,,001,2025-03-17_12h03.36.087,SL_base_41,2021.2.3,Win32,144.9275362,,,54,0,54,0,1,,,,,,,,
,,"[""diamond"",""red"",""hori"",""left"",[0,150],[106,-106]]",diamond,red,hori,left,"[0,150]","[106,-106]",left,1,1.0346,,,,,,001,2025-03-17_12h03.36.087,SL_base_41,2021.2.3,Win32,144.9275362,,,55,0,55,0,1,,,,,,,,
,,"[""circle"",""no_dis"",""hori"",""left"",[99999,99999],[0,150]]",circle,no_dis,hori,left,"[99999,99999]","[0,150]",left,1,1.3153,,,,,,001,2025-03-17_12h03.36.087,SL_base_41,2021.2.3,Win32,144.9275362,,,56,0,56,0,1,,,,,,,,
,,"[""circle"",""green"",""hori"",""left"",[0,-150],[106,-106]]",circle,green,hori,left,"[0,-150]","[106,-106]",left,1,1.9504,,,,,,001,2025-03-17_12h03.36.087,SL_base_41,2021.2.3,Win32,144.9275362,,,57,0,57,0,1,,,,,,,,
,,"[""diamond"",""no_dis"",""hori"",""left"",[99999,99999],[0,150]]",diamond,no_dis,hori,left,"[99999,99999]","[0,150]",left,1,1.5468,,,,,,001,2025-03-17_12h03.36.087,SL_base_41,2021.2.3,Win32,144.9275362,,,58,0,58,0,1,,,,,,,,
,,"[""diamond"",""green"",""vert"",""up"",[150,0],[-106,106]]",diamond,green,vert,up,"[150,0]","[-106,106]",up,1,1.785,,,,,,001,2025-03-17_12h03.36.087,SL_base_41,2021.2.3,Win32,144.9275362,,,59,0,59,0,1,,,,,,,,
,,"[""diamond"",""no_dis"",""hori"",""left"",[99999,99999],[-150,0]]",diamond,no_dis,hori,left,"[99999,99999]","[-150,0]",left,1,1.0456,,,,,,001,2025-03-17_12h03.36.087,SL_base_41,2021.2.3,Win32,144.9275362,,,60,0,60,0,1,,,,,,,,
,,"[""diamond"",""no_dis"",""vert"",""up"",[99999,99999],[-106,-106]]",diamond,no_dis,vert,up,"[99999,99999]","[-106,-106]",up,1,0.9099,,,,,,001,2025-03-17_12h03.36.087,SL_base_41,2021.2.3,Win32,144.9275362,,,61,0,61,0,1,,,,,,,,
,,"[""circle"",""green"",""vert"",""up"",[-106,-106],[150,0]]",circle,green,vert,up,"[-106,-106]","[150,0]",up,1,2.5635,,,,,,001,2025-03-17_12h03.36.087,SL_base_41,2021.2.3,Win32,144.9275362,,,62,0,62,0,1,,,,,,,,
,,"[""diamond"",""green"",""vert"",""up"",[106,106],[-106,106]]",diamond,green,vert,up,"[106,106]","[-106,106]",up,1,1.8163,,,,,,001,2025-03-17_12h03.36.087,SL_base_41,2021.2.3,Win32,144.9275362,,,63,0,63,0,1,,,,,,,,
,,"[""diamond"",""no_dis"",""vert"",""up"",[99999,99999],[106,106]]",diamond,no_dis,vert,up,"[99999,99999]","[106,106]",up,1,1.0809,,,,,,001,2025-03-17_12h03.36.087,SL_base_41,2021.2.3,Win32,144.9275362,,,64,0,64,0,1,,,,,,,,
,,"[""circle"",""red"",""vert"",""up"",[106,-106],[0,-150]]",circle,red,vert,up,"[106,-106]","[0,-150]",up,1,1.588,,,,,,001,2025-03-17_12h03.36.087,SL_base_41,2021.2.3,Win32,144.9275362,,,65,0,65,0,1,,,,,,,,
,,"[""diamond"",""green"",""hori"",""left"",[106,106],[-106,106]]",diamond,green,hori,left,"[106,106]","[-106,106]",left,1,1.6418,,,,,,001,2025-03-17_12h03.36.087,SL_base_41,2021.2.3,Win32,144.9275362,,,66,0,66,0,1,,,,,,,,
,,"[""circle"",""no_dis"",""vert"",""up"",[99999,99999],[0,-150]]",circle,no_dis,vert,up,"[99999,99999]","[0,-150]",up,1,1.5531,,,,,,001,2025-03-17_12h03.36.087,SL_base_41,2021.2.3,Win32,144.9275362,,,67,0,67,0,1,,,,,,,,
,,"[""diamond"",""no_dis"",""vert"",""up"",[99999,99999],[106,-106]]",diamond,no_dis,vert,up,"[99999,99999]","[106,-106]",up,1,1.4981,,,,,,001,2025-03-17_12h03.36.087,SL_base_41,2021.2.3,Win32,144.9275362,,,68,0,68,0,1,,,,,,,,
,,"[""diamond"",""red"",""vert"",""up"",[106,106],[-150,0]]",diamond,red,vert,up,"[106,106]","[-150,0]",up,1,0.8379,,,,,,001,2025-03-17_12h03.36.087,SL_base_41,2021.2.3,Win32,144.9275362,,,69,0,69,0,1,,,,,,,,
,,"[""circle"",""red"",""vert"",""up"",[0,150],[-106,-106]]",circle,red,vert,up,"[0,150]","[-106,-106]",up,1,1.3911,,,,,,001,2025-03-17_12h03.36.087,SL_base_41,2021.2.3,Win32,144.9275362,,,70,0,70,0,1,,,,,,,,
,,"[""diamond"",""no_dis"",""hori"",""left"",[99999,99999],[150,0]]",diamond,no_dis,hori,left,"[99999,99999]","[150,0]",left,1,1.1635,,,,,,001,2025-03-17_12h03.36.087,SL_base_41,2021.2.3,Win32,144.9275362,,,71,0,71,0,1,,,,,,,,
,,"[""circle"",""no_dis"",""vert"",""up"",[99999,99999],[-106,106]]",circle,no_dis,vert,up,"[99999,99999]","[-106,106]",up,1,1.2404,,,,,,001,2025-03-17_12h03.36.087,SL_base_41,2021.2.3,Win32,144.9275362,,,72,0,72,0,1,,,,,,,,
,,"[""circle"",""red"",""vert"",""up"",[106,106],[-106,-106]]",circle,red,vert,up,"[106,106]","[-106,-106]",up,1,2.0131,,,,,,001,2025-03-17_12h03.36.087,SL_base_41,2021.2.3,Win32,144.9275362,,,73,0,73,0,1,,,,,,,,
,,"[""circle"",""red"",""vert"",""up"",[-150,0],[150,0]]",circle,red,vert,up,"[-150,0]","[150,0]",up,1,1.7218,,,,,,001,2025-03-17_12h03.36.087,SL_base_41,2021.2.3,Win32,144.9275362,,,74,0,74,0,1,,,,,,,,
,,"[""diamond"",""red"",""hori"",""left"",[106,106],[-106,106]]",diamond,red,hori,left,"[106,106]","[-106,106]",left,1,1.2265,,,,,,001,2025-03-17_12h03.36.087,SL_base_41,2021.2.3,Win32,144.9275362,,,75,0,75,0,1,,,,,,,,
,,"[""circle"",""red"",""hori"",""left"",[0,150],[-106,-106]]",circle,red,hori,left,"[0,150]","[-106,-106]",left,1,1.2893,,,,,,001,2025-03-17_12h03.36.087,SL_base_41,2021.2.3,Win32,144.9275362,,,76,0,76,0,1,,,,,,,,
,,"[""diamond"",""green"",""vert"",""up"",[106,-106],[-106,106]]",diamond,green,vert,up,"[106,-106]","[-106,106]",up,1,1.0438,,,,,,001,2025-03-17_12h03.36.087,SL_base_41,2021.2.3,Win32,144.9275362,,,77,0,77,0,1,,,,,,,,
,,"[""circle"",""green"",""vert"",""up"",[-150,0],[-106,106]]",circle,green,vert,up,"[-150,0]","[-106,106]",up,1,0.9152,,,,,,001,2025-03-17_12h03.36.087,SL_base_41,2021.2.3,Win32,144.9275362,,,78,0,78,0,1,,,,,,,,
,,"[""diamond"",""green"",""hori"",""left"",[106,106],[-106,106]]",diamond,green,hori,left,"[106,106]","[-106,106]",left,1,1.8523,,,,,,001,2025-03-17_12h03.36.087,SL_base_41,2021.2.3,Win32,144.9275362,,,79,0,79,0,1,,,,,,,,
,,"[""diamond"",""red"",""hori"",""left"",[106,106],[150,0]]",diamond,red,hori,left,"[106,106]","[150,0]",left,1,1.3329,,,,,,001,2025-03-17_12h03.36.087,SL_base_41,2021.2.3,Win32,144.9275362,,,80,0,80,0,1,,,,,,,,
,,"[""circle"",""red"",""hori"",""left"",[106,106],[150,0]]",circle,red,hori,left,"[106,106]","[150,0]",left,1,2.5395,,,,,,001,2025-03-17_12h03.36.087,SL_base_41,2021.2.3,Win32,144.9275362,,,81,0,81,0,1,,,,,,,,
,,"[""circle"",""green"",""vert"",""up"",[106,106],[106,-106]]",circle,green,vert,up,"[106,106]","[106,-106]",up,1,1.0612,,,,,,001,2025-03-17_12h03.36.087,SL_base_41,2021.2.3,Win32,144.9275362,,,82,0,82,0,1,,,,,,,,
,,"[""diamond"",""green"",""hori"",""left"",[-106,-106],[-106,106]]",diamond,green,hori,left,"[-106,-106]","[-106,106]",up,0,0.8032,,,,,,001,2025-03-17_12h03.36.087,SL_base_41,2021.2.3,Win32,144.9275362,,,83,0,83,0,1,,,,,,,,
,,"[""circle"",""no_dis"",""hori"",""left"",[99999,99999],[106,106]]",circle,no_dis,hori,left,"[99999,99999]","[106,106]",left,1,1.308,,,,,,001,2025-03-17_12h03.36.087,SL_base_41,2021.2.3,Win32,144.9275362,,,84,0,84,0,1,,,,,,,,
,,"[""diamond"",""green"",""hori"",""left"",[-106,-106],[106,-106]]",diamond,green,hori,left,"[-106,-106]","[106,-106]",left,1,1.4528,,,,,,001,2025-03-17_12h03.36.087,SL_base_41,2021.2.3,Win32,144.9275362,,,85,0,85,0,1,,,,,,,,
,,"[""circle"",""red"",""vert"",""up"",[106,106],[-106,106]]",circle,red,vert,up,"[106,106]","[-106,106]",up,1,1.5828,,,,,,001,2025-03-17_12h03.36.087,SL_base_41,2021.2.3,Win32,144.9275362,,,86,0,86,0,1,,,,,,,,
,,"[""diamond"",""green"",""vert"",""up"",[106,106],[106,-106]]",diamond,green,vert,up,"[106,106]","[106,-106]",up,1,1.2772,,,,,,001,2025-03-17_12h03.36.087,SL_base_41,2021.2.3,Win32,144.9275362,,,87,0,87,0,1,,,,,,,,
,,"[""diamond"",""green"",""hori"",""left"",[150,0],[-106,-106]]",diamond,green,hori,left,"[150,0]","[-106,-106]",left,1,1.5637,,,,,,001,2025-03-17_12h03.36.087,SL_base_41,2021.2.3,Win32,144.9275362,,,88,0,88,0,1,,,,,,,,
,,"[""circle"",""red"",""vert"",""up"",[106,106],[-106,-106]]",circle,red,vert,up,"[106,106]","[-106,-106]",up,1,1.2653,,,,,,001,2025-03-17_12h03.36.087,SL_base_41,2021.2.3,Win32,144.9275362,,,89,0,89,0,1,,,,,,,,
,,"[""diamond"",""green"",""vert"",""up"",[106,106],[-106,-106]]",diamond,green,vert,up,"[106,106]","[-106,-106]",up,1,0.8296,,,,,,001,2025-03-17_12h03.36.087,SL_base_41,2021.2.3,Win32,144.9275362,,,90,0,90,0,1,,,,,,,,
,,"[""circle"",""green"",""vert"",""up"",[106,106],[-106,-106]]",circle,green,vert,up,"[106,106]","[-106,-106]",left,0,1.4449,,,,,,001,2025-03-17_12h03.36.087,SL_base_41,2021.2.3,Win32,144.9275362,,,91,0,91,0,1,,,,,,,,
,,"[""diamond"",""green"",""hori"",""left"",[106,106],[150,0]]",diamond,green,hori,left,"[106,106]","[150,0]",left,1,1.6584,,,,,,001,2025-03-17_12h03.36.087,SL_base_41,2021.2.3,Win32,144.9275362,,,92,0,92,0,1,,,,,,,,
,,"[""circle"",""no_dis"",""hori"",""left"",[99999,99999],[-150,0]]",circle,no_dis,hori,left,"[99999,99999]","[-150,0]",left,1,1.692,,,,,,001,2025-03-17_12h03.36.087,SL_base_41,2021.2.3,Win32,144.9275362,,,93,0,93,0,1,,,,,,,,
,,"[""diamond"",""no_dis"",""vert"",""up"",[99999,99999],[-106,-106]]",diamond,no_dis,vert,up,"[99999,99999]","[-106,-106]",up,1,1.0749,,,,,,001,2025-03-17_12h03.36.087,SL_base_41,2021.2.3,Win32,144.9275362,,,94,0,94,0,1,,,,,,,,
,,"[""circle"",""green"",""vert"",""up"",[0,150],[0,-150]]",circle,green,vert,up,"[0,150]","[0,-150]",up,1,1.5788,,,,,,001,2025-03-17_12h03.36.087,SL_base_41,2021.2.3,Win32,144.9275362,,,95,0,95,0,1,,,,,,,,
,,"[""circle"",""green"",""vert"",""up"",[106,-106],[-150,0]]",circle,green,vert,up,"[106,-106]","[-150,0]",up,1,2.081,,,,,,001,2025-03-17_12h03.36.087,SL_base_41,2021.2.3,Win32,144.9275362,,,96,0,96,0,1,,,,,,,,
,,"[""circle"",""green"",""hori"",""left"",[-106,106],[0,150]]",circle,green,hori,left,"[-106,106]","[0,150]",left,1,1.6034,,,,,,001,2025-03-17_12h03.36.087,SL_base_41,2021.2.3,Win32,144.9275362,,,97,0,97,0,1,,,,,,,,
,,"[""diamond"",""red"",""hori"",""left"",[0,-150],[150,0]]",diamond,red,hori,left,"[0,-150]","[150,0]",left,1,2.3096,,,,,,001,2025-03-17_12h03.36.087,SL_base_41,2021.2.3,Win32,144.9275362,,,98,0,98,0,1,,,,,,,,
,,"[""circle"",""no_dis"",""hori"",""left"",[99999,99999],[106,106]]",circle,no_dis,hori,left,"[99999,99999]","[106,106]",left,1,1.0356,,,,,,001,2025-03-17_12h03.36.087,SL_base_41,2021.2.3,Win32,144.9275362,,,99,0,99,0,1,,,,,,,,
,,"[""circle"",""green"",""hori"",""left"",[-106,-106],[106,-106]]",circle,green,hori,left,"[-106,-106]","[106,-106]",left,1,1.6312,,,,,,001,2025-03-17_12h03.36.087,SL_base_41,2021.2.3,Win32,144.9275362,,,100,0,100,0,1,,,,,,,,
,,"[""diamond"",""red"",""hori"",""left"",[-106,106],[0,-150]]",diamond,red,hori,left,"[-106,106]","[0,-150]",left,1,1.5963,,,,,,001,2025-03-17_12h03.36.087,SL_base_41,2021.2.3,Win32,144.9275362,,,101,0,101,0,1,,,,,,,,
,,"[""circle"",""green"",""hori"",""left"",[150,0],[-106,-106]]",circle,green,hori,left,"[150,0]","[-106,-106]",left,1,1.9984,,,,,,001,2025-03-17_12h03.36.087,SL_base_41,2021.2.3,Win32,144.9275362,,,102,0,102,0,1,,,,,,,,
,,"[""diamond"",""no_dis"",""vert"",""up"",[99999,99999],[-150,0]]",diamond,no_dis,vert,up,"[99999,99999]","[-150,0]",up,1,2.3908,,,,,,001,2025-03-17_12h03.36.087,SL_base_41,2021.2.3,Win32,144.9275362,,,103,0,103,0,1,,,,,,,,
,,"[""diamond"",""no_dis"",""vert"",""up"",[99999,99999],[-150,0]]",diamond,no_dis,vert,up,"[99999,99999]","[-150,0]",up,1,1.4215,,,,,,001,2025-03-17_12h03.36.087,SL_base_41,2021.2.3,Win32,144.9275362,,,104,0,104,0,1,,,,,,,,
,,"[""circle"",""green"",""vert"",""up"",[106,106],[-106,-106]]",circle,green,vert,up,"[106,106]","[-106,-106]",up,1,1.4107,,,,,,001,2025-03-17_12h03.36.087,SL_base_41,2021.2.3,Win32,144.9275362,,,105,0,105,0,1,,,,,,,,
,,"[""circle"",""green"",""vert"",""up"",[0,150],[-106,-106]]",circle,green,vert,up,"[0,150]","[-106,-106]",up,1,1.8091,,,,,,001,2025-03-17_12h03.36.087,SL_base_41,2021.2.3,Win32,144.9275362,,,106,0,106,0,1,,,,,,,,
,,"[""diamond"",""red"",""vert"",""up"",[150,0],[-106,106]]",diamond,red,vert,up,"[150,0]","[-106,106]",up,1,1.682,,,,,,001,2025-03-17_12h03.36.087,SL_base_41,2021.2.3,Win32,144.9275362,,,107,0,107,0,1,,,,,,,,
,,"[""diamond"",""green"",""hori"",""left"",[150,0],[0,150]]",diamond,green,hori,left,"[150,0]","[0,150]",left,1,1.0835,,,,,,001,2025-03-17_12h03.36.087,SL_base_41,2021.2.3,Win32,144.9275362,,,108,0,108,0,1,,,,,,,,
,,"[""circle"",""green"",""vert"",""up"",[106,-106],[-106,-106]]",circle,green,vert,up,"[106,-106]","[-106,-106]",up,1,2.4409,,,,,,001,2025-03-17_12h03.36.087,SL_base_41,2021.2.3,Win32,144.9275362,,,109,0,109,0,1,,,,,,,,
,,"[""diamond"",""red"",""hori"",""left"",[106,106],[106,-106]]",diamond,red,hori,left,"[106,106]","[106,-106]",left,1,2.8231,,,,,,001,2025-03-17_12h03.36.087,SL_base_41,2021.2.3,Win32,144.9275362,,,110,0,110,0,1,,,,,,,,
,,"[""circle"",""no_dis"",""vert"",""up"",[99999,99999],[106,-106]]",circle,no_dis,vert,up,"[99999,99999]","[106,-106]",up,1,0.9597,,,,,,001,2025-03-17_12h03.36.087,SL_base_41,2021.2.3,Win32,144.9275362,,,111,0,111,0,1,,,,,,,,
,,"[""diamond"",""red"",""vert"",""up"",[106,106],[0,150]]",diamond,red,vert,up,"[106,106]","[0,150]",up,1,1.1171,,,,,,001,2025-03-17_12h03.36.087,SL_base_41,2021.2.3,Win32,144.9275362,,,112,0,112,0,1,,,,,,,,
,,"[""circle"",""no_dis"",""vert"",""up"",[99999,99999],[0,-150]]",circle,no_dis,vert,up,"[99999,99999]","[0,-150]",up,1,1.218,,,,,,001,2025-03-17_12h03.36.087,SL_base_41,2021.2.3,Win32,144.9275362,,,113,0,113,0,1,,,,,,,,
,,"[""circle"",""red"",""hori"",""left"",[0,150],[106,-106]]",circle,red,hori,left,"[0,150]","[106,-106]",left,1,0.944,,,,,,001,2025-03-17_12h03.36.087,SL_base_41,2021.2.3,Win32,144.9275362,,,114,0,114,0,1,,,,,,,,
,,"[""diamond"",""red"",""hori"",""left"",[0,-150],[-106,-106]]",diamond,red,hori,left,"[0,-150]","[-106,-106]",left,1,1.1528,,,,,,001,2025-03-17_12h03.36.087,SL_base_41,2021.2.3,Win32,144.9275362,,,115,0,115,0,1,,,,,,,,
,,"[""circle"",""green"",""hori"",""left"",[-106,106],[-150,0]]",circle,green,hori,left,"[-106,106]","[-150,0]",left,1,1.1852,,,,,,001,2025-03-17_12h03.36.087,SL_base_41,2021.2.3,Win32,144.9275362,,,116,0,116,0,1,,,,,,,,
,,"[""diamond"",""no_dis"",""vert"",""up"",[99999,99999],[-106,106]]",diamond,no_dis,vert,up,"[99999,99999]","[-106,106]",up,1,1.4814,,,,,,001,2025-03-17_12h03.36.087,SL_base_41,2021.2.3,Win32,144.9275362,,,117,0,117,0,1,,,,,,,,
,,"[""circle"",""green"",""hori"",""left"",[-106,-106],[106,106]]",circle,green,hori,left,"[-106,-106]","[106,106]",left,1,1.5814,,,,,,001,2025-03-17_12h03.36.087,SL_base_41,2021.2.3,Win32,144.9275362,,,118,0,118,0,1,,,,,,,,
,,"[""circle"",""green"",""hori"",""left"",[0,-150],[-106,106]]",circle,green,hori,left,"[0,-150]","[-106,106]",left,1,1.8333,,,,,,001,2025-03-17_12h03.36.087,SL_base_41,2021.2.3,Win32,144.9275362,,,119,0,119,0,1,,,,,,,,
,,"[""circle"",""no_dis"",""hori"",""left"",[99999,99999],[-106,106]]",circle,no_dis,hori,left,"[99999,99999]","[-106,106]",left,1,1.1136,,,,,,001,2025-03-17_12h03.36.087,SL_base_41,2021.2.3,Win32,144.9275362,,,120,0,120,0,1,,,,,,,,
,,"[""diamond"",""green"",""hori"",""left"",[106,106],[0,-150]]",diamond,green,hori,left,"[106,106]","[0,-150]",left,1,1.4812,,,,,,001,2025-03-17_12h03.36.087,SL_base_41,2021.2.3,Win32,144.9275362,,,121,0,121,0,1,,,,,,,,
,,"[""diamond"",""green"",""hori"",""left"",[106,106],[106,-106]]",diamond,green,hori,left,"[106,106]","[106,-106]",left,1,2.2728,,,,,,001,2025-03-17_12h03.36.087,SL_base_41,2021.2.3,Win32,144.9275362,,,122,0,122,0,1,,,,,,,,
,,"[""diamond"",""red"",""vert"",""up"",[-106,106],[0,150]]",diamond,red,vert,up,"[-106,106]","[0,150]",up,1,1.5537,,,,,,001,2025-03-17_12h03.36.087,SL_base_41,2021.2.3,Win32,144.9275362,,,123,0,123,0,1,,,,,,,,
,,"[""diamond"",""green"",""vert"",""up"",[-150,0],[150,0]]",diamond,green,vert,up,"[-150,0]","[150,0]",up,1,1.0656,,,,,,001,2025-03-17_12h03.36.087,SL_base_41,2021.2.3,Win32,144.9275362,,,124,0,124,0,1,,,,,,,,
,,"[""circle"",""no_dis"",""vert"",""up"",[99999,99999],[150,0]]",circle,no_dis,vert,up,"[99999,99999]","[150,0]",up,1,1.8351,,,,,,001,2025-03-17_12h03.36.087,SL_base_41,2021.2.3,Win32,144.9275362,,,125,0,125,0,1,,,,,,,,
,,"[""circle"",""no_dis"",""hori"",""left"",[99999,99999],[0,150]]",circle,no_dis,hori,left,"[99999,99999]","[0,150]",left,1,1.1458,,,,,,001,2025-03-17_12h03.36.087,SL_base_41,2021.2.3,Win32,144.9275362,,,126,0,126,0,1,,,,,,,,
,,"[""circle"",""no_dis"",""vert"",""up"",[99999,99999],[106,-106]]",circle,no_dis,vert,up,"[99999,99999]","[106,-106]",up,1,1.2768,,,,,,001,2025-03-17_12h03.36.087,SL_base_41,2021.2.3,Win32,144.9275362,,,127,0,127,0,1,,,,,,,,
,,,,,,,,,,,,,,,,,001,2025-03-17_12h03.36.087,SL_base_41,2021.2.3,Win32,144.9275362,,,,,,,,3,space,15.0826,2,0,2,0,1
,,"[""circle"",""no_dis"",""hori"",""left"",[99999,99999],[0,-150]]",circle,no_dis,hori,left,"[99999,99999]","[0,-150]",left,1,1.1967,,,,,,001,2025-03-17_12h03.36.087,SL_base_41,2021.2.3,Win32,144.9275362,,,0,0,0,0,1,,,,,,,,
,,"[""diamond"",""green"",""vert"",""up"",[106,-106],[-106,106]]",diamond,green,vert,up,"[106,-106]","[-106,106]",up,1,1.5021,,,,,,001,2025-03-17_12h03.36.087,SL_base_41,2021.2.3,Win32,144.9275362,,,1,0,1,0,1,,,,,,,,
,,"[""circle"",""green"",""hori"",""left"",[0,-150],[-106,106]]",circle,green,hori,left,"[0,-150]","[-106,106]",left,1,1.3462,,,,,,001,2025-03-17_12h03.36.087,SL_base_41,2021.2.3,Win32,144.9275362,,,2,0,2,0,1,,,,,,,,
,,"[""circle"",""red"",""vert"",""up"",[106,-106],[0,-150]]",circle,red,vert,up,"[106,-106]","[0,-150]",up,1,1.076,,,,,,001,2025-03-17_12h03.36.087,SL_base_41,2021.2.3,Win32,144.9275362,,,3,0,3,0,1,,,,,,,,
,,"[""diamond"",""red"",""hori"",""left"",[106,106],[0,-150]]",diamond,red,hori,left,"[106,106]","[0,-150]",left,1,1.183,,,,,,001,2025-03-17_12h03.36.087,SL_base_41,2021.2.3,Win32,144.9275362,,,4,0,4,0,1,,,,,,,,
,,"[""circle"",""no_dis"",""hori"",""left"",[99999,99999],[0,150]]",circle,no_dis,hori,left,"[99999,99999]","[0,150]",left,1,1.1982,,,,,,001,2025-03-17_12h03.36.087,SL_base_41,2021.2.3,Win32,144.9275362,,,5,0,5,0,1,,,,,,,,
,,"[""diamond"",""red"",""vert"",""up"",[106,106],[-150,0]]",diamond,red,vert,up,"[106,106]","[-150,0]",up,1,1.065,,,,,,001,2025-03-17_12h03.36.087,SL_base_41,2021.2.3,Win32,144.9275362,,,6,0,6,0,1,,,,,,,,
,,"[""diamond"",""red"",""hori"",""left"",[0,-150],[150,0]]",diamond,red,hori,left,"[0,-150]","[150,0]",left,1,1.3934,,,,,,001,2025-03-17_12h03.36.087,SL_base_41,2021.2.3,Win32,144.9275362,,,7,0,7,0,1,,,,,,,,
,,"[""diamond"",""red"",""vert"",""up"",[150,0],[-106,106]]",diamond,red,vert,up,"[150,0]","[-106,106]",up,1,1.6743,,,,,,001,2025-03-17_12h03.36.087,SL_base_41,2021.2.3,Win32,144.9275362,,,8,0,8,0,1,,,,,,,,
,,"[""circle"",""no_dis"",""vert"",""up"",[99999,99999],[106,-106]]",circle,no_dis,vert,up,"[99999,99999]","[106,-106]",up,1,1.7393,,,,,,001,2025-03-17_12h03.36.087,SL_base_41,2021.2.3,Win32,144.9275362,,,9,0,9,0,1,,,,,,,,
,,"[""diamond"",""green"",""hori"",""left"",[106,106],[0,-150]]",diamond,green,hori,left,"[106,106]","[0,-150]",left,1,1.0137,,,,,,001,2025-03-17_12h03.36.087,SL_base_41,2021.2.3,Win32,144.9275362,,,10,0,10,0,1,,,,,,,,
,,"[""circle"",""red"",""hori"",""left"",[-106,106],[-106,-106]]",circle,red,hori,left,"[-106,106]","[-106,-106]",left,1,1.4342,,,,,,001,2025-03-17_12h03.36.087,SL_base_41,2021.2.3,Win32,144.9275362,,,11,0,11,0,1,,,,,,,,
,,"[""diamond"",""red"",""vert"",""up"",[-106,106],[106,106]]",diamond,red,vert,up,"[-106,106]","[106,106]",up,1,1.108,,,,,,001,2025-03-17_12h03.36.087,SL_base_41,2021.2.3,Win32,144.9275362,,,12,0,12,0,1,,,,,,,,
,,"[""diamond"",""green"",""vert"",""up"",[106,106],[-106,-106]]",diamond,green,vert,up,"[106,106]","[-106,-106]",up,1,1.8456,,,,,,001,2025-03-17_12h03.36.087,SL_base_41,2021.2.3,Win32,144.9275362,,,13,0,13,0,1,,,,,,,,
,,"[""diamond"",""red"",""hori"",""left"",[106,106],[-106,-106]]",diamond,red,hori,left,"[106,106]","[-106,-106]",left,1,1.2096,,,,,,001,2025-03-17_12h03.36.087,SL_base_41,2021.2.3,Win32,144.9275362,,,14,0,14,0,1,,,,,,,,
,,"[""circle"",""green"",""hori"",""left"",[-106,106],[0,150]]",circle,green,hori,left,"[-106,106]","[0,150]",left,1,1.4145,,,,,,001,2025-03-17_12h03.36.087,SL_base_41,2021.2.3,Win32,144.9275362,,,15,0,15,0,1,,,,,,,,
,,"[""diamond"",""green"",""hori"",""left"",[106,106],[106,-106]]",diamond,green,hori,left,"[106,106]","[106,-106]",left,1,1.6165,,,,,,001,2025-03-17_12h03.36.087,SL_base_41,2021.2.3,Win32,144.9275362,,,16,0,16,0,1,,,,,,,,
,,"[""circle"",""no_dis"",""hori"",""left"",[99999,99999],[106,106]]",circle,no_dis,hori,left,"[99999,99999]","[106,106]",left,1,1.4208,,,,,,001,2025-03-17_12h03.36.087,SL_base_41,2021.2.3,Win32,144.9275362,,,17,0,17,0,1,,,,,,,,
,,"[""circle"",""green"",""hori"",""left"",[0,150],[150,0]]",circle,green,hori,left,"[0,150]","[150,0]",left,1,1.4123,,,,,,001,2025-03-17_12h03.36.087,SL_base_41,2021.2.3,Win32,144.9275362,,,18,0,18,0,1,,,,,,,,
,,"[""diamond"",""red"",""vert"",""up"",[106,-106],[106,106]]",diamond,red,vert,up,"[106,-106]","[106,106]",up,1,1.5824,,,,,,001,2025-03-17_12h03.36.087,SL_base_41,2021.2.3,Win32,144.9275362,,,19,0,19,0,1,,,,,,,,
,,"[""diamond"",""no_dis"",""vert"",""up"",[99999,99999],[106,-106]]",diamond,no_dis,vert,up,"[99999,99999]","[106,-106]",up,1,1.3925,,,,,,001,2025-03-17_12h03.36.087,SL_base_41,2021.2.3,Win32,144.9275362,,,20,0,20,0,1,,,,,,,,
,,"[""circle"",""green"",""vert"",""up"",[106,-106],[-106,-106]]",circle,green,vert,up,"[106,-106]","[-106,-106]",up,1,1.6197,,,,,,001,2025-03-17_12h03.36.087,SL_base_41,2021.2.3,Win32,144.9275362,,,21,0,21,0,1,,,,,,,,
,,"[""diamond"",""no_dis"",""vert"",""up"",[99999,99999],[106,106]]",diamond,no_dis,vert,up,"[99999,99999]","[106,106]",up,1,1.8016,,,,,,001,2025-03-17_12h03.36.087,SL_base_41,2021.2.3,Win32,144.9275362,,,22,0,22,0,1,,,,,,,,
,,"[""diamond"",""no_dis"",""vert"",""up"",[99999,99999],[150,0]]",diamond,no_dis,vert,up,"[99999,99999]","[150,0]",up,1,0.8836,,,,,,001,2025-03-17_12h03.36.087,SL_base_41,2021.2.3,Win32,144.9275362,,,23,0,23,0,1,,,,,,,,
,,"[""circle"",""no_dis"",""hori"",""left"",[99999,99999],[-150,0]]",circle,no_dis,hori,left,"[99999,99999]","[-150,0]",left,1,1.7446,,,,,,001,2025-03-17_12h03.36.087,SL_base_41,2021.2.3,Win32,144.9275362,,,24,0,24,0,1,,,,,,,,
,,"[""circle"",""green"",""vert"",""up"",[106,106],[106,-106]]",circle,green,vert,up,"[106,106]","[106,-106]",up,1,1.0537,,,,,,001,2025-03-17_12h03.36.087,SL_base_41,2021.2.3,Win32,144.9275362,,,25,0,25,0,1,,,,,,,,
,,"[""circle"",""no_dis"",""hori"",""left"",[99999,99999],[106,106]]",circle,no_dis,hori,left,"[99999,99999]","[106,106]",left,1,1.33,,,,,,001,2025-03-17_12h03.36.087,SL_base_41,2021.2.3,Win32,144.9275362,,,26,0,26,0,1,,,,,,,,
,,"[""circle"",""red"",""hori"",""left"",[106,106],[0,-150]]",circle,red,hori,left,"[106,106]","[0,-150]",left,1,1.3936,,,,,,001,2025-03-17_12h03.36.087,SL_base_41,2021.2.3,Win32,144.9275362,,,27,0,27,0,1,,,,,,,,
,,"[""circle"",""red"",""vert"",""up"",[-106,106],[-150,0]]",circle,red,vert,up,"[-106,106]","[-150,0]",up,1,1.2814,,,,,,001,2025-03-17_12h03.36.087,SL_base_41,2021.2.3,Win32,144.9275362,,,28,0,28,0,1,,,,,,,,
,,"[""diamond"",""red"",""hori"",""left"",[106,106],[150,0]]",diamond,red,hori,left,"[106,106]","[150,0]",left,1,1.5618,,,,,,001,2025-03-17_12h03.36.087,SL_base_41,2021.2.3,Win32,144.9275362,,,29,0,29,0,1,,,,,,,,
,,"[""circle"",""green"",""hori"",""left"",[-106,-106],[106,-106]]",circle,green,hori,left,"[-106,-106]","[106,-106]",left,1,1.1382,,,,,,001,2025-03-17_12h03.36.087,SL_base_41,2021.2.3,Win32,144.9275362,,,30,0,30,0,1,,,,,,,,
,,"[""circle"",""no_dis"",""vert"",""up"",[99999,99999],[-106,106]]",circle,no_dis,vert,up,"[99999,99999]","[-106,106]",up,1,0.9652,,,,,,001,2025-03-17_12h03.36.087,SL_base_41,2021.2.3,Win32,144.9275362,,,31,0,31,0,1,,,,,,,,
,,"[""diamond"",""green"",""hori"",""left"",[106,106],[-106,106]]",diamond,green,hori,left,"[106,106]","[-106,106]",left,1,0.965,,,,,,001,2025-03-17_12h03.36.087,SL_base_41,2021.2.3,Win32,144.9275362,,,32,0,32,0,1,,,,,,,,
,,"[""diamond"",""no_dis"",""hori"",""left"",[99999,99999],[150,0]]",diamond,no_dis,hori,left,"[99999,99999]","[150,0]",left,1,1.2321,,,,,,001,2025-03-17_12h03.36.087,SL_base_41,2021.2.3,Win32,144.9275362,,,33,0,33,0,1,,,,,,,,
,,"[""circle"",""red"",""hori"",""left"",[106,106],[150,0]]",circle,red,hori,left,"[106,106]","[150,0]",left,1,1.1562,,,,,,001,2025-03-17_12h03.36.087,SL_base_41,2021.2.3,Win32,144.9275362,,,34,0,34,0,1,,,,,,,,
,,"[""diamond"",""red"",""vert"",""up"",[0,-150],[150,0]]",diamond,red,vert,up,"[0,-150]","[150,0]",up,1,1.0791,,,,,,001,2025-03-17_12h03.36.087,SL_base_41,2021.2.3,Win32,144.9275362,,,35,0,35,0,1,,,,,,,,
,,"[""circle"",""no_dis"",""hori"",""left"",[99999,99999],[106,-106]]",circle,no_dis,hori,left,"[99999,99999]","[106,-106]",left,1,1.6732,,,,,,001,2025-03-17_12h03.36.087,SL_base_41,2021.2.3,Win32,144.9275362,,,36,0,36,0,1,,,,,,,,
,,"[""diamond"",""red"",""hori"",""left"",[106,106],[106,-106]]",diamond,red,hori,left,"[106,106]","[106,-106]",left,1,1.3027,,,,,,001,2025-03-17_12h03.36.087,SL_base_41,2021.2.3,Win32,144.9275362,,,37,0,37,0,1,,,,,,,,
,,"[""diamond"",""no_dis"",""hori"",""left"",[99999,99999],[-106,106]]",diamond,no_dis,hori,left,"[99999,99999]","[-106,106]",left,1,1.1292,,,,,,001,2025-03-17_12h03.36.087,SL_base_41,2021.2.3,Win32,144.9275362,,,38,0,38,0,1,,,,,,,,
,,"[""circle"",""green"",""hori"",""left"",[-150,0],[106,106]]",circle,green,hori,left,"[-150,0]","[106,106]",left,1,1.7994,,,,,,001,2025-03-17_12h03.36.087,SL_base_41,2021.2.3,Win32,144.9275362,,,39,0,39,0,1,,,,,,,,
,,"[""diamond"",""green"",""hori"",""left"",[0,150],[106,-106]]",diamond,green,hori,left,"[0,150]","[106,-106]",left,1,0.8137,,,,,,001,2025-03-17_12h03.36.087,SL_base_41,2021.2.3,Win32,144.9275362,,,40,0,40,0,1,,,,,,,,
,,"[""circle"",""red"",""vert"",""up"",[0,-150],[0,150]]",circle,red,vert,up,"[0,-150]","[0,150]",up,1,1.2991,,,,,,001,2025-03-17_12h03.36.087,SL_base_41,2021.2.3,Win32,144.9275362,,,41,0,41,0,1,,,,,,,,
,,"[""diamond"",""green"",""hori"",""left"",[-150,0],[0,-150]]",diamond,green,hori,left,"[-150,0]","[0,-150]",left,1,0.8139,,,,,,001,2025-03-17_12h03.36.087,SL_base_41,2021.2.3,Win32,144.9275362,,,42,0,42,0,1,,,,,,,,
,,"[""circle"",""no_dis"",""vert"",""up"",[99999,99999],[106,106]]",circle,no_dis,vert,up,"[99999,99999]","[106,106]",up,1,2.2082,,,,,,001,2025-03-17_12h03.36.087,SL_base_41,2021.2.3,Win32,144.9275362,,,43,0,43,0,1,,,,,,,,
,,"[""circle"",""green"",""hori"",""left"",[-106,106],[-150,0]]",circle,green,hori,left,"[-106,106]","[-150,0]",left,1,1.0071,,,,,,001,2025-03-17_12h03.36.087,SL_base_41,2021.2.3,Win32,144.9275362,,,44,0,44,0,1,,,,,,,,
,,"[""circle"",""red"",""vert"",""up"",[150,0],[0,-150]]",circle,red,vert,up,"[150,0]","[0,-150]",up,1,1.3333,,,,,,001,2025-03-17_12h03.36.087,SL_base_41,2021.2.3,Win32,144.9275362,,,45,0,45,0,1,,,,,,,,
,,"[""circle"",""green"",""vert"",""up"",[0,150],[-106,-106]]",circle,green,vert,up,"[0,150]","[-106,-106]",up,1,1.6406,,,,,,001,2025-03-17_12h03.36.087,SL_base_41,2021.2.3,Win32,144.9275362,,,46,0,46,0,1,,,,,,,,
,,"[""diamond"",""red"",""hori"",""left"",[-150,0],[-106,106]]",diamond,red,hori,left,"[-150,0]","[-106,106]",left,1,2.4126,,,,,,001,2025-03-17_12h03.36.087,SL_base_41,2021.2.3,Win32,144.9275362,,,47,0,47,0,1,,,,,,,,
,,"[""diamond"",""no_dis"",""hori"",""left"",[99999,99999],[0,150]]",diamond,no_dis,hori,left,"[99999,99999]","[0,150]",left,1,2.0039,,,,,,001,2025-03-17_12h03.36.087,SL_base_41,2021.2.3,Win32,144.9275362,,,48,0,48,0,1,,,,,,,,
,,"[""diamond"",""red"",""hori"",""left"",[106,-106],[-106,106]]",diamond,red,hori,left,"[106,-106]","[-106,106]",left,1,1.9143,,,,,,001,2025-03-17_12h03.36.087,SL_base_41,2021.2.3,Win32,144.9275362,,,49,0,49,0,1,,,,,,,,
,,"[""circle"",""no_dis"",""vert"",""up"",[99999,99999],[150,0]]",circle,no_dis,vert,up,"[99999,99999]","[150,0]",up,1,1.349,,,,,,001,2025-03-17_12h03.36.087,SL_base_41,2021.2.3,Win32,144.9275362,,,50,0,50,0,1,,,,,,,,
,,"[""circle"",""no_dis"",""vert"",""up"",[99999,99999],[-106,106]]",circle,no_dis,vert,up,"[99999,99999]","[-106,106]",up,1,1.0621,,,,,,001,2025-03-17_12h03.36.087,SL_base_41,2021.2.3,Win32,144.9275362,,,51,0,51,0,1,,,,,,,,
,,"[""circle"",""green"",""hori"",""left"",[-106,-106],[106,106]]",circle,green,hori,left,"[-106,-106]","[106,106]",left,1,1.1563,,,,,,001,2025-03-17_12h03.36.087,SL_base_41,2021.2.3,Win32,144.9275362,,,52,0,52,0,1,,,,,,,,
,,"[""diamond"",""no_dis"",""hori"",""left"",[99999,99999],[-106,-106]]",diamond,no_dis,hori,left,"[99999,99999]","[-106,-106]",left,1,0.7523,,,,,,001,2025-03-17_12h03.36.087,SL_base_41,2021.2.3,Win32,144.9275362,,,53,0,53,0,1,,,,,,,,
,,"[""circle"",""red"",""hori"",""left"",[-150,0],[150,0]]",circle,red,hori,left,"[-150,0]","[150,0]",left,1,1.1971,,,,,,001,2025-03-17_12h03.36.087,SL_base_41,2021.2.3,Win32,144.9275362,,,54,0,54,0,1,,,,,,,,
,,"[""diamond"",""no_dis"",""vert"",""up"",[99999,99999],[-106,-106]]",diamond,no_dis,vert,up,"[99999,99999]","[-106,-106]",up,1,1.1456,,,,,,001,2025-03-17_12h03.36.087,SL_base_41,2021.2.3,Win32,144.9275362,,,55,0,55,0,1,,,,,,,,
,,"[""diamond"",""red"",""hori"",""left"",[106,106],[-106,106]]",diamond,red,hori,left,"[106,106]","[-106,106]",left,1,1.4096,,,,,,001,2025-03-17_12h03.36.087,SL_base_41,2021.2.3,Win32,144.9275362,,,56,0,56,0,1,,,,,,,,
,,"[""diamond"",""no_dis"",""hori"",""left"",[99999,99999],[-150,0]]",diamond,no_dis,hori,left,"[99999,99999]","[-150,0]",left,1,1.4633,,,,,,001,2025-03-17_12h03.36.087,SL_base_41,2021.2.3,Win32,144.9275362,,,57,0,57,0,1,,,,,,,,
,,"[""diamond"",""red"",""hori"",""left"",[0,150],[106,-106]]",diamond,red,hori,left,"[0,150]","[106,-106]",left,1,1.0636,,,,,,001,2025-03-17_12h03.36.087,SL_base_41,2021.2.3,Win32,144.9275362,,,58,0,58,0,1,,,,,,,,
