﻿key_resp.keys,key_resp.rt,trial_para,tar_shape,dis_color_condi,tar_line,cor_resp,dis_loc,tar_loc,resp.keys,resp.corr,resp.rt,trials.thisRepN,trials.thisTrialN,trials.thisN,trials.thisIndex,trials.ran,participant,date,expName,psychopyVersion,OS,frameRate,key_resp_2.keys,key_resp_2.rt,trials_2.thisRepN,trials_2.thisTrialN,trials_2.thisN,trials_2.thisIndex,trials_2.ran,block_num,key_resp_3.keys,key_resp_3.rt,trials_3.thisRepN,trials_3.thisTrialN,trials_3.thisN,trials_3.thisIndex,trials_3.ran
space,66.9378,"[""diamond"",""green"",""hori"",""left"",[150,0],[0,-150]]",diamond,green,hori,left,"[150,0]","[0,-150]",up,0,1.9448,0,0,0,0,1,001,2025-03-10_16h57.55.178,SL_base_41,2021.2.3,Win32,120.7437817,,,,,,,,,,,,,,,
,,"[""circle"",""green"",""vert"",""up"",[106,106],[150,0]]",circle,green,vert,up,"[106,106]","[150,0]",up,1,2.4434,1,0,1,0,1,001,2025-03-10_16h57.55.178,SL_base_41,2021.2.3,Win32,120.7437817,,,,,,,,,,,,,,,
,,"[""diamond"",""red"",""hori"",""left"",[-106,-106],[-150,0]]",diamond,red,hori,left,"[-106,-106]","[-150,0]",left,1,2.7159,2,0,2,0,1,001,2025-03-10_16h57.55.178,SL_base_41,2021.2.3,Win32,120.7437817,,,,,,,,,,,,,,,
,,"[""circle"",""red"",""vert"",""up"",[150,0],[0,-150]]",circle,red,vert,up,"[150,0]","[0,-150]",left,0,2.1185,3,0,3,0,1,001,2025-03-10_16h57.55.178,SL_base_41,2021.2.3,Win32,120.7437817,,,,,,,,,,,,,,,
,,"[""diamond"",""green"",""vert"",""up"",[150,0],[-106,-106]]",diamond,green,vert,up,"[150,0]","[-106,-106]",left,0,1.3092,4,0,4,0,1,001,2025-03-10_16h57.55.178,SL_base_41,2021.2.3,Win32,120.7437817,,,,,,,,,,,,,,,
,,"[""diamond"",""red"",""vert"",""up"",[-150,0],[-106,106]]",diamond,red,vert,up,"[-150,0]","[-106,106]",,0,,5,0,5,0,1,001,2025-03-10_16h57.55.178,SL_base_41,2021.2.3,Win32,120.7437817,,,,,,,,,,,,,,,
,,"[""diamond"",""green"",""vert"",""up"",[106,-106],[0,150]]",diamond,green,vert,up,"[106,-106]","[0,150]",left,0,1.4569,6,0,6,0,1,001,2025-03-10_16h57.55.178,SL_base_41,2021.2.3,Win32,120.7437817,,,,,,,,,,,,,,,
,,"[""circle"",""green"",""vert"",""up"",[-106,-106],[0,150]]",circle,green,vert,up,"[-106,-106]","[0,150]",up,1,1.279,7,0,7,0,1,001,2025-03-10_16h57.55.178,SL_base_41,2021.2.3,Win32,120.7437817,,,,,,,,,,,,,,,
,,"[""diamond"",""red"",""hori"",""left"",[106,106],[0,-150]]",diamond,red,hori,left,"[106,106]","[0,-150]",left,1,1.6769,8,0,8,0,1,001,2025-03-10_16h57.55.178,SL_base_41,2021.2.3,Win32,120.7437817,,,,,,,,,,,,,,,
,,"[""circle"",""no_dis"",""vert"",""up"",[99999,99999],[150,0]]",circle,no_dis,vert,up,"[99999,99999]","[150,0]",,0,,9,0,9,0,1,001,2025-03-10_16h57.55.178,SL_base_41,2021.2.3,Win32,120.7437817,,,,,,,,,,,,,,,
,,"[""diamond"",""green"",""hori"",""left"",[150,0],[0,-150]]",diamond,green,hori,left,"[150,0]","[0,-150]",left,1,2.1428,,,,,,001,2025-03-10_16h57.55.178,SL_base_41,2021.2.3,Win32,120.7437817,space,22.9266,0,0,0,0,1,,,,,,,,
,,"[""circle"",""green"",""vert"",""up"",[106,106],[150,0]]",circle,green,vert,up,"[106,106]","[150,0]",up,1,2.3615,,,,,,001,2025-03-10_16h57.55.178,SL_base_41,2021.2.3,Win32,120.7437817,,,1,0,1,0,1,,,,,,,,
,,"[""diamond"",""red"",""hori"",""left"",[-106,-106],[-150,0]]",diamond,red,hori,left,"[-106,-106]","[-150,0]",left,1,2.2563,,,,,,001,2025-03-10_16h57.55.178,SL_base_41,2021.2.3,Win32,120.7437817,,,2,0,2,0,1,,,,,,,,
,,"[""circle"",""red"",""vert"",""up"",[150,0],[0,-150]]",circle,red,vert,up,"[150,0]","[0,-150]",up,1,2.1145,,,,,,001,2025-03-10_16h57.55.178,SL_base_41,2021.2.3,Win32,120.7437817,,,3,0,3,0,1,,,,,,,,
,,"[""diamond"",""green"",""vert"",""up"",[150,0],[-106,-106]]",diamond,green,vert,up,"[150,0]","[-106,-106]",up,1,2.7158,,,,,,001,2025-03-10_16h57.55.178,SL_base_41,2021.2.3,Win32,120.7437817,,,4,0,4,0,1,,,,,,,,
,,"[""diamond"",""red"",""vert"",""up"",[-150,0],[-106,106]]",diamond,red,vert,up,"[-150,0]","[-106,106]",,0,,,,,,,001,2025-03-10_16h57.55.178,SL_base_41,2021.2.3,Win32,120.7437817,,,5,0,5,0,1,,,,,,,,
,,"[""diamond"",""green"",""vert"",""up"",[106,-106],[0,150]]",diamond,green,vert,up,"[106,-106]","[0,150]",left,0,2.0727,,,,,,001,2025-03-10_16h57.55.178,SL_base_41,2021.2.3,Win32,120.7437817,,,6,0,6,0,1,,,,,,,,
,,"[""circle"",""green"",""vert"",""up"",[-106,-106],[0,150]]",circle,green,vert,up,"[-106,-106]","[0,150]",left,0,2.1664,,,,,,001,2025-03-10_16h57.55.178,SL_base_41,2021.2.3,Win32,120.7437817,,,7,0,7,0,1,,,,,,,,
,,"[""diamond"",""red"",""hori"",""left"",[106,106],[0,-150]]",diamond,red,hori,left,"[106,106]","[0,-150]",left,1,1.6795,,,,,,001,2025-03-10_16h57.55.178,SL_base_41,2021.2.3,Win32,120.7437817,,,8,0,8,0,1,,,,,,,,
,,"[""circle"",""no_dis"",""vert"",""up"",[99999,99999],[150,0]]",circle,no_dis,vert,up,"[99999,99999]","[150,0]",up,1,1.6946,,,,,,001,2025-03-10_16h57.55.178,SL_base_41,2021.2.3,Win32,120.7437817,,,9,0,9,0,1,,,,,,,,
,,"[""circle"",""green"",""hori"",""left"",[106,106],[150,0]]",circle,green,hori,left,"[106,106]","[150,0]",left,1,1.8422,,,,,,001,2025-03-10_16h57.55.178,SL_base_41,2021.2.3,Win32,120.7437817,,,10,0,10,0,1,,,,,,,,
,,"[""circle"",""green"",""vert"",""up"",[-106,106],[0,-150]]",circle,green,vert,up,"[-106,106]","[0,-150]",up,1,1.4842,,,,,,001,2025-03-10_16h57.55.178,SL_base_41,2021.2.3,Win32,120.7437817,,,11,0,11,0,1,,,,,,,,
,,"[""circle"",""no_dis"",""vert"",""up"",[99999,99999],[0,150]]",circle,no_dis,vert,up,"[99999,99999]","[0,150]",up,1,1.4537,,,,,,001,2025-03-10_16h57.55.178,SL_base_41,2021.2.3,Win32,120.7437817,,,12,0,12,0,1,,,,,,,,
,,"[""circle"",""no_dis"",""hori"",""left"",[99999,99999],[0,150]]",circle,no_dis,hori,left,"[99999,99999]","[0,150]",up,0,1.6656,,,,,,001,2025-03-10_16h57.55.178,SL_base_41,2021.2.3,Win32,120.7437817,,,13,0,13,0,1,,,,,,,,
,,"[""diamond"",""green"",""hori"",""left"",[106,106],[0,150]]",diamond,green,hori,left,"[106,106]","[0,150]",up,0,1.6138,,,,,,001,2025-03-10_16h57.55.178,SL_base_41,2021.2.3,Win32,120.7437817,,,14,0,14,0,1,,,,,,,,
,,"[""circle"",""green"",""vert"",""up"",[0,-150],[106,-106]]",circle,green,vert,up,"[0,-150]","[106,-106]",up,1,1.3596,,,,,,001,2025-03-10_16h57.55.178,SL_base_41,2021.2.3,Win32,120.7437817,,,15,0,15,0,1,,,,,,,,
,,"[""diamond"",""no_dis"",""vert"",""up"",[99999,99999],[-150,0]]",diamond,no_dis,vert,up,"[99999,99999]","[-150,0]",up,1,1.8512,,,,,,001,2025-03-10_16h57.55.178,SL_base_41,2021.2.3,Win32,120.7437817,,,16,0,16,0,1,,,,,,,,
,,"[""diamond"",""red"",""hori"",""left"",[-106,-106],[106,-106]]",diamond,red,hori,left,"[-106,-106]","[106,-106]",left,1,1.8947,,,,,,001,2025-03-10_16h57.55.178,SL_base_41,2021.2.3,Win32,120.7437817,,,17,0,17,0,1,,,,,,,,
,,"[""diamond"",""green"",""hori"",""left"",[-106,106],[0,150]]",diamond,green,hori,left,"[-106,106]","[0,150]",left,1,1.9798,,,,,,001,2025-03-10_16h57.55.178,SL_base_41,2021.2.3,Win32,120.7437817,,,18,0,18,0,1,,,,,,,,
,,"[""circle"",""green"",""hori"",""left"",[106,-106],[106,106]]",circle,green,hori,left,"[106,-106]","[106,106]",left,1,2.1482,,,,,,001,2025-03-10_16h57.55.178,SL_base_41,2021.2.3,Win32,120.7437817,,,19,0,19,0,1,,,,,,,,
,,"[""diamond"",""green"",""vert"",""up"",[0,-150],[106,-106]]",diamond,green,vert,up,"[0,-150]","[106,-106]",up,1,1.4005,,,,,,001,2025-03-10_16h57.55.178,SL_base_41,2021.2.3,Win32,120.7437817,,,20,0,20,0,1,,,,,,,,
,,"[""diamond"",""no_dis"",""hori"",""left"",[99999,99999],[106,106]]",diamond,no_dis,hori,left,"[99999,99999]","[106,106]",left,1,1.7084,,,,,,001,2025-03-10_16h57.55.178,SL_base_41,2021.2.3,Win32,120.7437817,,,21,0,21,0,1,,,,,,,,
,,"[""diamond"",""no_dis"",""vert"",""up"",[99999,99999],[-150,0]]",diamond,no_dis,vert,up,"[99999,99999]","[-150,0]",up,1,1.8006,,,,,,001,2025-03-10_16h57.55.178,SL_base_41,2021.2.3,Win32,120.7437817,,,22,0,22,0,1,,,,,,,,
,,"[""circle"",""red"",""hori"",""left"",[0,150],[-106,-106]]",circle,red,hori,left,"[0,150]","[-106,-106]",left,1,2.2041,,,,,,001,2025-03-10_16h57.55.178,SL_base_41,2021.2.3,Win32,120.7437817,,,23,0,23,0,1,,,,,,,,
,,"[""circle"",""red"",""hori"",""left"",[-150,0],[-106,-106]]",circle,red,hori,left,"[-150,0]","[-106,-106]",left,1,1.7663,,,,,,001,2025-03-10_16h57.55.178,SL_base_41,2021.2.3,Win32,120.7437817,,,24,0,24,0,1,,,,,,,,
,,"[""circle"",""red"",""hori"",""left"",[150,0],[-106,-106]]",circle,red,hori,left,"[150,0]","[-106,-106]",left,1,1.8108,,,,,,001,2025-03-10_16h57.55.178,SL_base_41,2021.2.3,Win32,120.7437817,,,25,0,25,0,1,,,,,,,,
,,"[""circle"",""red"",""hori"",""left"",[-150,0],[150,0]]",circle,red,hori,left,"[-150,0]","[150,0]",left,1,1.3572,,,,,,001,2025-03-10_16h57.55.178,SL_base_41,2021.2.3,Win32,120.7437817,,,26,0,26,0,1,,,,,,,,
,,"[""diamond"",""green"",""vert"",""up"",[106,106],[-106,-106]]",diamond,green,vert,up,"[106,106]","[-106,-106]",up,1,1.3141,,,,,,001,2025-03-10_16h57.55.178,SL_base_41,2021.2.3,Win32,120.7437817,,,27,0,27,0,1,,,,,,,,
,,"[""diamond"",""green"",""vert"",""up"",[106,106],[-106,-106]]",diamond,green,vert,up,"[106,106]","[-106,-106]",up,1,1.4789,,,,,,001,2025-03-10_16h57.55.178,SL_base_41,2021.2.3,Win32,120.7437817,,,28,0,28,0,1,,,,,,,,
,,"[""circle"",""red"",""hori"",""left"",[106,-106],[-150,0]]",circle,red,hori,left,"[106,-106]","[-150,0]",left,1,1.5922,,,,,,001,2025-03-10_16h57.55.178,SL_base_41,2021.2.3,Win32,120.7437817,,,29,0,29,0,1,,,,,,,,
,,"[""diamond"",""green"",""vert"",""up"",[106,-106],[-106,-106]]",diamond,green,vert,up,"[106,-106]","[-106,-106]",up,1,1.5086,,,,,,001,2025-03-10_16h57.55.178,SL_base_41,2021.2.3,Win32,120.7437817,,,30,0,30,0,1,,,,,,,,
,,"[""diamond"",""red"",""vert"",""up"",[0,150],[-106,106]]",diamond,red,vert,up,"[0,150]","[-106,106]",up,1,1.7244,,,,,,001,2025-03-10_16h57.55.178,SL_base_41,2021.2.3,Win32,120.7437817,,,31,0,31,0,1,,,,,,,,
,,"[""circle"",""red"",""vert"",""up"",[106,106],[150,0]]",circle,red,vert,up,"[106,106]","[150,0]",up,1,1.0525,,,,,,001,2025-03-10_16h57.55.178,SL_base_41,2021.2.3,Win32,120.7437817,,,32,0,32,0,1,,,,,,,,
,,"[""circle"",""green"",""vert"",""up"",[106,106],[-150,0]]",circle,green,vert,up,"[106,106]","[-150,0]",up,1,1.0387,,,,,,001,2025-03-10_16h57.55.178,SL_base_41,2021.2.3,Win32,120.7437817,,,33,0,33,0,1,,,,,,,,
,,"[""circle"",""no_dis"",""vert"",""up"",[99999,99999],[0,-150]]",circle,no_dis,vert,up,"[99999,99999]","[0,-150]",up,1,1.3159,,,,,,001,2025-03-10_16h57.55.178,SL_base_41,2021.2.3,Win32,120.7437817,,,34,0,34,0,1,,,,,,,,
,,"[""diamond"",""red"",""hori"",""left"",[106,106],[-106,-106]]",diamond,red,hori,left,"[106,106]","[-106,-106]",left,1,1.2475,,,,,,001,2025-03-10_16h57.55.178,SL_base_41,2021.2.3,Win32,120.7437817,,,35,0,35,0,1,,,,,,,,
,,"[""diamond"",""no_dis"",""vert"",""up"",[99999,99999],[0,150]]",diamond,no_dis,vert,up,"[99999,99999]","[0,150]",up,1,1.278,,,,,,001,2025-03-10_16h57.55.178,SL_base_41,2021.2.3,Win32,120.7437817,,,36,0,36,0,1,,,,,,,,
,,"[""circle"",""no_dis"",""vert"",""up"",[99999,99999],[-106,106]]",circle,no_dis,vert,up,"[99999,99999]","[-106,106]",left,0,1.1449,,,,,,001,2025-03-10_16h57.55.178,SL_base_41,2021.2.3,Win32,120.7437817,,,37,0,37,0,1,,,,,,,,
,,"[""circle"",""red"",""hori"",""left"",[-150,0],[106,-106]]",circle,red,hori,left,"[-150,0]","[106,-106]",left,1,1.8024,,,,,,001,2025-03-10_16h57.55.178,SL_base_41,2021.2.3,Win32,120.7437817,,,38,0,38,0,1,,,,,,,,
,,"[""diamond"",""green"",""vert"",""up"",[106,106],[0,-150]]",diamond,green,vert,up,"[106,106]","[0,-150]",up,1,1.3191,,,,,,001,2025-03-10_16h57.55.178,SL_base_41,2021.2.3,Win32,120.7437817,,,39,0,39,0,1,,,,,,,,
,,"[""circle"",""no_dis"",""hori"",""left"",[99999,99999],[0,-150]]",circle,no_dis,hori,left,"[99999,99999]","[0,-150]",left,1,1.4944,,,,,,001,2025-03-10_16h57.55.178,SL_base_41,2021.2.3,Win32,120.7437817,,,40,0,40,0,1,,,,,,,,
,,"[""circle"",""no_dis"",""hori"",""left"",[99999,99999],[-106,106]]",circle,no_dis,hori,left,"[99999,99999]","[-106,106]",left,1,1.6107,,,,,,001,2025-03-10_16h57.55.178,SL_base_41,2021.2.3,Win32,120.7437817,,,41,0,41,0,1,,,,,,,,
,,"[""circle"",""no_dis"",""vert"",""up"",[99999,99999],[106,-106]]",circle,no_dis,vert,up,"[99999,99999]","[106,-106]",up,1,1.3863,,,,,,001,2025-03-10_16h57.55.178,SL_base_41,2021.2.3,Win32,120.7437817,,,42,0,42,0,1,,,,,,,,
,,"[""diamond"",""red"",""hori"",""left"",[-106,106],[106,-106]]",diamond,red,hori,left,"[-106,106]","[106,-106]",left,1,1.5358,,,,,,001,2025-03-10_16h57.55.178,SL_base_41,2021.2.3,Win32,120.7437817,,,43,0,43,0,1,,,,,,,,
,,"[""diamond"",""green"",""hori"",""left"",[150,0],[106,106]]",diamond,green,hori,left,"[150,0]","[106,106]",left,1,1.4847,,,,,,001,2025-03-10_16h57.55.178,SL_base_41,2021.2.3,Win32,120.7437817,,,44,0,44,0,1,,,,,,,,
,,"[""circle"",""red"",""vert"",""up"",[106,-106],[150,0]]",circle,red,vert,up,"[106,-106]","[150,0]",up,1,1.2758,,,,,,001,2025-03-10_16h57.55.178,SL_base_41,2021.2.3,Win32,120.7437817,,,45,0,45,0,1,,,,,,,,
,,"[""diamond"",""no_dis"",""hori"",""left"",[99999,99999],[106,-106]]",diamond,no_dis,hori,left,"[99999,99999]","[106,-106]",left,1,1.0725,,,,,,001,2025-03-10_16h57.55.178,SL_base_41,2021.2.3,Win32,120.7437817,,,46,0,46,0,1,,,,,,,,
,,"[""diamond"",""no_dis"",""hori"",""left"",[99999,99999],[106,106]]",diamond,no_dis,hori,left,"[99999,99999]","[106,106]",left,1,1.5511,,,,,,001,2025-03-10_16h57.55.178,SL_base_41,2021.2.3,Win32,120.7437817,,,47,0,47,0,1,,,,,,,,
,,"[""circle"",""red"",""vert"",""up"",[106,-106],[106,106]]",circle,red,vert,up,"[106,-106]","[106,106]",left,0,1.8366,,,,,,001,2025-03-10_16h57.55.178,SL_base_41,2021.2.3,Win32,120.7437817,,,48,0,48,0,1,,,,,,,,
,,"[""diamond"",""red"",""vert"",""up"",[106,106],[150,0]]",diamond,red,vert,up,"[106,106]","[150,0]",left,0,2.1178,,,,,,001,2025-03-10_16h57.55.178,SL_base_41,2021.2.3,Win32,120.7437817,,,49,0,49,0,1,,,,,,,,
,,"[""circle"",""no_dis"",""vert"",""up"",[99999,99999],[106,-106]]",circle,no_dis,vert,up,"[99999,99999]","[106,-106]",up,1,2.3437,,,,,,001,2025-03-10_16h57.55.178,SL_base_41,2021.2.3,Win32,120.7437817,,,50,0,50,0,1,,,,,,,,
,,"[""diamond"",""red"",""hori"",""left"",[106,106],[-106,-106]]",diamond,red,hori,left,"[106,106]","[-106,-106]",left,1,1.0096,,,,,,001,2025-03-10_16h57.55.178,SL_base_41,2021.2.3,Win32,120.7437817,,,51,0,51,0,1,,,,,,,,
,,"[""diamond"",""no_dis"",""hori"",""left"",[99999,99999],[150,0]]",diamond,no_dis,hori,left,"[99999,99999]","[150,0]",left,1,1.4502,,,,,,001,2025-03-10_16h57.55.178,SL_base_41,2021.2.3,Win32,120.7437817,,,52,0,52,0,1,,,,,,,,
,,"[""diamond"",""red"",""hori"",""left"",[106,106],[0,150]]",diamond,red,hori,left,"[106,106]","[0,150]",left,1,1.4683,,,,,,001,2025-03-10_16h57.55.178,SL_base_41,2021.2.3,Win32,120.7437817,,,53,0,53,0,1,,,,,,,,
,,"[""diamond"",""red"",""vert"",""up"",[-106,106],[0,150]]",diamond,red,vert,up,"[-106,106]","[0,150]",up,1,1.3496,,,,,,001,2025-03-10_16h57.55.178,SL_base_41,2021.2.3,Win32,120.7437817,,,54,0,54,0,1,,,,,,,,
,,"[""diamond"",""no_dis"",""hori"",""left"",[99999,99999],[-106,-106]]",diamond,no_dis,hori,left,"[99999,99999]","[-106,-106]",left,1,1.4518,,,,,,001,2025-03-10_16h57.55.178,SL_base_41,2021.2.3,Win32,120.7437817,,,55,0,55,0,1,,,,,,,,
,,"[""circle"",""no_dis"",""hori"",""left"",[99999,99999],[106,-106]]",circle,no_dis,hori,left,"[99999,99999]","[106,-106]",left,1,1.7022,,,,,,001,2025-03-10_16h57.55.178,SL_base_41,2021.2.3,Win32,120.7437817,,,56,0,56,0,1,,,,,,,,
,,"[""circle"",""no_dis"",""hori"",""left"",[99999,99999],[106,-106]]",circle,no_dis,hori,left,"[99999,99999]","[106,-106]",up,0,1.219,,,,,,001,2025-03-10_16h57.55.178,SL_base_41,2021.2.3,Win32,120.7437817,,,57,0,57,0,1,,,,,,,,
,,"[""diamond"",""red"",""vert"",""up"",[-106,106],[-150,0]]",diamond,red,vert,up,"[-106,106]","[-150,0]",up,1,1.3985,,,,,,001,2025-03-10_16h57.55.178,SL_base_41,2021.2.3,Win32,120.7437817,,,58,0,58,0,1,,,,,,,,
,,"[""diamond"",""no_dis"",""hori"",""left"",[99999,99999],[-106,-106]]",diamond,no_dis,hori,left,"[99999,99999]","[-106,-106]",left,1,1.3905,,,,,,001,2025-03-10_16h57.55.178,SL_base_41,2021.2.3,Win32,120.7437817,,,59,0,59,0,1,,,,,,,,
,,"[""diamond"",""no_dis"",""hori"",""left"",[99999,99999],[150,0]]",diamond,no_dis,hori,left,"[99999,99999]","[150,0]",left,1,1.4003,,,,,,001,2025-03-10_16h57.55.178,SL_base_41,2021.2.3,Win32,120.7437817,,,60,0,60,0,1,,,,,,,,
,,"[""diamond"",""red"",""hori"",""left"",[106,106],[-150,0]]",diamond,red,hori,left,"[106,106]","[-150,0]",left,1,1.3666,,,,,,001,2025-03-10_16h57.55.178,SL_base_41,2021.2.3,Win32,120.7437817,,,61,0,61,0,1,,,,,,,,
,,"[""circle"",""no_dis"",""hori"",""left"",[99999,99999],[150,0]]",circle,no_dis,hori,left,"[99999,99999]","[150,0]",left,1,1.6114,,,,,,001,2025-03-10_16h57.55.178,SL_base_41,2021.2.3,Win32,120.7437817,,,62,0,62,0,1,,,,,,,,
,,"[""circle"",""red"",""hori"",""left"",[106,106],[-150,0]]",circle,red,hori,left,"[106,106]","[-150,0]",left,1,1.2104,,,,,,001,2025-03-10_16h57.55.178,SL_base_41,2021.2.3,Win32,120.7437817,,,63,0,63,0,1,,,,,,,,
,,"[""diamond"",""red"",""hori"",""left"",[-106,-106],[106,106]]",diamond,red,hori,left,"[-106,-106]","[106,106]",up,0,2.0756,,,,,,001,2025-03-10_16h57.55.178,SL_base_41,2021.2.3,Win32,120.7437817,,,64,0,64,0,1,,,,,,,,
,,"[""circle"",""green"",""vert"",""up"",[0,150],[-106,-106]]",circle,green,vert,up,"[0,150]","[-106,-106]",,0,,,,,,,001,2025-03-10_16h57.55.178,SL_base_41,2021.2.3,Win32,120.7437817,,,65,0,65,0,1,,,,,,,,
,,"[""circle"",""green"",""hori"",""left"",[106,106],[0,150]]",circle,green,hori,left,"[106,106]","[0,150]",up,0,1.3084,,,,,,001,2025-03-10_16h57.55.178,SL_base_41,2021.2.3,Win32,120.7437817,,,66,0,66,0,1,,,,,,,,
,,"[""circle"",""red"",""vert"",""up"",[106,106],[-106,-106]]",circle,red,vert,up,"[106,106]","[-106,-106]",up,1,1.4932,,,,,,001,2025-03-10_16h57.55.178,SL_base_41,2021.2.3,Win32,120.7437817,,,67,0,67,0,1,,,,,,,,
,,"[""circle"",""no_dis"",""vert"",""up"",[99999,99999],[106,106]]",circle,no_dis,vert,up,"[99999,99999]","[106,106]",left,0,1.7193,,,,,,001,2025-03-10_16h57.55.178,SL_base_41,2021.2.3,Win32,120.7437817,,,68,0,68,0,1,,,,,,,,
,,"[""diamond"",""red"",""vert"",""up"",[106,106],[-106,106]]",diamond,red,vert,up,"[106,106]","[-106,106]",up,1,1.1011,,,,,,001,2025-03-10_16h57.55.178,SL_base_41,2021.2.3,Win32,120.7437817,,,69,0,69,0,1,,,,,,,,
,,"[""circle"",""green"",""vert"",""up"",[106,106],[0,-150]]",circle,green,vert,up,"[106,106]","[0,-150]",up,1,1.5134,,,,,,001,2025-03-10_16h57.55.178,SL_base_41,2021.2.3,Win32,120.7437817,,,70,0,70,0,1,,,,,,,,
,,"[""circle"",""green"",""hori"",""left"",[106,-106],[106,106]]",circle,green,hori,left,"[106,-106]","[106,106]",left,1,1.0839,,,,,,001,2025-03-10_16h57.55.178,SL_base_41,2021.2.3,Win32,120.7437817,,,71,0,71,0,1,,,,,,,,
,,"[""diamond"",""green"",""hori"",""left"",[-150,0],[0,150]]",diamond,green,hori,left,"[-150,0]","[0,150]",left,1,1.2269,,,,,,001,2025-03-10_16h57.55.178,SL_base_41,2021.2.3,Win32,120.7437817,,,72,0,72,0,1,,,,,,,,
,,"[""circle"",""red"",""hori"",""left"",[0,150],[-150,0]]",circle,red,hori,left,"[0,150]","[-150,0]",up,0,1.4759,,,,,,001,2025-03-10_16h57.55.178,SL_base_41,2021.2.3,Win32,120.7437817,,,73,0,73,0,1,,,,,,,,
,,"[""diamond"",""red"",""vert"",""up"",[106,-106],[0,-150]]",diamond,red,vert,up,"[106,-106]","[0,-150]",up,1,0.9497,,,,,,001,2025-03-10_16h57.55.178,SL_base_41,2021.2.3,Win32,120.7437817,,,74,0,74,0,1,,,,,,,,
,,"[""circle"",""green"",""vert"",""up"",[150,0],[0,150]]",circle,green,vert,up,"[150,0]","[0,150]",up,1,1.4751,,,,,,001,2025-03-10_16h57.55.178,SL_base_41,2021.2.3,Win32,120.7437817,,,75,0,75,0,1,,,,,,,,
,,"[""circle"",""red"",""vert"",""up"",[0,150],[-150,0]]",circle,red,vert,up,"[0,150]","[-150,0]",up,1,1.1697,,,,,,001,2025-03-10_16h57.55.178,SL_base_41,2021.2.3,Win32,120.7437817,,,76,0,76,0,1,,,,,,,,
,,"[""diamond"",""green"",""vert"",""up"",[-106,-106],[-150,0]]",diamond,green,vert,up,"[-106,-106]","[-150,0]",up,1,1.1443,,,,,,001,2025-03-10_16h57.55.178,SL_base_41,2021.2.3,Win32,120.7437817,,,77,0,77,0,1,,,,,,,,
,,"[""circle"",""green"",""hori"",""left"",[-106,-106],[-106,106]]",circle,green,hori,left,"[-106,-106]","[-106,106]",up,0,1.6411,,,,,,001,2025-03-10_16h57.55.178,SL_base_41,2021.2.3,Win32,120.7437817,,,78,0,78,0,1,,,,,,,,
,,"[""circle"",""no_dis"",""hori"",""left"",[99999,99999],[0,-150]]",circle,no_dis,hori,left,"[99999,99999]","[0,-150]",up,0,1.5377,,,,,,001,2025-03-10_16h57.55.178,SL_base_41,2021.2.3,Win32,120.7437817,,,79,0,79,0,1,,,,,,,,
,,"[""circle"",""green"",""hori"",""left"",[106,106],[0,-150]]",circle,green,hori,left,"[106,106]","[0,-150]",left,1,1.4682,,,,,,001,2025-03-10_16h57.55.178,SL_base_41,2021.2.3,Win32,120.7437817,,,80,0,80,0,1,,,,,,,,
,,"[""diamond"",""red"",""vert"",""up"",[-106,-106],[106,-106]]",diamond,red,vert,up,"[-106,-106]","[106,-106]",up,1,1.5678,,,,,,001,2025-03-10_16h57.55.178,SL_base_41,2021.2.3,Win32,120.7437817,,,81,0,81,0,1,,,,,,,,
,,"[""circle"",""red"",""vert"",""up"",[-106,106],[0,-150]]",circle,red,vert,up,"[-106,106]","[0,-150]",up,1,2.4382,,,,,,001,2025-03-10_16h57.55.178,SL_base_41,2021.2.3,Win32,120.7437817,,,82,0,82,0,1,,,,,,,,
,,"[""diamond"",""no_dis"",""vert"",""up"",[99999,99999],[-150,0]]",diamond,no_dis,vert,up,"[99999,99999]","[-150,0]",up,1,2.1173,,,,,,001,2025-03-10_16h57.55.178,SL_base_41,2021.2.3,Win32,120.7437817,,,83,0,83,0,1,,,,,,,,
,,"[""diamond"",""green"",""hori"",""left"",[106,106],[0,-150]]",diamond,green,hori,left,"[106,106]","[0,-150]",left,1,1.3192,,,,,,001,2025-03-10_16h57.55.178,SL_base_41,2021.2.3,Win32,120.7437817,,,84,0,84,0,1,,,,,,,,
,,"[""diamond"",""red"",""vert"",""up"",[106,106],[106,-106]]",diamond,red,vert,up,"[106,106]","[106,-106]",up,1,2.2924,,,,,,001,2025-03-10_16h57.55.178,SL_base_41,2021.2.3,Win32,120.7437817,,,85,0,85,0,1,,,,,,,,
,,"[""circle"",""red"",""vert"",""up"",[106,106],[0,-150]]",circle,red,vert,up,"[106,106]","[0,-150]",left,0,2.9207,,,,,,001,2025-03-10_16h57.55.178,SL_base_41,2021.2.3,Win32,120.7437817,,,86,0,86,0,1,,,,,,,,
,,"[""diamond"",""no_dis"",""hori"",""left"",[99999,99999],[-150,0]]",diamond,no_dis,hori,left,"[99999,99999]","[-150,0]",left,1,1.8849,,,,,,001,2025-03-10_16h57.55.178,SL_base_41,2021.2.3,Win32,120.7437817,,,87,0,87,0,1,,,,,,,,
,,"[""circle"",""no_dis"",""hori"",""left"",[99999,99999],[0,-150]]",circle,no_dis,hori,left,"[99999,99999]","[0,-150]",up,0,1.286,,,,,,001,2025-03-10_16h57.55.178,SL_base_41,2021.2.3,Win32,120.7437817,,,88,0,88,0,1,,,,,,,,
,,"[""circle"",""no_dis"",""vert"",""up"",[99999,99999],[-106,106]]",circle,no_dis,vert,up,"[99999,99999]","[-106,106]",up,1,0.8761,,,,,,001,2025-03-10_16h57.55.178,SL_base_41,2021.2.3,Win32,120.7437817,,,89,0,89,0,1,,,,,,,,
,,"[""diamond"",""green"",""hori"",""left"",[-106,-106],[106,-106]]",diamond,green,hori,left,"[-106,-106]","[106,-106]",left,1,1.3924,,,,,,001,2025-03-10_16h57.55.178,SL_base_41,2021.2.3,Win32,120.7437817,,,90,0,90,0,1,,,,,,,,
,,"[""diamond"",""red"",""hori"",""left"",[106,106],[-106,106]]",diamond,red,hori,left,"[106,106]","[-106,106]",left,1,2.3463,,,,,,001,2025-03-10_16h57.55.178,SL_base_41,2021.2.3,Win32,120.7437817,,,91,0,91,0,1,,,,,,,,
,,"[""circle"",""green"",""vert"",""up"",[0,150],[-106,-106]]",circle,green,vert,up,"[0,150]","[-106,-106]",up,1,2.3051,,,,,,001,2025-03-10_16h57.55.178,SL_base_41,2021.2.3,Win32,120.7437817,,,92,0,92,0,1,,,,,,,,
,,"[""circle"",""red"",""hori"",""left"",[0,-150],[106,106]]",circle,red,hori,left,"[0,-150]","[106,106]",left,1,1.8395,,,,,,001,2025-03-10_16h57.55.178,SL_base_41,2021.2.3,Win32,120.7437817,,,93,0,93,0,1,,,,,,,,
,,"[""diamond"",""green"",""hori"",""left"",[-150,0],[-106,106]]",diamond,green,hori,left,"[-150,0]","[-106,106]",left,1,1.4001,,,,,,001,2025-03-10_16h57.55.178,SL_base_41,2021.2.3,Win32,120.7437817,,,94,0,94,0,1,,,,,,,,
,,"[""diamond"",""no_dis"",""hori"",""left"",[99999,99999],[-106,-106]]",diamond,no_dis,hori,left,"[99999,99999]","[-106,-106]",left,1,0.9407,,,,,,001,2025-03-10_16h57.55.178,SL_base_41,2021.2.3,Win32,120.7437817,,,95,0,95,0,1,,,,,,,,
,,"[""circle"",""red"",""hori"",""left"",[106,106],[-106,-106]]",circle,red,hori,left,"[106,106]","[-106,-106]",left,1,1.4301,,,,,,001,2025-03-10_16h57.55.178,SL_base_41,2021.2.3,Win32,120.7437817,,,96,0,96,0,1,,,,,,,,
,,"[""diamond"",""no_dis"",""vert"",""up"",[99999,99999],[-106,106]]",diamond,no_dis,vert,up,"[99999,99999]","[-106,106]",up,1,1.3683,,,,,,001,2025-03-10_16h57.55.178,SL_base_41,2021.2.3,Win32,120.7437817,,,97,0,97,0,1,,,,,,,,
,,"[""diamond"",""no_dis"",""vert"",""up"",[99999,99999],[-106,-106]]",diamond,no_dis,vert,up,"[99999,99999]","[-106,-106]",up,1,0.9908,,,,,,001,2025-03-10_16h57.55.178,SL_base_41,2021.2.3,Win32,120.7437817,,,98,0,98,0,1,,,,,,,,
,,"[""circle"",""red"",""vert"",""up"",[106,106],[150,0]]",circle,red,vert,up,"[106,106]","[150,0]",up,1,1.6738,,,,,,001,2025-03-10_16h57.55.178,SL_base_41,2021.2.3,Win32,120.7437817,,,99,0,99,0,1,,,,,,,,
,,"[""circle"",""green"",""hori"",""left"",[106,106],[-106,106]]",circle,green,hori,left,"[106,106]","[-106,106]",left,1,1.0341,,,,,,001,2025-03-10_16h57.55.178,SL_base_41,2021.2.3,Win32,120.7437817,,,100,0,100,0,1,,,,,,,,
,,"[""circle"",""no_dis"",""hori"",""left"",[99999,99999],[0,-150]]",circle,no_dis,hori,left,"[99999,99999]","[0,-150]",left,1,1.0477,,,,,,001,2025-03-10_16h57.55.178,SL_base_41,2021.2.3,Win32,120.7437817,,,101,0,101,0,1,,,,,,,,
,,"[""circle"",""green"",""hori"",""left"",[106,106],[-150,0]]",circle,green,hori,left,"[106,106]","[-150,0]",left,1,0.9874,,,,,,001,2025-03-10_16h57.55.178,SL_base_41,2021.2.3,Win32,120.7437817,,,102,0,102,0,1,,,,,,,,
,,"[""circle"",""no_dis"",""vert"",""up"",[99999,99999],[-106,-106]]",circle,no_dis,vert,up,"[99999,99999]","[-106,-106]",up,1,1.0873,,,,,,001,2025-03-10_16h57.55.178,SL_base_41,2021.2.3,Win32,120.7437817,,,103,0,103,0,1,,,,,,,,
,,"[""circle"",""red"",""vert"",""up"",[0,150],[0,-150]]",circle,red,vert,up,"[0,150]","[0,-150]",up,1,1.6386,,,,,,001,2025-03-10_16h57.55.178,SL_base_41,2021.2.3,Win32,120.7437817,,,104,0,104,0,1,,,,,,,,
,,"[""diamond"",""no_dis"",""vert"",""up"",[99999,99999],[0,150]]",diamond,no_dis,vert,up,"[99999,99999]","[0,150]",left,0,0.8167,,,,,,001,2025-03-10_16h57.55.178,SL_base_41,2021.2.3,Win32,120.7437817,,,105,0,105,0,1,,,,,,,,
,,"[""circle"",""red"",""vert"",""up"",[0,-150],[-106,-106]]",circle,red,vert,up,"[0,-150]","[-106,-106]",up,1,2.0097,,,,,,001,2025-03-10_16h57.55.178,SL_base_41,2021.2.3,Win32,120.7437817,,,106,0,106,0,1,,,,,,,,
,,"[""diamond"",""green"",""hori"",""left"",[0,-150],[-106,106]]",diamond,green,hori,left,"[0,-150]","[-106,106]",left,1,1.268,,,,,,001,2025-03-10_16h57.55.178,SL_base_41,2021.2.3,Win32,120.7437817,,,107,0,107,0,1,,,,,,,,
,,"[""circle"",""green"",""vert"",""up"",[106,106],[-150,0]]",circle,green,vert,up,"[106,106]","[-150,0]",up,1,1.0439,,,,,,001,2025-03-10_16h57.55.178,SL_base_41,2021.2.3,Win32,120.7437817,,,108,0,108,0,1,,,,,,,,
,,"[""circle"",""red"",""hori"",""left"",[0,-150],[150,0]]",circle,red,hori,left,"[0,-150]","[150,0]",left,1,1.6702,,,,,,001,2025-03-10_16h57.55.178,SL_base_41,2021.2.3,Win32,120.7437817,,,109,0,109,0,1,,,,,,,,
,,"[""circle"",""green"",""hori"",""left"",[-106,106],[150,0]]",circle,green,hori,left,"[-106,106]","[150,0]",left,1,2.4296,,,,,,001,2025-03-10_16h57.55.178,SL_base_41,2021.2.3,Win32,120.7437817,,,110,0,110,0,1,,,,,,,,
,,"[""diamond"",""no_dis"",""vert"",""up"",[99999,99999],[150,0]]",diamond,no_dis,vert,up,"[99999,99999]","[150,0]",up,1,1.8665,,,,,,001,2025-03-10_16h57.55.178,SL_base_41,2021.2.3,Win32,120.7437817,,,111,0,111,0,1,,,,,,,,
,,"[""circle"",""green"",""hori"",""left"",[150,0],[-106,-106]]",circle,green,hori,left,"[150,0]","[-106,-106]",left,1,1.2101,,,,,,001,2025-03-10_16h57.55.178,SL_base_41,2021.2.3,Win32,120.7437817,,,112,0,112,0,1,,,,,,,,
,,"[""diamond"",""red"",""vert"",""up"",[-150,0],[0,150]]",diamond,red,vert,up,"[-150,0]","[0,150]",up,1,1.8314,,,,,,001,2025-03-10_16h57.55.178,SL_base_41,2021.2.3,Win32,120.7437817,,,113,0,113,0,1,,,,,,,,
,,"[""diamond"",""green"",""vert"",""up"",[0,-150],[-150,0]]",diamond,green,vert,up,"[0,-150]","[-150,0]",up,1,1.5827,,,,,,001,2025-03-10_16h57.55.178,SL_base_41,2021.2.3,Win32,120.7437817,,,114,0,114,0,1,,,,,,,,
,,"[""diamond"",""no_dis"",""vert"",""up"",[99999,99999],[106,106]]",diamond,no_dis,vert,up,"[99999,99999]","[106,106]",up,1,2.3518,,,,,,001,2025-03-10_16h57.55.178,SL_base_41,2021.2.3,Win32,120.7437817,,,115,0,115,0,1,,,,,,,,
,,"[""diamond"",""red"",""vert"",""up"",[150,0],[106,-106]]",diamond,red,vert,up,"[150,0]","[106,-106]",up,1,1.5513,,,,,,001,2025-03-10_16h57.55.178,SL_base_41,2021.2.3,Win32,120.7437817,,,116,0,116,0,1,,,,,,,,
,,"[""diamond"",""green"",""hori"",""left"",[106,106],[0,-150]]",diamond,green,hori,left,"[106,106]","[0,-150]",left,1,1.2407,,,,,,001,2025-03-10_16h57.55.178,SL_base_41,2021.2.3,Win32,120.7437817,,,117,0,117,0,1,,,,,,,,
,,"[""diamond"",""red"",""hori"",""left"",[106,106],[-106,-106]]",diamond,red,hori,left,"[106,106]","[-106,-106]",left,1,1.5453,,,,,,001,2025-03-10_16h57.55.178,SL_base_41,2021.2.3,Win32,120.7437817,,,118,0,118,0,1,,,,,,,,
,,"[""diamond"",""green"",""vert"",""up"",[-150,0],[-106,106]]",diamond,green,vert,up,"[-150,0]","[-106,106]",up,1,1.2698,,,,,,001,2025-03-10_16h57.55.178,SL_base_41,2021.2.3,Win32,120.7437817,,,119,0,119,0,1,,,,,,,,
,,"[""circle"",""no_dis"",""hori"",""left"",[99999,99999],[-150,0]]",circle,no_dis,hori,left,"[99999,99999]","[-150,0]",up,0,1.1007,,,,,,001,2025-03-10_16h57.55.178,SL_base_41,2021.2.3,Win32,120.7437817,,,120,0,120,0,1,,,,,,,,
,,"[""diamond"",""green"",""hori"",""left"",[106,106],[106,-106]]",diamond,green,hori,left,"[106,106]","[106,-106]",,0,,,,,,,001,2025-03-10_16h57.55.178,SL_base_41,2021.2.3,Win32,120.7437817,,,121,0,121,0,1,,,,,,,,
,,"[""circle"",""green"",""vert"",""up"",[0,-150],[0,150]]",circle,green,vert,up,"[0,-150]","[0,150]",left,0,0.794,,,,,,001,2025-03-10_16h57.55.178,SL_base_41,2021.2.3,Win32,120.7437817,,,122,0,122,0,1,,,,,,,,
,,"[""diamond"",""no_dis"",""hori"",""left"",[99999,99999],[106,106]]",diamond,no_dis,hori,left,"[99999,99999]","[106,106]",left,1,1.6011,,,,,,001,2025-03-10_16h57.55.178,SL_base_41,2021.2.3,Win32,120.7437817,,,123,0,123,0,1,,,,,,,,
,,"[""circle"",""no_dis"",""vert"",""up"",[99999,99999],[0,150]]",circle,no_dis,vert,up,"[99999,99999]","[0,150]",up,1,1.2116,,,,,,001,2025-03-10_16h57.55.178,SL_base_41,2021.2.3,Win32,120.7437817,,,124,0,124,0,1,,,,,,,,
,,"[""diamond"",""no_dis"",""vert"",""up"",[99999,99999],[-106,106]]",diamond,no_dis,vert,up,"[99999,99999]","[-106,106]",up,1,2.1735,,,,,,001,2025-03-10_16h57.55.178,SL_base_41,2021.2.3,Win32,120.7437817,,,125,0,125,0,1,,,,,,,,
,,"[""diamond"",""green"",""vert"",""up"",[-106,106],[150,0]]",diamond,green,vert,up,"[-106,106]","[150,0]",up,1,1.0181,,,,,,001,2025-03-10_16h57.55.178,SL_base_41,2021.2.3,Win32,120.7437817,,,126,0,126,0,1,,,,,,,,
,,"[""circle"",""green"",""hori"",""left"",[0,150],[106,-106]]",circle,green,hori,left,"[0,150]","[106,-106]",left,1,1.3116,,,,,,001,2025-03-10_16h57.55.178,SL_base_41,2021.2.3,Win32,120.7437817,,,127,0,127,0,1,,,,,,,,
,,,,,,,,,,,,,,,,,001,2025-03-10_16h57.55.178,SL_base_41,2021.2.3,Win32,120.7437817,,,,,,,,1,space,117.7696,0,0,0,0,1
,,"[""circle"",""red"",""hori"",""left"",[106,-106],[-150,0]]",circle,red,hori,left,"[106,-106]","[-150,0]",left,1,1.1755,,,,,,001,2025-03-10_16h57.55.178,SL_base_41,2021.2.3,Win32,120.7437817,,,0,0,0,0,1,,,,,,,,
,,"[""diamond"",""no_dis"",""hori"",""left"",[99999,99999],[106,-106]]",diamond,no_dis,hori,left,"[99999,99999]","[106,-106]",left,1,1.1355,,,,,,001,2025-03-10_16h57.55.178,SL_base_41,2021.2.3,Win32,120.7437817,,,1,0,1,0,1,,,,,,,,
,,"[""diamond"",""no_dis"",""hori"",""left"",[99999,99999],[-106,-106]]",diamond,no_dis,hori,left,"[99999,99999]","[-106,-106]",left,1,2.0313,,,,,,001,2025-03-10_16h57.55.178,SL_base_41,2021.2.3,Win32,120.7437817,,,2,0,2,0,1,,,,,,,,
,,"[""diamond"",""red"",""hori"",""left"",[106,106],[-106,-106]]",diamond,red,hori,left,"[106,106]","[-106,-106]",left,1,1.0955,,,,,,001,2025-03-10_16h57.55.178,SL_base_41,2021.2.3,Win32,120.7437817,,,3,0,3,0,1,,,,,,,,
,,"[""circle"",""green"",""vert"",""up"",[-106,106],[0,-150]]",circle,green,vert,up,"[-106,106]","[0,-150]",up,1,1.1625,,,,,,001,2025-03-10_16h57.55.178,SL_base_41,2021.2.3,Win32,120.7437817,,,4,0,4,0,1,,,,,,,,
,,"[""circle"",""no_dis"",""hori"",""left"",[99999,99999],[0,-150]]",circle,no_dis,hori,left,"[99999,99999]","[0,-150]",up,0,1.5543,,,,,,001,2025-03-10_16h57.55.178,SL_base_41,2021.2.3,Win32,120.7437817,,,5,0,5,0,1,,,,,,,,
,,"[""diamond"",""no_dis"",""vert"",""up"",[99999,99999],[-150,0]]",diamond,no_dis,vert,up,"[99999,99999]","[-150,0]",up,1,0.9955,,,,,,001,2025-03-10_16h57.55.178,SL_base_41,2021.2.3,Win32,120.7437817,,,6,0,6,0,1,,,,,,,,
,,"[""circle"",""red"",""hori"",""left"",[150,0],[-106,-106]]",circle,red,hori,left,"[150,0]","[-106,-106]",left,1,1.61,,,,,,001,2025-03-10_16h57.55.178,SL_base_41,2021.2.3,Win32,120.7437817,,,7,0,7,0,1,,,,,,,,
,,"[""circle"",""green"",""hori"",""left"",[106,-106],[106,106]]",circle,green,hori,left,"[106,-106]","[106,106]",left,1,1.5021,,,,,,001,2025-03-10_16h57.55.178,SL_base_41,2021.2.3,Win32,120.7437817,,,8,0,8,0,1,,,,,,,,
,,"[""circle"",""no_dis"",""hori"",""left"",[99999,99999],[0,-150]]",circle,no_dis,hori,left,"[99999,99999]","[0,-150]",left,1,1.5161,,,,,,001,2025-03-10_16h57.55.178,SL_base_41,2021.2.3,Win32,120.7437817,,,9,0,9,0,1,,,,,,,,
,,"[""circle"",""green"",""hori"",""left"",[106,106],[0,-150]]",circle,green,hori,left,"[106,106]","[0,-150]",left,1,1.0126,,,,,,001,2025-03-10_16h57.55.178,SL_base_41,2021.2.3,Win32,120.7437817,,,10,0,10,0,1,,,,,,,,
,,"[""diamond"",""green"",""hori"",""left"",[106,106],[106,-106]]",diamond,green,hori,left,"[106,106]","[106,-106]",left,1,1.3873,,,,,,001,2025-03-10_16h57.55.178,SL_base_41,2021.2.3,Win32,120.7437817,,,11,0,11,0,1,,,,,,,,
,,"[""diamond"",""green"",""vert"",""up"",[-106,-106],[-150,0]]",diamond,green,vert,up,"[-106,-106]","[-150,0]",up,1,1.8191,,,,,,001,2025-03-10_16h57.55.178,SL_base_41,2021.2.3,Win32,120.7437817,,,12,0,12,0,1,,,,,,,,
,,"[""circle"",""green"",""vert"",""up"",[0,150],[-106,-106]]",circle,green,vert,up,"[0,150]","[-106,-106]",up,1,1.3852,,,,,,001,2025-03-10_16h57.55.178,SL_base_41,2021.2.3,Win32,120.7437817,,,13,0,13,0,1,,,,,,,,
,,"[""diamond"",""no_dis"",""vert"",""up"",[99999,99999],[150,0]]",diamond,no_dis,vert,up,"[99999,99999]","[150,0]",up,1,1.6955,,,,,,001,2025-03-10_16h57.55.178,SL_base_41,2021.2.3,Win32,120.7437817,,,14,0,14,0,1,,,,,,,,
,,"[""diamond"",""red"",""hori"",""left"",[-106,-106],[106,-106]]",diamond,red,hori,left,"[-106,-106]","[106,-106]",left,1,1.9557,,,,,,001,2025-03-10_16h57.55.178,SL_base_41,2021.2.3,Win32,120.7437817,,,15,0,15,0,1,,,,,,,,
,,"[""circle"",""red"",""hori"",""left"",[106,106],[-150,0]]",circle,red,hori,left,"[106,106]","[-150,0]",left,1,1.3939,,,,,,001,2025-03-10_16h57.55.178,SL_base_41,2021.2.3,Win32,120.7437817,,,16,0,16,0,1,,,,,,,,
,,"[""circle"",""no_dis"",""vert"",""up"",[99999,99999],[0,150]]",circle,no_dis,vert,up,"[99999,99999]","[0,150]",up,1,1.3619,,,,,,001,2025-03-10_16h57.55.178,SL_base_41,2021.2.3,Win32,120.7437817,,,17,0,17,0,1,,,,,,,,
,,"[""circle"",""no_dis"",""vert"",""up"",[99999,99999],[-106,106]]",circle,no_dis,vert,up,"[99999,99999]","[-106,106]",up,1,1.0744,,,,,,001,2025-03-10_16h57.55.178,SL_base_41,2021.2.3,Win32,120.7437817,,,18,0,18,0,1,,,,,,,,
,,"[""diamond"",""green"",""vert"",""up"",[-106,106],[150,0]]",diamond,green,vert,up,"[-106,106]","[150,0]",up,1,1.1251,,,,,,001,2025-03-10_16h57.55.178,SL_base_41,2021.2.3,Win32,120.7437817,,,19,0,19,0,1,,,,,,,,
,,"[""circle"",""no_dis"",""hori"",""left"",[99999,99999],[-150,0]]",circle,no_dis,hori,left,"[99999,99999]","[-150,0]",left,1,1.0288,,,,,,001,2025-03-10_16h57.55.178,SL_base_41,2021.2.3,Win32,120.7437817,,,20,0,20,0,1,,,,,,,,
,,"[""circle"",""green"",""vert"",""up"",[106,106],[-150,0]]",circle,green,vert,up,"[106,106]","[-150,0]",up,1,1.2263,,,,,,001,2025-03-10_16h57.55.178,SL_base_41,2021.2.3,Win32,120.7437817,,,21,0,21,0,1,,,,,,,,
,,"[""diamond"",""red"",""vert"",""up"",[-106,106],[-150,0]]",diamond,red,vert,up,"[-106,106]","[-150,0]",up,1,1.2772,,,,,,001,2025-03-10_16h57.55.178,SL_base_41,2021.2.3,Win32,120.7437817,,,22,0,22,0,1,,,,,,,,
,,"[""circle"",""no_dis"",""vert"",""up"",[99999,99999],[-106,106]]",circle,no_dis,vert,up,"[99999,99999]","[-106,106]",up,1,2.1276,,,,,,001,2025-03-10_16h57.55.178,SL_base_41,2021.2.3,Win32,120.7437817,,,23,0,23,0,1,,,,,,,,
,,"[""diamond"",""green"",""hori"",""left"",[-106,106],[0,150]]",diamond,green,hori,left,"[-106,106]","[0,150]",left,1,1.6106,,,,,,001,2025-03-10_16h57.55.178,SL_base_41,2021.2.3,Win32,120.7437817,,,24,0,24,0,1,,,,,,,,
,,"[""circle"",""red"",""hori"",""left"",[0,150],[-150,0]]",circle,red,hori,left,"[0,150]","[-150,0]",left,1,1.5603,,,,,,001,2025-03-10_16h57.55.178,SL_base_41,2021.2.3,Win32,120.7437817,,,25,0,25,0,1,,,,,,,,
,,"[""diamond"",""red"",""vert"",""up"",[0,150],[-106,106]]",diamond,red,vert,up,"[0,150]","[-106,106]",up,1,1.9604,,,,,,001,2025-03-10_16h57.55.178,SL_base_41,2021.2.3,Win32,120.7437817,,,26,0,26,0,1,,,,,,,,
,,"[""diamond"",""green"",""hori"",""left"",[-150,0],[0,150]]",diamond,green,hori,left,"[-150,0]","[0,150]",left,1,1.3398,,,,,,001,2025-03-10_16h57.55.178,SL_base_41,2021.2.3,Win32,120.7437817,,,27,0,27,0,1,,,,,,,,
,,"[""diamond"",""green"",""hori"",""left"",[150,0],[0,-150]]",diamond,green,hori,left,"[150,0]","[0,-150]",left,1,1.8863,,,,,,001,2025-03-10_16h57.55.178,SL_base_41,2021.2.3,Win32,120.7437817,,,28,0,28,0,1,,,,,,,,
,,"[""diamond"",""no_dis"",""vert"",""up"",[99999,99999],[-106,106]]",diamond,no_dis,vert,up,"[99999,99999]","[-106,106]",up,1,1.4949,,,,,,001,2025-03-10_16h57.55.178,SL_base_41,2021.2.3,Win32,120.7437817,,,29,0,29,0,1,,,,,,,,
,,"[""circle"",""no_dis"",""hori"",""left"",[99999,99999],[150,0]]",circle,no_dis,hori,left,"[99999,99999]","[150,0]",left,1,1.7524,,,,,,001,2025-03-10_16h57.55.178,SL_base_41,2021.2.3,Win32,120.7437817,,,30,0,30,0,1,,,,,,,,
,,"[""circle"",""green"",""hori"",""left"",[106,106],[-106,106]]",circle,green,hori,left,"[106,106]","[-106,106]",left,1,2.0955,,,,,,001,2025-03-10_16h57.55.178,SL_base_41,2021.2.3,Win32,120.7437817,,,31,0,31,0,1,,,,,,,,
,,"[""circle"",""green"",""hori"",""left"",[0,150],[106,-106]]",circle,green,hori,left,"[0,150]","[106,-106]",left,1,0.961,,,,,,001,2025-03-10_16h57.55.178,SL_base_41,2021.2.3,Win32,120.7437817,,,32,0,32,0,1,,,,,,,,
,,"[""circle"",""green"",""hori"",""left"",[150,0],[-106,-106]]",circle,green,hori,left,"[150,0]","[-106,-106]",left,1,1.6223,,,,,,001,2025-03-10_16h57.55.178,SL_base_41,2021.2.3,Win32,120.7437817,,,33,0,33,0,1,,,,,,,,
,,"[""diamond"",""green"",""vert"",""up"",[106,-106],[-106,-106]]",diamond,green,vert,up,"[106,-106]","[-106,-106]",up,1,1.6671,,,,,,001,2025-03-10_16h57.55.178,SL_base_41,2021.2.3,Win32,120.7437817,,,34,0,34,0,1,,,,,,,,
,,"[""circle"",""green"",""vert"",""up"",[106,106],[-150,0]]",circle,green,vert,up,"[106,106]","[-150,0]",up,1,1.619,,,,,,001,2025-03-10_16h57.55.178,SL_base_41,2021.2.3,Win32,120.7437817,,,35,0,35,0,1,,,,,,,,
,,"[""diamond"",""red"",""hori"",""left"",[106,106],[0,150]]",diamond,red,hori,left,"[106,106]","[0,150]",left,1,1.3622,,,,,,001,2025-03-10_16h57.55.178,SL_base_41,2021.2.3,Win32,120.7437817,,,36,0,36,0,1,,,,,,,,
,,"[""diamond"",""no_dis"",""hori"",""left"",[99999,99999],[106,106]]",diamond,no_dis,hori,left,"[99999,99999]","[106,106]",left,1,2.3592,,,,,,001,2025-03-10_16h57.55.178,SL_base_41,2021.2.3,Win32,120.7437817,,,37,0,37,0,1,,,,,,,,
,,"[""diamond"",""red"",""hori"",""left"",[106,106],[-106,-106]]",diamond,red,hori,left,"[106,106]","[-106,-106]",left,1,1.2631,,,,,,001,2025-03-10_16h57.55.178,SL_base_41,2021.2.3,Win32,120.7437817,,,38,0,38,0,1,,,,,,,,
,,"[""circle"",""no_dis"",""hori"",""left"",[99999,99999],[0,150]]",circle,no_dis,hori,left,"[99999,99999]","[0,150]",left,1,1.7784,,,,,,001,2025-03-10_16h57.55.178,SL_base_41,2021.2.3,Win32,120.7437817,,,39,0,39,0,1,,,,,,,,
,,"[""diamond"",""red"",""vert"",""up"",[-106,106],[0,150]]",diamond,red,vert,up,"[-106,106]","[0,150]",up,1,1.3456,,,,,,001,2025-03-10_16h57.55.178,SL_base_41,2021.2.3,Win32,120.7437817,,,40,0,40,0,1,,,,,,,,
,,"[""diamond"",""red"",""vert"",""up"",[106,106],[-106,106]]",diamond,red,vert,up,"[106,106]","[-106,106]",up,1,1.109,,,,,,001,2025-03-10_16h57.55.178,SL_base_41,2021.2.3,Win32,120.7437817,,,41,0,41,0,1,,,,,,,,
,,"[""circle"",""green"",""vert"",""up"",[150,0],[0,150]]",circle,green,vert,up,"[150,0]","[0,150]",up,1,1.4068,,,,,,001,2025-03-10_16h57.55.178,SL_base_41,2021.2.3,Win32,120.7437817,,,42,0,42,0,1,,,,,,,,
,,"[""diamond"",""green"",""hori"",""left"",[0,-150],[-106,106]]",diamond,green,hori,left,"[0,-150]","[-106,106]",left,1,1.0974,,,,,,001,2025-03-10_16h57.55.178,SL_base_41,2021.2.3,Win32,120.7437817,,,43,0,43,0,1,,,,,,,,
,,"[""diamond"",""red"",""hori"",""left"",[106,106],[0,-150]]",diamond,red,hori,left,"[106,106]","[0,-150]",left,1,1.5104,,,,,,001,2025-03-10_16h57.55.178,SL_base_41,2021.2.3,Win32,120.7437817,,,44,0,44,0,1,,,,,,,,
,,"[""diamond"",""red"",""vert"",""up"",[150,0],[106,-106]]",diamond,red,vert,up,"[150,0]","[106,-106]",up,1,1.2789,,,,,,001,2025-03-10_16h57.55.178,SL_base_41,2021.2.3,Win32,120.7437817,,,45,0,45,0,1,,,,,,,,
,,"[""circle"",""green"",""vert"",""up"",[0,-150],[0,150]]",circle,green,vert,up,"[0,-150]","[0,150]",up,1,1.0598,,,,,,001,2025-03-10_16h57.55.178,SL_base_41,2021.2.3,Win32,120.7437817,,,46,0,46,0,1,,,,,,,,
,,"[""diamond"",""red"",""hori"",""left"",[106,106],[-150,0]]",diamond,red,hori,left,"[106,106]","[-150,0]",left,1,0.9762,,,,,,001,2025-03-10_16h57.55.178,SL_base_41,2021.2.3,Win32,120.7437817,,,47,0,47,0,1,,,,,,,,
,,"[""diamond"",""red"",""hori"",""left"",[-106,-106],[-150,0]]",diamond,red,hori,left,"[-106,-106]","[-150,0]",left,1,1.4349,,,,,,001,2025-03-10_16h57.55.178,SL_base_41,2021.2.3,Win32,120.7437817,,,48,0,48,0,1,,,,,,,,
,,"[""circle"",""green"",""vert"",""up"",[106,106],[0,-150]]",circle,green,vert,up,"[106,106]","[0,-150]",up,1,1.0857,,,,,,001,2025-03-10_16h57.55.178,SL_base_41,2021.2.3,Win32,120.7437817,,,49,0,49,0,1,,,,,,,,
,,"[""diamond"",""no_dis"",""hori"",""left"",[99999,99999],[106,106]]",diamond,no_dis,hori,left,"[99999,99999]","[106,106]",left,1,1.7064,,,,,,001,2025-03-10_16h57.55.178,SL_base_41,2021.2.3,Win32,120.7437817,,,50,0,50,0,1,,,,,,,,
,,"[""circle"",""red"",""hori"",""left"",[0,150],[-106,-106]]",circle,red,hori,left,"[0,150]","[-106,-106]",left,1,1.3298,,,,,,001,2025-03-10_16h57.55.178,SL_base_41,2021.2.3,Win32,120.7437817,,,51,0,51,0,1,,,,,,,,
,,"[""circle"",""red"",""vert"",""up"",[0,-150],[-106,-106]]",circle,red,vert,up,"[0,-150]","[-106,-106]",up,1,1.2382,,,,,,001,2025-03-10_16h57.55.178,SL_base_41,2021.2.3,Win32,120.7437817,,,52,0,52,0,1,,,,,,,,
,,"[""circle"",""no_dis"",""vert"",""up"",[99999,99999],[106,106]]",circle,no_dis,vert,up,"[99999,99999]","[106,106]",up,1,1.2919,,,,,,001,2025-03-10_16h57.55.178,SL_base_41,2021.2.3,Win32,120.7437817,,,53,0,53,0,1,,,,,,,,
,,"[""diamond"",""green"",""vert"",""up"",[106,106],[-106,-106]]",diamond,green,vert,up,"[106,106]","[-106,-106]",up,1,1.2879,,,,,,001,2025-03-10_16h57.55.178,SL_base_41,2021.2.3,Win32,120.7437817,,,54,0,54,0,1,,,,,,,,
,,"[""diamond"",""green"",""hori"",""left"",[106,106],[0,-150]]",diamond,green,hori,left,"[106,106]","[0,-150]",left,1,1.2536,,,,,,001,2025-03-10_16h57.55.178,SL_base_41,2021.2.3,Win32,120.7437817,,,55,0,55,0,1,,,,,,,,
,,"[""diamond"",""no_dis"",""hori"",""left"",[99999,99999],[-150,0]]",diamond,no_dis,hori,left,"[99999,99999]","[-150,0]",left,1,1.8631,,,,,,001,2025-03-10_16h57.55.178,SL_base_41,2021.2.3,Win32,120.7437817,,,56,0,56,0,1,,,,,,,,
,,"[""diamond"",""red"",""hori"",""left"",[-106,-106],[106,106]]",diamond,red,hori,left,"[-106,-106]","[106,106]",left,1,1.1092,,,,,,001,2025-03-10_16h57.55.178,SL_base_41,2021.2.3,Win32,120.7437817,,,57,0,57,0,1,,,,,,,,
,,"[""diamond"",""no_dis"",""vert"",""up"",[99999,99999],[0,150]]",diamond,no_dis,vert,up,"[99999,99999]","[0,150]",up,1,0.926,,,,,,001,2025-03-10_16h57.55.178,SL_base_41,2021.2.3,Win32,120.7437817,,,58,0,58,0,1,,,,,,,,
,,"[""circle"",""no_dis"",""vert"",""up"",[99999,99999],[150,0]]",circle,no_dis,vert,up,"[99999,99999]","[150,0]",up,1,1.6291,,,,,,001,2025-03-10_16h57.55.178,SL_base_41,2021.2.3,Win32,120.7437817,,,59,0,59,0,1,,,,,,,,
,,"[""diamond"",""red"",""hori"",""left"",[106,106],[-106,-106]]",diamond,red,hori,left,"[106,106]","[-106,-106]",left,1,1.8509,,,,,,001,2025-03-10_16h57.55.178,SL_base_41,2021.2.3,Win32,120.7437817,,,60,0,60,0,1,,,,,,,,
,,"[""circle"",""no_dis"",""vert"",""up"",[99999,99999],[-106,-106]]",circle,no_dis,vert,up,"[99999,99999]","[-106,-106]",up,1,1.4323,,,,,,001,2025-03-10_16h57.55.178,SL_base_41,2021.2.3,Win32,120.7437817,,,61,0,61,0,1,,,,,,,,
,,"[""diamond"",""no_dis"",""vert"",""up"",[99999,99999],[106,106]]",diamond,no_dis,vert,up,"[99999,99999]","[106,106]",up,1,1.2532,,,,,,001,2025-03-10_16h57.55.178,SL_base_41,2021.2.3,Win32,120.7437817,,,62,0,62,0,1,,,,,,,,
,,"[""diamond"",""green"",""hori"",""left"",[-106,-106],[106,-106]]",diamond,green,hori,left,"[-106,-106]","[106,-106]",left,1,1.3137,,,,,,001,2025-03-10_16h57.55.178,SL_base_41,2021.2.3,Win32,120.7437817,,,63,0,63,0,1,,,,,,,,
,,"[""circle"",""green"",""hori"",""left"",[106,-106],[106,106]]",circle,green,hori,left,"[106,-106]","[106,106]",left,1,1.1857,,,,,,001,2025-03-10_16h57.55.178,SL_base_41,2021.2.3,Win32,120.7437817,,,64,0,64,0,1,,,,,,,,
,,"[""circle"",""red"",""vert"",""up"",[106,106],[-106,-106]]",circle,red,vert,up,"[106,106]","[-106,-106]",up,1,0.9978,,,,,,001,2025-03-10_16h57.55.178,SL_base_41,2021.2.3,Win32,120.7437817,,,65,0,65,0,1,,,,,,,,
,,"[""circle"",""red"",""hori"",""left"",[-150,0],[106,-106]]",circle,red,hori,left,"[-150,0]","[106,-106]",left,1,1.1007,,,,,,001,2025-03-10_16h57.55.178,SL_base_41,2021.2.3,Win32,120.7437817,,,66,0,66,0,1,,,,,,,,
,,"[""circle"",""no_dis"",""hori"",""left"",[99999,99999],[0,-150]]",circle,no_dis,hori,left,"[99999,99999]","[0,-150]",left,1,0.8897,,,,,,001,2025-03-10_16h57.55.178,SL_base_41,2021.2.3,Win32,120.7437817,,,67,0,67,0,1,,,,,,,,
,,"[""circle"",""no_dis"",""hori"",""left"",[99999,99999],[-106,106]]",circle,no_dis,hori,left,"[99999,99999]","[-106,106]",left,1,0.8883,,,,,,001,2025-03-10_16h57.55.178,SL_base_41,2021.2.3,Win32,120.7437817,,,68,0,68,0,1,,,,,,,,
,,"[""circle"",""red"",""vert"",""up"",[0,150],[-150,0]]",circle,red,vert,up,"[0,150]","[-150,0]",up,1,1.3705,,,,,,001,2025-03-10_16h57.55.178,SL_base_41,2021.2.3,Win32,120.7437817,,,69,0,69,0,1,,,,,,,,
,,"[""diamond"",""no_dis"",""vert"",""up"",[99999,99999],[-106,106]]",diamond,no_dis,vert,up,"[99999,99999]","[-106,106]",up,1,1.1933,,,,,,001,2025-03-10_16h57.55.178,SL_base_41,2021.2.3,Win32,120.7437817,,,70,0,70,0,1,,,,,,,,
,,"[""diamond"",""green"",""vert"",""up"",[106,106],[0,-150]]",diamond,green,vert,up,"[106,106]","[0,-150]",up,1,1.4338,,,,,,001,2025-03-10_16h57.55.178,SL_base_41,2021.2.3,Win32,120.7437817,,,71,0,71,0,1,,,,,,,,
,,"[""diamond"",""red"",""vert"",""up"",[106,-106],[0,-150]]",diamond,red,vert,up,"[106,-106]","[0,-150]",up,1,1.1438,,,,,,001,2025-03-10_16h57.55.178,SL_base_41,2021.2.3,Win32,120.7437817,,,72,0,72,0,1,,,,,,,,
,,"[""diamond"",""green"",""vert"",""up"",[150,0],[-106,-106]]",diamond,green,vert,up,"[150,0]","[-106,-106]",up,1,1.716,,,,,,001,2025-03-10_16h57.55.178,SL_base_41,2021.2.3,Win32,120.7437817,,,73,0,73,0,1,,,,,,,,
,,"[""circle"",""no_dis"",""hori"",""left"",[99999,99999],[0,-150]]",circle,no_dis,hori,left,"[99999,99999]","[0,-150]",left,1,1.6855,,,,,,001,2025-03-10_16h57.55.178,SL_base_41,2021.2.3,Win32,120.7437817,,,74,0,74,0,1,,,,,,,,
,,"[""circle"",""red"",""vert"",""up"",[150,0],[0,-150]]",circle,red,vert,up,"[150,0]","[0,-150]",up,1,1.5517,,,,,,001,2025-03-10_16h57.55.178,SL_base_41,2021.2.3,Win32,120.7437817,,,75,0,75,0,1,,,,,,,,
,,"[""circle"",""red"",""vert"",""up"",[106,-106],[150,0]]",circle,red,vert,up,"[106,-106]","[150,0]",left,0,1.5847,,,,,,001,2025-03-10_16h57.55.178,SL_base_41,2021.2.3,Win32,120.7437817,,,76,0,76,0,1,,,,,,,,
,,"[""diamond"",""green"",""vert"",""up"",[-150,0],[-106,106]]",diamond,green,vert,up,"[-150,0]","[-106,106]",up,1,1.2262,,,,,,001,2025-03-10_16h57.55.178,SL_base_41,2021.2.3,Win32,120.7437817,,,77,0,77,0,1,,,,,,,,
,,"[""circle"",""no_dis"",""vert"",""up"",[99999,99999],[0,-150]]",circle,no_dis,vert,up,"[99999,99999]","[0,-150]",up,1,1.2456,,,,,,001,2025-03-10_16h57.55.178,SL_base_41,2021.2.3,Win32,120.7437817,,,78,0,78,0,1,,,,,,,,
,,"[""diamond"",""green"",""hori"",""left"",[150,0],[106,106]]",diamond,green,hori,left,"[150,0]","[106,106]",left,1,1.5593,,,,,,001,2025-03-10_16h57.55.178,SL_base_41,2021.2.3,Win32,120.7437817,,,79,0,79,0,1,,,,,,,,
,,"[""circle"",""green"",""vert"",""up"",[0,150],[-106,-106]]",circle,green,vert,up,"[0,150]","[-106,-106]",up,1,1.5005,,,,,,001,2025-03-10_16h57.55.178,SL_base_41,2021.2.3,Win32,120.7437817,,,80,0,80,0,1,,,,,,,,
,,"[""circle"",""red"",""hori"",""left"",[0,-150],[106,106]]",circle,red,hori,left,"[0,-150]","[106,106]",left,1,1.4774,,,,,,001,2025-03-10_16h57.55.178,SL_base_41,2021.2.3,Win32,120.7437817,,,81,0,81,0,1,,,,,,,,
,,"[""circle"",""red"",""hori"",""left"",[0,-150],[150,0]]",circle,red,hori,left,"[0,-150]","[150,0]",left,1,1.4616,,,,,,001,2025-03-10_16h57.55.178,SL_base_41,2021.2.3,Win32,120.7437817,,,82,0,82,0,1,,,,,,,,
,,"[""circle"",""red"",""vert"",""up"",[0,150],[0,-150]]",circle,red,vert,up,"[0,150]","[0,-150]",up,1,1.4283,,,,,,001,2025-03-10_16h57.55.178,SL_base_41,2021.2.3,Win32,120.7437817,,,83,0,83,0,1,,,,,,,,
,,"[""diamond"",""green"",""vert"",""up"",[106,-106],[0,150]]",diamond,green,vert,up,"[106,-106]","[0,150]",up,1,1.6071,,,,,,001,2025-03-10_16h57.55.178,SL_base_41,2021.2.3,Win32,120.7437817,,,84,0,84,0,1,,,,,,,,
,,"[""diamond"",""red"",""vert"",""up"",[-150,0],[-106,106]]",diamond,red,vert,up,"[-150,0]","[-106,106]",up,1,0.928,,,,,,001,2025-03-10_16h57.55.178,SL_base_41,2021.2.3,Win32,120.7437817,,,85,0,85,0,1,,,,,,,,
,,"[""diamond"",""no_dis"",""hori"",""left"",[99999,99999],[150,0]]",diamond,no_dis,hori,left,"[99999,99999]","[150,0]",left,1,0.9502,,,,,,001,2025-03-10_16h57.55.178,SL_base_41,2021.2.3,Win32,120.7437817,,,86,0,86,0,1,,,,,,,,
,,"[""diamond"",""red"",""vert"",""up"",[-150,0],[0,150]]",diamond,red,vert,up,"[-150,0]","[0,150]",up,1,1.1608,,,,,,001,2025-03-10_16h57.55.178,SL_base_41,2021.2.3,Win32,120.7437817,,,87,0,87,0,1,,,,,,,,
,,"[""diamond"",""red"",""vert"",""up"",[106,106],[150,0]]",diamond,red,vert,up,"[106,106]","[150,0]",up,1,1.5172,,,,,,001,2025-03-10_16h57.55.178,SL_base_41,2021.2.3,Win32,120.7437817,,,88,0,88,0,1,,,,,,,,
,,"[""circle"",""red"",""vert"",""up"",[106,106],[0,-150]]",circle,red,vert,up,"[106,106]","[0,-150]",up,1,1.494,,,,,,001,2025-03-10_16h57.55.178,SL_base_41,2021.2.3,Win32,120.7437817,,,89,0,89,0,1,,,,,,,,
,,"[""circle"",""no_dis"",""vert"",""up"",[99999,99999],[106,-106]]",circle,no_dis,vert,up,"[99999,99999]","[106,-106]",up,1,1.5854,,,,,,001,2025-03-10_16h57.55.178,SL_base_41,2021.2.3,Win32,120.7437817,,,90,0,90,0,1,,,,,,,,
,,"[""diamond"",""red"",""vert"",""up"",[106,106],[106,-106]]",diamond,red,vert,up,"[106,106]","[106,-106]",up,1,1.5238,,,,,,001,2025-03-10_16h57.55.178,SL_base_41,2021.2.3,Win32,120.7437817,,,91,0,91,0,1,,,,,,,,
,,"[""circle"",""green"",""hori"",""left"",[106,106],[-150,0]]",circle,green,hori,left,"[106,106]","[-150,0]",up,0,1.2023,,,,,,001,2025-03-10_16h57.55.178,SL_base_41,2021.2.3,Win32,120.7437817,,,92,0,92,0,1,,,,,,,,
,,"[""circle"",""green"",""vert"",""up"",[0,-150],[106,-106]]",circle,green,vert,up,"[0,-150]","[106,-106]",up,1,2.1518,,,,,,001,2025-03-10_16h57.55.178,SL_base_41,2021.2.3,Win32,120.7437817,,,93,0,93,0,1,,,,,,,,
,,"[""diamond"",""red"",""hori"",""left"",[106,106],[-106,106]]",diamond,red,hori,left,"[106,106]","[-106,106]",left,1,1.104,,,,,,001,2025-03-10_16h57.55.178,SL_base_41,2021.2.3,Win32,120.7437817,,,94,0,94,0,1,,,,,,,,
,,"[""circle"",""green"",""hori"",""left"",[-106,106],[150,0]]",circle,green,hori,left,"[-106,106]","[150,0]",left,1,1.3738,,,,,,001,2025-03-10_16h57.55.178,SL_base_41,2021.2.3,Win32,120.7437817,,,95,0,95,0,1,,,,,,,,
,,"[""diamond"",""no_dis"",""hori"",""left"",[99999,99999],[-106,-106]]",diamond,no_dis,hori,left,"[99999,99999]","[-106,-106]",left,1,2.0143,,,,,,001,2025-03-10_16h57.55.178,SL_base_41,2021.2.3,Win32,120.7437817,,,96,0,96,0,1,,,,,,,,
,,"[""circle"",""red"",""vert"",""up"",[106,106],[150,0]]",circle,red,vert,up,"[106,106]","[150,0]",,0,,,,,,,001,2025-03-10_16h57.55.178,SL_base_41,2021.2.3,Win32,120.7437817,,,97,0,97,0,1,,,,,,,,
,,"[""circle"",""green"",""vert"",""up"",[-106,-106],[0,150]]",circle,green,vert,up,"[-106,-106]","[0,150]",up,1,1.4856,,,,,,001,2025-03-10_16h57.55.178,SL_base_41,2021.2.3,Win32,120.7437817,,,98,0,98,0,1,,,,,,,,
,,"[""diamond"",""no_dis"",""vert"",""up"",[99999,99999],[-150,0]]",diamond,no_dis,vert,up,"[99999,99999]","[-150,0]",up,1,1.7933,,,,,,001,2025-03-10_16h57.55.178,SL_base_41,2021.2.3,Win32,120.7437817,,,99,0,99,0,1,,,,,,,,
,,"[""circle"",""green"",""hori"",""left"",[-106,-106],[-106,106]]",circle,green,hori,left,"[-106,-106]","[-106,106]",up,0,1.8313,,,,,,001,2025-03-10_16h57.55.178,SL_base_41,2021.2.3,Win32,120.7437817,,,100,0,100,0,1,,,,,,,,
,,"[""circle"",""green"",""hori"",""left"",[106,106],[150,0]]",circle,green,hori,left,"[106,106]","[150,0]",left,1,1.3052,,,,,,001,2025-03-10_16h57.55.178,SL_base_41,2021.2.3,Win32,120.7437817,,,101,0,101,0,1,,,,,,,,
,,"[""circle"",""green"",""hori"",""left"",[106,106],[0,150]]",circle,green,hori,left,"[106,106]","[0,150]",left,1,1.4442,,,,,,001,2025-03-10_16h57.55.178,SL_base_41,2021.2.3,Win32,120.7437817,,,102,0,102,0,1,,,,,,,,
,,"[""circle"",""red"",""vert"",""up"",[106,106],[150,0]]",circle,red,vert,up,"[106,106]","[150,0]",up,1,1.3539,,,,,,001,2025-03-10_16h57.55.178,SL_base_41,2021.2.3,Win32,120.7437817,,,103,0,103,0,1,,,,,,,,
,,"[""diamond"",""red"",""hori"",""left"",[-106,106],[106,-106]]",diamond,red,hori,left,"[-106,106]","[106,-106]",left,1,1.1921,,,,,,001,2025-03-10_16h57.55.178,SL_base_41,2021.2.3,Win32,120.7437817,,,104,0,104,0,1,,,,,,,,
,,"[""circle"",""green"",""vert"",""up"",[106,106],[150,0]]",circle,green,vert,up,"[106,106]","[150,0]",up,1,1.2051,,,,,,001,2025-03-10_16h57.55.178,SL_base_41,2021.2.3,Win32,120.7437817,,,105,0,105,0,1,,,,,,,,
,,"[""circle"",""no_dis"",""vert"",""up"",[99999,99999],[0,150]]",circle,no_dis,vert,up,"[99999,99999]","[0,150]",up,1,1.9849,,,,,,001,2025-03-10_16h57.55.178,SL_base_41,2021.2.3,Win32,120.7437817,,,106,0,106,0,1,,,,,,,,
,,"[""circle"",""no_dis"",""vert"",""up"",[99999,99999],[106,-106]]",circle,no_dis,vert,up,"[99999,99999]","[106,-106]",up,1,1.8522,,,,,,001,2025-03-10_16h57.55.178,SL_base_41,2021.2.3,Win32,120.7437817,,,107,0,107,0,1,,,,,,,,
,,"[""diamond"",""no_dis"",""hori"",""left"",[99999,99999],[150,0]]",diamond,no_dis,hori,left,"[99999,99999]","[150,0]",left,1,1.4027,,,,,,001,2025-03-10_16h57.55.178,SL_base_41,2021.2.3,Win32,120.7437817,,,108,0,108,0,1,,,,,,,,
,,"[""diamond"",""red"",""vert"",""up"",[-106,-106],[106,-106]]",diamond,red,vert,up,"[-106,-106]","[106,-106]",up,1,1.4174,,,,,,001,2025-03-10_16h57.55.178,SL_base_41,2021.2.3,Win32,120.7437817,,,109,0,109,0,1,,,,,,,,
,,"[""diamond"",""no_dis"",""vert"",""up"",[99999,99999],[0,150]]",diamond,no_dis,vert,up,"[99999,99999]","[0,150]",up,1,1.8457,,,,,,001,2025-03-10_16h57.55.178,SL_base_41,2021.2.3,Win32,120.7437817,,,110,0,110,0,1,,,,,,,,
,,"[""diamond"",""no_dis"",""hori"",""left"",[99999,99999],[-106,-106]]",diamond,no_dis,hori,left,"[99999,99999]","[-106,-106]",left,1,1.0584,,,,,,001,2025-03-10_16h57.55.178,SL_base_41,2021.2.3,Win32,120.7437817,,,111,0,111,0,1,,,,,,,,
,,"[""diamond"",""green"",""hori"",""left"",[-150,0],[-106,106]]",diamond,green,hori,left,"[-150,0]","[-106,106]",left,1,1.407,,,,,,001,2025-03-10_16h57.55.178,SL_base_41,2021.2.3,Win32,120.7437817,,,112,0,112,0,1,,,,,,,,
,,"[""circle"",""red"",""hori"",""left"",[-150,0],[-106,-106]]",circle,red,hori,left,"[-150,0]","[-106,-106]",left,1,2.9603,,,,,,001,2025-03-10_16h57.55.178,SL_base_41,2021.2.3,Win32,120.7437817,,,113,0,113,0,1,,,,,,,,
,,"[""diamond"",""no_dis"",""vert"",""up"",[99999,99999],[-150,0]]",diamond,no_dis,vert,up,"[99999,99999]","[-150,0]",up,1,1.3515,,,,,,001,2025-03-10_16h57.55.178,SL_base_41,2021.2.3,Win32,120.7437817,,,114,0,114,0,1,,,,,,,,
,,"[""diamond"",""no_dis"",""hori"",""left"",[99999,99999],[106,106]]",diamond,no_dis,hori,left,"[99999,99999]","[106,106]",left,1,1.2853,,,,,,001,2025-03-10_16h57.55.178,SL_base_41,2021.2.3,Win32,120.7437817,,,115,0,115,0,1,,,,,,,,
,,"[""circle"",""red"",""hori"",""left"",[106,106],[-106,-106]]",circle,red,hori,left,"[106,106]","[-106,-106]",left,1,1.3027,,,,,,001,2025-03-10_16h57.55.178,SL_base_41,2021.2.3,Win32,120.7437817,,,116,0,116,0,1,,,,,,,,
,,"[""diamond"",""green"",""vert"",""up"",[106,106],[-106,-106]]",diamond,green,vert,up,"[106,106]","[-106,-106]",left,0,1.4841,,,,,,001,2025-03-10_16h57.55.178,SL_base_41,2021.2.3,Win32,120.7437817,,,117,0,117,0,1,,,,,,,,
,,"[""circle"",""red"",""vert"",""up"",[106,-106],[106,106]]",circle,red,vert,up,"[106,-106]","[106,106]",up,1,1.1183,,,,,,001,2025-03-10_16h57.55.178,SL_base_41,2021.2.3,Win32,120.7437817,,,118,0,118,0,1,,,,,,,,
,,"[""diamond"",""green"",""vert"",""up"",[0,-150],[106,-106]]",diamond,green,vert,up,"[0,-150]","[106,-106]",up,1,2.1907,,,,,,001,2025-03-10_16h57.55.178,SL_base_41,2021.2.3,Win32,120.7437817,,,119,0,119,0,1,,,,,,,,
,,"[""diamond"",""no_dis"",""vert"",""up"",[99999,99999],[-106,-106]]",diamond,no_dis,vert,up,"[99999,99999]","[-106,-106]",,0,,,,,,,001,2025-03-10_16h57.55.178,SL_base_41,2021.2.3,Win32,120.7437817,,,120,0,120,0,1,,,,,,,,
,,"[""diamond"",""green"",""hori"",""left"",[106,106],[0,150]]",diamond,green,hori,left,"[106,106]","[0,150]",up,0,1.0573,,,,,,001,2025-03-10_16h57.55.178,SL_base_41,2021.2.3,Win32,120.7437817,,,121,0,121,0,1,,,,,,,,
,,"[""diamond"",""green"",""vert"",""up"",[0,-150],[-150,0]]",diamond,green,vert,up,"[0,-150]","[-150,0]",up,1,1.8431,,,,,,001,2025-03-10_16h57.55.178,SL_base_41,2021.2.3,Win32,120.7437817,,,122,0,122,0,1,,,,,,,,
,,"[""circle"",""red"",""vert"",""up"",[-106,106],[0,-150]]",circle,red,vert,up,"[-106,106]","[0,-150]",up,1,1.46,,,,,,001,2025-03-10_16h57.55.178,SL_base_41,2021.2.3,Win32,120.7437817,,,123,0,123,0,1,,,,,,,,
,,"[""circle"",""no_dis"",""hori"",""left"",[99999,99999],[106,-106]]",circle,no_dis,hori,left,"[99999,99999]","[106,-106]",left,1,1.325,,,,,,001,2025-03-10_16h57.55.178,SL_base_41,2021.2.3,Win32,120.7437817,,,124,0,124,0,1,,,,,,,,
,,"[""diamond"",""green"",""hori"",""left"",[106,106],[0,-150]]",diamond,green,hori,left,"[106,106]","[0,-150]",left,1,1.9464,,,,,,001,2025-03-10_16h57.55.178,SL_base_41,2021.2.3,Win32,120.7437817,,,125,0,125,0,1,,,,,,,,
,,"[""circle"",""no_dis"",""hori"",""left"",[99999,99999],[106,-106]]",circle,no_dis,hori,left,"[99999,99999]","[106,-106]",left,1,1.8522,,,,,,001,2025-03-10_16h57.55.178,SL_base_41,2021.2.3,Win32,120.7437817,,,126,0,126,0,1,,,,,,,,
,,"[""circle"",""red"",""hori"",""left"",[-150,0],[150,0]]",circle,red,hori,left,"[-150,0]","[150,0]",left,1,1.9574,,,,,,001,2025-03-10_16h57.55.178,SL_base_41,2021.2.3,Win32,120.7437817,,,127,0,127,0,1,,,,,,,,
,,,,,,,,,,,,,,,,,001,2025-03-10_16h57.55.178,SL_base_41,2021.2.3,Win32,120.7437817,,,,,,,,2,space,168.3078,1,0,1,0,1
,,"[""diamond"",""red"",""hori"",""left"",[-106,-106],[106,-106]]",diamond,red,hori,left,"[-106,-106]","[106,-106]",left,1,1.8069,,,,,,001,2025-03-10_16h57.55.178,SL_base_41,2021.2.3,Win32,120.7437817,,,0,0,0,0,1,,,,,,,,
,,"[""circle"",""no_dis"",""hori"",""left"",[99999,99999],[0,-150]]",circle,no_dis,hori,left,"[99999,99999]","[0,-150]",left,1,1.3361,,,,,,001,2025-03-10_16h57.55.178,SL_base_41,2021.2.3,Win32,120.7437817,,,1,0,1,0,1,,,,,,,,
,,"[""circle"",""red"",""vert"",""up"",[0,150],[0,-150]]",circle,red,vert,up,"[0,150]","[0,-150]",up,1,0.8719,,,,,,001,2025-03-10_16h57.55.178,SL_base_41,2021.2.3,Win32,120.7437817,,,2,0,2,0,1,,,,,,,,
,,"[""circle"",""green"",""hori"",""left"",[-106,-106],[-106,106]]",circle,green,hori,left,"[-106,-106]","[-106,106]",left,1,1.2948,,,,,,001,2025-03-10_16h57.55.178,SL_base_41,2021.2.3,Win32,120.7437817,,,3,0,3,0,1,,,,,,,,
,,"[""circle"",""green"",""vert"",""up"",[106,106],[-150,0]]",circle,green,vert,up,"[106,106]","[-150,0]",up,1,1.1067,,,,,,001,2025-03-10_16h57.55.178,SL_base_41,2021.2.3,Win32,120.7437817,,,4,0,4,0,1,,,,,,,,
,,"[""diamond"",""no_dis"",""vert"",""up"",[99999,99999],[-106,106]]",diamond,no_dis,vert,up,"[99999,99999]","[-106,106]",up,1,1.0415,,,,,,001,2025-03-10_16h57.55.178,SL_base_41,2021.2.3,Win32,120.7437817,,,5,0,5,0,1,,,,,,,,
,,"[""circle"",""green"",""vert"",""up"",[-106,-106],[0,150]]",circle,green,vert,up,"[-106,-106]","[0,150]",up,1,0.9856,,,,,,001,2025-03-10_16h57.55.178,SL_base_41,2021.2.3,Win32,120.7437817,,,6,0,6,0,1,,,,,,,,
,,"[""circle"",""red"",""vert"",""up"",[106,106],[150,0]]",circle,red,vert,up,"[106,106]","[150,0]",up,1,0.9771,,,,,,001,2025-03-10_16h57.55.178,SL_base_41,2021.2.3,Win32,120.7437817,,,7,0,7,0,1,,,,,,,,
,,"[""diamond"",""green"",""vert"",""up"",[106,106],[0,-150]]",diamond,green,vert,up,"[106,106]","[0,-150]",up,1,1.0754,,,,,,001,2025-03-10_16h57.55.178,SL_base_41,2021.2.3,Win32,120.7437817,,,8,0,8,0,1,,,,,,,,
,,"[""diamond"",""green"",""hori"",""left"",[150,0],[0,-150]]",diamond,green,hori,left,"[150,0]","[0,-150]",left,1,1.0735,,,,,,001,2025-03-10_16h57.55.178,SL_base_41,2021.2.3,Win32,120.7437817,,,9,0,9,0,1,,,,,,,,
,,"[""diamond"",""red"",""hori"",""left"",[-106,-106],[-150,0]]",diamond,red,hori,left,"[-106,-106]","[-150,0]",left,1,1.5769,,,,,,001,2025-03-10_16h57.55.178,SL_base_41,2021.2.3,Win32,120.7437817,,,10,0,10,0,1,,,,,,,,
,,"[""diamond"",""green"",""vert"",""up"",[-106,-106],[-150,0]]",diamond,green,vert,up,"[-106,-106]","[-150,0]",up,1,1.302,,,,,,001,2025-03-10_16h57.55.178,SL_base_41,2021.2.3,Win32,120.7437817,,,11,0,11,0,1,,,,,,,,
,,"[""circle"",""no_dis"",""hori"",""left"",[99999,99999],[106,-106]]",circle,no_dis,hori,left,"[99999,99999]","[106,-106]",,0,,,,,,,001,2025-03-10_16h57.55.178,SL_base_41,2021.2.3,Win32,120.7437817,,,12,0,12,0,1,,,,,,,,
,,"[""circle"",""red"",""hori"",""left"",[-150,0],[150,0]]",circle,red,hori,left,"[-150,0]","[150,0]",left,1,1.6521,,,,,,001,2025-03-10_16h57.55.178,SL_base_41,2021.2.3,Win32,120.7437817,,,13,0,13,0,1,,,,,,,,
,,"[""circle"",""red"",""vert"",""up"",[0,-150],[-106,-106]]",circle,red,vert,up,"[0,-150]","[-106,-106]",up,1,2.1875,,,,,,001,2025-03-10_16h57.55.178,SL_base_41,2021.2.3,Win32,120.7437817,,,14,0,14,0,1,,,,,,,,
,,"[""diamond"",""red"",""vert"",""up"",[-106,-106],[106,-106]]",diamond,red,vert,up,"[-106,-106]","[106,-106]",up,1,1.543,,,,,,001,2025-03-10_16h57.55.178,SL_base_41,2021.2.3,Win32,120.7437817,,,15,0,15,0,1,,,,,,,,
,,"[""diamond"",""green"",""hori"",""left"",[-150,0],[-106,106]]",diamond,green,hori,left,"[-150,0]","[-106,106]",left,1,1.2285,,,,,,001,2025-03-10_16h57.55.178,SL_base_41,2021.2.3,Win32,120.7437817,,,16,0,16,0,1,,,,,,,,
,,"[""circle"",""green"",""vert"",""up"",[0,-150],[106,-106]]",circle,green,vert,up,"[0,-150]","[106,-106]",up,1,1.4561,,,,,,001,2025-03-10_16h57.55.178,SL_base_41,2021.2.3,Win32,120.7437817,,,17,0,17,0,1,,,,,,,,
,,"[""circle"",""green"",""vert"",""up"",[150,0],[0,150]]",circle,green,vert,up,"[150,0]","[0,150]",up,1,1.0758,,,,,,001,2025-03-10_16h57.55.178,SL_base_41,2021.2.3,Win32,120.7437817,,,18,0,18,0,1,,,,,,,,
,,"[""diamond"",""no_dis"",""hori"",""left"",[99999,99999],[-106,-106]]",diamond,no_dis,hori,left,"[99999,99999]","[-106,-106]",left,1,1.1695,,,,,,001,2025-03-10_16h57.55.178,SL_base_41,2021.2.3,Win32,120.7437817,,,19,0,19,0,1,,,,,,,,
,,"[""diamond"",""red"",""vert"",""up"",[-150,0],[0,150]]",diamond,red,vert,up,"[-150,0]","[0,150]",up,1,0.8341,,,,,,001,2025-03-10_16h57.55.178,SL_base_41,2021.2.3,Win32,120.7437817,,,20,0,20,0,1,,,,,,,,
,,"[""circle"",""green"",""vert"",""up"",[0,-150],[0,150]]",circle,green,vert,up,"[0,-150]","[0,150]",up,1,1.2533,,,,,,001,2025-03-10_16h57.55.178,SL_base_41,2021.2.3,Win32,120.7437817,,,21,0,21,0,1,,,,,,,,
,,"[""circle"",""green"",""hori"",""left"",[106,106],[0,150]]",circle,green,hori,left,"[106,106]","[0,150]",left,1,0.9747,,,,,,001,2025-03-10_16h57.55.178,SL_base_41,2021.2.3,Win32,120.7437817,,,22,0,22,0,1,,,,,,,,
,,"[""diamond"",""green"",""hori"",""left"",[106,106],[0,150]]",diamond,green,hori,left,"[106,106]","[0,150]",left,1,1.2859,,,,,,001,2025-03-10_16h57.55.178,SL_base_41,2021.2.3,Win32,120.7437817,,,23,0,23,0,1,,,,,,,,
,,"[""circle"",""green"",""vert"",""up"",[106,106],[-150,0]]",circle,green,vert,up,"[106,106]","[-150,0]",up,1,0.7694,,,,,,001,2025-03-10_16h57.55.178,SL_base_41,2021.2.3,Win32,120.7437817,,,24,0,24,0,1,,,,,,,,
,,"[""circle"",""green"",""hori"",""left"",[0,150],[106,-106]]",circle,green,hori,left,"[0,150]","[106,-106]",left,1,1.3032,,,,,,001,2025-03-10_16h57.55.178,SL_base_41,2021.2.3,Win32,120.7437817,,,25,0,25,0,1,,,,,,,,
,,"[""circle"",""no_dis"",""hori"",""left"",[99999,99999],[150,0]]",circle,no_dis,hori,left,"[99999,99999]","[150,0]",left,1,0.7524,,,,,,001,2025-03-10_16h57.55.178,SL_base_41,2021.2.3,Win32,120.7437817,,,26,0,26,0,1,,,,,,,,
,,"[""circle"",""red"",""vert"",""up"",[106,-106],[150,0]]",circle,red,vert,up,"[106,-106]","[150,0]",up,1,0.7423,,,,,,001,2025-03-10_16h57.55.178,SL_base_41,2021.2.3,Win32,120.7437817,,,27,0,27,0,1,,,,,,,,
,,"[""diamond"",""red"",""hori"",""left"",[106,106],[-106,106]]",diamond,red,hori,left,"[106,106]","[-106,106]",left,1,0.7948,,,,,,001,2025-03-10_16h57.55.178,SL_base_41,2021.2.3,Win32,120.7437817,,,28,0,28,0,1,,,,,,,,
,,"[""diamond"",""no_dis"",""hori"",""left"",[99999,99999],[106,106]]",diamond,no_dis,hori,left,"[99999,99999]","[106,106]",left,1,0.7434,,,,,,001,2025-03-10_16h57.55.178,SL_base_41,2021.2.3,Win32,120.7437817,,,29,0,29,0,1,,,,,,,,
,,"[""circle"",""green"",""hori"",""left"",[106,-106],[106,106]]",circle,green,hori,left,"[106,-106]","[106,106]",left,1,0.8939,,,,,,001,2025-03-10_16h57.55.178,SL_base_41,2021.2.3,Win32,120.7437817,,,30,0,30,0,1,,,,,,,,
,,"[""circle"",""no_dis"",""hori"",""left"",[99999,99999],[106,-106]]",circle,no_dis,hori,left,"[99999,99999]","[106,-106]",left,1,0.9912,,,,,,001,2025-03-10_16h57.55.178,SL_base_41,2021.2.3,Win32,120.7437817,,,31,0,31,0,1,,,,,,,,
,,"[""diamond"",""no_dis"",""vert"",""up"",[99999,99999],[-150,0]]",diamond,no_dis,vert,up,"[99999,99999]","[-150,0]",up,1,1.2393,,,,,,001,2025-03-10_16h57.55.178,SL_base_41,2021.2.3,Win32,120.7437817,,,32,0,32,0,1,,,,,,,,
,,"[""circle"",""green"",""hori"",""left"",[150,0],[-106,-106]]",circle,green,hori,left,"[150,0]","[-106,-106]",left,1,1.0273,,,,,,001,2025-03-10_16h57.55.178,SL_base_41,2021.2.3,Win32,120.7437817,,,33,0,33,0,1,,,,,,,,
,,"[""circle"",""no_dis"",""hori"",""left"",[99999,99999],[0,-150]]",circle,no_dis,hori,left,"[99999,99999]","[0,-150]",left,1,0.9939,,,,,,001,2025-03-10_16h57.55.178,SL_base_41,2021.2.3,Win32,120.7437817,,,34,0,34,0,1,,,,,,,,
,,"[""diamond"",""green"",""hori"",""left"",[106,106],[106,-106]]",diamond,green,hori,left,"[106,106]","[106,-106]",left,1,2.1944,,,,,,001,2025-03-10_16h57.55.178,SL_base_41,2021.2.3,Win32,120.7437817,,,35,0,35,0,1,,,,,,,,
,,"[""circle"",""green"",""vert"",""up"",[0,150],[-106,-106]]",circle,green,vert,up,"[0,150]","[-106,-106]",up,1,1.2933,,,,,,001,2025-03-10_16h57.55.178,SL_base_41,2021.2.3,Win32,120.7437817,,,36,0,36,0,1,,,,,,,,
,,"[""diamond"",""no_dis"",""hori"",""left"",[99999,99999],[-106,-106]]",diamond,no_dis,hori,left,"[99999,99999]","[-106,-106]",left,1,1.5276,,,,,,001,2025-03-10_16h57.55.178,SL_base_41,2021.2.3,Win32,120.7437817,,,37,0,37,0,1,,,,,,,,
,,"[""circle"",""no_dis"",""vert"",""up"",[99999,99999],[-106,-106]]",circle,no_dis,vert,up,"[99999,99999]","[-106,-106]",up,1,1.3592,,,,,,001,2025-03-10_16h57.55.178,SL_base_41,2021.2.3,Win32,120.7437817,,,38,0,38,0,1,,,,,,,,
,,"[""diamond"",""red"",""vert"",""up"",[106,106],[150,0]]",diamond,red,vert,up,"[106,106]","[150,0]",up,1,1.0185,,,,,,001,2025-03-10_16h57.55.178,SL_base_41,2021.2.3,Win32,120.7437817,,,39,0,39,0,1,,,,,,,,
,,"[""diamond"",""red"",""hori"",""left"",[106,106],[-150,0]]",diamond,red,hori,left,"[106,106]","[-150,0]",left,1,1.0714,,,,,,001,2025-03-10_16h57.55.178,SL_base_41,2021.2.3,Win32,120.7437817,,,40,0,40,0,1,,,,,,,,
,,"[""diamond"",""green"",""hori"",""left"",[106,106],[0,-150]]",diamond,green,hori,left,"[106,106]","[0,-150]",left,1,1.2131,,,,,,001,2025-03-10_16h57.55.178,SL_base_41,2021.2.3,Win32,120.7437817,,,41,0,41,0,1,,,,,,,,
,,"[""diamond"",""green"",""vert"",""up"",[0,-150],[-150,0]]",diamond,green,vert,up,"[0,-150]","[-150,0]",up,1,1.2929,,,,,,001,2025-03-10_16h57.55.178,SL_base_41,2021.2.3,Win32,120.7437817,,,42,0,42,0,1,,,,,,,,
,,"[""diamond"",""no_dis"",""hori"",""left"",[99999,99999],[106,106]]",diamond,no_dis,hori,left,"[99999,99999]","[106,106]",left,1,1.0828,,,,,,001,2025-03-10_16h57.55.178,SL_base_41,2021.2.3,Win32,120.7437817,,,43,0,43,0,1,,,,,,,,
,,"[""diamond"",""green"",""vert"",""up"",[-150,0],[-106,106]]",diamond,green,vert,up,"[-150,0]","[-106,106]",up,1,0.9179,,,,,,001,2025-03-10_16h57.55.178,SL_base_41,2021.2.3,Win32,120.7437817,,,44,0,44,0,1,,,,,,,,
,,"[""diamond"",""no_dis"",""vert"",""up"",[99999,99999],[150,0]]",diamond,no_dis,vert,up,"[99999,99999]","[150,0]",up,1,0.8607,,,,,,001,2025-03-10_16h57.55.178,SL_base_41,2021.2.3,Win32,120.7437817,,,45,0,45,0,1,,,,,,,,
,,"[""diamond"",""green"",""hori"",""left"",[150,0],[106,106]]",diamond,green,hori,left,"[150,0]","[106,106]",left,1,0.845,,,,,,001,2025-03-10_16h57.55.178,SL_base_41,2021.2.3,Win32,120.7437817,,,46,0,46,0,1,,,,,,,,
,,"[""circle"",""no_dis"",""vert"",""up"",[99999,99999],[106,-106]]",circle,no_dis,vert,up,"[99999,99999]","[106,-106]",up,1,0.8154,,,,,,001,2025-03-10_16h57.55.178,SL_base_41,2021.2.3,Win32,120.7437817,,,47,0,47,0,1,,,,,,,,
,,"[""diamond"",""no_dis"",""vert"",""up"",[99999,99999],[0,150]]",diamond,no_dis,vert,up,"[99999,99999]","[0,150]",left,0,0.8877,,,,,,001,2025-03-10_16h57.55.178,SL_base_41,2021.2.3,Win32,120.7437817,,,48,0,48,0,1,,,,,,,,
,,"[""diamond"",""no_dis"",""vert"",""up"",[99999,99999],[-106,106]]",diamond,no_dis,vert,up,"[99999,99999]","[-106,106]",up,1,0.8331,,,,,,001,2025-03-10_16h57.55.178,SL_base_41,2021.2.3,Win32,120.7437817,,,49,0,49,0,1,,,,,,,,
,,"[""diamond"",""green"",""hori"",""left"",[-106,-106],[106,-106]]",diamond,green,hori,left,"[-106,-106]","[106,-106]",left,1,1.6975,,,,,,001,2025-03-10_16h57.55.178,SL_base_41,2021.2.3,Win32,120.7437817,,,50,0,50,0,1,,,,,,,,
,,"[""circle"",""red"",""hori"",""left"",[0,150],[-150,0]]",circle,red,hori,left,"[0,150]","[-150,0]",up,0,0.7506,,,,,,001,2025-03-10_16h57.55.178,SL_base_41,2021.2.3,Win32,120.7437817,,,51,0,51,0,1,,,,,,,,
,,"[""circle"",""green"",""hori"",""left"",[-106,106],[150,0]]",circle,green,hori,left,"[-106,106]","[150,0]",left,1,1.3431,,,,,,001,2025-03-10_16h57.55.178,SL_base_41,2021.2.3,Win32,120.7437817,,,52,0,52,0,1,,,,,,,,
,,"[""circle"",""red"",""vert"",""up"",[106,106],[150,0]]",circle,red,vert,up,"[106,106]","[150,0]",up,1,2.2825,,,,,,001,2025-03-10_16h57.55.178,SL_base_41,2021.2.3,Win32,120.7437817,,,53,0,53,0,1,,,,,,,,
,,"[""diamond"",""no_dis"",""hori"",""left"",[99999,99999],[106,106]]",diamond,no_dis,hori,left,"[99999,99999]","[106,106]",left,1,1.2476,,,,,,001,2025-03-10_16h57.55.178,SL_base_41,2021.2.3,Win32,120.7437817,,,54,0,54,0,1,,,,,,,,
,,"[""circle"",""red"",""hori"",""left"",[-150,0],[-106,-106]]",circle,red,hori,left,"[-150,0]","[-106,-106]",left,1,1.2197,,,,,,001,2025-03-10_16h57.55.178,SL_base_41,2021.2.3,Win32,120.7437817,,,55,0,55,0,1,,,,,,,,
,,"[""diamond"",""red"",""vert"",""up"",[106,106],[106,-106]]",diamond,red,vert,up,"[106,106]","[106,-106]",up,1,2.8669,,,,,,001,2025-03-10_16h57.55.178,SL_base_41,2021.2.3,Win32,120.7437817,,,56,0,56,0,1,,,,,,,,
,,"[""diamond"",""no_dis"",""vert"",""up"",[99999,99999],[0,150]]",diamond,no_dis,vert,up,"[99999,99999]","[0,150]",up,1,1.1275,,,,,,001,2025-03-10_16h57.55.178,SL_base_41,2021.2.3,Win32,120.7437817,,,57,0,57,0,1,,,,,,,,
,,"[""diamond"",""red"",""vert"",""up"",[150,0],[106,-106]]",diamond,red,vert,up,"[150,0]","[106,-106]",up,1,1.4191,,,,,,001,2025-03-10_16h57.55.178,SL_base_41,2021.2.3,Win32,120.7437817,,,58,0,58,0,1,,,,,,,,
,,"[""diamond"",""red"",""vert"",""up"",[0,150],[-106,106]]",diamond,red,vert,up,"[0,150]","[-106,106]",up,1,1.1763,,,,,,001,2025-03-10_16h57.55.178,SL_base_41,2021.2.3,Win32,120.7437817,,,59,0,59,0,1,,,,,,,,
,,"[""diamond"",""no_dis"",""hori"",""left"",[99999,99999],[-106,-106]]",diamond,no_dis,hori,left,"[99999,99999]","[-106,-106]",left,1,1.1621,,,,,,001,2025-03-10_16h57.55.178,SL_base_41,2021.2.3,Win32,120.7437817,,,60,0,60,0,1,,,,,,,,
,,"[""diamond"",""no_dis"",""vert"",""up"",[99999,99999],[-150,0]]",diamond,no_dis,vert,up,"[99999,99999]","[-150,0]",up,1,0.8259,,,,,,001,2025-03-10_16h57.55.178,SL_base_41,2021.2.3,Win32,120.7437817,,,61,0,61,0,1,,,,,,,,
,,"[""diamond"",""no_dis"",""hori"",""left"",[99999,99999],[-150,0]]",diamond,no_dis,hori,left,"[99999,99999]","[-150,0]",left,1,1.3261,,,,,,001,2025-03-10_16h57.55.178,SL_base_41,2021.2.3,Win32,120.7437817,,,62,0,62,0,1,,,,,,,,
,,"[""circle"",""no_dis"",""hori"",""left"",[99999,99999],[0,-150]]",circle,no_dis,hori,left,"[99999,99999]","[0,-150]",left,1,1.5175,,,,,,001,2025-03-10_16h57.55.178,SL_base_41,2021.2.3,Win32,120.7437817,,,63,0,63,0,1,,,,,,,,
,,"[""diamond"",""red"",""hori"",""left"",[106,106],[0,150]]",diamond,red,hori,left,"[106,106]","[0,150]",left,1,1.137,,,,,,001,2025-03-10_16h57.55.178,SL_base_41,2021.2.3,Win32,120.7437817,,,64,0,64,0,1,,,,,,,,
,,"[""circle"",""no_dis"",""hori"",""left"",[99999,99999],[-150,0]]",circle,no_dis,hori,left,"[99999,99999]","[-150,0]",left,1,1.1512,,,,,,001,2025-03-10_16h57.55.178,SL_base_41,2021.2.3,Win32,120.7437817,,,65,0,65,0,1,,,,,,,,
,,"[""diamond"",""red"",""vert"",""up"",[106,106],[-106,106]]",diamond,red,vert,up,"[106,106]","[-106,106]",up,1,1.1523,,,,,,001,2025-03-10_16h57.55.178,SL_base_41,2021.2.3,Win32,120.7437817,,,66,0,66,0,1,,,,,,,,
,,"[""diamond"",""green"",""hori"",""left"",[106,106],[0,-150]]",diamond,green,hori,left,"[106,106]","[0,-150]",left,1,1.9087,,,,,,001,2025-03-10_16h57.55.178,SL_base_41,2021.2.3,Win32,120.7437817,,,67,0,67,0,1,,,,,,,,
,,"[""circle"",""no_dis"",""vert"",""up"",[99999,99999],[150,0]]",circle,no_dis,vert,up,"[99999,99999]","[150,0]",up,1,0.9461,,,,,,001,2025-03-10_16h57.55.178,SL_base_41,2021.2.3,Win32,120.7437817,,,68,0,68,0,1,,,,,,,,
,,"[""diamond"",""no_dis"",""hori"",""left"",[99999,99999],[150,0]]",diamond,no_dis,hori,left,"[99999,99999]","[150,0]",left,1,1.5447,,,,,,001,2025-03-10_16h57.55.178,SL_base_41,2021.2.3,Win32,120.7437817,,,69,0,69,0,1,,,,,,,,
,,"[""circle"",""green"",""vert"",""up"",[-106,106],[0,-150]]",circle,green,vert,up,"[-106,106]","[0,-150]",up,1,1.3946,,,,,,001,2025-03-10_16h57.55.178,SL_base_41,2021.2.3,Win32,120.7437817,,,70,0,70,0,1,,,,,,,,
,,"[""diamond"",""red"",""hori"",""left"",[-106,106],[106,-106]]",diamond,red,hori,left,"[-106,106]","[106,-106]",left,1,2.1816,,,,,,001,2025-03-10_16h57.55.178,SL_base_41,2021.2.3,Win32,120.7437817,,,71,0,71,0,1,,,,,,,,
,,"[""circle"",""red"",""vert"",""up"",[0,150],[-150,0]]",circle,red,vert,up,"[0,150]","[-150,0]",up,1,1.1264,,,,,,001,2025-03-10_16h57.55.178,SL_base_41,2021.2.3,Win32,120.7437817,,,72,0,72,0,1,,,,,,,,
,,"[""circle"",""red"",""vert"",""up"",[106,106],[-106,-106]]",circle,red,vert,up,"[106,106]","[-106,-106]",left,0,1.187,,,,,,001,2025-03-10_16h57.55.178,SL_base_41,2021.2.3,Win32,120.7437817,,,73,0,73,0,1,,,,,,,,
,,"[""diamond"",""green"",""hori"",""left"",[0,-150],[-106,106]]",diamond,green,hori,left,"[0,-150]","[-106,106]",left,1,0.9596,,,,,,001,2025-03-10_16h57.55.178,SL_base_41,2021.2.3,Win32,120.7437817,,,74,0,74,0,1,,,,,,,,
,,"[""diamond"",""green"",""hori"",""left"",[-150,0],[0,150]]",diamond,green,hori,left,"[-150,0]","[0,150]",up,0,0.9612,,,,,,001,2025-03-10_16h57.55.178,SL_base_41,2021.2.3,Win32,120.7437817,,,75,0,75,0,1,,,,,,,,
,,"[""circle"",""red"",""hori"",""left"",[106,106],[-150,0]]",circle,red,hori,left,"[106,106]","[-150,0]",left,1,1.2862,,,,,,001,2025-03-10_16h57.55.178,SL_base_41,2021.2.3,Win32,120.7437817,,,76,0,76,0,1,,,,,,,,
,,"[""diamond"",""red"",""hori"",""left"",[106,106],[-106,-106]]",diamond,red,hori,left,"[106,106]","[-106,-106]",left,1,1.035,,,,,,001,2025-03-10_16h57.55.178,SL_base_41,2021.2.3,Win32,120.7437817,,,77,0,77,0,1,,,,,,,,
,,"[""circle"",""green"",""vert"",""up"",[0,150],[-106,-106]]",circle,green,vert,up,"[0,150]","[-106,-106]",up,1,0.9864,,,,,,001,2025-03-10_16h57.55.178,SL_base_41,2021.2.3,Win32,120.7437817,,,78,0,78,0,1,,,,,,,,
,,"[""circle"",""red"",""hori"",""left"",[0,-150],[150,0]]",circle,red,hori,left,"[0,-150]","[150,0]",left,1,1.1654,,,,,,001,2025-03-10_16h57.55.178,SL_base_41,2021.2.3,Win32,120.7437817,,,79,0,79,0,1,,,,,,,,
,,"[""circle"",""red"",""vert"",""up"",[-106,106],[0,-150]]",circle,red,vert,up,"[-106,106]","[0,-150]",up,1,1.3871,,,,,,001,2025-03-10_16h57.55.178,SL_base_41,2021.2.3,Win32,120.7437817,,,80,0,80,0,1,,,,,,,,
,,"[""circle"",""no_dis"",""vert"",""up"",[99999,99999],[0,150]]",circle,no_dis,vert,up,"[99999,99999]","[0,150]",up,1,1.4237,,,,,,001,2025-03-10_16h57.55.178,SL_base_41,2021.2.3,Win32,120.7437817,,,81,0,81,0,1,,,,,,,,
,,"[""circle"",""no_dis"",""vert"",""up"",[99999,99999],[106,106]]",circle,no_dis,vert,up,"[99999,99999]","[106,106]",up,1,2.1095,,,,,,001,2025-03-10_16h57.55.178,SL_base_41,2021.2.3,Win32,120.7437817,,,82,0,82,0,1,,,,,,,,
,,"[""circle"",""no_dis"",""hori"",""left"",[99999,99999],[-106,106]]",circle,no_dis,hori,left,"[99999,99999]","[-106,106]",left,1,0.9023,,,,,,001,2025-03-10_16h57.55.178,SL_base_41,2021.2.3,Win32,120.7437817,,,83,0,83,0,1,,,,,,,,
,,"[""diamond"",""red"",""vert"",""up"",[-106,106],[0,150]]",diamond,red,vert,up,"[-106,106]","[0,150]",up,1,1.3027,,,,,,001,2025-03-10_16h57.55.178,SL_base_41,2021.2.3,Win32,120.7437817,,,84,0,84,0,1,,,,,,,,
,,"[""diamond"",""green"",""vert"",""up"",[106,106],[-106,-106]]",diamond,green,vert,up,"[106,106]","[-106,-106]",up,1,1.0651,,,,,,001,2025-03-10_16h57.55.178,SL_base_41,2021.2.3,Win32,120.7437817,,,85,0,85,0,1,,,,,,,,
,,"[""diamond"",""red"",""vert"",""up"",[-150,0],[-106,106]]",diamond,red,vert,up,"[-150,0]","[-106,106]",up,1,1.2436,,,,,,001,2025-03-10_16h57.55.178,SL_base_41,2021.2.3,Win32,120.7437817,,,86,0,86,0,1,,,,,,,,
,,"[""diamond"",""green"",""hori"",""left"",[-106,106],[0,150]]",diamond,green,hori,left,"[-106,106]","[0,150]",left,1,0.8169,,,,,,001,2025-03-10_16h57.55.178,SL_base_41,2021.2.3,Win32,120.7437817,,,87,0,87,0,1,,,,,,,,
,,"[""circle"",""green"",""hori"",""left"",[106,-106],[106,106]]",circle,green,hori,left,"[106,-106]","[106,106]",left,1,1.361,,,,,,001,2025-03-10_16h57.55.178,SL_base_41,2021.2.3,Win32,120.7437817,,,88,0,88,0,1,,,,,,,,
,,"[""diamond"",""no_dis"",""vert"",""up"",[99999,99999],[106,106]]",diamond,no_dis,vert,up,"[99999,99999]","[106,106]",up,1,0.9426,,,,,,001,2025-03-10_16h57.55.178,SL_base_41,2021.2.3,Win32,120.7437817,,,89,0,89,0,1,,,,,,,,
,,"[""circle"",""red"",""hori"",""left"",[106,-106],[-150,0]]",circle,red,hori,left,"[106,-106]","[-150,0]",left,1,1.9515,,,,,,001,2025-03-10_16h57.55.178,SL_base_41,2021.2.3,Win32,120.7437817,,,90,0,90,0,1,,,,,,,,
,,"[""circle"",""green"",""vert"",""up"",[106,106],[0,-150]]",circle,green,vert,up,"[106,106]","[0,-150]",up,1,2.5987,,,,,,001,2025-03-10_16h57.55.178,SL_base_41,2021.2.3,Win32,120.7437817,,,91,0,91,0,1,,,,,,,,
,,"[""circle"",""no_dis"",""hori"",""left"",[99999,99999],[0,150]]",circle,no_dis,hori,left,"[99999,99999]","[0,150]",left,1,1.2452,,,,,,001,2025-03-10_16h57.55.178,SL_base_41,2021.2.3,Win32,120.7437817,,,92,0,92,0,1,,,,,,,,
,,"[""circle"",""no_dis"",""vert"",""up"",[99999,99999],[-106,106]]",circle,no_dis,vert,up,"[99999,99999]","[-106,106]",up,1,0.966,,,,,,001,2025-03-10_16h57.55.178,SL_base_41,2021.2.3,Win32,120.7437817,,,93,0,93,0,1,,,,,,,,
,,"[""diamond"",""red"",""hori"",""left"",[106,106],[-106,-106]]",diamond,red,hori,left,"[106,106]","[-106,-106]",left,1,1.1353,,,,,,001,2025-03-10_16h57.55.178,SL_base_41,2021.2.3,Win32,120.7437817,,,94,0,94,0,1,,,,,,,,
,,"[""circle"",""no_dis"",""vert"",""up"",[99999,99999],[0,-150]]",circle,no_dis,vert,up,"[99999,99999]","[0,-150]",up,1,1.1524,,,,,,001,2025-03-10_16h57.55.178,SL_base_41,2021.2.3,Win32,120.7437817,,,95,0,95,0,1,,,,,,,,
,,"[""circle"",""red"",""hori"",""left"",[0,-150],[106,106]]",circle,red,hori,left,"[0,-150]","[106,106]",left,1,1.1148,,,,,,001,2025-03-10_16h57.55.178,SL_base_41,2021.2.3,Win32,120.7437817,,,96,0,96,0,1,,,,,,,,
,,"[""circle"",""red"",""vert"",""up"",[150,0],[0,-150]]",circle,red,vert,up,"[150,0]","[0,-150]",up,1,1.1253,,,,,,001,2025-03-10_16h57.55.178,SL_base_41,2021.2.3,Win32,120.7437817,,,97,0,97,0,1,,,,,,,,
,,"[""diamond"",""no_dis"",""vert"",""up"",[99999,99999],[-150,0]]",diamond,no_dis,vert,up,"[99999,99999]","[-150,0]",up,1,1.286,,,,,,001,2025-03-10_16h57.55.178,SL_base_41,2021.2.3,Win32,120.7437817,,,98,0,98,0,1,,,,,,,,
,,"[""circle"",""green"",""hori"",""left"",[106,106],[150,0]]",circle,green,hori,left,"[106,106]","[150,0]",left,1,1.9901,,,,,,001,2025-03-10_16h57.55.178,SL_base_41,2021.2.3,Win32,120.7437817,,,99,0,99,0,1,,,,,,,,
,,"[""circle"",""no_dis"",""vert"",""up"",[99999,99999],[-106,106]]",circle,no_dis,vert,up,"[99999,99999]","[-106,106]",up,1,0.9183,,,,,,001,2025-03-10_16h57.55.178,SL_base_41,2021.2.3,Win32,120.7437817,,,100,0,100,0,1,,,,,,,,
,,"[""diamond"",""red"",""vert"",""up"",[-106,106],[-150,0]]",diamond,red,vert,up,"[-106,106]","[-150,0]",up,1,1.3715,,,,,,001,2025-03-10_16h57.55.178,SL_base_41,2021.2.3,Win32,120.7437817,,,101,0,101,0,1,,,,,,,,
,,"[""circle"",""no_dis"",""hori"",""left"",[99999,99999],[0,-150]]",circle,no_dis,hori,left,"[99999,99999]","[0,-150]",left,1,1.6125,,,,,,001,2025-03-10_16h57.55.178,SL_base_41,2021.2.3,Win32,120.7437817,,,102,0,102,0,1,,,,,,,,
,,"[""circle"",""green"",""hori"",""left"",[106,106],[-106,106]]",circle,green,hori,left,"[106,106]","[-106,106]",left,1,1.2806,,,,,,001,2025-03-10_16h57.55.178,SL_base_41,2021.2.3,Win32,120.7437817,,,103,0,103,0,1,,,,,,,,
,,"[""diamond"",""no_dis"",""vert"",""up"",[99999,99999],[-106,-106]]",diamond,no_dis,vert,up,"[99999,99999]","[-106,-106]",up,1,1.0175,,,,,,001,2025-03-10_16h57.55.178,SL_base_41,2021.2.3,Win32,120.7437817,,,104,0,104,0,1,,,,,,,,
,,"[""circle"",""no_dis"",""vert"",""up"",[99999,99999],[106,-106]]",circle,no_dis,vert,up,"[99999,99999]","[106,-106]",up,1,1.6035,,,,,,001,2025-03-10_16h57.55.178,SL_base_41,2021.2.3,Win32,120.7437817,,,105,0,105,0,1,,,,,,,,
,,"[""circle"",""green"",""hori"",""left"",[106,106],[0,-150]]",circle,green,hori,left,"[106,106]","[0,-150]",left,1,1.1108,,,,,,001,2025-03-10_16h57.55.178,SL_base_41,2021.2.3,Win32,120.7437817,,,106,0,106,0,1,,,,,,,,
,,"[""circle"",""red"",""vert"",""up"",[106,106],[0,-150]]",circle,red,vert,up,"[106,106]","[0,-150]",up,1,0.8876,,,,,,001,2025-03-10_16h57.55.178,SL_base_41,2021.2.3,Win32,120.7437817,,,107,0,107,0,1,,,,,,,,
,,"[""diamond"",""red"",""hori"",""left"",[-106,-106],[106,106]]",diamond,red,hori,left,"[-106,-106]","[106,106]",left,1,1.0182,,,,,,001,2025-03-10_16h57.55.178,SL_base_41,2021.2.3,Win32,120.7437817,,,108,0,108,0,1,,,,,,,,
,,"[""diamond"",""green"",""vert"",""up"",[-106,106],[150,0]]",diamond,green,vert,up,"[-106,106]","[150,0]",up,1,1.2734,,,,,,001,2025-03-10_16h57.55.178,SL_base_41,2021.2.3,Win32,120.7437817,,,109,0,109,0,1,,,,,,,,
,,"[""diamond"",""red"",""vert"",""up"",[106,-106],[0,-150]]",diamond,red,vert,up,"[106,-106]","[0,-150]",up,1,2.0337,,,,,,001,2025-03-10_16h57.55.178,SL_base_41,2021.2.3,Win32,120.7437817,,,110,0,110,0,1,,,,,,,,
,,"[""circle"",""green"",""hori"",""left"",[106,106],[-150,0]]",circle,green,hori,left,"[106,106]","[-150,0]",left,1,1.6664,,,,,,001,2025-03-10_16h57.55.178,SL_base_41,2021.2.3,Win32,120.7437817,,,111,0,111,0,1,,,,,,,,
,,"[""diamond"",""green"",""vert"",""up"",[106,-106],[-106,-106]]",diamond,green,vert,up,"[106,-106]","[-106,-106]",up,1,1.2039,,,,,,001,2025-03-10_16h57.55.178,SL_base_41,2021.2.3,Win32,120.7437817,,,112,0,112,0,1,,,,,,,,
,,"[""diamond"",""no_dis"",""hori"",""left"",[99999,99999],[106,-106]]",diamond,no_dis,hori,left,"[99999,99999]","[106,-106]",left,1,1.2684,,,,,,001,2025-03-10_16h57.55.178,SL_base_41,2021.2.3,Win32,120.7437817,,,113,0,113,0,1,,,,,,,,
,,"[""diamond"",""green"",""vert"",""up"",[106,-106],[0,150]]",diamond,green,vert,up,"[106,-106]","[0,150]",up,1,0.9089,,,,,,001,2025-03-10_16h57.55.178,SL_base_41,2021.2.3,Win32,120.7437817,,,114,0,114,0,1,,,,,,,,
,,"[""circle"",""red"",""hori"",""left"",[150,0],[-106,-106]]",circle,red,hori,left,"[150,0]","[-106,-106]",left,1,1.1874,,,,,,001,2025-03-10_16h57.55.178,SL_base_41,2021.2.3,Win32,120.7437817,,,115,0,115,0,1,,,,,,,,
,,"[""circle"",""red"",""vert"",""up"",[106,-106],[106,106]]",circle,red,vert,up,"[106,-106]","[106,106]",up,1,1.9716,,,,,,001,2025-03-10_16h57.55.178,SL_base_41,2021.2.3,Win32,120.7437817,,,116,0,116,0,1,,,,,,,,
,,"[""diamond"",""green"",""vert"",""up"",[0,-150],[106,-106]]",diamond,green,vert,up,"[0,-150]","[106,-106]",up,1,1.6005,,,,,,001,2025-03-10_16h57.55.178,SL_base_41,2021.2.3,Win32,120.7437817,,,117,0,117,0,1,,,,,,,,
,,"[""diamond"",""no_dis"",""hori"",""left"",[99999,99999],[150,0]]",diamond,no_dis,hori,left,"[99999,99999]","[150,0]",left,1,1.1512,,,,,,001,2025-03-10_16h57.55.178,SL_base_41,2021.2.3,Win32,120.7437817,,,118,0,118,0,1,,,,,,,,
,,"[""diamond"",""green"",""vert"",""up"",[106,106],[-106,-106]]",diamond,green,vert,up,"[106,106]","[-106,-106]",up,1,0.7662,,,,,,001,2025-03-10_16h57.55.178,SL_base_41,2021.2.3,Win32,120.7437817,,,119,0,119,0,1,,,,,,,,
,,"[""diamond"",""red"",""hori"",""left"",[106,106],[0,-150]]",diamond,red,hori,left,"[106,106]","[0,-150]",left,1,0.7009,,,,,,001,2025-03-10_16h57.55.178,SL_base_41,2021.2.3,Win32,120.7437817,,,120,0,120,0,1,,,,,,,,
,,"[""circle"",""no_dis"",""vert"",""up"",[99999,99999],[0,150]]",circle,no_dis,vert,up,"[99999,99999]","[0,150]",up,1,0.8876,,,,,,001,2025-03-10_16h57.55.178,SL_base_41,2021.2.3,Win32,120.7437817,,,121,0,121,0,1,,,,,,,,
,,"[""diamond"",""green"",""vert"",""up"",[150,0],[-106,-106]]",diamond,green,vert,up,"[150,0]","[-106,-106]",up,1,1.1185,,,,,,001,2025-03-10_16h57.55.178,SL_base_41,2021.2.3,Win32,120.7437817,,,122,0,122,0,1,,,,,,,,
,,"[""circle"",""red"",""hori"",""left"",[106,106],[-106,-106]]",circle,red,hori,left,"[106,106]","[-106,-106]",up,0,0.8656,,,,,,001,2025-03-10_16h57.55.178,SL_base_41,2021.2.3,Win32,120.7437817,,,123,0,123,0,1,,,,,,,,
,,"[""diamond"",""red"",""hori"",""left"",[106,106],[-106,-106]]",diamond,red,hori,left,"[106,106]","[-106,-106]",left,1,1.118,,,,,,001,2025-03-10_16h57.55.178,SL_base_41,2021.2.3,Win32,120.7437817,,,124,0,124,0,1,,,,,,,,
,,"[""circle"",""green"",""vert"",""up"",[106,106],[150,0]]",circle,green,vert,up,"[106,106]","[150,0]",up,1,1.3766,,,,,,001,2025-03-10_16h57.55.178,SL_base_41,2021.2.3,Win32,120.7437817,,,125,0,125,0,1,,,,,,,,
,,"[""circle"",""red"",""hori"",""left"",[0,150],[-106,-106]]",circle,red,hori,left,"[0,150]","[-106,-106]",left,1,1.1585,,,,,,001,2025-03-10_16h57.55.178,SL_base_41,2021.2.3,Win32,120.7437817,,,126,0,126,0,1,,,,,,,,
,,"[""circle"",""red"",""hori"",""left"",[-150,0],[106,-106]]",circle,red,hori,left,"[-150,0]","[106,-106]",left,1,1.0447,,,,,,001,2025-03-10_16h57.55.178,SL_base_41,2021.2.3,Win32,120.7437817,,,127,0,127,0,1,,,,,,,,
,,,,,,,,,,,,,,,,,001,2025-03-10_16h57.55.178,SL_base_41,2021.2.3,Win32,120.7437817,,,,,,,,3,space,231.0133,2,0,2,0,1
,,"[""diamond"",""red"",""hori"",""left"",[106,106],[-106,-106]]",diamond,red,hori,left,"[106,106]","[-106,-106]",left,1,1.4227,,,,,,001,2025-03-10_16h57.55.178,SL_base_41,2021.2.3,Win32,120.7437817,,,0,0,0,0,1,,,,,,,,
,,"[""circle"",""green"",""hori"",""left"",[106,106],[-106,106]]",circle,green,hori,left,"[106,106]","[-106,106]",left,1,1.9341,,,,,,001,2025-03-10_16h57.55.178,SL_base_41,2021.2.3,Win32,120.7437817,,,1,0,1,0,1,,,,,,,,
,,"[""circle"",""green"",""vert"",""up"",[106,106],[150,0]]",circle,green,vert,up,"[106,106]","[150,0]",up,1,2.1003,,,,,,001,2025-03-10_16h57.55.178,SL_base_41,2021.2.3,Win32,120.7437817,,,2,0,2,0,1,,,,,,,,
,,"[""diamond"",""red"",""vert"",""up"",[106,106],[150,0]]",diamond,red,vert,up,"[106,106]","[150,0]",up,1,2.7837,,,,,,001,2025-03-10_16h57.55.178,SL_base_41,2021.2.3,Win32,120.7437817,,,3,0,3,0,1,,,,,,,,
,,"[""circle"",""no_dis"",""vert"",""up"",[99999,99999],[-106,-106]]",circle,no_dis,vert,up,"[99999,99999]","[-106,-106]",left,0,2.3904,,,,,,001,2025-03-10_16h57.55.178,SL_base_41,2021.2.3,Win32,120.7437817,,,4,0,4,0,1,,,,,,,,
,,"[""diamond"",""no_dis"",""vert"",""up"",[99999,99999],[-150,0]]",diamond,no_dis,vert,up,"[99999,99999]","[-150,0]",up,1,1.9851,,,,,,001,2025-03-10_16h57.55.178,SL_base_41,2021.2.3,Win32,120.7437817,,,5,0,5,0,1,,,,,,,,
,,"[""circle"",""no_dis"",""vert"",""up"",[99999,99999],[106,-106]]",circle,no_dis,vert,up,"[99999,99999]","[106,-106]",up,1,2.0154,,,,,,001,2025-03-10_16h57.55.178,SL_base_41,2021.2.3,Win32,120.7437817,,,6,0,6,0,1,,,,,,,,
,,"[""circle"",""green"",""vert"",""up"",[-106,106],[0,-150]]",circle,green,vert,up,"[-106,106]","[0,-150]",,0,,,,,,,001,2025-03-10_16h57.55.178,SL_base_41,2021.2.3,Win32,120.7437817,,,7,0,7,0,1,,,,,,,,
,,"[""circle"",""no_dis"",""vert"",""up"",[99999,99999],[-106,106]]",circle,no_dis,vert,up,"[99999,99999]","[-106,106]",up,1,0.9319,,,,,,001,2025-03-10_16h57.55.178,SL_base_41,2021.2.3,Win32,120.7437817,,,8,0,8,0,1,,,,,,,,
,,"[""circle"",""no_dis"",""hori"",""left"",[99999,99999],[0,-150]]",circle,no_dis,hori,left,"[99999,99999]","[0,-150]",left,1,1.0405,,,,,,001,2025-03-10_16h57.55.178,SL_base_41,2021.2.3,Win32,120.7437817,,,9,0,9,0,1,,,,,,,,
,,"[""circle"",""green"",""hori"",""left"",[0,150],[106,-106]]",circle,green,hori,left,"[0,150]","[106,-106]",left,1,1.7947,,,,,,001,2025-03-10_16h57.55.178,SL_base_41,2021.2.3,Win32,120.7437817,,,10,0,10,0,1,,,,,,,,
,,"[""circle"",""red"",""hori"",""left"",[-150,0],[106,-106]]",circle,red,hori,left,"[-150,0]","[106,-106]",left,1,1.8923,,,,,,001,2025-03-10_16h57.55.178,SL_base_41,2021.2.3,Win32,120.7437817,,,11,0,11,0,1,,,,,,,,
,,"[""diamond"",""green"",""vert"",""up"",[106,106],[-106,-106]]",diamond,green,vert,up,"[106,106]","[-106,-106]",up,1,2.4273,,,,,,001,2025-03-10_16h57.55.178,SL_base_41,2021.2.3,Win32,120.7437817,,,12,0,12,0,1,,,,,,,,
,,"[""diamond"",""green"",""hori"",""left"",[106,106],[0,-150]]",diamond,green,hori,left,"[106,106]","[0,-150]",left,1,2.0855,,,,,,001,2025-03-10_16h57.55.178,SL_base_41,2021.2.3,Win32,120.7437817,,,13,0,13,0,1,,,,,,,,
,,"[""diamond"",""red"",""vert"",""up"",[0,150],[-106,106]]",diamond,red,vert,up,"[0,150]","[-106,106]",up,1,1.9548,,,,,,001,2025-03-10_16h57.55.178,SL_base_41,2021.2.3,Win32,120.7437817,,,14,0,14,0,1,,,,,,,,
,,"[""circle"",""no_dis"",""hori"",""left"",[99999,99999],[106,-106]]",circle,no_dis,hori,left,"[99999,99999]","[106,-106]",left,1,2.5651,,,,,,001,2025-03-10_16h57.55.178,SL_base_41,2021.2.3,Win32,120.7437817,,,15,0,15,0,1,,,,,,,,
,,"[""diamond"",""green"",""vert"",""up"",[106,-106],[0,150]]",diamond,green,vert,up,"[106,-106]","[0,150]",up,1,2.1847,,,,,,001,2025-03-10_16h57.55.178,SL_base_41,2021.2.3,Win32,120.7437817,,,16,0,16,0,1,,,,,,,,
,,"[""diamond"",""no_dis"",""hori"",""left"",[99999,99999],[-150,0]]",diamond,no_dis,hori,left,"[99999,99999]","[-150,0]",left,1,2.5448,,,,,,001,2025-03-10_16h57.55.178,SL_base_41,2021.2.3,Win32,120.7437817,,,17,0,17,0,1,,,,,,,,
,,"[""circle"",""no_dis"",""hori"",""left"",[99999,99999],[-150,0]]",circle,no_dis,hori,left,"[99999,99999]","[-150,0]",left,1,1.8437,,,,,,001,2025-03-10_16h57.55.178,SL_base_41,2021.2.3,Win32,120.7437817,,,18,0,18,0,1,,,,,,,,
,,"[""diamond"",""red"",""hori"",""left"",[106,106],[-106,-106]]",diamond,red,hori,left,"[106,106]","[-106,-106]",left,1,1.8773,,,,,,001,2025-03-10_16h57.55.178,SL_base_41,2021.2.3,Win32,120.7437817,,,19,0,19,0,1,,,,,,,,
,,"[""circle"",""no_dis"",""vert"",""up"",[99999,99999],[106,-106]]",circle,no_dis,vert,up,"[99999,99999]","[106,-106]",up,1,2.4,,,,,,001,2025-03-10_16h57.55.178,SL_base_41,2021.2.3,Win32,120.7437817,,,20,0,20,0,1,,,,,,,,
,,"[""diamond"",""no_dis"",""hori"",""left"",[99999,99999],[-106,-106]]",diamond,no_dis,hori,left,"[99999,99999]","[-106,-106]",,0,,,,,,,001,2025-03-10_16h57.55.178,SL_base_41,2021.2.3,Win32,120.7437817,,,21,0,21,0,1,,,,,,,,
,,"[""circle"",""red"",""hori"",""left"",[0,150],[-106,-106]]",circle,red,hori,left,"[0,150]","[-106,-106]",left,1,1.359,,,,,,001,2025-03-10_16h57.55.178,SL_base_41,2021.2.3,Win32,120.7437817,,,22,0,22,0,1,,,,,,,,
,,"[""circle"",""no_dis"",""vert"",""up"",[99999,99999],[106,106]]",circle,no_dis,vert,up,"[99999,99999]","[106,106]",up,1,0.8044,,,,,,001,2025-03-10_16h57.55.178,SL_base_41,2021.2.3,Win32,120.7437817,,,23,0,23,0,1,,,,,,,,
,,"[""circle"",""green"",""vert"",""up"",[0,150],[-106,-106]]",circle,green,vert,up,"[0,150]","[-106,-106]",up,1,1.2025,,,,,,001,2025-03-10_16h57.55.178,SL_base_41,2021.2.3,Win32,120.7437817,,,24,0,24,0,1,,,,,,,,
,,"[""circle"",""green"",""vert"",""up"",[106,106],[-150,0]]",circle,green,vert,up,"[106,106]","[-150,0]",left,0,1.0435,,,,,,001,2025-03-10_16h57.55.178,SL_base_41,2021.2.3,Win32,120.7437817,,,25,0,25,0,1,,,,,,,,
,,"[""diamond"",""no_dis"",""hori"",""left"",[99999,99999],[-106,-106]]",diamond,no_dis,hori,left,"[99999,99999]","[-106,-106]",left,1,1.2583,,,,,,001,2025-03-10_16h57.55.178,SL_base_41,2021.2.3,Win32,120.7437817,,,26,0,26,0,1,,,,,,,,
,,"[""circle"",""red"",""vert"",""up"",[106,106],[150,0]]",circle,red,vert,up,"[106,106]","[150,0]",left,0,1.4246,,,,,,001,2025-03-10_16h57.55.178,SL_base_41,2021.2.3,Win32,120.7437817,,,27,0,27,0,1,,,,,,,,
,,"[""circle"",""no_dis"",""hori"",""left"",[99999,99999],[0,-150]]",circle,no_dis,hori,left,"[99999,99999]","[0,-150]",left,1,1.0084,,,,,,001,2025-03-10_16h57.55.178,SL_base_41,2021.2.3,Win32,120.7437817,,,28,0,28,0,1,,,,,,,,
,,"[""diamond"",""green"",""hori"",""left"",[106,106],[106,-106]]",diamond,green,hori,left,"[106,106]","[106,-106]",up,0,1.1589,,,,,,001,2025-03-10_16h57.55.178,SL_base_41,2021.2.3,Win32,120.7437817,,,29,0,29,0,1,,,,,,,,
,,"[""circle"",""red"",""hori"",""left"",[0,-150],[106,106]]",circle,red,hori,left,"[0,-150]","[106,106]",left,1,1.1873,,,,,,001,2025-03-10_16h57.55.178,SL_base_41,2021.2.3,Win32,120.7437817,,,30,0,30,0,1,,,,,,,,
,,"[""circle"",""red"",""vert"",""up"",[0,150],[0,-150]]",circle,red,vert,up,"[0,150]","[0,-150]",left,0,1.0767,,,,,,001,2025-03-10_16h57.55.178,SL_base_41,2021.2.3,Win32,120.7437817,,,31,0,31,0,1,,,,,,,,
,,"[""diamond"",""green"",""vert"",""up"",[150,0],[-106,-106]]",diamond,green,vert,up,"[150,0]","[-106,-106]",up,1,1.0185,,,,,,001,2025-03-10_16h57.55.178,SL_base_41,2021.2.3,Win32,120.7437817,,,32,0,32,0,1,,,,,,,,
,,"[""circle"",""green"",""hori"",""left"",[-106,106],[150,0]]",circle,green,hori,left,"[-106,106]","[150,0]",left,1,1.033,,,,,,001,2025-03-10_16h57.55.178,SL_base_41,2021.2.3,Win32,120.7437817,,,33,0,33,0,1,,,,,,,,
,,"[""circle"",""red"",""hori"",""left"",[-150,0],[-106,-106]]",circle,red,hori,left,"[-150,0]","[-106,-106]",up,0,1.0124,,,,,,001,2025-03-10_16h57.55.178,SL_base_41,2021.2.3,Win32,120.7437817,,,34,0,34,0,1,,,,,,,,
,,"[""diamond"",""green"",""vert"",""up"",[-150,0],[-106,106]]",diamond,green,vert,up,"[-150,0]","[-106,106]",up,1,1.3418,,,,,,001,2025-03-10_16h57.55.178,SL_base_41,2021.2.3,Win32,120.7437817,,,35,0,35,0,1,,,,,,,,
,,"[""diamond"",""no_dis"",""vert"",""up"",[99999,99999],[-150,0]]",diamond,no_dis,vert,up,"[99999,99999]","[-150,0]",up,1,0.9171,,,,,,001,2025-03-10_16h57.55.178,SL_base_41,2021.2.3,Win32,120.7437817,,,36,0,36,0,1,,,,,,,,
,,"[""circle"",""red"",""hori"",""left"",[106,-106],[-150,0]]",circle,red,hori,left,"[106,-106]","[-150,0]",left,1,0.9106,,,,,,001,2025-03-10_16h57.55.178,SL_base_41,2021.2.3,Win32,120.7437817,,,37,0,37,0,1,,,,,,,,
,,"[""circle"",""green"",""hori"",""left"",[106,106],[0,150]]",circle,green,hori,left,"[106,106]","[0,150]",left,1,1.4174,,,,,,001,2025-03-10_16h57.55.178,SL_base_41,2021.2.3,Win32,120.7437817,,,38,0,38,0,1,,,,,,,,
,,"[""diamond"",""green"",""hori"",""left"",[-150,0],[-106,106]]",diamond,green,hori,left,"[-150,0]","[-106,106]",left,1,0.8357,,,,,,001,2025-03-10_16h57.55.178,SL_base_41,2021.2.3,Win32,120.7437817,,,39,0,39,0,1,,,,,,,,
,,"[""diamond"",""red"",""vert"",""up"",[-106,106],[0,150]]",diamond,red,vert,up,"[-106,106]","[0,150]",up,1,1.6856,,,,,,001,2025-03-10_16h57.55.178,SL_base_41,2021.2.3,Win32,120.7437817,,,40,0,40,0,1,,,,,,,,
,,"[""diamond"",""green"",""hori"",""left"",[150,0],[106,106]]",diamond,green,hori,left,"[150,0]","[106,106]",left,1,1.0853,,,,,,001,2025-03-10_16h57.55.178,SL_base_41,2021.2.3,Win32,120.7437817,,,41,0,41,0,1,,,,,,,,
,,"[""circle"",""green"",""vert"",""up"",[106,106],[0,-150]]",circle,green,vert,up,"[106,106]","[0,-150]",up,1,1.4578,,,,,,001,2025-03-10_16h57.55.178,SL_base_41,2021.2.3,Win32,120.7437817,,,42,0,42,0,1,,,,,,,,
,,"[""circle"",""red"",""hori"",""left"",[106,106],[-150,0]]",circle,red,hori,left,"[106,106]","[-150,0]",left,1,1.275,,,,,,001,2025-03-10_16h57.55.178,SL_base_41,2021.2.3,Win32,120.7437817,,,43,0,43,0,1,,,,,,,,
,,"[""circle"",""no_dis"",""vert"",""up"",[99999,99999],[150,0]]",circle,no_dis,vert,up,"[99999,99999]","[150,0]",up,1,1.4098,,,,,,001,2025-03-10_16h57.55.178,SL_base_41,2021.2.3,Win32,120.7437817,,,44,0,44,0,1,,,,,,,,
,,"[""circle"",""red"",""hori"",""left"",[0,150],[-150,0]]",circle,red,hori,left,"[0,150]","[-150,0]",left,1,1.1371,,,,,,001,2025-03-10_16h57.55.178,SL_base_41,2021.2.3,Win32,120.7437817,,,45,0,45,0,1,,,,,,,,
,,"[""circle"",""green"",""vert"",""up"",[-106,-106],[0,150]]",circle,green,vert,up,"[-106,-106]","[0,150]",up,1,1.1929,,,,,,001,2025-03-10_16h57.55.178,SL_base_41,2021.2.3,Win32,120.7437817,,,46,0,46,0,1,,,,,,,,
,,"[""diamond"",""green"",""vert"",""up"",[-106,106],[150,0]]",diamond,green,vert,up,"[-106,106]","[150,0]",up,1,1.0414,,,,,,001,2025-03-10_16h57.55.178,SL_base_41,2021.2.3,Win32,120.7437817,,,47,0,47,0,1,,,,,,,,
,,"[""diamond"",""red"",""hori"",""left"",[106,106],[-106,106]]",diamond,red,hori,left,"[106,106]","[-106,106]",left,1,1.7853,,,,,,001,2025-03-10_16h57.55.178,SL_base_41,2021.2.3,Win32,120.7437817,,,48,0,48,0,1,,,,,,,,
,,"[""circle"",""red"",""vert"",""up"",[150,0],[0,-150]]",circle,red,vert,up,"[150,0]","[0,-150]",up,1,1.6596,,,,,,001,2025-03-10_16h57.55.178,SL_base_41,2021.2.3,Win32,120.7437817,,,49,0,49,0,1,,,,,,,,
,,"[""diamond"",""red"",""vert"",""up"",[106,106],[106,-106]]",diamond,red,vert,up,"[106,106]","[106,-106]",up,1,1.9266,,,,,,001,2025-03-10_16h57.55.178,SL_base_41,2021.2.3,Win32,120.7437817,,,50,0,50,0,1,,,,,,,,
,,"[""diamond"",""green"",""vert"",""up"",[106,106],[-106,-106]]",diamond,green,vert,up,"[106,106]","[-106,-106]",up,1,1.7688,,,,,,001,2025-03-10_16h57.55.178,SL_base_41,2021.2.3,Win32,120.7437817,,,51,0,51,0,1,,,,,,,,
,,"[""circle"",""green"",""hori"",""left"",[106,106],[150,0]]",circle,green,hori,left,"[106,106]","[150,0]",left,1,1.5425,,,,,,001,2025-03-10_16h57.55.178,SL_base_41,2021.2.3,Win32,120.7437817,,,52,0,52,0,1,,,,,,,,
,,"[""diamond"",""red"",""vert"",""up"",[106,-106],[0,-150]]",diamond,red,vert,up,"[106,-106]","[0,-150]",up,1,1.7677,,,,,,001,2025-03-10_16h57.55.178,SL_base_41,2021.2.3,Win32,120.7437817,,,53,0,53,0,1,,,,,,,,
,,"[""circle"",""red"",""vert"",""up"",[106,-106],[150,0]]",circle,red,vert,up,"[106,-106]","[150,0]",up,1,1.1351,,,,,,001,2025-03-10_16h57.55.178,SL_base_41,2021.2.3,Win32,120.7437817,,,54,0,54,0,1,,,,,,,,
,,"[""diamond"",""red"",""vert"",""up"",[-106,106],[-150,0]]",diamond,red,vert,up,"[-106,106]","[-150,0]",up,1,1.576,,,,,,001,2025-03-10_16h57.55.178,SL_base_41,2021.2.3,Win32,120.7437817,,,55,0,55,0,1,,,,,,,,
,,"[""circle"",""no_dis"",""vert"",""up"",[99999,99999],[-106,106]]",circle,no_dis,vert,up,"[99999,99999]","[-106,106]",up,1,1.7166,,,,,,001,2025-03-10_16h57.55.178,SL_base_41,2021.2.3,Win32,120.7437817,,,56,0,56,0,1,,,,,,,,
,,"[""diamond"",""red"",""vert"",""up"",[106,106],[-106,106]]",diamond,red,vert,up,"[106,106]","[-106,106]",up,1,1.8604,,,,,,001,2025-03-10_16h57.55.178,SL_base_41,2021.2.3,Win32,120.7437817,,,57,0,57,0,1,,,,,,,,
,,"[""diamond"",""no_dis"",""hori"",""left"",[99999,99999],[-106,-106]]",diamond,no_dis,hori,left,"[99999,99999]","[-106,-106]",left,1,1.2031,,,,,,001,2025-03-10_16h57.55.178,SL_base_41,2021.2.3,Win32,120.7437817,,,58,0,58,0,1,,,,,,,,
,,"[""diamond"",""no_dis"",""vert"",""up"",[99999,99999],[-106,-106]]",diamond,no_dis,vert,up,"[99999,99999]","[-106,-106]",up,1,1.2068,,,,,,001,2025-03-10_16h57.55.178,SL_base_41,2021.2.3,Win32,120.7437817,,,59,0,59,0,1,,,,,,,,
,,"[""circle"",""green"",""hori"",""left"",[106,-106],[106,106]]",circle,green,hori,left,"[106,-106]","[106,106]",left,1,1.6941,,,,,,001,2025-03-10_16h57.55.178,SL_base_41,2021.2.3,Win32,120.7437817,,,60,0,60,0,1,,,,,,,,
