﻿key_resp.keys,key_resp.rt,trial_para,tar_shape,dis_color_condi,tar_line,cor_resp,dis_loc,tar_loc,resp.keys,resp.corr,trials.thisRepN,trials.thisTrialN,trials.thisN,trials.thisIndex,trials.ran,participant,date,expName,psychopyVersion,OS,frameRate,resp.rt,key_resp_2.keys,key_resp_2.rt,trials_2.thisRepN,trials_2.thisTrialN,trials_2.thisN,trials_2.thisIndex,trials_2.ran,block_num,key_resp_3.keys,key_resp_3.rt,trials_3.thisRepN,trials_3.thisTrialN,trials_3.thisN,trials_3.thisIndex,trials_3.ran
space,27.0164,"[""circle"",""no_dis"",""hori"",""left"",[99999,99999],[-150,0]]",circle,no_dis,hori,left,"[99999,99999]","[-150,0]",,0,0,0,0,0,1,001,2025-03-17_15h01.40.129,SL_base_41,2021.2.3,Win32,59.88023952,,,,,,,,,,,,,,,,
,,"[""diamond"",""red"",""hori"",""left"",[-106,106],[0,-150]]",diamond,red,hori,left,"[-106,106]","[0,-150]",up,0,1,0,1,0,1,001,2025-03-17_15h01.40.129,SL_base_41,2021.2.3,Win32,59.88023952,1.4085,,,,,,,,,,,,,,,
,,"[""circle"",""red"",""vert"",""up"",[-106,106],[106,106]]",circle,red,vert,up,"[-106,106]","[106,106]",left,0,2,0,2,0,1,001,2025-03-17_15h01.40.129,SL_base_41,2021.2.3,Win32,59.88023952,1.1214,,,,,,,,,,,,,,,
,,"[""diamond"",""red"",""vert"",""up"",[0,-150],[-106,-106]]",diamond,red,vert,up,"[0,-150]","[-106,-106]",up,1,3,0,3,0,1,001,2025-03-17_15h01.40.129,SL_base_41,2021.2.3,Win32,59.88023952,1.218,,,,,,,,,,,,,,,
,,"[""circle"",""no_dis"",""hori"",""left"",[99999,99999],[-106,-106]]",circle,no_dis,hori,left,"[99999,99999]","[-106,-106]",left,1,4,0,4,0,1,001,2025-03-17_15h01.40.129,SL_base_41,2021.2.3,Win32,59.88023952,1.7981,,,,,,,,,,,,,,,
,,"[""diamond"",""green"",""hori"",""left"",[0,150],[-106,106]]",diamond,green,hori,left,"[0,150]","[-106,106]",up,0,5,0,5,0,1,001,2025-03-17_15h01.40.129,SL_base_41,2021.2.3,Win32,59.88023952,1.761,,,,,,,,,,,,,,,
,,"[""diamond"",""green"",""vert"",""up"",[150,0],[-106,-106]]",diamond,green,vert,up,"[150,0]","[-106,-106]",left,0,6,0,6,0,1,001,2025-03-17_15h01.40.129,SL_base_41,2021.2.3,Win32,59.88023952,0.9433,,,,,,,,,,,,,,,
,,"[""diamond"",""red"",""vert"",""up"",[0,150],[-150,0]]",diamond,red,vert,up,"[0,150]","[-150,0]",left,0,7,0,7,0,1,001,2025-03-17_15h01.40.129,SL_base_41,2021.2.3,Win32,59.88023952,1.2169,,,,,,,,,,,,,,,
,,"[""circle"",""red"",""vert"",""up"",[106,-106],[-150,0]]",circle,red,vert,up,"[106,-106]","[-150,0]",up,1,8,0,8,0,1,001,2025-03-17_15h01.40.129,SL_base_41,2021.2.3,Win32,59.88023952,1.0385,,,,,,,,,,,,,,,
,,"[""circle"",""red"",""vert"",""up"",[0,-150],[106,106]]",circle,red,vert,up,"[0,-150]","[106,106]",up,1,9,0,9,0,1,001,2025-03-17_15h01.40.129,SL_base_41,2021.2.3,Win32,59.88023952,1.5687,,,,,,,,,,,,,,,
,,"[""circle"",""no_dis"",""hori"",""left"",[99999,99999],[-150,0]]",circle,no_dis,hori,left,"[99999,99999]","[-150,0]",left,1,,,,,,001,2025-03-17_15h01.40.129,SL_base_41,2021.2.3,Win32,59.88023952,1.2871,space,75.2828,0,0,0,0,1,,,,,,,,
,,"[""diamond"",""red"",""hori"",""left"",[-106,106],[0,-150]]",diamond,red,hori,left,"[-106,106]","[0,-150]",up,0,,,,,,001,2025-03-17_15h01.40.129,SL_base_41,2021.2.3,Win32,59.88023952,1.6398,,,1,0,1,0,1,,,,,,,,
,,"[""circle"",""red"",""vert"",""up"",[-106,106],[106,106]]",circle,red,vert,up,"[-106,106]","[106,106]",left,0,,,,,,001,2025-03-17_15h01.40.129,SL_base_41,2021.2.3,Win32,59.88023952,1.5721,,,2,0,2,0,1,,,,,,,,
,,"[""diamond"",""red"",""vert"",""up"",[0,-150],[-106,-106]]",diamond,red,vert,up,"[0,-150]","[-106,-106]",up,1,,,,,,001,2025-03-17_15h01.40.129,SL_base_41,2021.2.3,Win32,59.88023952,1.069,,,3,0,3,0,1,,,,,,,,
,,"[""circle"",""no_dis"",""hori"",""left"",[99999,99999],[-106,-106]]",circle,no_dis,hori,left,"[99999,99999]","[-106,-106]",up,0,,,,,,001,2025-03-17_15h01.40.129,SL_base_41,2021.2.3,Win32,59.88023952,1.5335,,,4,0,4,0,1,,,,,,,,
,,"[""diamond"",""green"",""hori"",""left"",[0,150],[-106,106]]",diamond,green,hori,left,"[0,150]","[-106,106]",up,0,,,,,,001,2025-03-17_15h01.40.129,SL_base_41,2021.2.3,Win32,59.88023952,1.0816,,,5,0,5,0,1,,,,,,,,
,,"[""diamond"",""green"",""vert"",""up"",[150,0],[-106,-106]]",diamond,green,vert,up,"[150,0]","[-106,-106]",left,0,,,,,,001,2025-03-17_15h01.40.129,SL_base_41,2021.2.3,Win32,59.88023952,0.8854,,,6,0,6,0,1,,,,,,,,
,,"[""diamond"",""red"",""vert"",""up"",[0,150],[-150,0]]",diamond,red,vert,up,"[0,150]","[-150,0]",up,1,,,,,,001,2025-03-17_15h01.40.129,SL_base_41,2021.2.3,Win32,59.88023952,0.6708,,,7,0,7,0,1,,,,,,,,
,,"[""circle"",""red"",""vert"",""up"",[106,-106],[-150,0]]",circle,red,vert,up,"[106,-106]","[-150,0]",up,1,,,,,,001,2025-03-17_15h01.40.129,SL_base_41,2021.2.3,Win32,59.88023952,1.7019,,,8,0,8,0,1,,,,,,,,
,,"[""circle"",""red"",""vert"",""up"",[0,-150],[106,106]]",circle,red,vert,up,"[0,-150]","[106,106]",left,0,,,,,,001,2025-03-17_15h01.40.129,SL_base_41,2021.2.3,Win32,59.88023952,0.7366,,,9,0,9,0,1,,,,,,,,
,,"[""diamond"",""red"",""vert"",""up"",[0,150],[106,106]]",diamond,red,vert,up,"[0,150]","[106,106]",left,0,,,,,,001,2025-03-17_15h01.40.129,SL_base_41,2021.2.3,Win32,59.88023952,1.2698,,,10,0,10,0,1,,,,,,,,
,,"[""diamond"",""green"",""hori"",""left"",[0,150],[106,-106]]",diamond,green,hori,left,"[0,150]","[106,-106]",up,0,,,,,,001,2025-03-17_15h01.40.129,SL_base_41,2021.2.3,Win32,59.88023952,0.6029,,,11,0,11,0,1,,,,,,,,
,,"[""circle"",""green"",""vert"",""up"",[0,-150],[0,150]]",circle,green,vert,up,"[0,-150]","[0,150]",up,1,,,,,,001,2025-03-17_15h01.40.129,SL_base_41,2021.2.3,Win32,59.88023952,0.9584,,,12,0,12,0,1,,,,,,,,
,,"[""diamond"",""red"",""hori"",""left"",[-106,-106],[-106,106]]",diamond,red,hori,left,"[-106,-106]","[-106,106]",left,1,,,,,,001,2025-03-17_15h01.40.129,SL_base_41,2021.2.3,Win32,59.88023952,1.1307,,,13,0,13,0,1,,,,,,,,
,,"[""diamond"",""green"",""hori"",""left"",[0,-150],[106,106]]",diamond,green,hori,left,"[0,-150]","[106,106]",left,1,,,,,,001,2025-03-17_15h01.40.129,SL_base_41,2021.2.3,Win32,59.88023952,0.8237,,,14,0,14,0,1,,,,,,,,
,,"[""circle"",""red"",""hori"",""left"",[-150,0],[0,150]]",circle,red,hori,left,"[-150,0]","[0,150]",up,0,,,,,,001,2025-03-17_15h01.40.129,SL_base_41,2021.2.3,Win32,59.88023952,0.8685,,,15,0,15,0,1,,,,,,,,
,,"[""circle"",""green"",""vert"",""up"",[0,-150],[-150,0]]",circle,green,vert,up,"[0,-150]","[-150,0]",up,1,,,,,,001,2025-03-17_15h01.40.129,SL_base_41,2021.2.3,Win32,59.88023952,0.8098,,,16,0,16,0,1,,,,,,,,
,,"[""circle"",""red"",""hori"",""left"",[-106,-106],[-106,106]]",circle,red,hori,left,"[-106,-106]","[-106,106]",left,1,,,,,,001,2025-03-17_15h01.40.129,SL_base_41,2021.2.3,Win32,59.88023952,0.7233,,,17,0,17,0,1,,,,,,,,
,,"[""circle"",""red"",""hori"",""left"",[-150,0],[150,0]]",circle,red,hori,left,"[-150,0]","[150,0]",left,1,,,,,,001,2025-03-17_15h01.40.129,SL_base_41,2021.2.3,Win32,59.88023952,0.6516,,,18,0,18,0,1,,,,,,,,
,,"[""diamond"",""green"",""vert"",""up"",[0,-150],[106,106]]",diamond,green,vert,up,"[0,-150]","[106,106]",up,1,,,,,,001,2025-03-17_15h01.40.129,SL_base_41,2021.2.3,Win32,59.88023952,0.7985,,,19,0,19,0,1,,,,,,,,
,,"[""circle"",""red"",""hori"",""left"",[106,106],[0,150]]",circle,red,hori,left,"[106,106]","[0,150]",up,0,,,,,,001,2025-03-17_15h01.40.129,SL_base_41,2021.2.3,Win32,59.88023952,0.7066,,,20,0,20,0,1,,,,,,,,
,,"[""circle"",""red"",""vert"",""up"",[106,-106],[0,-150]]",circle,red,vert,up,"[106,-106]","[0,-150]",left,0,,,,,,001,2025-03-17_15h01.40.129,SL_base_41,2021.2.3,Win32,59.88023952,0.7347,,,21,0,21,0,1,,,,,,,,
,,"[""diamond"",""red"",""hori"",""left"",[0,150],[-106,-106]]",diamond,red,hori,left,"[0,150]","[-106,-106]",left,1,,,,,,001,2025-03-17_15h01.40.129,SL_base_41,2021.2.3,Win32,59.88023952,0.9103,,,22,0,22,0,1,,,,,,,,
,,"[""circle"",""no_dis"",""vert"",""up"",[99999,99999],[150,0]]",circle,no_dis,vert,up,"[99999,99999]","[150,0]",up,1,,,,,,001,2025-03-17_15h01.40.129,SL_base_41,2021.2.3,Win32,59.88023952,1.9802,,,23,0,23,0,1,,,,,,,,
,,"[""circle"",""red"",""vert"",""up"",[106,-106],[106,106]]",circle,red,vert,up,"[106,-106]","[106,106]",up,1,,,,,,001,2025-03-17_15h01.40.129,SL_base_41,2021.2.3,Win32,59.88023952,0.9049,,,24,0,24,0,1,,,,,,,,
,,"[""diamond"",""no_dis"",""hori"",""left"",[99999,99999],[0,-150]]",diamond,no_dis,hori,left,"[99999,99999]","[0,-150]",left,1,,,,,,001,2025-03-17_15h01.40.129,SL_base_41,2021.2.3,Win32,59.88023952,1.061,,,25,0,25,0,1,,,,,,,,
,,"[""circle"",""green"",""hori"",""left"",[-106,106],[-150,0]]",circle,green,hori,left,"[-106,106]","[-150,0]",up,0,,,,,,001,2025-03-17_15h01.40.129,SL_base_41,2021.2.3,Win32,59.88023952,0.7086,,,26,0,26,0,1,,,,,,,,
,,"[""diamond"",""no_dis"",""vert"",""up"",[99999,99999],[106,-106]]",diamond,no_dis,vert,up,"[99999,99999]","[106,-106]",left,0,,,,,,001,2025-03-17_15h01.40.129,SL_base_41,2021.2.3,Win32,59.88023952,0.9278,,,27,0,27,0,1,,,,,,,,
,,"[""diamond"",""red"",""vert"",""up"",[106,106],[-150,0]]",diamond,red,vert,up,"[106,106]","[-150,0]",up,1,,,,,,001,2025-03-17_15h01.40.129,SL_base_41,2021.2.3,Win32,59.88023952,0.6462,,,28,0,28,0,1,,,,,,,,
,,"[""circle"",""no_dis"",""vert"",""up"",[99999,99999],[0,-150]]",circle,no_dis,vert,up,"[99999,99999]","[0,-150]",left,0,,,,,,001,2025-03-17_15h01.40.129,SL_base_41,2021.2.3,Win32,59.88023952,0.8396,,,29,0,29,0,1,,,,,,,,
,,"[""circle"",""no_dis"",""hori"",""left"",[99999,99999],[-106,106]]",circle,no_dis,hori,left,"[99999,99999]","[-106,106]",up,0,,,,,,001,2025-03-17_15h01.40.129,SL_base_41,2021.2.3,Win32,59.88023952,0.9185,,,30,0,30,0,1,,,,,,,,
,,"[""diamond"",""red"",""hori"",""left"",[0,-150],[-106,-106]]",diamond,red,hori,left,"[0,-150]","[-106,-106]",left,1,,,,,,001,2025-03-17_15h01.40.129,SL_base_41,2021.2.3,Win32,59.88023952,0.6704,,,31,0,31,0,1,,,,,,,,
,,"[""circle"",""green"",""vert"",""up"",[106,-106],[-150,0]]",circle,green,vert,up,"[106,-106]","[-150,0]",left,0,,,,,,001,2025-03-17_15h01.40.129,SL_base_41,2021.2.3,Win32,59.88023952,0.6853,,,32,0,32,0,1,,,,,,,,
,,"[""diamond"",""red"",""hori"",""left"",[-150,0],[-106,106]]",diamond,red,hori,left,"[-150,0]","[-106,106]",up,0,,,,,,001,2025-03-17_15h01.40.129,SL_base_41,2021.2.3,Win32,59.88023952,0.8963,,,33,0,33,0,1,,,,,,,,
,,"[""circle"",""green"",""vert"",""up"",[106,106],[106,-106]]",circle,green,vert,up,"[106,106]","[106,-106]",left,0,,,,,,001,2025-03-17_15h01.40.129,SL_base_41,2021.2.3,Win32,59.88023952,0.742,,,34,0,34,0,1,,,,,,,,
,,"[""diamond"",""red"",""hori"",""left"",[0,-150],[106,-106]]",diamond,red,hori,left,"[0,-150]","[106,-106]",up,0,,,,,,001,2025-03-17_15h01.40.129,SL_base_41,2021.2.3,Win32,59.88023952,0.9777,,,35,0,35,0,1,,,,,,,,
,,"[""circle"",""green"",""hori"",""left"",[106,106],[0,-150]]",circle,green,hori,left,"[106,106]","[0,-150]",up,0,,,,,,001,2025-03-17_15h01.40.129,SL_base_41,2021.2.3,Win32,59.88023952,0.6405,,,36,0,36,0,1,,,,,,,,
,,"[""circle"",""red"",""hori"",""left"",[150,0],[0,-150]]",circle,red,hori,left,"[150,0]","[0,-150]",left,1,,,,,,001,2025-03-17_15h01.40.129,SL_base_41,2021.2.3,Win32,59.88023952,0.5753,,,37,0,37,0,1,,,,,,,,
,,"[""circle"",""red"",""vert"",""up"",[0,-150],[-106,106]]",circle,red,vert,up,"[0,-150]","[-106,106]",up,1,,,,,,001,2025-03-17_15h01.40.129,SL_base_41,2021.2.3,Win32,59.88023952,0.877,,,38,0,38,0,1,,,,,,,,
,,"[""circle"",""green"",""hori"",""left"",[150,0],[106,106]]",circle,green,hori,left,"[150,0]","[106,106]",up,0,,,,,,001,2025-03-17_15h01.40.129,SL_base_41,2021.2.3,Win32,59.88023952,0.6345,,,39,0,39,0,1,,,,,,,,
,,"[""circle"",""red"",""vert"",""up"",[-106,-106],[-106,106]]",circle,red,vert,up,"[-106,-106]","[-106,106]",left,0,,,,,,001,2025-03-17_15h01.40.129,SL_base_41,2021.2.3,Win32,59.88023952,0.5692,,,40,0,40,0,1,,,,,,,,
,,"[""circle"",""no_dis"",""hori"",""left"",[99999,99999],[-106,106]]",circle,no_dis,hori,left,"[99999,99999]","[-106,106]",left,1,,,,,,001,2025-03-17_15h01.40.129,SL_base_41,2021.2.3,Win32,59.88023952,1.1192,,,41,0,41,0,1,,,,,,,,
,,"[""diamond"",""red"",""vert"",""up"",[106,-106],[-106,106]]",diamond,red,vert,up,"[106,-106]","[-106,106]",up,1,,,,,,001,2025-03-17_15h01.40.129,SL_base_41,2021.2.3,Win32,59.88023952,0.8461,,,42,0,42,0,1,,,,,,,,
,,"[""circle"",""no_dis"",""hori"",""left"",[99999,99999],[0,150]]",circle,no_dis,hori,left,"[99999,99999]","[0,150]",up,0,,,,,,001,2025-03-17_15h01.40.129,SL_base_41,2021.2.3,Win32,59.88023952,1.2345,,,43,0,43,0,1,,,,,,,,
,,"[""diamond"",""green"",""hori"",""left"",[106,-106],[106,106]]",diamond,green,hori,left,"[106,-106]","[106,106]",left,1,,,,,,001,2025-03-17_15h01.40.129,SL_base_41,2021.2.3,Win32,59.88023952,0.8198,,,44,0,44,0,1,,,,,,,,
,,"[""diamond"",""red"",""hori"",""left"",[0,-150],[0,150]]",diamond,red,hori,left,"[0,-150]","[0,150]",up,0,,,,,,001,2025-03-17_15h01.40.129,SL_base_41,2021.2.3,Win32,59.88023952,0.7345,,,45,0,45,0,1,,,,,,,,
,,"[""circle"",""red"",""vert"",""up"",[0,-150],[106,106]]",circle,red,vert,up,"[0,-150]","[106,106]",left,0,,,,,,001,2025-03-17_15h01.40.129,SL_base_41,2021.2.3,Win32,59.88023952,0.9184,,,46,0,46,0,1,,,,,,,,
,,"[""diamond"",""red"",""vert"",""up"",[-150,0],[0,-150]]",diamond,red,vert,up,"[-150,0]","[0,-150]",left,0,,,,,,001,2025-03-17_15h01.40.129,SL_base_41,2021.2.3,Win32,59.88023952,0.5856,,,47,0,47,0,1,,,,,,,,
,,"[""diamond"",""green"",""hori"",""left"",[0,-150],[0,150]]",diamond,green,hori,left,"[0,-150]","[0,150]",up,0,,,,,,001,2025-03-17_15h01.40.129,SL_base_41,2021.2.3,Win32,59.88023952,0.789,,,48,0,48,0,1,,,,,,,,
,,"[""diamond"",""no_dis"",""hori"",""left"",[99999,99999],[0,150]]",diamond,no_dis,hori,left,"[99999,99999]","[0,150]",up,0,,,,,,001,2025-03-17_15h01.40.129,SL_base_41,2021.2.3,Win32,59.88023952,0.9589,,,49,0,49,0,1,,,,,,,,
,,"[""diamond"",""green"",""vert"",""up"",[0,-150],[-106,106]]",diamond,green,vert,up,"[0,-150]","[-106,106]",up,1,,,,,,001,2025-03-17_15h01.40.129,SL_base_41,2021.2.3,Win32,59.88023952,0.8164,,,50,0,50,0,1,,,,,,,,
,,"[""circle"",""no_dis"",""hori"",""left"",[99999,99999],[-106,-106]]",circle,no_dis,hori,left,"[99999,99999]","[-106,-106]",up,0,,,,,,001,2025-03-17_15h01.40.129,SL_base_41,2021.2.3,Win32,59.88023952,0.9399,,,51,0,51,0,1,,,,,,,,
,,"[""circle"",""no_dis"",""hori"",""left"",[99999,99999],[150,0]]",circle,no_dis,hori,left,"[99999,99999]","[150,0]",left,1,,,,,,001,2025-03-17_15h01.40.129,SL_base_41,2021.2.3,Win32,59.88023952,0.8183,,,52,0,52,0,1,,,,,,,,
,,"[""diamond"",""red"",""hori"",""left"",[0,-150],[0,150]]",diamond,red,hori,left,"[0,-150]","[0,150]",up,0,,,,,,001,2025-03-17_15h01.40.129,SL_base_41,2021.2.3,Win32,59.88023952,0.9151,,,53,0,53,0,1,,,,,,,,
,,"[""circle"",""green"",""vert"",""up"",[0,-150],[-106,106]]",circle,green,vert,up,"[0,-150]","[-106,106]",left,0,,,,,,001,2025-03-17_15h01.40.129,SL_base_41,2021.2.3,Win32,59.88023952,0.5903,,,54,0,54,0,1,,,,,,,,
,,"[""circle"",""red"",""vert"",""up"",[-150,0],[0,150]]",circle,red,vert,up,"[-150,0]","[0,150]",left,0,,,,,,001,2025-03-17_15h01.40.129,SL_base_41,2021.2.3,Win32,59.88023952,0.5381,,,55,0,55,0,1,,,,,,,,
,,"[""circle"",""no_dis"",""hori"",""left"",[99999,99999],[0,-150]]",circle,no_dis,hori,left,"[99999,99999]","[0,-150]",up,0,,,,,,001,2025-03-17_15h01.40.129,SL_base_41,2021.2.3,Win32,59.88023952,0.2596,,,56,0,56,0,1,,,,,,,,
,,"[""circle"",""green"",""vert"",""up"",[0,-150],[-150,0]]",circle,green,vert,up,"[0,-150]","[-150,0]",left,0,,,,,,001,2025-03-17_15h01.40.129,SL_base_41,2021.2.3,Win32,59.88023952,0.4747,,,57,0,57,0,1,,,,,,,,
,,"[""diamond"",""no_dis"",""hori"",""left"",[99999,99999],[106,106]]",diamond,no_dis,hori,left,"[99999,99999]","[106,106]",left,1,,,,,,001,2025-03-17_15h01.40.129,SL_base_41,2021.2.3,Win32,59.88023952,0.7816,,,58,0,58,0,1,,,,,,,,
,,"[""diamond"",""red"",""hori"",""left"",[150,0],[-106,106]]",diamond,red,hori,left,"[150,0]","[-106,106]",up,0,,,,,,001,2025-03-17_15h01.40.129,SL_base_41,2021.2.3,Win32,59.88023952,0.5946,,,59,0,59,0,1,,,,,,,,
,,"[""diamond"",""green"",""hori"",""left"",[0,-150],[0,150]]",diamond,green,hori,left,"[0,-150]","[0,150]",up,0,,,,,,001,2025-03-17_15h01.40.129,SL_base_41,2021.2.3,Win32,59.88023952,0.6563,,,60,0,60,0,1,,,,,,,,
,,"[""diamond"",""no_dis"",""vert"",""up"",[99999,99999],[150,0]]",diamond,no_dis,vert,up,"[99999,99999]","[150,0]",up,1,,,,,,001,2025-03-17_15h01.40.129,SL_base_41,2021.2.3,Win32,59.88023952,0.7771,,,61,0,61,0,1,,,,,,,,
,,"[""diamond"",""no_dis"",""vert"",""up"",[99999,99999],[-106,106]]",diamond,no_dis,vert,up,"[99999,99999]","[-106,106]",up,1,,,,,,001,2025-03-17_15h01.40.129,SL_base_41,2021.2.3,Win32,59.88023952,0.8343,,,62,0,62,0,1,,,,,,,,
,,"[""circle"",""no_dis"",""hori"",""left"",[99999,99999],[106,106]]",circle,no_dis,hori,left,"[99999,99999]","[106,106]",up,0,,,,,,001,2025-03-17_15h01.40.129,SL_base_41,2021.2.3,Win32,59.88023952,1.0559,,,63,0,63,0,1,,,,,,,,
,,"[""circle"",""red"",""hori"",""left"",[0,-150],[106,106]]",circle,red,hori,left,"[0,-150]","[106,106]",up,0,,,,,,001,2025-03-17_15h01.40.129,SL_base_41,2021.2.3,Win32,59.88023952,0.7981,,,64,0,64,0,1,,,,,,,,
,,"[""diamond"",""green"",""vert"",""up"",[0,-150],[0,150]]",diamond,green,vert,up,"[0,-150]","[0,150]",left,0,,,,,,001,2025-03-17_15h01.40.129,SL_base_41,2021.2.3,Win32,59.88023952,0.6838,,,65,0,65,0,1,,,,,,,,
,,"[""diamond"",""red"",""vert"",""up"",[-106,-106],[106,106]]",diamond,red,vert,up,"[-106,-106]","[106,106]",up,1,,,,,,001,2025-03-17_15h01.40.129,SL_base_41,2021.2.3,Win32,59.88023952,0.9497,,,66,0,66,0,1,,,,,,,,
,,"[""circle"",""red"",""hori"",""left"",[-106,106],[106,-106]]",circle,red,hori,left,"[-106,106]","[106,-106]",up,0,,,,,,001,2025-03-17_15h01.40.129,SL_base_41,2021.2.3,Win32,59.88023952,1.0583,,,67,0,67,0,1,,,,,,,,
,,"[""circle"",""green"",""vert"",""up"",[0,-150],[0,150]]",circle,green,vert,up,"[0,-150]","[0,150]",left,0,,,,,,001,2025-03-17_15h01.40.129,SL_base_41,2021.2.3,Win32,59.88023952,0.9477,,,68,0,68,0,1,,,,,,,,
,,"[""circle"",""green"",""vert"",""up"",[-150,0],[106,106]]",circle,green,vert,up,"[-150,0]","[106,106]",up,1,,,,,,001,2025-03-17_15h01.40.129,SL_base_41,2021.2.3,Win32,59.88023952,0.6575,,,69,0,69,0,1,,,,,,,,
,,"[""circle"",""green"",""hori"",""left"",[0,-150],[150,0]]",circle,green,hori,left,"[0,-150]","[150,0]",left,1,,,,,,001,2025-03-17_15h01.40.129,SL_base_41,2021.2.3,Win32,59.88023952,1.2268,,,70,0,70,0,1,,,,,,,,
,,"[""diamond"",""no_dis"",""vert"",""up"",[99999,99999],[-106,-106]]",diamond,no_dis,vert,up,"[99999,99999]","[-106,-106]",up,1,,,,,,001,2025-03-17_15h01.40.129,SL_base_41,2021.2.3,Win32,59.88023952,1.1851,,,71,0,71,0,1,,,,,,,,
,,"[""circle"",""green"",""hori"",""left"",[106,-106],[0,150]]",circle,green,hori,left,"[106,-106]","[0,150]",up,0,,,,,,001,2025-03-17_15h01.40.129,SL_base_41,2021.2.3,Win32,59.88023952,1.4235,,,72,0,72,0,1,,,,,,,,
,,"[""circle"",""red"",""vert"",""up"",[-150,0],[0,-150]]",circle,red,vert,up,"[-150,0]","[0,-150]",up,1,,,,,,001,2025-03-17_15h01.40.129,SL_base_41,2021.2.3,Win32,59.88023952,1.5953,,,73,0,73,0,1,,,,,,,,
,,"[""diamond"",""no_dis"",""vert"",""up"",[99999,99999],[-150,0]]",diamond,no_dis,vert,up,"[99999,99999]","[-150,0]",up,1,,,,,,001,2025-03-17_15h01.40.129,SL_base_41,2021.2.3,Win32,59.88023952,1.8017,,,74,0,74,0,1,,,,,,,,
,,"[""diamond"",""no_dis"",""hori"",""left"",[99999,99999],[-106,-106]]",diamond,no_dis,hori,left,"[99999,99999]","[-106,-106]",left,1,,,,,,001,2025-03-17_15h01.40.129,SL_base_41,2021.2.3,Win32,59.88023952,1.0991,,,75,0,75,0,1,,,,,,,,
,,"[""circle"",""green"",""vert"",""up"",[-106,106],[-106,-106]]",circle,green,vert,up,"[-106,106]","[-106,-106]",up,1,,,,,,001,2025-03-17_15h01.40.129,SL_base_41,2021.2.3,Win32,59.88023952,1.4806,,,76,0,76,0,1,,,,,,,,
,,"[""diamond"",""green"",""vert"",""up"",[-106,106],[106,-106]]",diamond,green,vert,up,"[-106,106]","[106,-106]",up,1,,,,,,001,2025-03-17_15h01.40.129,SL_base_41,2021.2.3,Win32,59.88023952,1.3184,,,77,0,77,0,1,,,,,,,,
,,"[""circle"",""no_dis"",""vert"",""up"",[99999,99999],[0,150]]",circle,no_dis,vert,up,"[99999,99999]","[0,150]",left,0,,,,,,001,2025-03-17_15h01.40.129,SL_base_41,2021.2.3,Win32,59.88023952,0.9125,,,78,0,78,0,1,,,,,,,,
,,"[""diamond"",""green"",""hori"",""left"",[-106,106],[106,106]]",diamond,green,hori,left,"[-106,106]","[106,106]",left,1,,,,,,001,2025-03-17_15h01.40.129,SL_base_41,2021.2.3,Win32,59.88023952,1.1228,,,79,0,79,0,1,,,,,,,,
,,"[""circle"",""green"",""hori"",""left"",[-106,-106],[0,-150]]",circle,green,hori,left,"[-106,-106]","[0,-150]",left,1,,,,,,001,2025-03-17_15h01.40.129,SL_base_41,2021.2.3,Win32,59.88023952,0.9924,,,80,0,80,0,1,,,,,,,,
,,"[""circle"",""red"",""hori"",""left"",[-106,-106],[0,-150]]",circle,red,hori,left,"[-106,-106]","[0,-150]",left,1,,,,,,001,2025-03-17_15h01.40.129,SL_base_41,2021.2.3,Win32,59.88023952,1.4298,,,81,0,81,0,1,,,,,,,,
,,"[""diamond"",""red"",""hori"",""left"",[0,-150],[106,-106]]",diamond,red,hori,left,"[0,-150]","[106,-106]",up,0,,,,,,001,2025-03-17_15h01.40.129,SL_base_41,2021.2.3,Win32,59.88023952,1.2502,,,82,0,82,0,1,,,,,,,,
,,"[""diamond"",""green"",""vert"",""up"",[106,106],[0,-150]]",diamond,green,vert,up,"[106,106]","[0,-150]",up,1,,,,,,001,2025-03-17_15h01.40.129,SL_base_41,2021.2.3,Win32,59.88023952,1.0031,,,83,0,83,0,1,,,,,,,,
,,"[""circle"",""red"",""hori"",""left"",[150,0],[106,-106]]",circle,red,hori,left,"[150,0]","[106,-106]",up,0,,,,,,001,2025-03-17_15h01.40.129,SL_base_41,2021.2.3,Win32,59.88023952,1.3723,,,84,0,84,0,1,,,,,,,,
,,"[""diamond"",""green"",""vert"",""up"",[0,-150],[-150,0]]",diamond,green,vert,up,"[0,-150]","[-150,0]",up,1,,,,,,001,2025-03-17_15h01.40.129,SL_base_41,2021.2.3,Win32,59.88023952,1.0513,,,85,0,85,0,1,,,,,,,,
,,"[""diamond"",""red"",""vert"",""up"",[0,-150],[106,-106]]",diamond,red,vert,up,"[0,-150]","[106,-106]",up,1,,,,,,001,2025-03-17_15h01.40.129,SL_base_41,2021.2.3,Win32,59.88023952,1.0548,,,86,0,86,0,1,,,,,,,,
,,"[""diamond"",""no_dis"",""vert"",""up"",[99999,99999],[-106,106]]",diamond,no_dis,vert,up,"[99999,99999]","[-106,106]",left,0,,,,,,001,2025-03-17_15h01.40.129,SL_base_41,2021.2.3,Win32,59.88023952,1.5743,,,87,0,87,0,1,,,,,,,,
,,"[""diamond"",""green"",""hori"",""left"",[-150,0],[0,150]]",diamond,green,hori,left,"[-150,0]","[0,150]",up,0,,,,,,001,2025-03-17_15h01.40.129,SL_base_41,2021.2.3,Win32,59.88023952,1.2326,,,88,0,88,0,1,,,,,,,,
,,"[""circle"",""green"",""hori"",""left"",[0,150],[-106,106]]",circle,green,hori,left,"[0,150]","[-106,106]",up,0,,,,,,001,2025-03-17_15h01.40.129,SL_base_41,2021.2.3,Win32,59.88023952,1.4068,,,89,0,89,0,1,,,,,,,,
,,"[""diamond"",""green"",""hori"",""left"",[106,106],[-106,-106]]",diamond,green,hori,left,"[106,106]","[-106,-106]",up,0,,,,,,001,2025-03-17_15h01.40.129,SL_base_41,2021.2.3,Win32,59.88023952,1.0876,,,90,0,90,0,1,,,,,,,,
,,"[""circle"",""no_dis"",""vert"",""up"",[99999,99999],[150,0]]",circle,no_dis,vert,up,"[99999,99999]","[150,0]",left,0,,,,,,001,2025-03-17_15h01.40.129,SL_base_41,2021.2.3,Win32,59.88023952,0.8825,,,91,0,91,0,1,,,,,,,,
,,"[""circle"",""green"",""vert"",""up"",[0,-150],[150,0]]",circle,green,vert,up,"[0,-150]","[150,0]",left,0,,,,,,001,2025-03-17_15h01.40.129,SL_base_41,2021.2.3,Win32,59.88023952,0.92,,,92,0,92,0,1,,,,,,,,
,,"[""diamond"",""green"",""vert"",""up"",[-106,106],[0,-150]]",diamond,green,vert,up,"[-106,106]","[0,-150]",up,1,,,,,,001,2025-03-17_15h01.40.129,SL_base_41,2021.2.3,Win32,59.88023952,1.0789,,,93,0,93,0,1,,,,,,,,
,,"[""circle"",""red"",""vert"",""up"",[106,-106],[150,0]]",circle,red,vert,up,"[106,-106]","[150,0]",up,1,,,,,,001,2025-03-17_15h01.40.129,SL_base_41,2021.2.3,Win32,59.88023952,2.1293,,,94,0,94,0,1,,,,,,,,
,,"[""diamond"",""no_dis"",""hori"",""left"",[99999,99999],[0,-150]]",diamond,no_dis,hori,left,"[99999,99999]","[0,-150]",up,0,,,,,,001,2025-03-17_15h01.40.129,SL_base_41,2021.2.3,Win32,59.88023952,2.3033,,,95,0,95,0,1,,,,,,,,
,,"[""diamond"",""green"",""vert"",""up"",[106,106],[-150,0]]",diamond,green,vert,up,"[106,106]","[-150,0]",left,0,,,,,,001,2025-03-17_15h01.40.129,SL_base_41,2021.2.3,Win32,59.88023952,0.8384,,,96,0,96,0,1,,,,,,,,
,,"[""diamond"",""no_dis"",""hori"",""left"",[99999,99999],[-106,106]]",diamond,no_dis,hori,left,"[99999,99999]","[-106,106]",up,0,,,,,,001,2025-03-17_15h01.40.129,SL_base_41,2021.2.3,Win32,59.88023952,1.9071,,,97,0,97,0,1,,,,,,,,
,,"[""diamond"",""red"",""vert"",""up"",[0,-150],[-106,106]]",diamond,red,vert,up,"[0,-150]","[-106,106]",left,0,,,,,,001,2025-03-17_15h01.40.129,SL_base_41,2021.2.3,Win32,59.88023952,1.7326,,,98,0,98,0,1,,,,,,,,
,,"[""diamond"",""no_dis"",""vert"",""up"",[99999,99999],[-150,0]]",diamond,no_dis,vert,up,"[99999,99999]","[-150,0]",up,1,,,,,,001,2025-03-17_15h01.40.129,SL_base_41,2021.2.3,Win32,59.88023952,0.8992,,,99,0,99,0,1,,,,,,,,
,,"[""diamond"",""no_dis"",""vert"",""up"",[99999,99999],[106,-106]]",diamond,no_dis,vert,up,"[99999,99999]","[106,-106]",up,1,,,,,,001,2025-03-17_15h01.40.129,SL_base_41,2021.2.3,Win32,59.88023952,1.7027,,,100,0,100,0,1,,,,,,,,
,,"[""diamond"",""green"",""hori"",""left"",[0,-150],[150,0]]",diamond,green,hori,left,"[0,-150]","[150,0]",left,1,,,,,,001,2025-03-17_15h01.40.129,SL_base_41,2021.2.3,Win32,59.88023952,1.2478,,,101,0,101,0,1,,,,,,,,
,,"[""diamond"",""red"",""vert"",""up"",[0,150],[-106,-106]]",diamond,red,vert,up,"[0,150]","[-106,-106]",up,1,,,,,,001,2025-03-17_15h01.40.129,SL_base_41,2021.2.3,Win32,59.88023952,0.8975,,,102,0,102,0,1,,,,,,,,
,,"[""diamond"",""red"",""hori"",""left"",[0,-150],[-150,0]]",diamond,red,hori,left,"[0,-150]","[-150,0]",up,0,,,,,,001,2025-03-17_15h01.40.129,SL_base_41,2021.2.3,Win32,59.88023952,0.8864,,,103,0,103,0,1,,,,,,,,
,,"[""circle"",""green"",""hori"",""left"",[-106,-106],[106,-106]]",circle,green,hori,left,"[-106,-106]","[106,-106]",up,0,,,,,,001,2025-03-17_15h01.40.129,SL_base_41,2021.2.3,Win32,59.88023952,0.5744,,,104,0,104,0,1,,,,,,,,
,,"[""circle"",""red"",""hori"",""left"",[150,0],[-106,-106]]",circle,red,hori,left,"[150,0]","[-106,-106]",left,1,,,,,,001,2025-03-17_15h01.40.129,SL_base_41,2021.2.3,Win32,59.88023952,0.2908,,,105,0,105,0,1,,,,,,,,
,,"[""circle"",""no_dis"",""vert"",""up"",[99999,99999],[0,-150]]",circle,no_dis,vert,up,"[99999,99999]","[0,-150]",up,1,,,,,,001,2025-03-17_15h01.40.129,SL_base_41,2021.2.3,Win32,59.88023952,0.5139,,,106,0,106,0,1,,,,,,,,
,,"[""circle"",""green"",""hori"",""left"",[0,-150],[-106,106]]",circle,green,hori,left,"[0,-150]","[-106,106]",left,1,,,,,,001,2025-03-17_15h01.40.129,SL_base_41,2021.2.3,Win32,59.88023952,0.8415,,,107,0,107,0,1,,,,,,,,
,,"[""circle"",""green"",""hori"",""left"",[-106,-106],[0,-150]]",circle,green,hori,left,"[-106,-106]","[0,-150]",up,0,,,,,,001,2025-03-17_15h01.40.129,SL_base_41,2021.2.3,Win32,59.88023952,0.5265,,,108,0,108,0,1,,,,,,,,
,,"[""diamond"",""no_dis"",""hori"",""left"",[99999,99999],[106,106]]",diamond,no_dis,hori,left,"[99999,99999]","[106,106]",left,1,,,,,,001,2025-03-17_15h01.40.129,SL_base_41,2021.2.3,Win32,59.88023952,0.9859,,,109,0,109,0,1,,,,,,,,
,,"[""circle"",""no_dis"",""vert"",""up"",[99999,99999],[150,0]]",circle,no_dis,vert,up,"[99999,99999]","[150,0]",left,0,,,,,,001,2025-03-17_15h01.40.129,SL_base_41,2021.2.3,Win32,59.88023952,1.045,,,110,0,110,0,1,,,,,,,,
,,"[""circle"",""no_dis"",""vert"",""up"",[99999,99999],[106,106]]",circle,no_dis,vert,up,"[99999,99999]","[106,106]",left,0,,,,,,001,2025-03-17_15h01.40.129,SL_base_41,2021.2.3,Win32,59.88023952,2.6499,,,111,0,111,0,1,,,,,,,,
,,"[""circle"",""red"",""hori"",""left"",[106,106],[0,-150]]",circle,red,hori,left,"[106,106]","[0,-150]",up,0,,,,,,001,2025-03-17_15h01.40.129,SL_base_41,2021.2.3,Win32,59.88023952,0.835,,,112,0,112,0,1,,,,,,,,
,,"[""diamond"",""green"",""vert"",""up"",[150,0],[0,150]]",diamond,green,vert,up,"[150,0]","[0,150]",up,1,,,,,,001,2025-03-17_15h01.40.129,SL_base_41,2021.2.3,Win32,59.88023952,1.1008,,,113,0,113,0,1,,,,,,,,
,,"[""diamond"",""no_dis"",""hori"",""left"",[99999,99999],[0,150]]",diamond,no_dis,hori,left,"[99999,99999]","[0,150]",left,1,,,,,,001,2025-03-17_15h01.40.129,SL_base_41,2021.2.3,Win32,59.88023952,1.3048,,,114,0,114,0,1,,,,,,,,
,,"[""diamond"",""no_dis"",""vert"",""up"",[99999,99999],[0,150]]",diamond,no_dis,vert,up,"[99999,99999]","[0,150]",up,1,,,,,,001,2025-03-17_15h01.40.129,SL_base_41,2021.2.3,Win32,59.88023952,0.6021,,,115,0,115,0,1,,,,,,,,
,,"[""circle"",""no_dis"",""vert"",""up"",[99999,99999],[106,-106]]",circle,no_dis,vert,up,"[99999,99999]","[106,-106]",up,1,,,,,,001,2025-03-17_15h01.40.129,SL_base_41,2021.2.3,Win32,59.88023952,0.9929,,,116,0,116,0,1,,,,,,,,
,,"[""circle"",""no_dis"",""hori"",""left"",[99999,99999],[-150,0]]",circle,no_dis,hori,left,"[99999,99999]","[-150,0]",up,0,,,,,,001,2025-03-17_15h01.40.129,SL_base_41,2021.2.3,Win32,59.88023952,1.0699,,,117,0,117,0,1,,,,,,,,
,,"[""diamond"",""red"",""vert"",""up"",[0,-150],[-150,0]]",diamond,red,vert,up,"[0,-150]","[-150,0]",up,1,,,,,,001,2025-03-17_15h01.40.129,SL_base_41,2021.2.3,Win32,59.88023952,0.4528,,,118,0,118,0,1,,,,,,,,
,,"[""circle"",""green"",""hori"",""left"",[150,0],[0,150]]",circle,green,hori,left,"[150,0]","[0,150]",left,1,,,,,,001,2025-03-17_15h01.40.129,SL_base_41,2021.2.3,Win32,59.88023952,0.82,,,119,0,119,0,1,,,,,,,,
,,"[""circle"",""no_dis"",""vert"",""up"",[99999,99999],[106,-106]]",circle,no_dis,vert,up,"[99999,99999]","[106,-106]",up,1,,,,,,001,2025-03-17_15h01.40.129,SL_base_41,2021.2.3,Win32,59.88023952,0.8838,,,120,0,120,0,1,,,,,,,,
,,"[""diamond"",""no_dis"",""vert"",""up"",[99999,99999],[-106,-106]]",diamond,no_dis,vert,up,"[99999,99999]","[-106,-106]",up,1,,,,,,001,2025-03-17_15h01.40.129,SL_base_41,2021.2.3,Win32,59.88023952,1.2527,,,121,0,121,0,1,,,,,,,,
,,"[""circle"",""no_dis"",""vert"",""up"",[99999,99999],[106,-106]]",circle,no_dis,vert,up,"[99999,99999]","[106,-106]",up,1,,,,,,001,2025-03-17_15h01.40.129,SL_base_41,2021.2.3,Win32,59.88023952,0.9763,,,122,0,122,0,1,,,,,,,,
,,"[""circle"",""green"",""vert"",""up"",[0,150],[-106,106]]",circle,green,vert,up,"[0,150]","[-106,106]",,0,,,,,,001,2025-03-17_15h01.40.129,SL_base_41,2021.2.3,Win32,59.88023952,,,,123,0,123,0,1,,,,,,,,
,,"[""diamond"",""green"",""hori"",""left"",[0,-150],[150,0]]",diamond,green,hori,left,"[0,-150]","[150,0]",left,1,,,,,,001,2025-03-17_15h01.40.129,SL_base_41,2021.2.3,Win32,59.88023952,1.388,,,124,0,124,0,1,,,,,,,,
,,"[""diamond"",""green"",""vert"",""up"",[0,-150],[-150,0]]",diamond,green,vert,up,"[0,-150]","[-150,0]",up,1,,,,,,001,2025-03-17_15h01.40.129,SL_base_41,2021.2.3,Win32,59.88023952,1.967,,,125,0,125,0,1,,,,,,,,
,,"[""diamond"",""no_dis"",""hori"",""left"",[99999,99999],[106,106]]",diamond,no_dis,hori,left,"[99999,99999]","[106,106]",left,1,,,,,,001,2025-03-17_15h01.40.129,SL_base_41,2021.2.3,Win32,59.88023952,1.7863,,,126,0,126,0,1,,,,,,,,
,,"[""diamond"",""no_dis"",""hori"",""left"",[99999,99999],[-150,0]]",diamond,no_dis,hori,left,"[99999,99999]","[-150,0]",left,1,,,,,,001,2025-03-17_15h01.40.129,SL_base_41,2021.2.3,Win32,59.88023952,1.1232,,,127,0,127,0,1,,,,,,,,
,,,,,,,,,,,,,,,,001,2025-03-17_15h01.40.129,SL_base_41,2021.2.3,Win32,59.88023952,,,,,,,,,1,space,65.5613,0,0,0,0,1
,,"[""diamond"",""green"",""vert"",""up"",[-106,106],[106,-106]]",diamond,green,vert,up,"[-106,106]","[106,-106]",up,1,,,,,,001,2025-03-17_15h01.40.129,SL_base_41,2021.2.3,Win32,59.88023952,1.2642,,,0,0,0,0,1,,,,,,,,
,,"[""circle"",""green"",""hori"",""left"",[150,0],[0,150]]",circle,green,hori,left,"[150,0]","[0,150]",left,1,,,,,,001,2025-03-17_15h01.40.129,SL_base_41,2021.2.3,Win32,59.88023952,2.6252,,,1,0,1,0,1,,,,,,,,
,,"[""diamond"",""no_dis"",""vert"",""up"",[99999,99999],[106,-106]]",diamond,no_dis,vert,up,"[99999,99999]","[106,-106]",up,1,,,,,,001,2025-03-17_15h01.40.129,SL_base_41,2021.2.3,Win32,59.88023952,1.6185,,,2,0,2,0,1,,,,,,,,
,,"[""circle"",""no_dis"",""hori"",""left"",[99999,99999],[-106,106]]",circle,no_dis,hori,left,"[99999,99999]","[-106,106]",left,1,,,,,,001,2025-03-17_15h01.40.129,SL_base_41,2021.2.3,Win32,59.88023952,1.4311,,,3,0,3,0,1,,,,,,,,
,,"[""circle"",""green"",""vert"",""up"",[0,-150],[0,150]]",circle,green,vert,up,"[0,-150]","[0,150]",up,1,,,,,,001,2025-03-17_15h01.40.129,SL_base_41,2021.2.3,Win32,59.88023952,1.6262,,,4,0,4,0,1,,,,,,,,
,,"[""circle"",""red"",""vert"",""up"",[-150,0],[0,150]]",circle,red,vert,up,"[-150,0]","[0,150]",up,1,,,,,,001,2025-03-17_15h01.40.129,SL_base_41,2021.2.3,Win32,59.88023952,1.9913,,,5,0,5,0,1,,,,,,,,
,,"[""circle"",""no_dis"",""vert"",""up"",[99999,99999],[150,0]]",circle,no_dis,vert,up,"[99999,99999]","[150,0]",up,1,,,,,,001,2025-03-17_15h01.40.129,SL_base_41,2021.2.3,Win32,59.88023952,1.7248,,,6,0,6,0,1,,,,,,,,
,,"[""diamond"",""red"",""vert"",""up"",[0,-150],[106,-106]]",diamond,red,vert,up,"[0,-150]","[106,-106]",up,1,,,,,,001,2025-03-17_15h01.40.129,SL_base_41,2021.2.3,Win32,59.88023952,1.4214,,,7,0,7,0,1,,,,,,,,
,,"[""diamond"",""red"",""hori"",""left"",[-150,0],[-106,106]]",diamond,red,hori,left,"[-150,0]","[-106,106]",left,1,,,,,,001,2025-03-17_15h01.40.129,SL_base_41,2021.2.3,Win32,59.88023952,2.3465,,,8,0,8,0,1,,,,,,,,
,,"[""circle"",""green"",""vert"",""up"",[0,-150],[-150,0]]",circle,green,vert,up,"[0,-150]","[-150,0]",up,1,,,,,,001,2025-03-17_15h01.40.129,SL_base_41,2021.2.3,Win32,59.88023952,1.3107,,,9,0,9,0,1,,,,,,,,
,,"[""diamond"",""red"",""vert"",""up"",[0,-150],[-106,-106]]",diamond,red,vert,up,"[0,-150]","[-106,-106]",up,1,,,,,,001,2025-03-17_15h01.40.129,SL_base_41,2021.2.3,Win32,59.88023952,1.2555,,,10,0,10,0,1,,,,,,,,
,,"[""circle"",""red"",""hori"",""left"",[0,-150],[106,106]]",circle,red,hori,left,"[0,-150]","[106,106]",left,1,,,,,,001,2025-03-17_15h01.40.129,SL_base_41,2021.2.3,Win32,59.88023952,1.6576,,,11,0,11,0,1,,,,,,,,
,,"[""circle"",""red"",""vert"",""up"",[106,-106],[150,0]]",circle,red,vert,up,"[106,-106]","[150,0]",up,1,,,,,,001,2025-03-17_15h01.40.129,SL_base_41,2021.2.3,Win32,59.88023952,1.6963,,,12,0,12,0,1,,,,,,,,
,,"[""diamond"",""no_dis"",""hori"",""left"",[99999,99999],[0,150]]",diamond,no_dis,hori,left,"[99999,99999]","[0,150]",left,1,,,,,,001,2025-03-17_15h01.40.129,SL_base_41,2021.2.3,Win32,59.88023952,1.6414,,,13,0,13,0,1,,,,,,,,
,,"[""diamond"",""green"",""hori"",""left"",[0,150],[-106,106]]",diamond,green,hori,left,"[0,150]","[-106,106]",left,1,,,,,,001,2025-03-17_15h01.40.129,SL_base_41,2021.2.3,Win32,59.88023952,2.666,,,14,0,14,0,1,,,,,,,,
,,"[""diamond"",""no_dis"",""vert"",""up"",[99999,99999],[-106,-106]]",diamond,no_dis,vert,up,"[99999,99999]","[-106,-106]",up,1,,,,,,001,2025-03-17_15h01.40.129,SL_base_41,2021.2.3,Win32,59.88023952,1.66,,,15,0,15,0,1,,,,,,,,
,,"[""circle"",""green"",""vert"",""up"",[0,-150],[-150,0]]",circle,green,vert,up,"[0,-150]","[-150,0]",up,1,,,,,,001,2025-03-17_15h01.40.129,SL_base_41,2021.2.3,Win32,59.88023952,2.279,,,16,0,16,0,1,,,,,,,,
,,"[""circle"",""green"",""vert"",""up"",[106,-106],[-150,0]]",circle,green,vert,up,"[106,-106]","[-150,0]",up,1,,,,,,001,2025-03-17_15h01.40.129,SL_base_41,2021.2.3,Win32,59.88023952,1.1587,,,17,0,17,0,1,,,,,,,,
,,"[""circle"",""no_dis"",""hori"",""left"",[99999,99999],[150,0]]",circle,no_dis,hori,left,"[99999,99999]","[150,0]",left,1,,,,,,001,2025-03-17_15h01.40.129,SL_base_41,2021.2.3,Win32,59.88023952,0.9734,,,18,0,18,0,1,,,,,,,,
,,"[""circle"",""no_dis"",""hori"",""left"",[99999,99999],[0,150]]",circle,no_dis,hori,left,"[99999,99999]","[0,150]",left,1,,,,,,001,2025-03-17_15h01.40.129,SL_base_41,2021.2.3,Win32,59.88023952,1.2516,,,19,0,19,0,1,,,,,,,,
,,"[""diamond"",""green"",""vert"",""up"",[150,0],[0,150]]",diamond,green,vert,up,"[150,0]","[0,150]",up,1,,,,,,001,2025-03-17_15h01.40.129,SL_base_41,2021.2.3,Win32,59.88023952,1.667,,,20,0,20,0,1,,,,,,,,
,,"[""diamond"",""no_dis"",""vert"",""up"",[99999,99999],[-106,106]]",diamond,no_dis,vert,up,"[99999,99999]","[-106,106]",up,1,,,,,,001,2025-03-17_15h01.40.129,SL_base_41,2021.2.3,Win32,59.88023952,1.6085,,,21,0,21,0,1,,,,,,,,
,,"[""circle"",""green"",""hori"",""left"",[-106,-106],[106,-106]]",circle,green,hori,left,"[-106,-106]","[106,-106]",left,1,,,,,,001,2025-03-17_15h01.40.129,SL_base_41,2021.2.3,Win32,59.88023952,1.2181,,,22,0,22,0,1,,,,,,,,
,,"[""circle"",""green"",""hori"",""left"",[0,150],[-106,106]]",circle,green,hori,left,"[0,150]","[-106,106]",left,1,,,,,,001,2025-03-17_15h01.40.129,SL_base_41,2021.2.3,Win32,59.88023952,1.3844,,,23,0,23,0,1,,,,,,,,
,,"[""circle"",""green"",""vert"",""up"",[0,-150],[150,0]]",circle,green,vert,up,"[0,-150]","[150,0]",up,1,,,,,,001,2025-03-17_15h01.40.129,SL_base_41,2021.2.3,Win32,59.88023952,1.7437,,,24,0,24,0,1,,,,,,,,
,,"[""circle"",""red"",""hori"",""left"",[106,106],[0,150]]",circle,red,hori,left,"[106,106]","[0,150]",left,1,,,,,,001,2025-03-17_15h01.40.129,SL_base_41,2021.2.3,Win32,59.88023952,1.7686,,,25,0,25,0,1,,,,,,,,
,,"[""diamond"",""red"",""hori"",""left"",[0,-150],[0,150]]",diamond,red,hori,left,"[0,-150]","[0,150]",left,1,,,,,,001,2025-03-17_15h01.40.129,SL_base_41,2021.2.3,Win32,59.88023952,1.9541,,,26,0,26,0,1,,,,,,,,
,,"[""circle"",""green"",""vert"",""up"",[-150,0],[106,106]]",circle,green,vert,up,"[-150,0]","[106,106]",up,1,,,,,,001,2025-03-17_15h01.40.129,SL_base_41,2021.2.3,Win32,59.88023952,1.4511,,,27,0,27,0,1,,,,,,,,
,,"[""circle"",""green"",""vert"",""up"",[-106,106],[-106,-106]]",circle,green,vert,up,"[-106,106]","[-106,-106]",up,1,,,,,,001,2025-03-17_15h01.40.129,SL_base_41,2021.2.3,Win32,59.88023952,1.3699,,,28,0,28,0,1,,,,,,,,
,,"[""diamond"",""green"",""hori"",""left"",[-106,106],[106,106]]",diamond,green,hori,left,"[-106,106]","[106,106]",left,1,,,,,,001,2025-03-17_15h01.40.129,SL_base_41,2021.2.3,Win32,59.88023952,1.1522,,,29,0,29,0,1,,,,,,,,
,,"[""diamond"",""red"",""hori"",""left"",[0,-150],[106,-106]]",diamond,red,hori,left,"[0,-150]","[106,-106]",left,1,,,,,,001,2025-03-17_15h01.40.129,SL_base_41,2021.2.3,Win32,59.88023952,1.3547,,,30,0,30,0,1,,,,,,,,
,,"[""diamond"",""no_dis"",""vert"",""up"",[99999,99999],[-106,-106]]",diamond,no_dis,vert,up,"[99999,99999]","[-106,-106]",up,1,,,,,,001,2025-03-17_15h01.40.129,SL_base_41,2021.2.3,Win32,59.88023952,1.1347,,,31,0,31,0,1,,,,,,,,
,,"[""circle"",""red"",""hori"",""left"",[-106,-106],[-106,106]]",circle,red,hori,left,"[-106,-106]","[-106,106]",left,1,,,,,,001,2025-03-17_15h01.40.129,SL_base_41,2021.2.3,Win32,59.88023952,1.0567,,,32,0,32,0,1,,,,,,,,
,,"[""circle"",""no_dis"",""vert"",""up"",[99999,99999],[150,0]]",circle,no_dis,vert,up,"[99999,99999]","[150,0]",up,1,,,,,,001,2025-03-17_15h01.40.129,SL_base_41,2021.2.3,Win32,59.88023952,0.8613,,,33,0,33,0,1,,,,,,,,
,,"[""circle"",""green"",""hori"",""left"",[-106,-106],[0,-150]]",circle,green,hori,left,"[-106,-106]","[0,-150]",left,1,,,,,,001,2025-03-17_15h01.40.129,SL_base_41,2021.2.3,Win32,59.88023952,1.1584,,,34,0,34,0,1,,,,,,,,
,,"[""circle"",""no_dis"",""hori"",""left"",[99999,99999],[-106,106]]",circle,no_dis,hori,left,"[99999,99999]","[-106,106]",left,1,,,,,,001,2025-03-17_15h01.40.129,SL_base_41,2021.2.3,Win32,59.88023952,1.3864,,,35,0,35,0,1,,,,,,,,
,,"[""diamond"",""no_dis"",""vert"",""up"",[99999,99999],[-150,0]]",diamond,no_dis,vert,up,"[99999,99999]","[-150,0]",up,1,,,,,,001,2025-03-17_15h01.40.129,SL_base_41,2021.2.3,Win32,59.88023952,1.9482,,,36,0,36,0,1,,,,,,,,
,,"[""diamond"",""no_dis"",""hori"",""left"",[99999,99999],[0,150]]",diamond,no_dis,hori,left,"[99999,99999]","[0,150]",left,1,,,,,,001,2025-03-17_15h01.40.129,SL_base_41,2021.2.3,Win32,59.88023952,1.1681,,,37,0,37,0,1,,,,,,,,
,,"[""diamond"",""red"",""vert"",""up"",[-106,-106],[106,106]]",diamond,red,vert,up,"[-106,-106]","[106,106]",up,1,,,,,,001,2025-03-17_15h01.40.129,SL_base_41,2021.2.3,Win32,59.88023952,1.2531,,,38,0,38,0,1,,,,,,,,
,,"[""diamond"",""red"",""hori"",""left"",[150,0],[-106,106]]",diamond,red,hori,left,"[150,0]","[-106,106]",left,1,,,,,,001,2025-03-17_15h01.40.129,SL_base_41,2021.2.3,Win32,59.88023952,1.3404,,,39,0,39,0,1,,,,,,,,
,,"[""diamond"",""red"",""vert"",""up"",[0,150],[-106,-106]]",diamond,red,vert,up,"[0,150]","[-106,-106]",up,1,,,,,,001,2025-03-17_15h01.40.129,SL_base_41,2021.2.3,Win32,59.88023952,2.7362,,,40,0,40,0,1,,,,,,,,
,,"[""diamond"",""green"",""vert"",""up"",[0,-150],[-106,106]]",diamond,green,vert,up,"[0,-150]","[-106,106]",left,0,,,,,,001,2025-03-17_15h01.40.129,SL_base_41,2021.2.3,Win32,59.88023952,1.6868,,,41,0,41,0,1,,,,,,,,
,,"[""diamond"",""red"",""vert"",""up"",[0,150],[106,106]]",diamond,red,vert,up,"[0,150]","[106,106]",up,1,,,,,,001,2025-03-17_15h01.40.129,SL_base_41,2021.2.3,Win32,59.88023952,1.6204,,,42,0,42,0,1,,,,,,,,
,,"[""diamond"",""red"",""hori"",""left"",[0,-150],[106,-106]]",diamond,red,hori,left,"[0,-150]","[106,-106]",left,1,,,,,,001,2025-03-17_15h01.40.129,SL_base_41,2021.2.3,Win32,59.88023952,1.14,,,43,0,43,0,1,,,,,,,,
,,"[""circle"",""red"",""hori"",""left"",[106,106],[0,-150]]",circle,red,hori,left,"[106,106]","[0,-150]",left,1,,,,,,001,2025-03-17_15h01.40.129,SL_base_41,2021.2.3,Win32,59.88023952,1.6169,,,44,0,44,0,1,,,,,,,,
,,"[""diamond"",""green"",""hori"",""left"",[0,150],[106,-106]]",diamond,green,hori,left,"[0,150]","[106,-106]",left,1,,,,,,001,2025-03-17_15h01.40.129,SL_base_41,2021.2.3,Win32,59.88023952,1.2185,,,45,0,45,0,1,,,,,,,,
,,"[""diamond"",""no_dis"",""vert"",""up"",[99999,99999],[-150,0]]",diamond,no_dis,vert,up,"[99999,99999]","[-150,0]",up,1,,,,,,001,2025-03-17_15h01.40.129,SL_base_41,2021.2.3,Win32,59.88023952,1.5037,,,46,0,46,0,1,,,,,,,,
,,"[""diamond"",""no_dis"",""hori"",""left"",[99999,99999],[0,-150]]",diamond,no_dis,hori,left,"[99999,99999]","[0,-150]",left,1,,,,,,001,2025-03-17_15h01.40.129,SL_base_41,2021.2.3,Win32,59.88023952,1.2182,,,47,0,47,0,1,,,,,,,,
,,"[""diamond"",""green"",""hori"",""left"",[0,-150],[0,150]]",diamond,green,hori,left,"[0,-150]","[0,150]",left,1,,,,,,001,2025-03-17_15h01.40.129,SL_base_41,2021.2.3,Win32,59.88023952,1.3601,,,48,0,48,0,1,,,,,,,,
,,"[""circle"",""red"",""vert"",""up"",[106,-106],[0,-150]]",circle,red,vert,up,"[106,-106]","[0,-150]",up,1,,,,,,001,2025-03-17_15h01.40.129,SL_base_41,2021.2.3,Win32,59.88023952,1.8276,,,49,0,49,0,1,,,,,,,,
,,"[""circle"",""no_dis"",""hori"",""left"",[99999,99999],[0,-150]]",circle,no_dis,hori,left,"[99999,99999]","[0,-150]",left,1,,,,,,001,2025-03-17_15h01.40.129,SL_base_41,2021.2.3,Win32,59.88023952,1.5747,,,50,0,50,0,1,,,,,,,,
,,"[""circle"",""no_dis"",""vert"",""up"",[99999,99999],[0,-150]]",circle,no_dis,vert,up,"[99999,99999]","[0,-150]",up,1,,,,,,001,2025-03-17_15h01.40.129,SL_base_41,2021.2.3,Win32,59.88023952,1.1346,,,51,0,51,0,1,,,,,,,,
,,"[""circle"",""no_dis"",""vert"",""up"",[99999,99999],[0,-150]]",circle,no_dis,vert,up,"[99999,99999]","[0,-150]",up,1,,,,,,001,2025-03-17_15h01.40.129,SL_base_41,2021.2.3,Win32,59.88023952,0.9398,,,52,0,52,0,1,,,,,,,,
,,"[""diamond"",""no_dis"",""vert"",""up"",[99999,99999],[-106,106]]",diamond,no_dis,vert,up,"[99999,99999]","[-106,106]",up,1,,,,,,001,2025-03-17_15h01.40.129,SL_base_41,2021.2.3,Win32,59.88023952,1.3606,,,53,0,53,0,1,,,,,,,,
,,"[""circle"",""red"",""vert"",""up"",[0,-150],[106,106]]",circle,red,vert,up,"[0,-150]","[106,106]",up,1,,,,,,001,2025-03-17_15h01.40.129,SL_base_41,2021.2.3,Win32,59.88023952,1.3791,,,54,0,54,0,1,,,,,,,,
,,"[""circle"",""red"",""hori"",""left"",[-150,0],[150,0]]",circle,red,hori,left,"[-150,0]","[150,0]",left,1,,,,,,001,2025-03-17_15h01.40.129,SL_base_41,2021.2.3,Win32,59.88023952,1.7514,,,55,0,55,0,1,,,,,,,,
,,"[""circle"",""no_dis"",""vert"",""up"",[99999,99999],[106,-106]]",circle,no_dis,vert,up,"[99999,99999]","[106,-106]",up,1,,,,,,001,2025-03-17_15h01.40.129,SL_base_41,2021.2.3,Win32,59.88023952,0.9005,,,56,0,56,0,1,,,,,,,,
,,"[""circle"",""no_dis"",""vert"",""up"",[99999,99999],[0,150]]",circle,no_dis,vert,up,"[99999,99999]","[0,150]",up,1,,,,,,001,2025-03-17_15h01.40.129,SL_base_41,2021.2.3,Win32,59.88023952,0.8351,,,57,0,57,0,1,,,,,,,,
,,"[""diamond"",""green"",""vert"",""up"",[0,-150],[-150,0]]",diamond,green,vert,up,"[0,-150]","[-150,0]",left,0,,,,,,001,2025-03-17_15h01.40.129,SL_base_41,2021.2.3,Win32,59.88023952,1.6607,,,58,0,58,0,1,,,,,,,,
,,"[""diamond"",""red"",""hori"",""left"",[-106,106],[0,-150]]",diamond,red,hori,left,"[-106,106]","[0,-150]",left,1,,,,,,001,2025-03-17_15h01.40.129,SL_base_41,2021.2.3,Win32,59.88023952,1.4521,,,59,0,59,0,1,,,,,,,,
,,"[""diamond"",""no_dis"",""hori"",""left"",[99999,99999],[106,106]]",diamond,no_dis,hori,left,"[99999,99999]","[106,106]",left,1,,,,,,001,2025-03-17_15h01.40.129,SL_base_41,2021.2.3,Win32,59.88023952,0.9148,,,60,0,60,0,1,,,,,,,,
,,"[""circle"",""green"",""hori"",""left"",[106,-106],[0,150]]",circle,green,hori,left,"[106,-106]","[0,150]",left,1,,,,,,001,2025-03-17_15h01.40.129,SL_base_41,2021.2.3,Win32,59.88023952,1.1189,,,61,0,61,0,1,,,,,,,,
,,"[""diamond"",""green"",""vert"",""up"",[0,-150],[0,150]]",diamond,green,vert,up,"[0,-150]","[0,150]",up,1,,,,,,001,2025-03-17_15h01.40.129,SL_base_41,2021.2.3,Win32,59.88023952,1.0474,,,62,0,62,0,1,,,,,,,,
,,"[""diamond"",""no_dis"",""hori"",""left"",[99999,99999],[-106,106]]",diamond,no_dis,hori,left,"[99999,99999]","[-106,106]",left,1,,,,,,001,2025-03-17_15h01.40.129,SL_base_41,2021.2.3,Win32,59.88023952,0.98,,,63,0,63,0,1,,,,,,,,
,,"[""circle"",""red"",""hori"",""left"",[150,0],[106,-106]]",circle,red,hori,left,"[150,0]","[106,-106]",left,1,,,,,,001,2025-03-17_15h01.40.129,SL_base_41,2021.2.3,Win32,59.88023952,2.1516,,,64,0,64,0,1,,,,,,,,
,,"[""diamond"",""green"",""vert"",""up"",[0,-150],[-150,0]]",diamond,green,vert,up,"[0,-150]","[-150,0]",up,1,,,,,,001,2025-03-17_15h01.40.129,SL_base_41,2021.2.3,Win32,59.88023952,2.1307,,,65,0,65,0,1,,,,,,,,
,,"[""circle"",""red"",""hori"",""left"",[150,0],[0,-150]]",circle,red,hori,left,"[150,0]","[0,-150]",left,1,,,,,,001,2025-03-17_15h01.40.129,SL_base_41,2021.2.3,Win32,59.88023952,2.0375,,,66,0,66,0,1,,,,,,,,
,,"[""circle"",""red"",""vert"",""up"",[-106,106],[106,106]]",circle,red,vert,up,"[-106,106]","[106,106]",up,1,,,,,,001,2025-03-17_15h01.40.129,SL_base_41,2021.2.3,Win32,59.88023952,1.4202,,,67,0,67,0,1,,,,,,,,
,,"[""circle"",""green"",""hori"",""left"",[150,0],[106,106]]",circle,green,hori,left,"[150,0]","[106,106]",left,1,,,,,,001,2025-03-17_15h01.40.129,SL_base_41,2021.2.3,Win32,59.88023952,1.7224,,,68,0,68,0,1,,,,,,,,
,,"[""circle"",""red"",""hori"",""left"",[-106,106],[106,-106]]",circle,red,hori,left,"[-106,106]","[106,-106]",left,1,,,,,,001,2025-03-17_15h01.40.129,SL_base_41,2021.2.3,Win32,59.88023952,2.9206,,,69,0,69,0,1,,,,,,,,
,,"[""diamond"",""green"",""vert"",""up"",[106,106],[0,-150]]",diamond,green,vert,up,"[106,106]","[0,-150]",up,1,,,,,,001,2025-03-17_15h01.40.129,SL_base_41,2021.2.3,Win32,59.88023952,1.4804,,,70,0,70,0,1,,,,,,,,
,,"[""diamond"",""green"",""vert"",""up"",[0,-150],[106,106]]",diamond,green,vert,up,"[0,-150]","[106,106]",up,1,,,,,,001,2025-03-17_15h01.40.129,SL_base_41,2021.2.3,Win32,59.88023952,1.233,,,71,0,71,0,1,,,,,,,,
,,"[""diamond"",""green"",""vert"",""up"",[106,106],[-150,0]]",diamond,green,vert,up,"[106,106]","[-150,0]",up,1,,,,,,001,2025-03-17_15h01.40.129,SL_base_41,2021.2.3,Win32,59.88023952,1.6899,,,72,0,72,0,1,,,,,,,,
,,"[""diamond"",""red"",""vert"",""up"",[106,106],[-150,0]]",diamond,red,vert,up,"[106,106]","[-150,0]",up,1,,,,,,001,2025-03-17_15h01.40.129,SL_base_41,2021.2.3,Win32,59.88023952,2.2163,,,73,0,73,0,1,,,,,,,,
,,"[""diamond"",""green"",""hori"",""left"",[0,-150],[106,106]]",diamond,green,hori,left,"[0,-150]","[106,106]",left,1,,,,,,001,2025-03-17_15h01.40.129,SL_base_41,2021.2.3,Win32,59.88023952,2.5835,,,74,0,74,0,1,,,,,,,,
,,"[""circle"",""no_dis"",""vert"",""up"",[99999,99999],[106,106]]",circle,no_dis,vert,up,"[99999,99999]","[106,106]",up,1,,,,,,001,2025-03-17_15h01.40.129,SL_base_41,2021.2.3,Win32,59.88023952,2.5889,,,75,0,75,0,1,,,,,,,,
,,"[""diamond"",""green"",""hori"",""left"",[106,-106],[106,106]]",diamond,green,hori,left,"[106,-106]","[106,106]",,0,,,,,,001,2025-03-17_15h01.40.129,SL_base_41,2021.2.3,Win32,59.88023952,,,,76,0,76,0,1,,,,,,,,
,,"[""circle"",""no_dis"",""hori"",""left"",[99999,99999],[-150,0]]",circle,no_dis,hori,left,"[99999,99999]","[-150,0]",left,1,,,,,,001,2025-03-17_15h01.40.129,SL_base_41,2021.2.3,Win32,59.88023952,1.2348,,,77,0,77,0,1,,,,,,,,
,,"[""circle"",""no_dis"",""vert"",""up"",[99999,99999],[106,-106]]",circle,no_dis,vert,up,"[99999,99999]","[106,-106]",up,1,,,,,,001,2025-03-17_15h01.40.129,SL_base_41,2021.2.3,Win32,59.88023952,1.5353,,,78,0,78,0,1,,,,,,,,
,,"[""diamond"",""no_dis"",""hori"",""left"",[99999,99999],[-150,0]]",diamond,no_dis,hori,left,"[99999,99999]","[-150,0]",left,1,,,,,,001,2025-03-17_15h01.40.129,SL_base_41,2021.2.3,Win32,59.88023952,1.5013,,,79,0,79,0,1,,,,,,,,
,,"[""diamond"",""red"",""hori"",""left"",[0,-150],[-106,-106]]",diamond,red,hori,left,"[0,-150]","[-106,-106]",left,1,,,,,,001,2025-03-17_15h01.40.129,SL_base_41,2021.2.3,Win32,59.88023952,1.7572,,,80,0,80,0,1,,,,,,,,
,,"[""circle"",""red"",""hori"",""left"",[-106,-106],[0,-150]]",circle,red,hori,left,"[-106,-106]","[0,-150]",left,1,,,,,,001,2025-03-17_15h01.40.129,SL_base_41,2021.2.3,Win32,59.88023952,1.3013,,,81,0,81,0,1,,,,,,,,
,,"[""diamond"",""red"",""hori"",""left"",[0,-150],[-150,0]]",diamond,red,hori,left,"[0,-150]","[-150,0]",left,1,,,,,,001,2025-03-17_15h01.40.129,SL_base_41,2021.2.3,Win32,59.88023952,1.416,,,82,0,82,0,1,,,,,,,,
,,"[""circle"",""green"",""hori"",""left"",[0,-150],[-106,106]]",circle,green,hori,left,"[0,-150]","[-106,106]",left,1,,,,,,001,2025-03-17_15h01.40.129,SL_base_41,2021.2.3,Win32,59.88023952,1.2107,,,83,0,83,0,1,,,,,,,,
,,"[""diamond"",""red"",""vert"",""up"",[0,-150],[-106,106]]",diamond,red,vert,up,"[0,-150]","[-106,106]",up,1,,,,,,001,2025-03-17_15h01.40.129,SL_base_41,2021.2.3,Win32,59.88023952,1.6043,,,84,0,84,0,1,,,,,,,,
,,"[""diamond"",""no_dis"",""vert"",""up"",[99999,99999],[0,150]]",diamond,no_dis,vert,up,"[99999,99999]","[0,150]",up,1,,,,,,001,2025-03-17_15h01.40.129,SL_base_41,2021.2.3,Win32,59.88023952,1.5324,,,85,0,85,0,1,,,,,,,,
,,"[""diamond"",""red"",""hori"",""left"",[0,-150],[0,150]]",diamond,red,hori,left,"[0,-150]","[0,150]",left,1,,,,,,001,2025-03-17_15h01.40.129,SL_base_41,2021.2.3,Win32,59.88023952,1.9793,,,86,0,86,0,1,,,,,,,,
,,"[""circle"",""green"",""hori"",""left"",[-106,-106],[0,-150]]",circle,green,hori,left,"[-106,-106]","[0,-150]",left,1,,,,,,001,2025-03-17_15h01.40.129,SL_base_41,2021.2.3,Win32,59.88023952,2.6337,,,87,0,87,0,1,,,,,,,,
,,"[""circle"",""no_dis"",""vert"",""up"",[99999,99999],[106,-106]]",circle,no_dis,vert,up,"[99999,99999]","[106,-106]",up,1,,,,,,001,2025-03-17_15h01.40.129,SL_base_41,2021.2.3,Win32,59.88023952,1.6714,,,88,0,88,0,1,,,,,,,,
,,"[""circle"",""red"",""vert"",""up"",[0,-150],[-106,106]]",circle,red,vert,up,"[0,-150]","[-106,106]",up,1,,,,,,001,2025-03-17_15h01.40.129,SL_base_41,2021.2.3,Win32,59.88023952,1.8522,,,89,0,89,0,1,,,,,,,,
,,"[""diamond"",""no_dis"",""vert"",""up"",[99999,99999],[106,-106]]",diamond,no_dis,vert,up,"[99999,99999]","[106,-106]",up,1,,,,,,001,2025-03-17_15h01.40.129,SL_base_41,2021.2.3,Win32,59.88023952,0.981,,,90,0,90,0,1,,,,,,,,
,,"[""circle"",""green"",""hori"",""left"",[106,106],[0,-150]]",circle,green,hori,left,"[106,106]","[0,-150]",left,1,,,,,,001,2025-03-17_15h01.40.129,SL_base_41,2021.2.3,Win32,59.88023952,1.2988,,,91,0,91,0,1,,,,,,,,
,,"[""diamond"",""green"",""hori"",""left"",[0,-150],[150,0]]",diamond,green,hori,left,"[0,-150]","[150,0]",left,1,,,,,,001,2025-03-17_15h01.40.129,SL_base_41,2021.2.3,Win32,59.88023952,1.3303,,,92,0,92,0,1,,,,,,,,
,,"[""diamond"",""red"",""hori"",""left"",[0,150],[-106,-106]]",diamond,red,hori,left,"[0,150]","[-106,-106]",left,1,,,,,,001,2025-03-17_15h01.40.129,SL_base_41,2021.2.3,Win32,59.88023952,1.1168,,,93,0,93,0,1,,,,,,,,
,,"[""diamond"",""green"",""hori"",""left"",[0,-150],[150,0]]",diamond,green,hori,left,"[0,-150]","[150,0]",left,1,,,,,,001,2025-03-17_15h01.40.129,SL_base_41,2021.2.3,Win32,59.88023952,1.313,,,94,0,94,0,1,,,,,,,,
,,"[""circle"",""green"",""vert"",""up"",[0,150],[-106,106]]",circle,green,vert,up,"[0,150]","[-106,106]",up,1,,,,,,001,2025-03-17_15h01.40.129,SL_base_41,2021.2.3,Win32,59.88023952,1.1449,,,95,0,95,0,1,,,,,,,,
,,"[""circle"",""no_dis"",""hori"",""left"",[99999,99999],[106,106]]",circle,no_dis,hori,left,"[99999,99999]","[106,106]",left,1,,,,,,001,2025-03-17_15h01.40.129,SL_base_41,2021.2.3,Win32,59.88023952,1.4515,,,96,0,96,0,1,,,,,,,,
,,"[""diamond"",""red"",""vert"",""up"",[106,-106],[-106,106]]",diamond,red,vert,up,"[106,-106]","[-106,106]",up,1,,,,,,001,2025-03-17_15h01.40.129,SL_base_41,2021.2.3,Win32,59.88023952,1.1893,,,97,0,97,0,1,,,,,,,,
,,"[""circle"",""no_dis"",""hori"",""left"",[99999,99999],[-106,-106]]",circle,no_dis,hori,left,"[99999,99999]","[-106,-106]",left,1,,,,,,001,2025-03-17_15h01.40.129,SL_base_41,2021.2.3,Win32,59.88023952,0.885,,,98,0,98,0,1,,,,,,,,
,,"[""circle"",""no_dis"",""hori"",""left"",[99999,99999],[-106,-106]]",circle,no_dis,hori,left,"[99999,99999]","[-106,-106]",left,1,,,,,,001,2025-03-17_15h01.40.129,SL_base_41,2021.2.3,Win32,59.88023952,0.8843,,,99,0,99,0,1,,,,,,,,
,,"[""circle"",""red"",""hori"",""left"",[-150,0],[0,150]]",circle,red,hori,left,"[-150,0]","[0,150]",left,1,,,,,,001,2025-03-17_15h01.40.129,SL_base_41,2021.2.3,Win32,59.88023952,1.6193,,,100,0,100,0,1,,,,,,,,
,,"[""diamond"",""green"",""vert"",""up"",[150,0],[-106,-106]]",diamond,green,vert,up,"[150,0]","[-106,-106]",up,1,,,,,,001,2025-03-17_15h01.40.129,SL_base_41,2021.2.3,Win32,59.88023952,1.1461,,,101,0,101,0,1,,,,,,,,
,,"[""diamond"",""green"",""hori"",""left"",[0,-150],[0,150]]",diamond,green,hori,left,"[0,-150]","[0,150]",up,0,,,,,,001,2025-03-17_15h01.40.129,SL_base_41,2021.2.3,Win32,59.88023952,1.6763,,,102,0,102,0,1,,,,,,,,
,,"[""circle"",""red"",""vert"",""up"",[106,-106],[-150,0]]",circle,red,vert,up,"[106,-106]","[-150,0]",up,1,,,,,,001,2025-03-17_15h01.40.129,SL_base_41,2021.2.3,Win32,59.88023952,1.1339,,,103,0,103,0,1,,,,,,,,
,,"[""diamond"",""red"",""vert"",""up"",[-150,0],[0,-150]]",diamond,red,vert,up,"[-150,0]","[0,-150]",up,1,,,,,,001,2025-03-17_15h01.40.129,SL_base_41,2021.2.3,Win32,59.88023952,1.9979,,,104,0,104,0,1,,,,,,,,
,,"[""diamond"",""no_dis"",""vert"",""up"",[99999,99999],[150,0]]",diamond,no_dis,vert,up,"[99999,99999]","[150,0]",up,1,,,,,,001,2025-03-17_15h01.40.129,SL_base_41,2021.2.3,Win32,59.88023952,0.9481,,,105,0,105,0,1,,,,,,,,
,,"[""diamond"",""green"",""vert"",""up"",[-106,106],[0,-150]]",diamond,green,vert,up,"[-106,106]","[0,-150]",up,1,,,,,,001,2025-03-17_15h01.40.129,SL_base_41,2021.2.3,Win32,59.88023952,0.8946,,,106,0,106,0,1,,,,,,,,
,,"[""diamond"",""green"",""hori"",""left"",[106,106],[-106,-106]]",diamond,green,hori,left,"[106,106]","[-106,-106]",left,1,,,,,,001,2025-03-17_15h01.40.129,SL_base_41,2021.2.3,Win32,59.88023952,0.9596,,,107,0,107,0,1,,,,,,,,
,,"[""circle"",""red"",""vert"",""up"",[-150,0],[0,-150]]",circle,red,vert,up,"[-150,0]","[0,-150]",up,1,,,,,,001,2025-03-17_15h01.40.129,SL_base_41,2021.2.3,Win32,59.88023952,1.0921,,,108,0,108,0,1,,,,,,,,
,,"[""diamond"",""red"",""vert"",""up"",[0,-150],[-150,0]]",diamond,red,vert,up,"[0,-150]","[-150,0]",up,1,,,,,,001,2025-03-17_15h01.40.129,SL_base_41,2021.2.3,Win32,59.88023952,1.203,,,109,0,109,0,1,,,,,,,,
,,"[""circle"",""green"",""vert"",""up"",[106,106],[106,-106]]",circle,green,vert,up,"[106,106]","[106,-106]",up,1,,,,,,001,2025-03-17_15h01.40.129,SL_base_41,2021.2.3,Win32,59.88023952,1.0389,,,110,0,110,0,1,,,,,,,,
,,"[""circle"",""red"",""hori"",""left"",[150,0],[-106,-106]]",circle,red,hori,left,"[150,0]","[-106,-106]",left,1,,,,,,001,2025-03-17_15h01.40.129,SL_base_41,2021.2.3,Win32,59.88023952,1.0334,,,111,0,111,0,1,,,,,,,,
,,"[""diamond"",""red"",""vert"",""up"",[0,150],[-150,0]]",diamond,red,vert,up,"[0,150]","[-150,0]",up,1,,,,,,001,2025-03-17_15h01.40.129,SL_base_41,2021.2.3,Win32,59.88023952,1.22,,,112,0,112,0,1,,,,,,,,
,,"[""diamond"",""red"",""hori"",""left"",[-106,-106],[-106,106]]",diamond,red,hori,left,"[-106,-106]","[-106,106]",left,1,,,,,,001,2025-03-17_15h01.40.129,SL_base_41,2021.2.3,Win32,59.88023952,0.9685,,,113,0,113,0,1,,,,,,,,
,,"[""diamond"",""green"",""hori"",""left"",[-150,0],[0,150]]",diamond,green,hori,left,"[-150,0]","[0,150]",left,1,,,,,,001,2025-03-17_15h01.40.129,SL_base_41,2021.2.3,Win32,59.88023952,1.8308,,,114,0,114,0,1,,,,,,,,
,,"[""circle"",""red"",""vert"",""up"",[0,-150],[106,106]]",circle,red,vert,up,"[0,-150]","[106,106]",up,1,,,,,,001,2025-03-17_15h01.40.129,SL_base_41,2021.2.3,Win32,59.88023952,1.0234,,,115,0,115,0,1,,,,,,,,
,,"[""diamond"",""no_dis"",""hori"",""left"",[99999,99999],[-106,-106]]",diamond,no_dis,hori,left,"[99999,99999]","[-106,-106]",left,1,,,,,,001,2025-03-17_15h01.40.129,SL_base_41,2021.2.3,Win32,59.88023952,0.9485,,,116,0,116,0,1,,,,,,,,
,,"[""circle"",""green"",""vert"",""up"",[0,-150],[-106,106]]",circle,green,vert,up,"[0,-150]","[-106,106]",up,1,,,,,,001,2025-03-17_15h01.40.129,SL_base_41,2021.2.3,Win32,59.88023952,0.9846,,,117,0,117,0,1,,,,,,,,
,,"[""circle"",""red"",""vert"",""up"",[106,-106],[106,106]]",circle,red,vert,up,"[106,-106]","[106,106]",up,1,,,,,,001,2025-03-17_15h01.40.129,SL_base_41,2021.2.3,Win32,59.88023952,0.9684,,,118,0,118,0,1,,,,,,,,
,,"[""diamond"",""no_dis"",""hori"",""left"",[99999,99999],[106,106]]",diamond,no_dis,hori,left,"[99999,99999]","[106,106]",left,1,,,,,,001,2025-03-17_15h01.40.129,SL_base_41,2021.2.3,Win32,59.88023952,0.7081,,,119,0,119,0,1,,,,,,,,
,,"[""circle"",""no_dis"",""vert"",""up"",[99999,99999],[150,0]]",circle,no_dis,vert,up,"[99999,99999]","[150,0]",up,1,,,,,,001,2025-03-17_15h01.40.129,SL_base_41,2021.2.3,Win32,59.88023952,0.8236,,,120,0,120,0,1,,,,,,,,
,,"[""diamond"",""no_dis"",""hori"",""left"",[99999,99999],[0,-150]]",diamond,no_dis,hori,left,"[99999,99999]","[0,-150]",left,1,,,,,,001,2025-03-17_15h01.40.129,SL_base_41,2021.2.3,Win32,59.88023952,0.9003,,,121,0,121,0,1,,,,,,,,
,,"[""circle"",""green"",""vert"",""up"",[0,-150],[0,150]]",circle,green,vert,up,"[0,-150]","[0,150]",up,1,,,,,,001,2025-03-17_15h01.40.129,SL_base_41,2021.2.3,Win32,59.88023952,0.9349,,,122,0,122,0,1,,,,,,,,
,,"[""circle"",""green"",""hori"",""left"",[-106,106],[-150,0]]",circle,green,hori,left,"[-106,106]","[-150,0]",left,1,,,,,,001,2025-03-17_15h01.40.129,SL_base_41,2021.2.3,Win32,59.88023952,0.8775,,,123,0,123,0,1,,,,,,,,
,,"[""circle"",""red"",""vert"",""up"",[-106,-106],[-106,106]]",circle,red,vert,up,"[-106,-106]","[-106,106]",up,1,,,,,,001,2025-03-17_15h01.40.129,SL_base_41,2021.2.3,Win32,59.88023952,0.8084,,,124,0,124,0,1,,,,,,,,
,,"[""circle"",""no_dis"",""hori"",""left"",[99999,99999],[-150,0]]",circle,no_dis,hori,left,"[99999,99999]","[-150,0]",left,1,,,,,,001,2025-03-17_15h01.40.129,SL_base_41,2021.2.3,Win32,59.88023952,0.9396,,,125,0,125,0,1,,,,,,,,
,,"[""diamond"",""no_dis"",""hori"",""left"",[99999,99999],[106,106]]",diamond,no_dis,hori,left,"[99999,99999]","[106,106]",left,1,,,,,,001,2025-03-17_15h01.40.129,SL_base_41,2021.2.3,Win32,59.88023952,1.1981,,,126,0,126,0,1,,,,,,,,
,,"[""circle"",""green"",""hori"",""left"",[0,-150],[150,0]]",circle,green,hori,left,"[0,-150]","[150,0]",left,1,,,,,,001,2025-03-17_15h01.40.129,SL_base_41,2021.2.3,Win32,59.88023952,0.7553,,,127,0,127,0,1,,,,,,,,
,,,,,,,,,,,,,,,,001,2025-03-17_15h01.40.129,SL_base_41,2021.2.3,Win32,59.88023952,,,,,,,,,2,space,15.0209,1,0,1,0,1
,,"[""diamond"",""green"",""hori"",""left"",[0,-150],[0,150]]",diamond,green,hori,left,"[0,-150]","[0,150]",left,1,,,,,,001,2025-03-17_15h01.40.129,SL_base_41,2021.2.3,Win32,59.88023952,1.1459,,,0,0,0,0,1,,,,,,,,
,,"[""diamond"",""no_dis"",""hori"",""left"",[99999,99999],[-106,106]]",diamond,no_dis,hori,left,"[99999,99999]","[-106,106]",left,1,,,,,,001,2025-03-17_15h01.40.129,SL_base_41,2021.2.3,Win32,59.88023952,0.8294,,,1,0,1,0,1,,,,,,,,
,,"[""diamond"",""green"",""vert"",""up"",[-106,106],[0,-150]]",diamond,green,vert,up,"[-106,106]","[0,-150]",up,1,,,,,,001,2025-03-17_15h01.40.129,SL_base_41,2021.2.3,Win32,59.88023952,0.9801,,,2,0,2,0,1,,,,,,,,
,,"[""diamond"",""red"",""hori"",""left"",[150,0],[-106,106]]",diamond,red,hori,left,"[150,0]","[-106,106]",left,1,,,,,,001,2025-03-17_15h01.40.129,SL_base_41,2021.2.3,Win32,59.88023952,1.3523,,,3,0,3,0,1,,,,,,,,
,,"[""diamond"",""red"",""vert"",""up"",[0,-150],[-106,106]]",diamond,red,vert,up,"[0,-150]","[-106,106]",up,1,,,,,,001,2025-03-17_15h01.40.129,SL_base_41,2021.2.3,Win32,59.88023952,1.0511,,,4,0,4,0,1,,,,,,,,
,,"[""circle"",""green"",""hori"",""left"",[-106,-106],[0,-150]]",circle,green,hori,left,"[-106,-106]","[0,-150]",left,1,,,,,,001,2025-03-17_15h01.40.129,SL_base_41,2021.2.3,Win32,59.88023952,1.0677,,,5,0,5,0,1,,,,,,,,
,,"[""diamond"",""red"",""hori"",""left"",[-150,0],[-106,106]]",diamond,red,hori,left,"[-150,0]","[-106,106]",left,1,,,,,,001,2025-03-17_15h01.40.129,SL_base_41,2021.2.3,Win32,59.88023952,1.3148,,,6,0,6,0,1,,,,,,,,
,,"[""circle"",""red"",""hori"",""left"",[106,106],[0,150]]",circle,red,hori,left,"[106,106]","[0,150]",left,1,,,,,,001,2025-03-17_15h01.40.129,SL_base_41,2021.2.3,Win32,59.88023952,0.9514,,,7,0,7,0,1,,,,,,,,
,,"[""circle"",""no_dis"",""hori"",""left"",[99999,99999],[-150,0]]",circle,no_dis,hori,left,"[99999,99999]","[-150,0]",left,1,,,,,,001,2025-03-17_15h01.40.129,SL_base_41,2021.2.3,Win32,59.88023952,0.9022,,,8,0,8,0,1,,,,,,,,
,,"[""circle"",""green"",""hori"",""left"",[0,-150],[-106,106]]",circle,green,hori,left,"[0,-150]","[-106,106]",left,1,,,,,,001,2025-03-17_15h01.40.129,SL_base_41,2021.2.3,Win32,59.88023952,1.1525,,,9,0,9,0,1,,,,,,,,
,,"[""diamond"",""no_dis"",""vert"",""up"",[99999,99999],[106,-106]]",diamond,no_dis,vert,up,"[99999,99999]","[106,-106]",up,1,,,,,,001,2025-03-17_15h01.40.129,SL_base_41,2021.2.3,Win32,59.88023952,1.1624,,,10,0,10,0,1,,,,,,,,
,,"[""circle"",""red"",""vert"",""up"",[106,-106],[0,-150]]",circle,red,vert,up,"[106,-106]","[0,-150]",up,1,,,,,,001,2025-03-17_15h01.40.129,SL_base_41,2021.2.3,Win32,59.88023952,1.3851,,,11,0,11,0,1,,,,,,,,
,,"[""circle"",""green"",""hori"",""left"",[-106,-106],[106,-106]]",circle,green,hori,left,"[-106,-106]","[106,-106]",left,1,,,,,,001,2025-03-17_15h01.40.129,SL_base_41,2021.2.3,Win32,59.88023952,1.0084,,,12,0,12,0,1,,,,,,,,
,,"[""diamond"",""no_dis"",""vert"",""up"",[99999,99999],[-106,-106]]",diamond,no_dis,vert,up,"[99999,99999]","[-106,-106]",up,1,,,,,,001,2025-03-17_15h01.40.129,SL_base_41,2021.2.3,Win32,59.88023952,1.1468,,,13,0,13,0,1,,,,,,,,
,,"[""diamond"",""green"",""vert"",""up"",[-106,106],[106,-106]]",diamond,green,vert,up,"[-106,106]","[106,-106]",up,1,,,,,,001,2025-03-17_15h01.40.129,SL_base_41,2021.2.3,Win32,59.88023952,0.8658,,,14,0,14,0,1,,,,,,,,
,,"[""diamond"",""no_dis"",""vert"",""up"",[99999,99999],[150,0]]",diamond,no_dis,vert,up,"[99999,99999]","[150,0]",up,1,,,,,,001,2025-03-17_15h01.40.129,SL_base_41,2021.2.3,Win32,59.88023952,0.8353,,,15,0,15,0,1,,,,,,,,
,,"[""diamond"",""green"",""hori"",""left"",[0,-150],[106,106]]",diamond,green,hori,left,"[0,-150]","[106,106]",left,1,,,,,,001,2025-03-17_15h01.40.129,SL_base_41,2021.2.3,Win32,59.88023952,0.774,,,16,0,16,0,1,,,,,,,,
,,"[""circle"",""red"",""vert"",""up"",[0,-150],[106,106]]",circle,red,vert,up,"[0,-150]","[106,106]",up,1,,,,,,001,2025-03-17_15h01.40.129,SL_base_41,2021.2.3,Win32,59.88023952,0.8017,,,17,0,17,0,1,,,,,,,,
,,"[""diamond"",""green"",""vert"",""up"",[106,106],[0,-150]]",diamond,green,vert,up,"[106,106]","[0,-150]",up,1,,,,,,001,2025-03-17_15h01.40.129,SL_base_41,2021.2.3,Win32,59.88023952,0.9381,,,18,0,18,0,1,,,,,,,,
,,"[""circle"",""green"",""hori"",""left"",[106,106],[0,-150]]",circle,green,hori,left,"[106,106]","[0,-150]",up,0,,,,,,001,2025-03-17_15h01.40.129,SL_base_41,2021.2.3,Win32,59.88023952,0.9369,,,19,0,19,0,1,,,,,,,,
,,"[""circle"",""no_dis"",""vert"",""up"",[99999,99999],[106,106]]",circle,no_dis,vert,up,"[99999,99999]","[106,106]",up,1,,,,,,001,2025-03-17_15h01.40.129,SL_base_41,2021.2.3,Win32,59.88023952,0.9915,,,20,0,20,0,1,,,,,,,,
,,"[""diamond"",""no_dis"",""hori"",""left"",[99999,99999],[106,106]]",diamond,no_dis,hori,left,"[99999,99999]","[106,106]",left,1,,,,,,001,2025-03-17_15h01.40.129,SL_base_41,2021.2.3,Win32,59.88023952,0.9333,,,21,0,21,0,1,,,,,,,,
,,"[""circle"",""green"",""vert"",""up"",[106,106],[106,-106]]",circle,green,vert,up,"[106,106]","[106,-106]",up,1,,,,,,001,2025-03-17_15h01.40.129,SL_base_41,2021.2.3,Win32,59.88023952,0.8839,,,22,0,22,0,1,,,,,,,,
,,"[""circle"",""green"",""hori"",""left"",[150,0],[0,150]]",circle,green,hori,left,"[150,0]","[0,150]",left,1,,,,,,001,2025-03-17_15h01.40.129,SL_base_41,2021.2.3,Win32,59.88023952,1.6906,,,23,0,23,0,1,,,,,,,,
,,"[""circle"",""red"",""vert"",""up"",[0,-150],[-106,106]]",circle,red,vert,up,"[0,-150]","[-106,106]",up,1,,,,,,001,2025-03-17_15h01.40.129,SL_base_41,2021.2.3,Win32,59.88023952,0.9306,,,24,0,24,0,1,,,,,,,,
,,"[""circle"",""no_dis"",""vert"",""up"",[99999,99999],[106,-106]]",circle,no_dis,vert,up,"[99999,99999]","[106,-106]",up,1,,,,,,001,2025-03-17_15h01.40.129,SL_base_41,2021.2.3,Win32,59.88023952,0.7174,,,25,0,25,0,1,,,,,,,,
,,"[""circle"",""red"",""hori"",""left"",[-106,106],[106,-106]]",circle,red,hori,left,"[-106,106]","[106,-106]",left,1,,,,,,001,2025-03-17_15h01.40.129,SL_base_41,2021.2.3,Win32,59.88023952,1.7739,,,26,0,26,0,1,,,,,,,,
,,"[""circle"",""green"",""hori"",""left"",[0,150],[-106,106]]",circle,green,hori,left,"[0,150]","[-106,106]",left,1,,,,,,001,2025-03-17_15h01.40.129,SL_base_41,2021.2.3,Win32,59.88023952,0.8039,,,27,0,27,0,1,,,,,,,,
,,"[""diamond"",""green"",""hori"",""left"",[106,-106],[106,106]]",diamond,green,hori,left,"[106,-106]","[106,106]",left,1,,,,,,001,2025-03-17_15h01.40.129,SL_base_41,2021.2.3,Win32,59.88023952,1.0205,,,28,0,28,0,1,,,,,,,,
,,"[""circle"",""red"",""vert"",""up"",[106,-106],[-150,0]]",circle,red,vert,up,"[106,-106]","[-150,0]",up,1,,,,,,001,2025-03-17_15h01.40.129,SL_base_41,2021.2.3,Win32,59.88023952,0.8306,,,29,0,29,0,1,,,,,,,,
,,"[""diamond"",""no_dis"",""hori"",""left"",[99999,99999],[-150,0]]",diamond,no_dis,hori,left,"[99999,99999]","[-150,0]",left,1,,,,,,001,2025-03-17_15h01.40.129,SL_base_41,2021.2.3,Win32,59.88023952,1.8058,,,30,0,30,0,1,,,,,,,,
,,"[""diamond"",""no_dis"",""vert"",""up"",[99999,99999],[0,150]]",diamond,no_dis,vert,up,"[99999,99999]","[0,150]",up,1,,,,,,001,2025-03-17_15h01.40.129,SL_base_41,2021.2.3,Win32,59.88023952,2.3481,,,31,0,31,0,1,,,,,,,,
,,"[""circle"",""green"",""vert"",""up"",[0,150],[-106,106]]",circle,green,vert,up,"[0,150]","[-106,106]",up,1,,,,,,001,2025-03-17_15h01.40.129,SL_base_41,2021.2.3,Win32,59.88023952,2.1741,,,32,0,32,0,1,,,,,,,,
,,"[""diamond"",""green"",""vert"",""up"",[0,-150],[0,150]]",diamond,green,vert,up,"[0,-150]","[0,150]",up,1,,,,,,001,2025-03-17_15h01.40.129,SL_base_41,2021.2.3,Win32,59.88023952,1.4416,,,33,0,33,0,1,,,,,,,,
,,"[""diamond"",""red"",""hori"",""left"",[0,-150],[-106,-106]]",diamond,red,hori,left,"[0,-150]","[-106,-106]",left,1,,,,,,001,2025-03-17_15h01.40.129,SL_base_41,2021.2.3,Win32,59.88023952,1.8816,,,34,0,34,0,1,,,,,,,,
,,"[""circle"",""green"",""vert"",""up"",[0,-150],[150,0]]",circle,green,vert,up,"[0,-150]","[150,0]",up,1,,,,,,001,2025-03-17_15h01.40.129,SL_base_41,2021.2.3,Win32,59.88023952,0.9281,,,35,0,35,0,1,,,,,,,,
,,"[""circle"",""red"",""hori"",""left"",[0,-150],[106,106]]",circle,red,hori,left,"[0,-150]","[106,106]",left,1,,,,,,001,2025-03-17_15h01.40.129,SL_base_41,2021.2.3,Win32,59.88023952,1.1011,,,36,0,36,0,1,,,,,,,,
,,"[""diamond"",""green"",""hori"",""left"",[0,-150],[150,0]]",diamond,green,hori,left,"[0,-150]","[150,0]",left,1,,,,,,001,2025-03-17_15h01.40.129,SL_base_41,2021.2.3,Win32,59.88023952,1.1111,,,37,0,37,0,1,,,,,,,,
,,"[""diamond"",""green"",""hori"",""left"",[-150,0],[0,150]]",diamond,green,hori,left,"[-150,0]","[0,150]",left,1,,,,,,001,2025-03-17_15h01.40.129,SL_base_41,2021.2.3,Win32,59.88023952,1.016,,,38,0,38,0,1,,,,,,,,
,,"[""circle"",""green"",""hori"",""left"",[-106,-106],[0,-150]]",circle,green,hori,left,"[-106,-106]","[0,-150]",left,1,,,,,,001,2025-03-17_15h01.40.129,SL_base_41,2021.2.3,Win32,59.88023952,0.9335,,,39,0,39,0,1,,,,,,,,
,,"[""circle"",""no_dis"",""hori"",""left"",[99999,99999],[0,-150]]",circle,no_dis,hori,left,"[99999,99999]","[0,-150]",left,1,,,,,,001,2025-03-17_15h01.40.129,SL_base_41,2021.2.3,Win32,59.88023952,0.8069,,,40,0,40,0,1,,,,,,,,
,,"[""diamond"",""no_dis"",""hori"",""left"",[99999,99999],[106,106]]",diamond,no_dis,hori,left,"[99999,99999]","[106,106]",left,1,,,,,,001,2025-03-17_15h01.40.129,SL_base_41,2021.2.3,Win32,59.88023952,0.8701,,,41,0,41,0,1,,,,,,,,
,,"[""diamond"",""red"",""vert"",""up"",[106,-106],[-106,106]]",diamond,red,vert,up,"[106,-106]","[-106,106]",up,1,,,,,,001,2025-03-17_15h01.40.129,SL_base_41,2021.2.3,Win32,59.88023952,0.7699,,,42,0,42,0,1,,,,,,,,
,,"[""circle"",""green"",""hori"",""left"",[150,0],[106,106]]",circle,green,hori,left,"[150,0]","[106,106]",left,1,,,,,,001,2025-03-17_15h01.40.129,SL_base_41,2021.2.3,Win32,59.88023952,1.8909,,,43,0,43,0,1,,,,,,,,
,,"[""circle"",""green"",""vert"",""up"",[0,-150],[-150,0]]",circle,green,vert,up,"[0,-150]","[-150,0]",up,1,,,,,,001,2025-03-17_15h01.40.129,SL_base_41,2021.2.3,Win32,59.88023952,1.7512,,,44,0,44,0,1,,,,,,,,
,,"[""diamond"",""no_dis"",""vert"",""up"",[99999,99999],[-106,106]]",diamond,no_dis,vert,up,"[99999,99999]","[-106,106]",up,1,,,,,,001,2025-03-17_15h01.40.129,SL_base_41,2021.2.3,Win32,59.88023952,0.9934,,,45,0,45,0,1,,,,,,,,
,,"[""diamond"",""green"",""hori"",""left"",[-106,106],[106,106]]",diamond,green,hori,left,"[-106,106]","[106,106]",left,1,,,,,,001,2025-03-17_15h01.40.129,SL_base_41,2021.2.3,Win32,59.88023952,1.0656,,,46,0,46,0,1,,,,,,,,
,,"[""circle"",""no_dis"",""hori"",""left"",[99999,99999],[150,0]]",circle,no_dis,hori,left,"[99999,99999]","[150,0]",left,1,,,,,,001,2025-03-17_15h01.40.129,SL_base_41,2021.2.3,Win32,59.88023952,1.235,,,47,0,47,0,1,,,,,,,,
,,"[""diamond"",""red"",""hori"",""left"",[0,-150],[106,-106]]",diamond,red,hori,left,"[0,-150]","[106,-106]",left,1,,,,,,001,2025-03-17_15h01.40.129,SL_base_41,2021.2.3,Win32,59.88023952,1.1827,,,48,0,48,0,1,,,,,,,,
,,"[""diamond"",""red"",""hori"",""left"",[0,-150],[-150,0]]",diamond,red,hori,left,"[0,-150]","[-150,0]",left,1,,,,,,001,2025-03-17_15h01.40.129,SL_base_41,2021.2.3,Win32,59.88023952,1.2537,,,49,0,49,0,1,,,,,,,,
,,"[""circle"",""green"",""vert"",""up"",[106,-106],[-150,0]]",circle,green,vert,up,"[106,-106]","[-150,0]",up,1,,,,,,001,2025-03-17_15h01.40.129,SL_base_41,2021.2.3,Win32,59.88023952,0.8238,,,50,0,50,0,1,,,,,,,,
,,"[""circle"",""red"",""hori"",""left"",[150,0],[-106,-106]]",circle,red,hori,left,"[150,0]","[-106,-106]",left,1,,,,,,001,2025-03-17_15h01.40.129,SL_base_41,2021.2.3,Win32,59.88023952,0.9934,,,51,0,51,0,1,,,,,,,,
,,"[""diamond"",""green"",""hori"",""left"",[0,-150],[0,150]]",diamond,green,hori,left,"[0,-150]","[0,150]",left,1,,,,,,001,2025-03-17_15h01.40.129,SL_base_41,2021.2.3,Win32,59.88023952,0.8473,,,52,0,52,0,1,,,,,,,,
,,"[""circle"",""red"",""hori"",""left"",[150,0],[106,-106]]",circle,red,hori,left,"[150,0]","[106,-106]",left,1,,,,,,001,2025-03-17_15h01.40.129,SL_base_41,2021.2.3,Win32,59.88023952,1.1346,,,53,0,53,0,1,,,,,,,,
,,"[""circle"",""no_dis"",""vert"",""up"",[99999,99999],[150,0]]",circle,no_dis,vert,up,"[99999,99999]","[150,0]",up,1,,,,,,001,2025-03-17_15h01.40.129,SL_base_41,2021.2.3,Win32,59.88023952,0.7932,,,54,0,54,0,1,,,,,,,,
,,"[""diamond"",""no_dis"",""hori"",""left"",[99999,99999],[0,150]]",diamond,no_dis,hori,left,"[99999,99999]","[0,150]",left,1,,,,,,001,2025-03-17_15h01.40.129,SL_base_41,2021.2.3,Win32,59.88023952,0.7238,,,55,0,55,0,1,,,,,,,,
,,"[""circle"",""red"",""hori"",""left"",[-150,0],[0,150]]",circle,red,hori,left,"[-150,0]","[0,150]",left,1,,,,,,001,2025-03-17_15h01.40.129,SL_base_41,2021.2.3,Win32,59.88023952,0.783,,,56,0,56,0,1,,,,,,,,
,,"[""circle"",""red"",""hori"",""left"",[106,106],[0,-150]]",circle,red,hori,left,"[106,106]","[0,-150]",left,1,,,,,,001,2025-03-17_15h01.40.129,SL_base_41,2021.2.3,Win32,59.88023952,0.8349,,,57,0,57,0,1,,,,,,,,
,,"[""circle"",""no_dis"",""hori"",""left"",[99999,99999],[-106,106]]",circle,no_dis,hori,left,"[99999,99999]","[-106,106]",left,1,,,,,,001,2025-03-17_15h01.40.129,SL_base_41,2021.2.3,Win32,59.88023952,0.6835,,,58,0,58,0,1,,,,,,,,
,,"[""circle"",""red"",""hori"",""left"",[-106,-106],[-106,106]]",circle,red,hori,left,"[-106,-106]","[-106,106]",left,1,,,,,,001,2025-03-17_15h01.40.129,SL_base_41,2021.2.3,Win32,59.88023952,0.9715,,,59,0,59,0,1,,,,,,,,
,,"[""diamond"",""red"",""vert"",""up"",[0,150],[106,106]]",diamond,red,vert,up,"[0,150]","[106,106]",left,0,,,,,,001,2025-03-17_15h01.40.129,SL_base_41,2021.2.3,Win32,59.88023952,0.6698,,,60,0,60,0,1,,,,,,,,
,,"[""diamond"",""red"",""vert"",""up"",[-106,-106],[106,106]]",diamond,red,vert,up,"[-106,-106]","[106,106]",up,1,,,,,,001,2025-03-17_15h01.40.129,SL_base_41,2021.2.3,Win32,59.88023952,0.7899,,,61,0,61,0,1,,,,,,,,
,,"[""diamond"",""red"",""hori"",""left"",[0,-150],[106,-106]]",diamond,red,hori,left,"[0,-150]","[106,-106]",left,1,,,,,,001,2025-03-17_15h01.40.129,SL_base_41,2021.2.3,Win32,59.88023952,0.9962,,,62,0,62,0,1,,,,,,,,
,,"[""diamond"",""no_dis"",""vert"",""up"",[99999,99999],[106,-106]]",diamond,no_dis,vert,up,"[99999,99999]","[106,-106]",up,1,,,,,,001,2025-03-17_15h01.40.129,SL_base_41,2021.2.3,Win32,59.88023952,0.9962,,,63,0,63,0,1,,,,,,,,
,,"[""diamond"",""no_dis"",""hori"",""left"",[99999,99999],[106,106]]",diamond,no_dis,hori,left,"[99999,99999]","[106,106]",left,1,,,,,,001,2025-03-17_15h01.40.129,SL_base_41,2021.2.3,Win32,59.88023952,1.0634,,,64,0,64,0,1,,,,,,,,
,,"[""diamond"",""red"",""vert"",""up"",[106,106],[-150,0]]",diamond,red,vert,up,"[106,106]","[-150,0]",up,1,,,,,,001,2025-03-17_15h01.40.129,SL_base_41,2021.2.3,Win32,59.88023952,1.0033,,,65,0,65,0,1,,,,,,,,
,,"[""diamond"",""green"",""hori"",""left"",[0,150],[-106,106]]",diamond,green,hori,left,"[0,150]","[-106,106]",left,1,,,,,,001,2025-03-17_15h01.40.129,SL_base_41,2021.2.3,Win32,59.88023952,0.9789,,,66,0,66,0,1,,,,,,,,
,,"[""circle"",""no_dis"",""hori"",""left"",[99999,99999],[0,150]]",circle,no_dis,hori,left,"[99999,99999]","[0,150]",left,1,,,,,,001,2025-03-17_15h01.40.129,SL_base_41,2021.2.3,Win32,59.88023952,0.8597,,,67,0,67,0,1,,,,,,,,
,,"[""circle"",""red"",""vert"",""up"",[106,-106],[106,106]]",circle,red,vert,up,"[106,-106]","[106,106]",up,1,,,,,,001,2025-03-17_15h01.40.129,SL_base_41,2021.2.3,Win32,59.88023952,1.3998,,,68,0,68,0,1,,,,,,,,
,,"[""circle"",""no_dis"",""vert"",""up"",[99999,99999],[150,0]]",circle,no_dis,vert,up,"[99999,99999]","[150,0]",up,1,,,,,,001,2025-03-17_15h01.40.129,SL_base_41,2021.2.3,Win32,59.88023952,0.8287,,,69,0,69,0,1,,,,,,,,
,,"[""diamond"",""no_dis"",""hori"",""left"",[99999,99999],[0,150]]",diamond,no_dis,hori,left,"[99999,99999]","[0,150]",left,1,,,,,,001,2025-03-17_15h01.40.129,SL_base_41,2021.2.3,Win32,59.88023952,2.0588,,,70,0,70,0,1,,,,,,,,
,,"[""diamond"",""red"",""vert"",""up"",[0,-150],[-106,-106]]",diamond,red,vert,up,"[0,-150]","[-106,-106]",up,1,,,,,,001,2025-03-17_15h01.40.129,SL_base_41,2021.2.3,Win32,59.88023952,0.874,,,71,0,71,0,1,,,,,,,,
,,"[""circle"",""red"",""hori"",""left"",[150,0],[0,-150]]",circle,red,hori,left,"[150,0]","[0,-150]",left,1,,,,,,001,2025-03-17_15h01.40.129,SL_base_41,2021.2.3,Win32,59.88023952,1.0603,,,72,0,72,0,1,,,,,,,,
,,"[""circle"",""no_dis"",""vert"",""up"",[99999,99999],[0,-150]]",circle,no_dis,vert,up,"[99999,99999]","[0,-150]",up,1,,,,,,001,2025-03-17_15h01.40.129,SL_base_41,2021.2.3,Win32,59.88023952,1.0011,,,73,0,73,0,1,,,,,,,,
,,"[""circle"",""red"",""hori"",""left"",[-106,-106],[0,-150]]",circle,red,hori,left,"[-106,-106]","[0,-150]",left,1,,,,,,001,2025-03-17_15h01.40.129,SL_base_41,2021.2.3,Win32,59.88023952,0.9683,,,74,0,74,0,1,,,,,,,,
,,"[""circle"",""green"",""hori"",""left"",[-106,106],[-150,0]]",circle,green,hori,left,"[-106,106]","[-150,0]",left,1,,,,,,001,2025-03-17_15h01.40.129,SL_base_41,2021.2.3,Win32,59.88023952,0.8009,,,75,0,75,0,1,,,,,,,,
,,"[""diamond"",""green"",""hori"",""left"",[0,-150],[150,0]]",diamond,green,hori,left,"[0,-150]","[150,0]",left,1,,,,,,001,2025-03-17_15h01.40.129,SL_base_41,2021.2.3,Win32,59.88023952,0.9814,,,76,0,76,0,1,,,,,,,,
,,"[""diamond"",""red"",""vert"",""up"",[0,150],[-150,0]]",diamond,red,vert,up,"[0,150]","[-150,0]",up,1,,,,,,001,2025-03-17_15h01.40.129,SL_base_41,2021.2.3,Win32,59.88023952,1.1935,,,77,0,77,0,1,,,,,,,,
,,"[""diamond"",""green"",""vert"",""up"",[150,0],[0,150]]",diamond,green,vert,up,"[150,0]","[0,150]",up,1,,,,,,001,2025-03-17_15h01.40.129,SL_base_41,2021.2.3,Win32,59.88023952,1.6873,,,78,0,78,0,1,,,,,,,,
,,"[""diamond"",""red"",""vert"",""up"",[0,-150],[106,-106]]",diamond,red,vert,up,"[0,-150]","[106,-106]",up,1,,,,,,001,2025-03-17_15h01.40.129,SL_base_41,2021.2.3,Win32,59.88023952,1.165,,,79,0,79,0,1,,,,,,,,
,,"[""diamond"",""no_dis"",""vert"",""up"",[99999,99999],[-106,106]]",diamond,no_dis,vert,up,"[99999,99999]","[-106,106]",up,1,,,,,,001,2025-03-17_15h01.40.129,SL_base_41,2021.2.3,Win32,59.88023952,1.2921,,,80,0,80,0,1,,,,,,,,
,,"[""circle"",""no_dis"",""vert"",""up"",[99999,99999],[150,0]]",circle,no_dis,vert,up,"[99999,99999]","[150,0]",up,1,,,,,,001,2025-03-17_15h01.40.129,SL_base_41,2021.2.3,Win32,59.88023952,1.1556,,,81,0,81,0,1,,,,,,,,
,,"[""diamond"",""red"",""vert"",""up"",[0,150],[-106,-106]]",diamond,red,vert,up,"[0,150]","[-106,-106]",up,1,,,,,,001,2025-03-17_15h01.40.129,SL_base_41,2021.2.3,Win32,59.88023952,1.3331,,,82,0,82,0,1,,,,,,,,
,,"[""circle"",""no_dis"",""hori"",""left"",[99999,99999],[-106,-106]]",circle,no_dis,hori,left,"[99999,99999]","[-106,-106]",left,1,,,,,,001,2025-03-17_15h01.40.129,SL_base_41,2021.2.3,Win32,59.88023952,1.0094,,,83,0,83,0,1,,,,,,,,
,,"[""circle"",""green"",""hori"",""left"",[106,-106],[0,150]]",circle,green,hori,left,"[106,-106]","[0,150]",left,1,,,,,,001,2025-03-17_15h01.40.129,SL_base_41,2021.2.3,Win32,59.88023952,1.0473,,,84,0,84,0,1,,,,,,,,
,,"[""diamond"",""green"",""hori"",""left"",[106,106],[-106,-106]]",diamond,green,hori,left,"[106,106]","[-106,-106]",left,1,,,,,,001,2025-03-17_15h01.40.129,SL_base_41,2021.2.3,Win32,59.88023952,1.013,,,85,0,85,0,1,,,,,,,,
,,"[""diamond"",""red"",""vert"",""up"",[0,-150],[-150,0]]",diamond,red,vert,up,"[0,-150]","[-150,0]",up,1,,,,,,001,2025-03-17_15h01.40.129,SL_base_41,2021.2.3,Win32,59.88023952,1.2663,,,86,0,86,0,1,,,,,,,,
,,"[""circle"",""red"",""vert"",""up"",[-150,0],[0,-150]]",circle,red,vert,up,"[-150,0]","[0,-150]",up,1,,,,,,001,2025-03-17_15h01.40.129,SL_base_41,2021.2.3,Win32,59.88023952,0.9418,,,87,0,87,0,1,,,,,,,,
,,"[""diamond"",""green"",""vert"",""up"",[106,106],[-150,0]]",diamond,green,vert,up,"[106,106]","[-150,0]",up,1,,,,,,001,2025-03-17_15h01.40.129,SL_base_41,2021.2.3,Win32,59.88023952,1.0497,,,88,0,88,0,1,,,,,,,,
,,"[""diamond"",""red"",""hori"",""left"",[0,150],[-106,-106]]",diamond,red,hori,left,"[0,150]","[-106,-106]",left,1,,,,,,001,2025-03-17_15h01.40.129,SL_base_41,2021.2.3,Win32,59.88023952,1.1356,,,89,0,89,0,1,,,,,,,,
,,"[""diamond"",""red"",""hori"",""left"",[0,-150],[0,150]]",diamond,red,hori,left,"[0,-150]","[0,150]",left,1,,,,,,001,2025-03-17_15h01.40.129,SL_base_41,2021.2.3,Win32,59.88023952,1.2819,,,90,0,90,0,1,,,,,,,,
,,"[""circle"",""red"",""hori"",""left"",[-150,0],[150,0]]",circle,red,hori,left,"[-150,0]","[150,0]",left,1,,,,,,001,2025-03-17_15h01.40.129,SL_base_41,2021.2.3,Win32,59.88023952,1.0045,,,91,0,91,0,1,,,,,,,,
,,"[""circle"",""red"",""vert"",""up"",[-106,-106],[-106,106]]",circle,red,vert,up,"[-106,-106]","[-106,106]",up,1,,,,,,001,2025-03-17_15h01.40.129,SL_base_41,2021.2.3,Win32,59.88023952,1.3178,,,92,0,92,0,1,,,,,,,,
,,"[""diamond"",""no_dis"",""vert"",""up"",[99999,99999],[-150,0]]",diamond,no_dis,vert,up,"[99999,99999]","[-150,0]",up,1,,,,,,001,2025-03-17_15h01.40.129,SL_base_41,2021.2.3,Win32,59.88023952,1.0799,,,93,0,93,0,1,,,,,,,,
,,"[""diamond"",""red"",""hori"",""left"",[-106,106],[0,-150]]",diamond,red,hori,left,"[-106,106]","[0,-150]",left,1,,,,,,001,2025-03-17_15h01.40.129,SL_base_41,2021.2.3,Win32,59.88023952,1.2353,,,94,0,94,0,1,,,,,,,,
,,"[""diamond"",""green"",""vert"",""up"",[0,-150],[-150,0]]",diamond,green,vert,up,"[0,-150]","[-150,0]",up,1,,,,,,001,2025-03-17_15h01.40.129,SL_base_41,2021.2.3,Win32,59.88023952,0.946,,,95,0,95,0,1,,,,,,,,
,,"[""diamond"",""red"",""hori"",""left"",[0,-150],[0,150]]",diamond,red,hori,left,"[0,-150]","[0,150]",left,1,,,,,,001,2025-03-17_15h01.40.129,SL_base_41,2021.2.3,Win32,59.88023952,0.9644,,,96,0,96,0,1,,,,,,,,
,,"[""circle"",""green"",""hori"",""left"",[0,-150],[150,0]]",circle,green,hori,left,"[0,-150]","[150,0]",left,1,,,,,,001,2025-03-17_15h01.40.129,SL_base_41,2021.2.3,Win32,59.88023952,0.7153,,,97,0,97,0,1,,,,,,,,
,,"[""circle"",""green"",""vert"",""up"",[0,-150],[0,150]]",circle,green,vert,up,"[0,-150]","[0,150]",up,1,,,,,,001,2025-03-17_15h01.40.129,SL_base_41,2021.2.3,Win32,59.88023952,0.6967,,,98,0,98,0,1,,,,,,,,
,,"[""circle"",""no_dis"",""hori"",""left"",[99999,99999],[-150,0]]",circle,no_dis,hori,left,"[99999,99999]","[-150,0]",left,1,,,,,,001,2025-03-17_15h01.40.129,SL_base_41,2021.2.3,Win32,59.88023952,2.1588,,,99,0,99,0,1,,,,,,,,
,,"[""circle"",""red"",""vert"",""up"",[-106,106],[106,106]]",circle,red,vert,up,"[-106,106]","[106,106]",up,1,,,,,,001,2025-03-17_15h01.40.129,SL_base_41,2021.2.3,Win32,59.88023952,1.3513,,,100,0,100,0,1,,,,,,,,
,,"[""diamond"",""no_dis"",""vert"",""up"",[99999,99999],[-150,0]]",diamond,no_dis,vert,up,"[99999,99999]","[-150,0]",up,1,,,,,,001,2025-03-17_15h01.40.129,SL_base_41,2021.2.3,Win32,59.88023952,1.1355,,,101,0,101,0,1,,,,,,,,
,,"[""circle"",""green"",""vert"",""up"",[0,-150],[0,150]]",circle,green,vert,up,"[0,-150]","[0,150]",up,1,,,,,,001,2025-03-17_15h01.40.129,SL_base_41,2021.2.3,Win32,59.88023952,1.09,,,102,0,102,0,1,,,,,,,,
,,"[""diamond"",""no_dis"",""hori"",""left"",[99999,99999],[0,-150]]",diamond,no_dis,hori,left,"[99999,99999]","[0,-150]",left,1,,,,,,001,2025-03-17_15h01.40.129,SL_base_41,2021.2.3,Win32,59.88023952,0.9505,,,103,0,103,0,1,,,,,,,,
,,"[""diamond"",""green"",""hori"",""left"",[0,150],[106,-106]]",diamond,green,hori,left,"[0,150]","[106,-106]",left,1,,,,,,001,2025-03-17_15h01.40.129,SL_base_41,2021.2.3,Win32,59.88023952,1.1993,,,104,0,104,0,1,,,,,,,,
,,"[""circle"",""no_dis"",""hori"",""left"",[99999,99999],[-106,-106]]",circle,no_dis,hori,left,"[99999,99999]","[-106,-106]",left,1,,,,,,001,2025-03-17_15h01.40.129,SL_base_41,2021.2.3,Win32,59.88023952,1.0496,,,105,0,105,0,1,,,,,,,,
,,"[""circle"",""green"",""vert"",""up"",[-106,106],[-106,-106]]",circle,green,vert,up,"[-106,106]","[-106,-106]",up,1,,,,,,001,2025-03-17_15h01.40.129,SL_base_41,2021.2.3,Win32,59.88023952,0.9098,,,106,0,106,0,1,,,,,,,,
,,"[""circle"",""red"",""vert"",""up"",[-150,0],[0,150]]",circle,red,vert,up,"[-150,0]","[0,150]",up,1,,,,,,001,2025-03-17_15h01.40.129,SL_base_41,2021.2.3,Win32,59.88023952,1.3587,,,107,0,107,0,1,,,,,,,,
,,"[""diamond"",""green"",""vert"",""up"",[150,0],[-106,-106]]",diamond,green,vert,up,"[150,0]","[-106,-106]",up,1,,,,,,001,2025-03-17_15h01.40.129,SL_base_41,2021.2.3,Win32,59.88023952,0.9361,,,108,0,108,0,1,,,,,,,,
,,"[""circle"",""no_dis"",""hori"",""left"",[99999,99999],[106,106]]",circle,no_dis,hori,left,"[99999,99999]","[106,106]",left,1,,,,,,001,2025-03-17_15h01.40.129,SL_base_41,2021.2.3,Win32,59.88023952,0.8404,,,109,0,109,0,1,,,,,,,,
,,"[""circle"",""no_dis"",""vert"",""up"",[99999,99999],[0,-150]]",circle,no_dis,vert,up,"[99999,99999]","[0,-150]",up,1,,,,,,001,2025-03-17_15h01.40.129,SL_base_41,2021.2.3,Win32,59.88023952,0.817,,,110,0,110,0,1,,,,,,,,
,,"[""circle"",""no_dis"",""vert"",""up"",[99999,99999],[0,150]]",circle,no_dis,vert,up,"[99999,99999]","[0,150]",up,1,,,,,,001,2025-03-17_15h01.40.129,SL_base_41,2021.2.3,Win32,59.88023952,0.7465,,,111,0,111,0,1,,,,,,,,
,,"[""diamond"",""no_dis"",""hori"",""left"",[99999,99999],[0,-150]]",diamond,no_dis,hori,left,"[99999,99999]","[0,-150]",left,1,,,,,,001,2025-03-17_15h01.40.129,SL_base_41,2021.2.3,Win32,59.88023952,1.085,,,112,0,112,0,1,,,,,,,,
,,"[""circle"",""red"",""vert"",""up"",[0,-150],[106,106]]",circle,red,vert,up,"[0,-150]","[106,106]",up,1,,,,,,001,2025-03-17_15h01.40.129,SL_base_41,2021.2.3,Win32,59.88023952,0.9563,,,113,0,113,0,1,,,,,,,,
,,"[""circle"",""green"",""vert"",""up"",[0,-150],[-150,0]]",circle,green,vert,up,"[0,-150]","[-150,0]",up,1,,,,,,001,2025-03-17_15h01.40.129,SL_base_41,2021.2.3,Win32,59.88023952,0.6811,,,114,0,114,0,1,,,,,,,,
,,"[""circle"",""no_dis"",""hori"",""left"",[99999,99999],[-106,106]]",circle,no_dis,hori,left,"[99999,99999]","[-106,106]",left,1,,,,,,001,2025-03-17_15h01.40.129,SL_base_41,2021.2.3,Win32,59.88023952,0.8091,,,115,0,115,0,1,,,,,,,,
,,"[""circle"",""no_dis"",""vert"",""up"",[99999,99999],[106,-106]]",circle,no_dis,vert,up,"[99999,99999]","[106,-106]",up,1,,,,,,001,2025-03-17_15h01.40.129,SL_base_41,2021.2.3,Win32,59.88023952,0.7087,,,116,0,116,0,1,,,,,,,,
,,"[""diamond"",""red"",""vert"",""up"",[-150,0],[0,-150]]",diamond,red,vert,up,"[-150,0]","[0,-150]",up,1,,,,,,001,2025-03-17_15h01.40.129,SL_base_41,2021.2.3,Win32,59.88023952,1.0541,,,117,0,117,0,1,,,,,,,,
,,"[""circle"",""green"",""vert"",""up"",[0,-150],[-106,106]]",circle,green,vert,up,"[0,-150]","[-106,106]",left,0,,,,,,001,2025-03-17_15h01.40.129,SL_base_41,2021.2.3,Win32,59.88023952,1.2914,,,118,0,118,0,1,,,,,,,,
,,"[""circle"",""no_dis"",""vert"",""up"",[99999,99999],[106,-106]]",circle,no_dis,vert,up,"[99999,99999]","[106,-106]",up,1,,,,,,001,2025-03-17_15h01.40.129,SL_base_41,2021.2.3,Win32,59.88023952,0.663,,,119,0,119,0,1,,,,,,,,
,,"[""diamond"",""no_dis"",""hori"",""left"",[99999,99999],[-106,-106]]",diamond,no_dis,hori,left,"[99999,99999]","[-106,-106]",left,1,,,,,,001,2025-03-17_15h01.40.129,SL_base_41,2021.2.3,Win32,59.88023952,0.7753,,,120,0,120,0,1,,,,,,,,
,,"[""diamond"",""red"",""hori"",""left"",[-106,-106],[-106,106]]",diamond,red,hori,left,"[-106,-106]","[-106,106]",left,1,,,,,,001,2025-03-17_15h01.40.129,SL_base_41,2021.2.3,Win32,59.88023952,0.9068,,,121,0,121,0,1,,,,,,,,
,,"[""diamond"",""green"",""vert"",""up"",[0,-150],[-106,106]]",diamond,green,vert,up,"[0,-150]","[-106,106]",up,1,,,,,,001,2025-03-17_15h01.40.129,SL_base_41,2021.2.3,Win32,59.88023952,0.6899,,,122,0,122,0,1,,,,,,,,
,,"[""diamond"",""green"",""vert"",""up"",[0,-150],[-150,0]]",diamond,green,vert,up,"[0,-150]","[-150,0]",up,1,,,,,,001,2025-03-17_15h01.40.129,SL_base_41,2021.2.3,Win32,59.88023952,0.8347,,,123,0,123,0,1,,,,,,,,
,,"[""circle"",""green"",""vert"",""up"",[-150,0],[106,106]]",circle,green,vert,up,"[-150,0]","[106,106]",up,1,,,,,,001,2025-03-17_15h01.40.129,SL_base_41,2021.2.3,Win32,59.88023952,0.7307,,,124,0,124,0,1,,,,,,,,
,,"[""diamond"",""no_dis"",""vert"",""up"",[99999,99999],[-106,-106]]",diamond,no_dis,vert,up,"[99999,99999]","[-106,-106]",up,1,,,,,,001,2025-03-17_15h01.40.129,SL_base_41,2021.2.3,Win32,59.88023952,0.8234,,,125,0,125,0,1,,,,,,,,
,,"[""circle"",""red"",""vert"",""up"",[106,-106],[150,0]]",circle,red,vert,up,"[106,-106]","[150,0]",up,1,,,,,,001,2025-03-17_15h01.40.129,SL_base_41,2021.2.3,Win32,59.88023952,0.8899,,,126,0,126,0,1,,,,,,,,
,,"[""diamond"",""green"",""vert"",""up"",[0,-150],[106,106]]",diamond,green,vert,up,"[0,-150]","[106,106]",up,1,,,,,,001,2025-03-17_15h01.40.129,SL_base_41,2021.2.3,Win32,59.88023952,0.6736,,,127,0,127,0,1,,,,,,,,
,,,,,,,,,,,,,,,,001,2025-03-17_15h01.40.129,SL_base_41,2021.2.3,Win32,59.88023952,,,,,,,,,3,space,1.8953,2,0,2,0,1
,,"[""diamond"",""red"",""vert"",""up"",[-150,0],[0,-150]]",diamond,red,vert,up,"[-150,0]","[0,-150]",up,1,,,,,,001,2025-03-17_15h01.40.129,SL_base_41,2021.2.3,Win32,59.88023952,1.116,,,0,0,0,0,1,,,,,,,,
,,"[""circle"",""no_dis"",""hori"",""left"",[99999,99999],[-150,0]]",circle,no_dis,hori,left,"[99999,99999]","[-150,0]",left,1,,,,,,001,2025-03-17_15h01.40.129,SL_base_41,2021.2.3,Win32,59.88023952,0.7237,,,1,0,1,0,1,,,,,,,,
,,"[""circle"",""red"",""hori"",""left"",[-106,-106],[-106,106]]",circle,red,hori,left,"[-106,-106]","[-106,106]",left,1,,,,,,001,2025-03-17_15h01.40.129,SL_base_41,2021.2.3,Win32,59.88023952,0.8843,,,2,0,2,0,1,,,,,,,,
,,"[""circle"",""green"",""vert"",""up"",[-150,0],[106,106]]",circle,green,vert,up,"[-150,0]","[106,106]",up,1,,,,,,001,2025-03-17_15h01.40.129,SL_base_41,2021.2.3,Win32,59.88023952,0.7243,,,3,0,3,0,1,,,,,,,,
,,"[""diamond"",""no_dis"",""vert"",""up"",[99999,99999],[106,-106]]",diamond,no_dis,vert,up,"[99999,99999]","[106,-106]",up,1,,,,,,001,2025-03-17_15h01.40.129,SL_base_41,2021.2.3,Win32,59.88023952,0.7838,,,4,0,4,0,1,,,,,,,,
,,"[""circle"",""red"",""hori"",""left"",[-150,0],[0,150]]",circle,red,hori,left,"[-150,0]","[0,150]",left,1,,,,,,001,2025-03-17_15h01.40.129,SL_base_41,2021.2.3,Win32,59.88023952,0.9267,,,5,0,5,0,1,,,,,,,,
,,"[""diamond"",""red"",""hori"",""left"",[-106,106],[0,-150]]",diamond,red,hori,left,"[-106,106]","[0,-150]",left,1,,,,,,001,2025-03-17_15h01.40.129,SL_base_41,2021.2.3,Win32,59.88023952,1.0824,,,6,0,6,0,1,,,,,,,,
,,"[""circle"",""red"",""vert"",""up"",[-150,0],[0,-150]]",circle,red,vert,up,"[-150,0]","[0,-150]",up,1,,,,,,001,2025-03-17_15h01.40.129,SL_base_41,2021.2.3,Win32,59.88023952,0.8269,,,7,0,7,0,1,,,,,,,,
,,"[""diamond"",""green"",""vert"",""up"",[106,106],[-150,0]]",diamond,green,vert,up,"[106,106]","[-150,0]",up,1,,,,,,001,2025-03-17_15h01.40.129,SL_base_41,2021.2.3,Win32,59.88023952,1.5014,,,8,0,8,0,1,,,,,,,,
,,"[""circle"",""no_dis"",""vert"",""up"",[99999,99999],[106,-106]]",circle,no_dis,vert,up,"[99999,99999]","[106,-106]",up,1,,,,,,001,2025-03-17_15h01.40.129,SL_base_41,2021.2.3,Win32,59.88023952,0.8371,,,9,0,9,0,1,,,,,,,,
,,"[""circle"",""red"",""hori"",""left"",[-106,-106],[0,-150]]",circle,red,hori,left,"[-106,-106]","[0,-150]",left,1,,,,,,001,2025-03-17_15h01.40.129,SL_base_41,2021.2.3,Win32,59.88023952,1.1252,,,10,0,10,0,1,,,,,,,,
,,"[""circle"",""green"",""hori"",""left"",[0,-150],[150,0]]",circle,green,hori,left,"[0,-150]","[150,0]",left,1,,,,,,001,2025-03-17_15h01.40.129,SL_base_41,2021.2.3,Win32,59.88023952,1.4874,,,11,0,11,0,1,,,,,,,,
,,"[""diamond"",""green"",""hori"",""left"",[0,150],[106,-106]]",diamond,green,hori,left,"[0,150]","[106,-106]",left,1,,,,,,001,2025-03-17_15h01.40.129,SL_base_41,2021.2.3,Win32,59.88023952,1.1413,,,12,0,12,0,1,,,,,,,,
,,"[""diamond"",""green"",""vert"",""up"",[0,-150],[-150,0]]",diamond,green,vert,up,"[0,-150]","[-150,0]",up,1,,,,,,001,2025-03-17_15h01.40.129,SL_base_41,2021.2.3,Win32,59.88023952,1.4987,,,13,0,13,0,1,,,,,,,,
,,"[""diamond"",""red"",""vert"",""up"",[-106,-106],[106,106]]",diamond,red,vert,up,"[-106,-106]","[106,106]",up,1,,,,,,001,2025-03-17_15h01.40.129,SL_base_41,2021.2.3,Win32,59.88023952,1.3654,,,14,0,14,0,1,,,,,,,,
,,"[""circle"",""red"",""vert"",""up"",[106,-106],[-150,0]]",circle,red,vert,up,"[106,-106]","[-150,0]",up,1,,,,,,001,2025-03-17_15h01.40.129,SL_base_41,2021.2.3,Win32,59.88023952,1.6251,,,15,0,15,0,1,,,,,,,,
,,"[""diamond"",""red"",""vert"",""up"",[0,-150],[-106,-106]]",diamond,red,vert,up,"[0,-150]","[-106,-106]",up,1,,,,,,001,2025-03-17_15h01.40.129,SL_base_41,2021.2.3,Win32,59.88023952,1.1063,,,16,0,16,0,1,,,,,,,,
,,"[""diamond"",""no_dis"",""vert"",""up"",[99999,99999],[106,-106]]",diamond,no_dis,vert,up,"[99999,99999]","[106,-106]",up,1,,,,,,001,2025-03-17_15h01.40.129,SL_base_41,2021.2.3,Win32,59.88023952,0.8657,,,17,0,17,0,1,,,,,,,,
,,"[""diamond"",""green"",""hori"",""left"",[-106,106],[106,106]]",diamond,green,hori,left,"[-106,106]","[106,106]",left,1,,,,,,001,2025-03-17_15h01.40.129,SL_base_41,2021.2.3,Win32,59.88023952,0.8669,,,18,0,18,0,1,,,,,,,,
,,"[""diamond"",""red"",""hori"",""left"",[-150,0],[-106,106]]",diamond,red,hori,left,"[-150,0]","[-106,106]",left,1,,,,,,001,2025-03-17_15h01.40.129,SL_base_41,2021.2.3,Win32,59.88023952,0.7323,,,19,0,19,0,1,,,,,,,,
,,"[""diamond"",""green"",""vert"",""up"",[-106,106],[0,-150]]",diamond,green,vert,up,"[-106,106]","[0,-150]",up,1,,,,,,001,2025-03-17_15h01.40.129,SL_base_41,2021.2.3,Win32,59.88023952,0.7024,,,20,0,20,0,1,,,,,,,,
,,"[""circle"",""green"",""vert"",""up"",[0,150],[-106,106]]",circle,green,vert,up,"[0,150]","[-106,106]",up,1,,,,,,001,2025-03-17_15h01.40.129,SL_base_41,2021.2.3,Win32,59.88023952,1.0904,,,21,0,21,0,1,,,,,,,,
,,"[""diamond"",""green"",""hori"",""left"",[0,-150],[0,150]]",diamond,green,hori,left,"[0,-150]","[0,150]",left,1,,,,,,001,2025-03-17_15h01.40.129,SL_base_41,2021.2.3,Win32,59.88023952,0.6517,,,22,0,22,0,1,,,,,,,,
,,"[""diamond"",""red"",""vert"",""up"",[106,-106],[-106,106]]",diamond,red,vert,up,"[106,-106]","[-106,106]",up,1,,,,,,001,2025-03-17_15h01.40.129,SL_base_41,2021.2.3,Win32,59.88023952,0.6998,,,23,0,23,0,1,,,,,,,,
,,"[""circle"",""green"",""hori"",""left"",[-106,-106],[106,-106]]",circle,green,hori,left,"[-106,-106]","[106,-106]",left,1,,,,,,001,2025-03-17_15h01.40.129,SL_base_41,2021.2.3,Win32,59.88023952,0.947,,,24,0,24,0,1,,,,,,,,
,,"[""diamond"",""green"",""hori"",""left"",[0,150],[-106,106]]",diamond,green,hori,left,"[0,150]","[-106,106]",left,1,,,,,,001,2025-03-17_15h01.40.129,SL_base_41,2021.2.3,Win32,59.88023952,0.9506,,,25,0,25,0,1,,,,,,,,
,,"[""circle"",""green"",""vert"",""up"",[0,-150],[150,0]]",circle,green,vert,up,"[0,-150]","[150,0]",up,1,,,,,,001,2025-03-17_15h01.40.129,SL_base_41,2021.2.3,Win32,59.88023952,1.0399,,,26,0,26,0,1,,,,,,,,
,,"[""diamond"",""no_dis"",""vert"",""up"",[99999,99999],[-106,-106]]",diamond,no_dis,vert,up,"[99999,99999]","[-106,-106]",up,1,,,,,,001,2025-03-17_15h01.40.129,SL_base_41,2021.2.3,Win32,59.88023952,0.9751,,,27,0,27,0,1,,,,,,,,
,,"[""diamond"",""red"",""vert"",""up"",[0,-150],[-150,0]]",diamond,red,vert,up,"[0,-150]","[-150,0]",up,1,,,,,,001,2025-03-17_15h01.40.129,SL_base_41,2021.2.3,Win32,59.88023952,0.8519,,,28,0,28,0,1,,,,,,,,
,,"[""circle"",""no_dis"",""hori"",""left"",[99999,99999],[-106,-106]]",circle,no_dis,hori,left,"[99999,99999]","[-106,-106]",left,1,,,,,,001,2025-03-17_15h01.40.129,SL_base_41,2021.2.3,Win32,59.88023952,0.8868,,,29,0,29,0,1,,,,,,,,
,,"[""circle"",""no_dis"",""hori"",""left"",[99999,99999],[0,150]]",circle,no_dis,hori,left,"[99999,99999]","[0,150]",left,1,,,,,,001,2025-03-17_15h01.40.129,SL_base_41,2021.2.3,Win32,59.88023952,1.3083,,,30,0,30,0,1,,,,,,,,
,,"[""diamond"",""red"",""vert"",""up"",[0,-150],[-106,106]]",diamond,red,vert,up,"[0,-150]","[-106,106]",up,1,,,,,,001,2025-03-17_15h01.40.129,SL_base_41,2021.2.3,Win32,59.88023952,0.7008,,,31,0,31,0,1,,,,,,,,
,,"[""diamond"",""green"",""vert"",""up"",[0,-150],[106,106]]",diamond,green,vert,up,"[0,-150]","[106,106]",up,1,,,,,,001,2025-03-17_15h01.40.129,SL_base_41,2021.2.3,Win32,59.88023952,0.7635,,,32,0,32,0,1,,,,,,,,
,,"[""circle"",""green"",""vert"",""up"",[0,-150],[0,150]]",circle,green,vert,up,"[0,-150]","[0,150]",up,1,,,,,,001,2025-03-17_15h01.40.129,SL_base_41,2021.2.3,Win32,59.88023952,1.1727,,,33,0,33,0,1,,,,,,,,
,,"[""circle"",""red"",""hori"",""left"",[106,106],[0,-150]]",circle,red,hori,left,"[106,106]","[0,-150]",left,1,,,,,,001,2025-03-17_15h01.40.129,SL_base_41,2021.2.3,Win32,59.88023952,0.9814,,,34,0,34,0,1,,,,,,,,
,,"[""diamond"",""red"",""vert"",""up"",[0,-150],[106,-106]]",diamond,red,vert,up,"[0,-150]","[106,-106]",up,1,,,,,,001,2025-03-17_15h01.40.129,SL_base_41,2021.2.3,Win32,59.88023952,1.3721,,,35,0,35,0,1,,,,,,,,
,,"[""diamond"",""green"",""hori"",""left"",[106,106],[-106,-106]]",diamond,green,hori,left,"[106,106]","[-106,-106]",left,1,,,,,,001,2025-03-17_15h01.40.129,SL_base_41,2021.2.3,Win32,59.88023952,0.8473,,,36,0,36,0,1,,,,,,,,
,,"[""circle"",""green"",""hori"",""left"",[-106,-106],[0,-150]]",circle,green,hori,left,"[-106,-106]","[0,-150]",left,1,,,,,,001,2025-03-17_15h01.40.129,SL_base_41,2021.2.3,Win32,59.88023952,1.5438,,,37,0,37,0,1,,,,,,,,
,,"[""diamond"",""red"",""hori"",""left"",[0,-150],[0,150]]",diamond,red,hori,left,"[0,-150]","[0,150]",left,1,,,,,,001,2025-03-17_15h01.40.129,SL_base_41,2021.2.3,Win32,59.88023952,2.4669,,,38,0,38,0,1,,,,,,,,
,,"[""diamond"",""green"",""hori"",""left"",[-150,0],[0,150]]",diamond,green,hori,left,"[-150,0]","[0,150]",left,1,,,,,,001,2025-03-17_15h01.40.129,SL_base_41,2021.2.3,Win32,59.88023952,1.1414,,,39,0,39,0,1,,,,,,,,
,,"[""diamond"",""no_dis"",""vert"",""up"",[99999,99999],[-150,0]]",diamond,no_dis,vert,up,"[99999,99999]","[-150,0]",up,1,,,,,,001,2025-03-17_15h01.40.129,SL_base_41,2021.2.3,Win32,59.88023952,1.3769,,,40,0,40,0,1,,,,,,,,
,,"[""diamond"",""no_dis"",""hori"",""left"",[99999,99999],[0,150]]",diamond,no_dis,hori,left,"[99999,99999]","[0,150]",left,1,,,,,,001,2025-03-17_15h01.40.129,SL_base_41,2021.2.3,Win32,59.88023952,0.863,,,41,0,41,0,1,,,,,,,,
,,"[""circle"",""green"",""hori"",""left"",[106,106],[0,-150]]",circle,green,hori,left,"[106,106]","[0,-150]",left,1,,,,,,001,2025-03-17_15h01.40.129,SL_base_41,2021.2.3,Win32,59.88023952,0.8184,,,42,0,42,0,1,,,,,,,,
,,"[""circle"",""no_dis"",""vert"",""up"",[99999,99999],[106,-106]]",circle,no_dis,vert,up,"[99999,99999]","[106,-106]",up,1,,,,,,001,2025-03-17_15h01.40.129,SL_base_41,2021.2.3,Win32,59.88023952,1.2681,,,43,0,43,0,1,,,,,,,,
,,"[""diamond"",""no_dis"",""hori"",""left"",[99999,99999],[-150,0]]",diamond,no_dis,hori,left,"[99999,99999]","[-150,0]",left,1,,,,,,001,2025-03-17_15h01.40.129,SL_base_41,2021.2.3,Win32,59.88023952,1.6312,,,44,0,44,0,1,,,,,,,,
,,"[""circle"",""red"",""hori"",""left"",[-106,106],[106,-106]]",circle,red,hori,left,"[-106,106]","[106,-106]",left,1,,,,,,001,2025-03-17_15h01.40.129,SL_base_41,2021.2.3,Win32,59.88023952,1.191,,,45,0,45,0,1,,,,,,,,
,,"[""diamond"",""green"",""vert"",""up"",[0,-150],[0,150]]",diamond,green,vert,up,"[0,-150]","[0,150]",up,1,,,,,,001,2025-03-17_15h01.40.129,SL_base_41,2021.2.3,Win32,59.88023952,2.0796,,,46,0,46,0,1,,,,,,,,
,,"[""diamond"",""no_dis"",""hori"",""left"",[99999,99999],[-106,106]]",diamond,no_dis,hori,left,"[99999,99999]","[-106,106]",left,1,,,,,,001,2025-03-17_15h01.40.129,SL_base_41,2021.2.3,Win32,59.88023952,0.8705,,,47,0,47,0,1,,,,,,,,
,,"[""diamond"",""red"",""hori"",""left"",[0,-150],[0,150]]",diamond,red,hori,left,"[0,-150]","[0,150]",left,1,,,,,,001,2025-03-17_15h01.40.129,SL_base_41,2021.2.3,Win32,59.88023952,1.4972,,,48,0,48,0,1,,,,,,,,
,,"[""diamond"",""green"",""vert"",""up"",[0,-150],[-106,106]]",diamond,green,vert,up,"[0,-150]","[-106,106]",up,1,,,,,,001,2025-03-17_15h01.40.129,SL_base_41,2021.2.3,Win32,59.88023952,1.3827,,,49,0,49,0,1,,,,,,,,
,,"[""circle"",""no_dis"",""vert"",""up"",[99999,99999],[0,-150]]",circle,no_dis,vert,up,"[99999,99999]","[0,-150]",up,1,,,,,,001,2025-03-17_15h01.40.129,SL_base_41,2021.2.3,Win32,59.88023952,1.233,,,50,0,50,0,1,,,,,,,,
,,"[""circle"",""no_dis"",""vert"",""up"",[99999,99999],[150,0]]",circle,no_dis,vert,up,"[99999,99999]","[150,0]",up,1,,,,,,001,2025-03-17_15h01.40.129,SL_base_41,2021.2.3,Win32,59.88023952,1.0359,,,51,0,51,0,1,,,,,,,,
,,"[""diamond"",""no_dis"",""hori"",""left"",[99999,99999],[106,106]]",diamond,no_dis,hori,left,"[99999,99999]","[106,106]",left,1,,,,,,001,2025-03-17_15h01.40.129,SL_base_41,2021.2.3,Win32,59.88023952,0.7141,,,52,0,52,0,1,,,,,,,,
,,"[""diamond"",""no_dis"",""vert"",""up"",[99999,99999],[-150,0]]",diamond,no_dis,vert,up,"[99999,99999]","[-150,0]",up,1,,,,,,001,2025-03-17_15h01.40.129,SL_base_41,2021.2.3,Win32,59.88023952,1.1804,,,53,0,53,0,1,,,,,,,,
,,"[""circle"",""red"",""vert"",""up"",[106,-106],[106,106]]",circle,red,vert,up,"[106,-106]","[106,106]",up,1,,,,,,001,2025-03-17_15h01.40.129,SL_base_41,2021.2.3,Win32,59.88023952,0.8989,,,54,0,54,0,1,,,,,,,,
,,"[""diamond"",""green"",""hori"",""left"",[0,-150],[150,0]]",diamond,green,hori,left,"[0,-150]","[150,0]",left,1,,,,,,001,2025-03-17_15h01.40.129,SL_base_41,2021.2.3,Win32,59.88023952,0.9653,,,55,0,55,0,1,,,,,,,,
,,"[""circle"",""red"",""vert"",""up"",[0,-150],[106,106]]",circle,red,vert,up,"[0,-150]","[106,106]",up,1,,,,,,001,2025-03-17_15h01.40.129,SL_base_41,2021.2.3,Win32,59.88023952,0.8168,,,56,0,56,0,1,,,,,,,,
,,"[""circle"",""red"",""hori"",""left"",[150,0],[-106,-106]]",circle,red,hori,left,"[150,0]","[-106,-106]",left,1,,,,,,001,2025-03-17_15h01.40.129,SL_base_41,2021.2.3,Win32,59.88023952,1.2177,,,57,0,57,0,1,,,,,,,,
,,"[""circle"",""red"",""vert"",""up"",[106,-106],[0,-150]]",circle,red,vert,up,"[106,-106]","[0,-150]",up,1,,,,,,001,2025-03-17_15h01.40.129,SL_base_41,2021.2.3,Win32,59.88023952,1.1281,,,58,0,58,0,1,,,,,,,,
,,"[""diamond"",""no_dis"",""hori"",""left"",[99999,99999],[0,150]]",diamond,no_dis,hori,left,"[99999,99999]","[0,150]",left,1,,,,,,001,2025-03-17_15h01.40.129,SL_base_41,2021.2.3,Win32,59.88023952,1.018,,,59,0,59,0,1,,,,,,,,
,,"[""circle"",""red"",""vert"",""up"",[106,-106],[150,0]]",circle,red,vert,up,"[106,-106]","[150,0]",up,1,,,,,,001,2025-03-17_15h01.40.129,SL_base_41,2021.2.3,Win32,59.88023952,0.7951,,,60,0,60,0,1,,,,,,,,
,,"[""diamond"",""green"",""vert"",""up"",[150,0],[0,150]]",diamond,green,vert,up,"[150,0]","[0,150]",up,1,,,,,,001,2025-03-17_15h01.40.129,SL_base_41,2021.2.3,Win32,59.88023952,0.708,,,61,0,61,0,1,,,,,,,,
