﻿key_resp.keys,key_resp.rt,trial_para,tar_shape,dis_color_condi,tar_line,cor_resp,dis_loc,tar_loc,resp.keys,resp.corr,trials.thisRepN,trials.thisTrialN,trials.thisN,trials.thisIndex,trials.ran,participant,date,expName,psychopyVersion,OS,frameRate,key_resp_2.keys,key_resp_2.rt,trials_2.thisRepN,trials_2.thisTrialN,trials_2.thisN,trials_2.thisIndex,trials_2.ran,resp.rt,block_num,key_resp_3.keys,key_resp_3.rt,trials_3.thisRepN,trials_3.thisTrialN,trials_3.thisN,trials_3.thisIndex,trials_3.ran
space,27.3193,"[""circle"",""green"",""vert"",""up"",[106,-106],[150,0]]",circle,green,vert,up,"[106,-106]","[150,0]",,0,0,0,0,0,1,001,2025-03-10_17h18.12.379,SL_base_41,2021.2.3,Win32,60.24096386,,,,,,,,,,,,,,,,
,,"[""circle"",""green"",""vert"",""up"",[106,106],[-106,106]]",circle,green,vert,up,"[106,106]","[-106,106]",,0,1,0,1,0,1,001,2025-03-10_17h18.12.379,SL_base_41,2021.2.3,Win32,60.24096386,,,,,,,,,,,,,,,,
,,"[""diamond"",""red"",""vert"",""up"",[106,-106],[150,0]]",diamond,red,vert,up,"[106,-106]","[150,0]",,0,2,0,2,0,1,001,2025-03-10_17h18.12.379,SL_base_41,2021.2.3,Win32,60.24096386,,,,,,,,,,,,,,,,
,,"[""circle"",""red"",""vert"",""up"",[106,106],[-106,106]]",circle,red,vert,up,"[106,106]","[-106,106]",,0,3,0,3,0,1,001,2025-03-10_17h18.12.379,SL_base_41,2021.2.3,Win32,60.24096386,,,,,,,,,,,,,,,,
,,"[""circle"",""red"",""vert"",""up"",[-150,0],[-106,-106]]",circle,red,vert,up,"[-150,0]","[-106,-106]",,0,4,0,4,0,1,001,2025-03-10_17h18.12.379,SL_base_41,2021.2.3,Win32,60.24096386,,,,,,,,,,,,,,,,
,,"[""diamond"",""green"",""vert"",""up"",[-106,106],[106,106]]",diamond,green,vert,up,"[-106,106]","[106,106]",,0,5,0,5,0,1,001,2025-03-10_17h18.12.379,SL_base_41,2021.2.3,Win32,60.24096386,,,,,,,,,,,,,,,,
,,"[""circle"",""red"",""vert"",""up"",[-106,-106],[106,106]]",circle,red,vert,up,"[-106,-106]","[106,106]",,0,6,0,6,0,1,001,2025-03-10_17h18.12.379,SL_base_41,2021.2.3,Win32,60.24096386,,,,,,,,,,,,,,,,
,,"[""circle"",""red"",""vert"",""up"",[-150,0],[0,150]]",circle,red,vert,up,"[-150,0]","[0,150]",,0,7,0,7,0,1,001,2025-03-10_17h18.12.379,SL_base_41,2021.2.3,Win32,60.24096386,,,,,,,,,,,,,,,,
,,"[""diamond"",""green"",""vert"",""up"",[106,-106],[106,106]]",diamond,green,vert,up,"[106,-106]","[106,106]",,0,8,0,8,0,1,001,2025-03-10_17h18.12.379,SL_base_41,2021.2.3,Win32,60.24096386,,,,,,,,,,,,,,,,
,,"[""diamond"",""no_dis"",""vert"",""up"",[99999,99999],[106,-106]]",diamond,no_dis,vert,up,"[99999,99999]","[106,-106]",,0,9,0,9,0,1,001,2025-03-10_17h18.12.379,SL_base_41,2021.2.3,Win32,60.24096386,,,,,,,,,,,,,,,,
,,"[""circle"",""green"",""vert"",""up"",[106,-106],[150,0]]",circle,green,vert,up,"[106,-106]","[150,0]",,0,,,,,,001,2025-03-10_17h18.12.379,SL_base_41,2021.2.3,Win32,60.24096386,space,5.7452,0,0,0,0,1,,,,,,,,,
,,"[""circle"",""green"",""vert"",""up"",[106,106],[-106,106]]",circle,green,vert,up,"[106,106]","[-106,106]",,0,,,,,,001,2025-03-10_17h18.12.379,SL_base_41,2021.2.3,Win32,60.24096386,,,1,0,1,0,1,,,,,,,,,
,,"[""diamond"",""red"",""vert"",""up"",[106,-106],[150,0]]",diamond,red,vert,up,"[106,-106]","[150,0]",,0,,,,,,001,2025-03-10_17h18.12.379,SL_base_41,2021.2.3,Win32,60.24096386,,,2,0,2,0,1,,,,,,,,,
,,"[""circle"",""red"",""vert"",""up"",[106,106],[-106,106]]",circle,red,vert,up,"[106,106]","[-106,106]",,0,,,,,,001,2025-03-10_17h18.12.379,SL_base_41,2021.2.3,Win32,60.24096386,,,3,0,3,0,1,,,,,,,,,
,,"[""circle"",""red"",""vert"",""up"",[-150,0],[-106,-106]]",circle,red,vert,up,"[-150,0]","[-106,-106]",,0,,,,,,001,2025-03-10_17h18.12.379,SL_base_41,2021.2.3,Win32,60.24096386,,,4,0,4,0,1,,,,,,,,,
,,"[""diamond"",""green"",""vert"",""up"",[-106,106],[106,106]]",diamond,green,vert,up,"[-106,106]","[106,106]",,0,,,,,,001,2025-03-10_17h18.12.379,SL_base_41,2021.2.3,Win32,60.24096386,,,5,0,5,0,1,,,,,,,,,
,,"[""circle"",""red"",""vert"",""up"",[-106,-106],[106,106]]",circle,red,vert,up,"[-106,-106]","[106,106]",,0,,,,,,001,2025-03-10_17h18.12.379,SL_base_41,2021.2.3,Win32,60.24096386,,,6,0,6,0,1,,,,,,,,,
,,"[""circle"",""red"",""vert"",""up"",[-150,0],[0,150]]",circle,red,vert,up,"[-150,0]","[0,150]",,0,,,,,,001,2025-03-10_17h18.12.379,SL_base_41,2021.2.3,Win32,60.24096386,,,7,0,7,0,1,,,,,,,,,
,,"[""diamond"",""green"",""vert"",""up"",[106,-106],[106,106]]",diamond,green,vert,up,"[106,-106]","[106,106]",,0,,,,,,001,2025-03-10_17h18.12.379,SL_base_41,2021.2.3,Win32,60.24096386,,,8,0,8,0,1,,,,,,,,,
,,"[""diamond"",""no_dis"",""vert"",""up"",[99999,99999],[106,-106]]",diamond,no_dis,vert,up,"[99999,99999]","[106,-106]",,0,,,,,,001,2025-03-10_17h18.12.379,SL_base_41,2021.2.3,Win32,60.24096386,,,9,0,9,0,1,,,,,,,,,
,,"[""diamond"",""red"",""vert"",""up"",[-106,-106],[150,0]]",diamond,red,vert,up,"[-106,-106]","[150,0]",,0,,,,,,001,2025-03-10_17h18.12.379,SL_base_41,2021.2.3,Win32,60.24096386,,,10,0,10,0,1,,,,,,,,,
,,"[""circle"",""green"",""hori"",""left"",[150,0],[106,106]]",circle,green,hori,left,"[150,0]","[106,106]",up,0,,,,,,001,2025-03-10_17h18.12.379,SL_base_41,2021.2.3,Win32,60.24096386,,,11,0,11,0,1,1.0453,,,,,,,,
,,"[""diamond"",""red"",""hori"",""left"",[-106,106],[-106,-106]]",diamond,red,hori,left,"[-106,106]","[-106,-106]",,0,,,,,,001,2025-03-10_17h18.12.379,SL_base_41,2021.2.3,Win32,60.24096386,,,12,0,12,0,1,,,,,,,,,
,,"[""diamond"",""red"",""hori"",""left"",[-106,106],[0,-150]]",diamond,red,hori,left,"[-106,106]","[0,-150]",left,1,,,,,,001,2025-03-10_17h18.12.379,SL_base_41,2021.2.3,Win32,60.24096386,,,13,0,13,0,1,2.6105,,,,,,,,
,,"[""diamond"",""green"",""hori"",""left"",[0,150],[-106,106]]",diamond,green,hori,left,"[0,150]","[-106,106]",left,1,,,,,,001,2025-03-10_17h18.12.379,SL_base_41,2021.2.3,Win32,60.24096386,,,14,0,14,0,1,2.0733,,,,,,,,
,,"[""circle"",""no_dis"",""hori"",""left"",[99999,99999],[-106,-106]]",circle,no_dis,hori,left,"[99999,99999]","[-106,-106]",left,1,,,,,,001,2025-03-10_17h18.12.379,SL_base_41,2021.2.3,Win32,60.24096386,,,15,0,15,0,1,1.4489,,,,,,,,
,,"[""circle"",""no_dis"",""hori"",""left"",[99999,99999],[0,150]]",circle,no_dis,hori,left,"[99999,99999]","[0,150]",up,0,,,,,,001,2025-03-10_17h18.12.379,SL_base_41,2021.2.3,Win32,60.24096386,,,16,0,16,0,1,1.2551,,,,,,,,
,,"[""circle"",""green"",""vert"",""up"",[-150,0],[106,106]]",circle,green,vert,up,"[-150,0]","[106,106]",up,1,,,,,,001,2025-03-10_17h18.12.379,SL_base_41,2021.2.3,Win32,60.24096386,,,17,0,17,0,1,1.7022,,,,,,,,
,,"[""diamond"",""green"",""vert"",""up"",[0,150],[-106,-106]]",diamond,green,vert,up,"[0,150]","[-106,-106]",left,0,,,,,,001,2025-03-10_17h18.12.379,SL_base_41,2021.2.3,Win32,60.24096386,,,18,0,18,0,1,1.614,,,,,,,,
,,"[""circle"",""green"",""hori"",""left"",[-106,106],[106,-106]]",circle,green,hori,left,"[-106,106]","[106,-106]",up,0,,,,,,001,2025-03-10_17h18.12.379,SL_base_41,2021.2.3,Win32,60.24096386,,,19,0,19,0,1,1.0964,,,,,,,,
,,"[""diamond"",""no_dis"",""hori"",""left"",[99999,99999],[0,-150]]",diamond,no_dis,hori,left,"[99999,99999]","[0,-150]",left,1,,,,,,001,2025-03-10_17h18.12.379,SL_base_41,2021.2.3,Win32,60.24096386,,,20,0,20,0,1,1.7107,,,,,,,,
,,"[""diamond"",""red"",""vert"",""up"",[-106,106],[106,-106]]",diamond,red,vert,up,"[-106,106]","[106,-106]",up,1,,,,,,001,2025-03-10_17h18.12.379,SL_base_41,2021.2.3,Win32,60.24096386,,,21,0,21,0,1,2.0142,,,,,,,,
,,"[""diamond"",""red"",""vert"",""up"",[0,-150],[150,0]]",diamond,red,vert,up,"[0,-150]","[150,0]",up,1,,,,,,001,2025-03-10_17h18.12.379,SL_base_41,2021.2.3,Win32,60.24096386,,,22,0,22,0,1,1.7044,,,,,,,,
,,"[""circle"",""no_dis"",""vert"",""up"",[99999,99999],[-106,-106]]",circle,no_dis,vert,up,"[99999,99999]","[-106,-106]",left,0,,,,,,001,2025-03-10_17h18.12.379,SL_base_41,2021.2.3,Win32,60.24096386,,,23,0,23,0,1,1.6424,,,,,,,,
,,"[""diamond"",""no_dis"",""vert"",""up"",[99999,99999],[0,150]]",diamond,no_dis,vert,up,"[99999,99999]","[0,150]",up,1,,,,,,001,2025-03-10_17h18.12.379,SL_base_41,2021.2.3,Win32,60.24096386,,,24,0,24,0,1,1.4041,,,,,,,,
,,"[""diamond"",""red"",""vert"",""up"",[0,-150],[-106,106]]",diamond,red,vert,up,"[0,-150]","[-106,106]",up,1,,,,,,001,2025-03-10_17h18.12.379,SL_base_41,2021.2.3,Win32,60.24096386,,,25,0,25,0,1,1.3819,,,,,,,,
,,"[""circle"",""no_dis"",""hori"",""left"",[99999,99999],[-150,0]]",circle,no_dis,hori,left,"[99999,99999]","[-150,0]",up,0,,,,,,001,2025-03-10_17h18.12.379,SL_base_41,2021.2.3,Win32,60.24096386,,,26,0,26,0,1,1.4354,,,,,,,,
,,"[""circle"",""green"",""vert"",""up"",[-106,-106],[0,-150]]",circle,green,vert,up,"[-106,-106]","[0,-150]",up,1,,,,,,001,2025-03-10_17h18.12.379,SL_base_41,2021.2.3,Win32,60.24096386,,,27,0,27,0,1,1.5172,,,,,,,,
,,"[""circle"",""red"",""hori"",""left"",[0,-150],[-106,106]]",circle,red,hori,left,"[0,-150]","[-106,106]",left,1,,,,,,001,2025-03-10_17h18.12.379,SL_base_41,2021.2.3,Win32,60.24096386,,,28,0,28,0,1,1.6214,,,,,,,,
,,"[""circle"",""green"",""vert"",""up"",[-106,106],[106,106]]",circle,green,vert,up,"[-106,106]","[106,106]",left,0,,,,,,001,2025-03-10_17h18.12.379,SL_base_41,2021.2.3,Win32,60.24096386,,,29,0,29,0,1,1.6664,,,,,,,,
,,"[""circle"",""no_dis"",""hori"",""left"",[99999,99999],[0,150]]",circle,no_dis,hori,left,"[99999,99999]","[0,150]",left,1,,,,,,001,2025-03-10_17h18.12.379,SL_base_41,2021.2.3,Win32,60.24096386,,,30,0,30,0,1,1.8608,,,,,,,,
,,"[""diamond"",""no_dis"",""vert"",""up"",[99999,99999],[-106,-106]]",diamond,no_dis,vert,up,"[99999,99999]","[-106,-106]",up,1,,,,,,001,2025-03-10_17h18.12.379,SL_base_41,2021.2.3,Win32,60.24096386,,,31,0,31,0,1,1.7413,,,,,,,,
,,"[""diamond"",""red"",""hori"",""left"",[150,0],[106,-106]]",diamond,red,hori,left,"[150,0]","[106,-106]",up,0,,,,,,001,2025-03-10_17h18.12.379,SL_base_41,2021.2.3,Win32,60.24096386,,,32,0,32,0,1,1.6421,,,,,,,,
,,"[""diamond"",""no_dis"",""hori"",""left"",[99999,99999],[106,-106]]",diamond,no_dis,hori,left,"[99999,99999]","[106,-106]",left,1,,,,,,001,2025-03-10_17h18.12.379,SL_base_41,2021.2.3,Win32,60.24096386,,,33,0,33,0,1,1.4597,,,,,,,,
,,"[""circle"",""green"",""hori"",""left"",[106,106],[-106,106]]",circle,green,hori,left,"[106,106]","[-106,106]",left,1,,,,,,001,2025-03-10_17h18.12.379,SL_base_41,2021.2.3,Win32,60.24096386,,,34,0,34,0,1,1.3987,,,,,,,,
,,"[""circle"",""red"",""hori"",""left"",[0,-150],[-106,-106]]",circle,red,hori,left,"[0,-150]","[-106,-106]",left,1,,,,,,001,2025-03-10_17h18.12.379,SL_base_41,2021.2.3,Win32,60.24096386,,,35,0,35,0,1,2.5693,,,,,,,,
,,"[""diamond"",""green"",""hori"",""left"",[106,-106],[-106,-106]]",diamond,green,hori,left,"[106,-106]","[-106,-106]",left,1,,,,,,001,2025-03-10_17h18.12.379,SL_base_41,2021.2.3,Win32,60.24096386,,,36,0,36,0,1,1.9902,,,,,,,,
,,"[""diamond"",""green"",""vert"",""up"",[-106,106],[0,-150]]",diamond,green,vert,up,"[-106,106]","[0,-150]",up,1,,,,,,001,2025-03-10_17h18.12.379,SL_base_41,2021.2.3,Win32,60.24096386,,,37,0,37,0,1,1.1984,,,,,,,,
,,"[""diamond"",""no_dis"",""vert"",""up"",[99999,99999],[150,0]]",diamond,no_dis,vert,up,"[99999,99999]","[150,0]",up,1,,,,,,001,2025-03-10_17h18.12.379,SL_base_41,2021.2.3,Win32,60.24096386,,,38,0,38,0,1,1.3437,,,,,,,,
,,"[""circle"",""no_dis"",""hori"",""left"",[99999,99999],[-106,106]]",circle,no_dis,hori,left,"[99999,99999]","[-106,106]",left,1,,,,,,001,2025-03-10_17h18.12.379,SL_base_41,2021.2.3,Win32,60.24096386,,,39,0,39,0,1,2.0741,,,,,,,,
,,"[""circle"",""red"",""vert"",""up"",[-106,106],[0,-150]]",circle,red,vert,up,"[-106,106]","[0,-150]",left,0,,,,,,001,2025-03-10_17h18.12.379,SL_base_41,2021.2.3,Win32,60.24096386,,,40,0,40,0,1,1.4955,,,,,,,,
,,"[""diamond"",""green"",""vert"",""up"",[-106,106],[106,106]]",diamond,green,vert,up,"[-106,106]","[106,106]",up,1,,,,,,001,2025-03-10_17h18.12.379,SL_base_41,2021.2.3,Win32,60.24096386,,,41,0,41,0,1,2.269,,,,,,,,
,,"[""circle"",""red"",""vert"",""up"",[0,-150],[150,0]]",circle,red,vert,up,"[0,-150]","[150,0]",left,0,,,,,,001,2025-03-10_17h18.12.379,SL_base_41,2021.2.3,Win32,60.24096386,,,42,0,42,0,1,1.9518,,,,,,,,
,,"[""circle"",""green"",""hori"",""left"",[-106,106],[106,-106]]",circle,green,hori,left,"[-106,106]","[106,-106]",up,0,,,,,,001,2025-03-10_17h18.12.379,SL_base_41,2021.2.3,Win32,60.24096386,,,43,0,43,0,1,1.3888,,,,,,,,
,,"[""circle"",""red"",""hori"",""left"",[150,0],[-106,-106]]",circle,red,hori,left,"[150,0]","[-106,-106]",left,1,,,,,,001,2025-03-10_17h18.12.379,SL_base_41,2021.2.3,Win32,60.24096386,,,44,0,44,0,1,2.028,,,,,,,,
,,"[""diamond"",""no_dis"",""hori"",""left"",[99999,99999],[-106,106]]",diamond,no_dis,hori,left,"[99999,99999]","[-106,106]",left,1,,,,,,001,2025-03-10_17h18.12.379,SL_base_41,2021.2.3,Win32,60.24096386,,,45,0,45,0,1,2.1092,,,,,,,,
,,"[""circle"",""red"",""vert"",""up"",[106,-106],[-106,106]]",circle,red,vert,up,"[106,-106]","[-106,106]",left,0,,,,,,001,2025-03-10_17h18.12.379,SL_base_41,2021.2.3,Win32,60.24096386,,,46,0,46,0,1,1.5103,,,,,,,,
,,"[""diamond"",""green"",""hori"",""left"",[-106,106],[106,-106]]",diamond,green,hori,left,"[-106,106]","[106,-106]",left,1,,,,,,001,2025-03-10_17h18.12.379,SL_base_41,2021.2.3,Win32,60.24096386,,,47,0,47,0,1,1.9186,,,,,,,,
,,"[""diamond"",""green"",""vert"",""up"",[-106,106],[-106,-106]]",diamond,green,vert,up,"[-106,106]","[-106,-106]",up,1,,,,,,001,2025-03-10_17h18.12.379,SL_base_41,2021.2.3,Win32,60.24096386,,,48,0,48,0,1,1.3498,,,,,,,,
,,"[""diamond"",""red"",""hori"",""left"",[-150,0],[-106,-106]]",diamond,red,hori,left,"[-150,0]","[-106,-106]",left,1,,,,,,001,2025-03-10_17h18.12.379,SL_base_41,2021.2.3,Win32,60.24096386,,,49,0,49,0,1,1.2917,,,,,,,,
,,"[""diamond"",""red"",""hori"",""left"",[-106,106],[150,0]]",diamond,red,hori,left,"[-106,106]","[150,0]",left,1,,,,,,001,2025-03-10_17h18.12.379,SL_base_41,2021.2.3,Win32,60.24096386,,,50,0,50,0,1,1.3409,,,,,,,,
,,"[""diamond"",""no_dis"",""hori"",""left"",[99999,99999],[0,-150]]",diamond,no_dis,hori,left,"[99999,99999]","[0,-150]",left,1,,,,,,001,2025-03-10_17h18.12.379,SL_base_41,2021.2.3,Win32,60.24096386,,,51,0,51,0,1,0.9135,,,,,,,,
,,"[""diamond"",""red"",""vert"",""up"",[-106,106],[106,106]]",diamond,red,vert,up,"[-106,106]","[106,106]",up,1,,,,,,001,2025-03-10_17h18.12.379,SL_base_41,2021.2.3,Win32,60.24096386,,,52,0,52,0,1,1.1545,,,,,,,,
,,"[""diamond"",""red"",""hori"",""left"",[0,150],[150,0]]",diamond,red,hori,left,"[0,150]","[150,0]",left,1,,,,,,001,2025-03-10_17h18.12.379,SL_base_41,2021.2.3,Win32,60.24096386,,,53,0,53,0,1,1.2813,,,,,,,,
,,"[""circle"",""red"",""hori"",""left"",[-106,106],[-150,0]]",circle,red,hori,left,"[-106,106]","[-150,0]",up,0,,,,,,001,2025-03-10_17h18.12.379,SL_base_41,2021.2.3,Win32,60.24096386,,,54,0,54,0,1,2.3278,,,,,,,,
,,"[""diamond"",""red"",""vert"",""up"",[106,-106],[150,0]]",diamond,red,vert,up,"[106,-106]","[150,0]",up,1,,,,,,001,2025-03-10_17h18.12.379,SL_base_41,2021.2.3,Win32,60.24096386,,,55,0,55,0,1,1.7644,,,,,,,,
,,"[""diamond"",""red"",""hori"",""left"",[106,-106],[106,106]]",diamond,red,hori,left,"[106,-106]","[106,106]",left,1,,,,,,001,2025-03-10_17h18.12.379,SL_base_41,2021.2.3,Win32,60.24096386,,,56,0,56,0,1,1.3067,,,,,,,,
,,"[""diamond"",""no_dis"",""hori"",""left"",[99999,99999],[150,0]]",diamond,no_dis,hori,left,"[99999,99999]","[150,0]",left,1,,,,,,001,2025-03-10_17h18.12.379,SL_base_41,2021.2.3,Win32,60.24096386,,,57,0,57,0,1,0.935,,,,,,,,
,,"[""circle"",""green"",""vert"",""up"",[-150,0],[0,150]]",circle,green,vert,up,"[-150,0]","[0,150]",up,1,,,,,,001,2025-03-10_17h18.12.379,SL_base_41,2021.2.3,Win32,60.24096386,,,58,0,58,0,1,2.3088,,,,,,,,
,,"[""circle"",""green"",""vert"",""up"",[-150,0],[0,-150]]",circle,green,vert,up,"[-150,0]","[0,-150]",up,1,,,,,,001,2025-03-10_17h18.12.379,SL_base_41,2021.2.3,Win32,60.24096386,,,59,0,59,0,1,1.7619,,,,,,,,
,,"[""circle"",""no_dis"",""vert"",""up"",[99999,99999],[106,-106]]",circle,no_dis,vert,up,"[99999,99999]","[106,-106]",up,1,,,,,,001,2025-03-10_17h18.12.379,SL_base_41,2021.2.3,Win32,60.24096386,,,60,0,60,0,1,1.6723,,,,,,,,
,,"[""diamond"",""no_dis"",""hori"",""left"",[99999,99999],[-106,106]]",diamond,no_dis,hori,left,"[99999,99999]","[-106,106]",left,1,,,,,,001,2025-03-10_17h18.12.379,SL_base_41,2021.2.3,Win32,60.24096386,,,61,0,61,0,1,1.6739,,,,,,,,
,,"[""diamond"",""red"",""hori"",""left"",[-106,106],[0,-150]]",diamond,red,hori,left,"[-106,106]","[0,-150]",left,1,,,,,,001,2025-03-10_17h18.12.379,SL_base_41,2021.2.3,Win32,60.24096386,,,62,0,62,0,1,1.1319,,,,,,,,
,,"[""diamond"",""green"",""hori"",""left"",[-106,106],[0,-150]]",diamond,green,hori,left,"[-106,106]","[0,-150]",left,1,,,,,,001,2025-03-10_17h18.12.379,SL_base_41,2021.2.3,Win32,60.24096386,,,63,0,63,0,1,0.967,,,,,,,,
,,"[""diamond"",""green"",""vert"",""up"",[-106,106],[0,150]]",diamond,green,vert,up,"[-106,106]","[0,150]",up,1,,,,,,001,2025-03-10_17h18.12.379,SL_base_41,2021.2.3,Win32,60.24096386,,,64,0,64,0,1,0.9461,,,,,,,,
,,"[""circle"",""no_dis"",""vert"",""up"",[99999,99999],[106,106]]",circle,no_dis,vert,up,"[99999,99999]","[106,106]",up,1,,,,,,001,2025-03-10_17h18.12.379,SL_base_41,2021.2.3,Win32,60.24096386,,,65,0,65,0,1,2.3172,,,,,,,,
,,"[""circle"",""green"",""hori"",""left"",[0,150],[-106,106]]",circle,green,hori,left,"[0,150]","[-106,106]",up,0,,,,,,001,2025-03-10_17h18.12.379,SL_base_41,2021.2.3,Win32,60.24096386,,,66,0,66,0,1,0.8012,,,,,,,,
,,"[""diamond"",""no_dis"",""hori"",""left"",[99999,99999],[0,150]]",diamond,no_dis,hori,left,"[99999,99999]","[0,150]",left,1,,,,,,001,2025-03-10_17h18.12.379,SL_base_41,2021.2.3,Win32,60.24096386,,,67,0,67,0,1,1.7413,,,,,,,,
,,"[""circle"",""red"",""hori"",""left"",[-106,-106],[106,-106]]",circle,red,hori,left,"[-106,-106]","[106,-106]",left,1,,,,,,001,2025-03-10_17h18.12.379,SL_base_41,2021.2.3,Win32,60.24096386,,,68,0,68,0,1,1.3957,,,,,,,,
,,"[""diamond"",""green"",""hori"",""left"",[0,-150],[-106,-106]]",diamond,green,hori,left,"[0,-150]","[-106,-106]",left,1,,,,,,001,2025-03-10_17h18.12.379,SL_base_41,2021.2.3,Win32,60.24096386,,,69,0,69,0,1,1.6763,,,,,,,,
,,"[""diamond"",""no_dis"",""vert"",""up"",[99999,99999],[0,-150]]",diamond,no_dis,vert,up,"[99999,99999]","[0,-150]",up,1,,,,,,001,2025-03-10_17h18.12.379,SL_base_41,2021.2.3,Win32,60.24096386,,,70,0,70,0,1,1.4169,,,,,,,,
,,"[""diamond"",""no_dis"",""vert"",""up"",[99999,99999],[0,-150]]",diamond,no_dis,vert,up,"[99999,99999]","[0,-150]",up,1,,,,,,001,2025-03-10_17h18.12.379,SL_base_41,2021.2.3,Win32,60.24096386,,,71,0,71,0,1,0.765,,,,,,,,
,,"[""circle"",""no_dis"",""vert"",""up"",[99999,99999],[-106,-106]]",circle,no_dis,vert,up,"[99999,99999]","[-106,-106]",left,0,,,,,,001,2025-03-10_17h18.12.379,SL_base_41,2021.2.3,Win32,60.24096386,,,72,0,72,0,1,1.8861,,,,,,,,
,,"[""circle"",""no_dis"",""vert"",""up"",[99999,99999],[106,-106]]",circle,no_dis,vert,up,"[99999,99999]","[106,-106]",up,1,,,,,,001,2025-03-10_17h18.12.379,SL_base_41,2021.2.3,Win32,60.24096386,,,73,0,73,0,1,1.7339,,,,,,,,
,,"[""circle"",""no_dis"",""hori"",""left"",[99999,99999],[150,0]]",circle,no_dis,hori,left,"[99999,99999]","[150,0]",left,1,,,,,,001,2025-03-10_17h18.12.379,SL_base_41,2021.2.3,Win32,60.24096386,,,74,0,74,0,1,1.8668,,,,,,,,
,,"[""diamond"",""red"",""vert"",""up"",[-106,106],[0,-150]]",diamond,red,vert,up,"[-106,106]","[0,-150]",up,1,,,,,,001,2025-03-10_17h18.12.379,SL_base_41,2021.2.3,Win32,60.24096386,,,75,0,75,0,1,1.3549,,,,,,,,
,,"[""diamond"",""no_dis"",""vert"",""up"",[99999,99999],[0,150]]",diamond,no_dis,vert,up,"[99999,99999]","[0,150]",up,1,,,,,,001,2025-03-10_17h18.12.379,SL_base_41,2021.2.3,Win32,60.24096386,,,76,0,76,0,1,1.2048,,,,,,,,
,,"[""circle"",""green"",""vert"",""up"",[106,106],[-106,106]]",circle,green,vert,up,"[106,106]","[-106,106]",up,1,,,,,,001,2025-03-10_17h18.12.379,SL_base_41,2021.2.3,Win32,60.24096386,,,77,0,77,0,1,1.1237,,,,,,,,
,,"[""circle"",""green"",""hori"",""left"",[-150,0],[106,-106]]",circle,green,hori,left,"[-150,0]","[106,-106]",left,1,,,,,,001,2025-03-10_17h18.12.379,SL_base_41,2021.2.3,Win32,60.24096386,,,78,0,78,0,1,1.3336,,,,,,,,
,,"[""circle"",""green"",""hori"",""left"",[-106,106],[0,150]]",circle,green,hori,left,"[-106,106]","[0,150]",left,1,,,,,,001,2025-03-10_17h18.12.379,SL_base_41,2021.2.3,Win32,60.24096386,,,79,0,79,0,1,1.018,,,,,,,,
,,"[""circle"",""green"",""hori"",""left"",[-106,106],[0,-150]]",circle,green,hori,left,"[-106,106]","[0,-150]",up,0,,,,,,001,2025-03-10_17h18.12.379,SL_base_41,2021.2.3,Win32,60.24096386,,,80,0,80,0,1,1.1104,,,,,,,,
,,"[""diamond"",""red"",""vert"",""up"",[-106,-106],[0,-150]]",diamond,red,vert,up,"[-106,-106]","[0,-150]",up,1,,,,,,001,2025-03-10_17h18.12.379,SL_base_41,2021.2.3,Win32,60.24096386,,,81,0,81,0,1,2.0854,,,,,,,,
,,"[""circle"",""green"",""vert"",""up"",[0,-150],[-150,0]]",circle,green,vert,up,"[0,-150]","[-150,0]",left,0,,,,,,001,2025-03-10_17h18.12.379,SL_base_41,2021.2.3,Win32,60.24096386,,,82,0,82,0,1,1.9851,,,,,,,,
,,"[""diamond"",""red"",""hori"",""left"",[-150,0],[106,106]]",diamond,red,hori,left,"[-150,0]","[106,106]",left,1,,,,,,001,2025-03-10_17h18.12.379,SL_base_41,2021.2.3,Win32,60.24096386,,,83,0,83,0,1,1.4138,,,,,,,,
,,"[""diamond"",""no_dis"",""hori"",""left"",[99999,99999],[-150,0]]",diamond,no_dis,hori,left,"[99999,99999]","[-150,0]",left,1,,,,,,001,2025-03-10_17h18.12.379,SL_base_41,2021.2.3,Win32,60.24096386,,,84,0,84,0,1,1.0527,,,,,,,,
,,"[""circle"",""no_dis"",""hori"",""left"",[99999,99999],[106,106]]",circle,no_dis,hori,left,"[99999,99999]","[106,106]",left,1,,,,,,001,2025-03-10_17h18.12.379,SL_base_41,2021.2.3,Win32,60.24096386,,,85,0,85,0,1,1.9345,,,,,,,,
,,"[""diamond"",""green"",""hori"",""left"",[-106,106],[106,-106]]",diamond,green,hori,left,"[-106,106]","[106,-106]",left,1,,,,,,001,2025-03-10_17h18.12.379,SL_base_41,2021.2.3,Win32,60.24096386,,,86,0,86,0,1,1.3598,,,,,,,,
,,"[""circle"",""red"",""hori"",""left"",[106,106],[-106,106]]",circle,red,hori,left,"[106,106]","[-106,106]",left,1,,,,,,001,2025-03-10_17h18.12.379,SL_base_41,2021.2.3,Win32,60.24096386,,,87,0,87,0,1,1.1383,,,,,,,,
,,"[""circle"",""green"",""vert"",""up"",[-106,106],[-106,-106]]",circle,green,vert,up,"[-106,106]","[-106,-106]",left,0,,,,,,001,2025-03-10_17h18.12.379,SL_base_41,2021.2.3,Win32,60.24096386,,,88,0,88,0,1,1.9187,,,,,,,,
,,"[""circle"",""no_dis"",""hori"",""left"",[99999,99999],[-106,106]]",circle,no_dis,hori,left,"[99999,99999]","[-106,106]",left,1,,,,,,001,2025-03-10_17h18.12.379,SL_base_41,2021.2.3,Win32,60.24096386,,,89,0,89,0,1,2.1175,,,,,,,,
,,"[""diamond"",""green"",""hori"",""left"",[0,150],[-106,106]]",diamond,green,hori,left,"[0,150]","[-106,106]",left,1,,,,,,001,2025-03-10_17h18.12.379,SL_base_41,2021.2.3,Win32,60.24096386,,,90,0,90,0,1,1.4995,,,,,,,,
,,"[""diamond"",""green"",""hori"",""left"",[-106,-106],[0,150]]",diamond,green,hori,left,"[-106,-106]","[0,150]",left,1,,,,,,001,2025-03-10_17h18.12.379,SL_base_41,2021.2.3,Win32,60.24096386,,,91,0,91,0,1,1.3729,,,,,,,,
,,"[""circle"",""no_dis"",""vert"",""up"",[99999,99999],[106,-106]]",circle,no_dis,vert,up,"[99999,99999]","[106,-106]",up,1,,,,,,001,2025-03-10_17h18.12.379,SL_base_41,2021.2.3,Win32,60.24096386,,,92,0,92,0,1,2.3429,,,,,,,,
,,"[""diamond"",""no_dis"",""hori"",""left"",[99999,99999],[106,106]]",diamond,no_dis,hori,left,"[99999,99999]","[106,106]",left,1,,,,,,001,2025-03-10_17h18.12.379,SL_base_41,2021.2.3,Win32,60.24096386,,,93,0,93,0,1,1.5011,,,,,,,,
,,"[""diamond"",""red"",""vert"",""up"",[150,0],[0,150]]",diamond,red,vert,up,"[150,0]","[0,150]",up,1,,,,,,001,2025-03-10_17h18.12.379,SL_base_41,2021.2.3,Win32,60.24096386,,,94,0,94,0,1,1.561,,,,,,,,
,,"[""diamond"",""red"",""vert"",""up"",[-106,-106],[-150,0]]",diamond,red,vert,up,"[-106,-106]","[-150,0]",up,1,,,,,,001,2025-03-10_17h18.12.379,SL_base_41,2021.2.3,Win32,60.24096386,,,95,0,95,0,1,1.1391,,,,,,,,
,,"[""diamond"",""no_dis"",""vert"",""up"",[99999,99999],[0,-150]]",diamond,no_dis,vert,up,"[99999,99999]","[0,-150]",up,1,,,,,,001,2025-03-10_17h18.12.379,SL_base_41,2021.2.3,Win32,60.24096386,,,96,0,96,0,1,0.8528,,,,,,,,
,,"[""circle"",""green"",""hori"",""left"",[-106,106],[-106,-106]]",circle,green,hori,left,"[-106,106]","[-106,-106]",left,1,,,,,,001,2025-03-10_17h18.12.379,SL_base_41,2021.2.3,Win32,60.24096386,,,97,0,97,0,1,2.1776,,,,,,,,
,,"[""circle"",""red"",""hori"",""left"",[-106,106],[-150,0]]",circle,red,hori,left,"[-106,106]","[-150,0]",left,1,,,,,,001,2025-03-10_17h18.12.379,SL_base_41,2021.2.3,Win32,60.24096386,,,98,0,98,0,1,1.9561,,,,,,,,
,,"[""diamond"",""no_dis"",""hori"",""left"",[99999,99999],[-150,0]]",diamond,no_dis,hori,left,"[99999,99999]","[-150,0]",left,1,,,,,,001,2025-03-10_17h18.12.379,SL_base_41,2021.2.3,Win32,60.24096386,,,99,0,99,0,1,1.6903,,,,,,,,
,,"[""diamond"",""red"",""hori"",""left"",[-106,106],[0,150]]",diamond,red,hori,left,"[-106,106]","[0,150]",left,1,,,,,,001,2025-03-10_17h18.12.379,SL_base_41,2021.2.3,Win32,60.24096386,,,100,0,100,0,1,1.5655,,,,,,,,
,,"[""circle"",""no_dis"",""vert"",""up"",[99999,99999],[150,0]]",circle,no_dis,vert,up,"[99999,99999]","[150,0]",left,0,,,,,,001,2025-03-10_17h18.12.379,SL_base_41,2021.2.3,Win32,60.24096386,,,101,0,101,0,1,1.9629,,,,,,,,
,,"[""circle"",""no_dis"",""vert"",""up"",[99999,99999],[-106,106]]",circle,no_dis,vert,up,"[99999,99999]","[-106,106]",left,0,,,,,,001,2025-03-10_17h18.12.379,SL_base_41,2021.2.3,Win32,60.24096386,,,102,0,102,0,1,1.6935,,,,,,,,
,,"[""circle"",""red"",""vert"",""up"",[-106,-106],[0,-150]]",circle,red,vert,up,"[-106,-106]","[0,-150]",left,0,,,,,,001,2025-03-10_17h18.12.379,SL_base_41,2021.2.3,Win32,60.24096386,,,103,0,103,0,1,2.3014,,,,,,,,
,,"[""circle"",""red"",""hori"",""left"",[-106,106],[0,-150]]",circle,red,hori,left,"[-106,106]","[0,-150]",up,0,,,,,,001,2025-03-10_17h18.12.379,SL_base_41,2021.2.3,Win32,60.24096386,,,104,0,104,0,1,1.7429,,,,,,,,
,,"[""diamond"",""green"",""vert"",""up"",[-106,106],[106,-106]]",diamond,green,vert,up,"[-106,106]","[106,-106]",up,1,,,,,,001,2025-03-10_17h18.12.379,SL_base_41,2021.2.3,Win32,60.24096386,,,105,0,105,0,1,1.3356,,,,,,,,
,,"[""diamond"",""no_dis"",""vert"",""up"",[99999,99999],[-150,0]]",diamond,no_dis,vert,up,"[99999,99999]","[-150,0]",up,1,,,,,,001,2025-03-10_17h18.12.379,SL_base_41,2021.2.3,Win32,60.24096386,,,106,0,106,0,1,1.0519,,,,,,,,
,,"[""circle"",""red"",""hori"",""left"",[150,0],[-150,0]]",circle,red,hori,left,"[150,0]","[-150,0]",left,1,,,,,,001,2025-03-10_17h18.12.379,SL_base_41,2021.2.3,Win32,60.24096386,,,107,0,107,0,1,1.2038,,,,,,,,
,,"[""circle"",""red"",""vert"",""up"",[-106,106],[0,-150]]",circle,red,vert,up,"[-106,106]","[0,-150]",left,0,,,,,,001,2025-03-10_17h18.12.379,SL_base_41,2021.2.3,Win32,60.24096386,,,108,0,108,0,1,0.8352,,,,,,,,
,,"[""circle"",""red"",""hori"",""left"",[0,150],[150,0]]",circle,red,hori,left,"[0,150]","[150,0]",up,0,,,,,,001,2025-03-10_17h18.12.379,SL_base_41,2021.2.3,Win32,60.24096386,,,109,0,109,0,1,1.7734,,,,,,,,
,,"[""diamond"",""no_dis"",""vert"",""up"",[99999,99999],[150,0]]",diamond,no_dis,vert,up,"[99999,99999]","[150,0]",up,1,,,,,,001,2025-03-10_17h18.12.379,SL_base_41,2021.2.3,Win32,60.24096386,,,110,0,110,0,1,1.4196,,,,,,,,
,,"[""circle"",""green"",""hori"",""left"",[106,106],[-106,106]]",circle,green,hori,left,"[106,106]","[-106,106]",up,0,,,,,,001,2025-03-10_17h18.12.379,SL_base_41,2021.2.3,Win32,60.24096386,,,111,0,111,0,1,1.8798,,,,,,,,
,,"[""circle"",""red"",""vert"",""up"",[0,150],[-106,106]]",circle,red,vert,up,"[0,150]","[-106,106]",up,1,,,,,,001,2025-03-10_17h18.12.379,SL_base_41,2021.2.3,Win32,60.24096386,,,112,0,112,0,1,2.5813,,,,,,,,
,,"[""diamond"",""green"",""vert"",""up"",[150,0],[0,150]]",diamond,green,vert,up,"[150,0]","[0,150]",up,1,,,,,,001,2025-03-10_17h18.12.379,SL_base_41,2021.2.3,Win32,60.24096386,,,113,0,113,0,1,1.8487,,,,,,,,
,,"[""diamond"",""green"",""hori"",""left"",[150,0],[-106,-106]]",diamond,green,hori,left,"[150,0]","[-106,-106]",left,1,,,,,,001,2025-03-10_17h18.12.379,SL_base_41,2021.2.3,Win32,60.24096386,,,114,0,114,0,1,1.4936,,,,,,,,
,,"[""circle"",""no_dis"",""vert"",""up"",[99999,99999],[106,106]]",circle,no_dis,vert,up,"[99999,99999]","[106,106]",left,0,,,,,,001,2025-03-10_17h18.12.379,SL_base_41,2021.2.3,Win32,60.24096386,,,115,0,115,0,1,1.4607,,,,,,,,
,,"[""circle"",""red"",""hori"",""left"",[106,-106],[0,150]]",circle,red,hori,left,"[106,-106]","[0,150]",up,0,,,,,,001,2025-03-10_17h18.12.379,SL_base_41,2021.2.3,Win32,60.24096386,,,116,0,116,0,1,1.0388,,,,,,,,
,,"[""diamond"",""red"",""hori"",""left"",[0,-150],[0,150]]",diamond,red,hori,left,"[0,-150]","[0,150]",left,1,,,,,,001,2025-03-10_17h18.12.379,SL_base_41,2021.2.3,Win32,60.24096386,,,117,0,117,0,1,1.2523,,,,,,,,
,,"[""diamond"",""green"",""vert"",""up"",[-106,106],[106,-106]]",diamond,green,vert,up,"[-106,106]","[106,-106]",up,1,,,,,,001,2025-03-10_17h18.12.379,SL_base_41,2021.2.3,Win32,60.24096386,,,118,0,118,0,1,1.064,,,,,,,,
,,"[""circle"",""green"",""vert"",""up"",[106,106],[-106,106]]",circle,green,vert,up,"[106,106]","[-106,106]",left,0,,,,,,001,2025-03-10_17h18.12.379,SL_base_41,2021.2.3,Win32,60.24096386,,,119,0,119,0,1,1.5027,,,,,,,,
,,"[""circle"",""no_dis"",""vert"",""up"",[99999,99999],[-150,0]]",circle,no_dis,vert,up,"[99999,99999]","[-150,0]",up,1,,,,,,001,2025-03-10_17h18.12.379,SL_base_41,2021.2.3,Win32,60.24096386,,,120,0,120,0,1,1.6732,,,,,,,,
,,"[""circle"",""red"",""vert"",""up"",[-106,106],[-106,-106]]",circle,red,vert,up,"[-106,106]","[-106,-106]",up,1,,,,,,001,2025-03-10_17h18.12.379,SL_base_41,2021.2.3,Win32,60.24096386,,,121,0,121,0,1,1.7035,,,,,,,,
,,"[""diamond"",""green"",""hori"",""left"",[106,106],[-106,106]]",diamond,green,hori,left,"[106,106]","[-106,106]",left,1,,,,,,001,2025-03-10_17h18.12.379,SL_base_41,2021.2.3,Win32,60.24096386,,,122,0,122,0,1,1.5584,,,,,,,,
,,"[""circle"",""no_dis"",""hori"",""left"",[99999,99999],[106,106]]",circle,no_dis,hori,left,"[99999,99999]","[106,106]",left,1,,,,,,001,2025-03-10_17h18.12.379,SL_base_41,2021.2.3,Win32,60.24096386,,,123,0,123,0,1,1.6183,,,,,,,,
,,"[""circle"",""no_dis"",""hori"",""left"",[99999,99999],[-106,-106]]",circle,no_dis,hori,left,"[99999,99999]","[-106,-106]",left,1,,,,,,001,2025-03-10_17h18.12.379,SL_base_41,2021.2.3,Win32,60.24096386,,,124,0,124,0,1,1.9593,,,,,,,,
,,"[""diamond"",""green"",""vert"",""up"",[-106,106],[0,150]]",diamond,green,vert,up,"[-106,106]","[0,150]",up,1,,,,,,001,2025-03-10_17h18.12.379,SL_base_41,2021.2.3,Win32,60.24096386,,,125,0,125,0,1,1.2211,,,,,,,,
,,"[""circle"",""green"",""hori"",""left"",[0,150],[-150,0]]",circle,green,hori,left,"[0,150]","[-150,0]",left,1,,,,,,001,2025-03-10_17h18.12.379,SL_base_41,2021.2.3,Win32,60.24096386,,,126,0,126,0,1,1.5099,,,,,,,,
,,"[""diamond"",""green"",""hori"",""left"",[150,0],[106,106]]",diamond,green,hori,left,"[150,0]","[106,106]",left,1,,,,,,001,2025-03-10_17h18.12.379,SL_base_41,2021.2.3,Win32,60.24096386,,,127,0,127,0,1,1.41,,,,,,,,
,,,,,,,,,,,,,,,,001,2025-03-10_17h18.12.379,SL_base_41,2021.2.3,Win32,60.24096386,,,,,,,,,1,space,57.9734,0,0,0,0,1
,,"[""diamond"",""green"",""hori"",""left"",[0,150],[-106,106]]",diamond,green,hori,left,"[0,150]","[-106,106]",left,1,,,,,,001,2025-03-10_17h18.12.379,SL_base_41,2021.2.3,Win32,60.24096386,,,0,0,0,0,1,2.0807,,,,,,,,
,,"[""diamond"",""no_dis"",""vert"",""up"",[99999,99999],[0,-150]]",diamond,no_dis,vert,up,"[99999,99999]","[0,-150]",up,1,,,,,,001,2025-03-10_17h18.12.379,SL_base_41,2021.2.3,Win32,60.24096386,,,1,0,1,0,1,1.0147,,,,,,,,
,,"[""diamond"",""green"",""hori"",""left"",[0,-150],[-106,-106]]",diamond,green,hori,left,"[0,-150]","[-106,-106]",left,1,,,,,,001,2025-03-10_17h18.12.379,SL_base_41,2021.2.3,Win32,60.24096386,,,2,0,2,0,1,1.1479,,,,,,,,
,,"[""circle"",""no_dis"",""vert"",""up"",[99999,99999],[106,-106]]",circle,no_dis,vert,up,"[99999,99999]","[106,-106]",left,0,,,,,,001,2025-03-10_17h18.12.379,SL_base_41,2021.2.3,Win32,60.24096386,,,3,0,3,0,1,1.851,,,,,,,,
,,"[""circle"",""green"",""vert"",""up"",[-106,106],[-106,-106]]",circle,green,vert,up,"[-106,106]","[-106,-106]",up,1,,,,,,001,2025-03-10_17h18.12.379,SL_base_41,2021.2.3,Win32,60.24096386,,,4,0,4,0,1,0.7327,,,,,,,,
,,"[""diamond"",""red"",""hori"",""left"",[150,0],[106,-106]]",diamond,red,hori,left,"[150,0]","[106,-106]",left,1,,,,,,001,2025-03-10_17h18.12.379,SL_base_41,2021.2.3,Win32,60.24096386,,,5,0,5,0,1,1.3731,,,,,,,,
,,"[""circle"",""red"",""vert"",""up"",[-106,106],[0,-150]]",circle,red,vert,up,"[-106,106]","[0,-150]",left,0,,,,,,001,2025-03-10_17h18.12.379,SL_base_41,2021.2.3,Win32,60.24096386,,,6,0,6,0,1,1.7941,,,,,,,,
,,"[""diamond"",""green"",""hori"",""left"",[150,0],[106,106]]",diamond,green,hori,left,"[150,0]","[106,106]",left,1,,,,,,001,2025-03-10_17h18.12.379,SL_base_41,2021.2.3,Win32,60.24096386,,,7,0,7,0,1,1.2154,,,,,,,,
,,"[""circle"",""red"",""hori"",""left"",[150,0],[-150,0]]",circle,red,hori,left,"[150,0]","[-150,0]",up,0,,,,,,001,2025-03-10_17h18.12.379,SL_base_41,2021.2.3,Win32,60.24096386,,,8,0,8,0,1,1.4117,,,,,,,,
,,"[""circle"",""red"",""vert"",""up"",[0,150],[-106,106]]",circle,red,vert,up,"[0,150]","[-106,106]",left,0,,,,,,001,2025-03-10_17h18.12.379,SL_base_41,2021.2.3,Win32,60.24096386,,,9,0,9,0,1,1.8622,,,,,,,,
,,"[""circle"",""no_dis"",""hori"",""left"",[99999,99999],[106,106]]",circle,no_dis,hori,left,"[99999,99999]","[106,106]",left,1,,,,,,001,2025-03-10_17h18.12.379,SL_base_41,2021.2.3,Win32,60.24096386,,,10,0,10,0,1,2.8181,,,,,,,,
,,"[""circle"",""red"",""hori"",""left"",[0,150],[150,0]]",circle,red,hori,left,"[0,150]","[150,0]",left,1,,,,,,001,2025-03-10_17h18.12.379,SL_base_41,2021.2.3,Win32,60.24096386,,,11,0,11,0,1,2.4922,,,,,,,,
,,"[""circle"",""green"",""vert"",""up"",[106,106],[-106,106]]",circle,green,vert,up,"[106,106]","[-106,106]",left,0,,,,,,001,2025-03-10_17h18.12.379,SL_base_41,2021.2.3,Win32,60.24096386,,,12,0,12,0,1,1.8972,,,,,,,,
,,"[""circle"",""no_dis"",""hori"",""left"",[99999,99999],[150,0]]",circle,no_dis,hori,left,"[99999,99999]","[150,0]",up,0,,,,,,001,2025-03-10_17h18.12.379,SL_base_41,2021.2.3,Win32,60.24096386,,,13,0,13,0,1,2.5403,,,,,,,,
,,"[""circle"",""red"",""vert"",""up"",[-106,106],[-106,-106]]",circle,red,vert,up,"[-106,106]","[-106,-106]",left,0,,,,,,001,2025-03-10_17h18.12.379,SL_base_41,2021.2.3,Win32,60.24096386,,,14,0,14,0,1,0.8248,,,,,,,,
,,"[""circle"",""green"",""hori"",""left"",[0,150],[-150,0]]",circle,green,hori,left,"[0,150]","[-150,0]",up,0,,,,,,001,2025-03-10_17h18.12.379,SL_base_41,2021.2.3,Win32,60.24096386,,,15,0,15,0,1,1.5683,,,,,,,,
,,"[""circle"",""no_dis"",""hori"",""left"",[99999,99999],[-106,106]]",circle,no_dis,hori,left,"[99999,99999]","[-106,106]",left,1,,,,,,001,2025-03-10_17h18.12.379,SL_base_41,2021.2.3,Win32,60.24096386,,,16,0,16,0,1,1.6895,,,,,,,,
,,"[""circle"",""red"",""hori"",""left"",[-106,106],[-150,0]]",circle,red,hori,left,"[-106,106]","[-150,0]",up,0,,,,,,001,2025-03-10_17h18.12.379,SL_base_41,2021.2.3,Win32,60.24096386,,,17,0,17,0,1,1.8367,,,,,,,,
,,"[""circle"",""red"",""vert"",""up"",[-106,-106],[106,106]]",circle,red,vert,up,"[-106,-106]","[106,106]",up,1,,,,,,001,2025-03-10_17h18.12.379,SL_base_41,2021.2.3,Win32,60.24096386,,,18,0,18,0,1,1.8208,,,,,,,,
,,"[""diamond"",""green"",""hori"",""left"",[-106,-106],[0,150]]",diamond,green,hori,left,"[-106,-106]","[0,150]",left,1,,,,,,001,2025-03-10_17h18.12.379,SL_base_41,2021.2.3,Win32,60.24096386,,,19,0,19,0,1,1.5317,,,,,,,,
,,"[""circle"",""no_dis"",""hori"",""left"",[99999,99999],[-150,0]]",circle,no_dis,hori,left,"[99999,99999]","[-150,0]",up,0,,,,,,001,2025-03-10_17h18.12.379,SL_base_41,2021.2.3,Win32,60.24096386,,,20,0,20,0,1,1.9573,,,,,,,,
,,"[""circle"",""red"",""vert"",""up"",[106,106],[-106,106]]",circle,red,vert,up,"[106,106]","[-106,106]",up,1,,,,,,001,2025-03-10_17h18.12.379,SL_base_41,2021.2.3,Win32,60.24096386,,,21,0,21,0,1,0.9532,,,,,,,,
,,"[""circle"",""red"",""vert"",""up"",[-150,0],[0,150]]",circle,red,vert,up,"[-150,0]","[0,150]",left,0,,,,,,001,2025-03-10_17h18.12.379,SL_base_41,2021.2.3,Win32,60.24096386,,,22,0,22,0,1,1.6828,,,,,,,,
,,"[""circle"",""no_dis"",""vert"",""up"",[99999,99999],[106,-106]]",circle,no_dis,vert,up,"[99999,99999]","[106,-106]",up,1,,,,,,001,2025-03-10_17h18.12.379,SL_base_41,2021.2.3,Win32,60.24096386,,,23,0,23,0,1,2.278,,,,,,,,
,,"[""diamond"",""green"",""vert"",""up"",[-106,106],[106,106]]",diamond,green,vert,up,"[-106,106]","[106,106]",up,1,,,,,,001,2025-03-10_17h18.12.379,SL_base_41,2021.2.3,Win32,60.24096386,,,24,0,24,0,1,1.2584,,,,,,,,
,,"[""diamond"",""no_dis"",""vert"",""up"",[99999,99999],[0,-150]]",diamond,no_dis,vert,up,"[99999,99999]","[0,-150]",up,1,,,,,,001,2025-03-10_17h18.12.379,SL_base_41,2021.2.3,Win32,60.24096386,,,25,0,25,0,1,2.0895,,,,,,,,
,,"[""circle"",""green"",""vert"",""up"",[106,-106],[150,0]]",circle,green,vert,up,"[106,-106]","[150,0]",left,0,,,,,,001,2025-03-10_17h18.12.379,SL_base_41,2021.2.3,Win32,60.24096386,,,26,0,26,0,1,2.1241,,,,,,,,
,,"[""circle"",""no_dis"",""vert"",""up"",[99999,99999],[106,106]]",circle,no_dis,vert,up,"[99999,99999]","[106,106]",up,1,,,,,,001,2025-03-10_17h18.12.379,SL_base_41,2021.2.3,Win32,60.24096386,,,27,0,27,0,1,1.7772,,,,,,,,
,,"[""circle"",""red"",""hori"",""left"",[-106,106],[0,-150]]",circle,red,hori,left,"[-106,106]","[0,-150]",left,1,,,,,,001,2025-03-10_17h18.12.379,SL_base_41,2021.2.3,Win32,60.24096386,,,28,0,28,0,1,1.3675,,,,,,,,
,,"[""circle"",""red"",""hori"",""left"",[-106,-106],[106,-106]]",circle,red,hori,left,"[-106,-106]","[106,-106]",left,1,,,,,,001,2025-03-10_17h18.12.379,SL_base_41,2021.2.3,Win32,60.24096386,,,29,0,29,0,1,1.8092,,,,,,,,
,,"[""diamond"",""red"",""hori"",""left"",[-106,106],[150,0]]",diamond,red,hori,left,"[-106,106]","[150,0]",left,1,,,,,,001,2025-03-10_17h18.12.379,SL_base_41,2021.2.3,Win32,60.24096386,,,30,0,30,0,1,1.5496,,,,,,,,
,,"[""circle"",""green"",""hori"",""left"",[-106,106],[0,150]]",circle,green,hori,left,"[-106,106]","[0,150]",left,1,,,,,,001,2025-03-10_17h18.12.379,SL_base_41,2021.2.3,Win32,60.24096386,,,31,0,31,0,1,1.8668,,,,,,,,
,,"[""diamond"",""red"",""vert"",""up"",[-106,106],[106,106]]",diamond,red,vert,up,"[-106,106]","[106,106]",up,1,,,,,,001,2025-03-10_17h18.12.379,SL_base_41,2021.2.3,Win32,60.24096386,,,32,0,32,0,1,2.1432,,,,,,,,
,,"[""circle"",""red"",""hori"",""left"",[106,106],[-106,106]]",circle,red,hori,left,"[106,106]","[-106,106]",left,1,,,,,,001,2025-03-10_17h18.12.379,SL_base_41,2021.2.3,Win32,60.24096386,,,33,0,33,0,1,2.7238,,,,,,,,
,,"[""circle"",""green"",""hori"",""left"",[-106,106],[0,-150]]",circle,green,hori,left,"[-106,106]","[0,-150]",up,0,,,,,,001,2025-03-10_17h18.12.379,SL_base_41,2021.2.3,Win32,60.24096386,,,34,0,34,0,1,1.7885,,,,,,,,
,,"[""diamond"",""red"",""hori"",""left"",[-150,0],[106,106]]",diamond,red,hori,left,"[-150,0]","[106,106]",left,1,,,,,,001,2025-03-10_17h18.12.379,SL_base_41,2021.2.3,Win32,60.24096386,,,35,0,35,0,1,1.1221,,,,,,,,
,,"[""circle"",""green"",""vert"",""up"",[-106,-106],[0,-150]]",circle,green,vert,up,"[-106,-106]","[0,-150]",left,0,,,,,,001,2025-03-10_17h18.12.379,SL_base_41,2021.2.3,Win32,60.24096386,,,36,0,36,0,1,1.2998,,,,,,,,
,,"[""diamond"",""red"",""hori"",""left"",[-106,106],[0,-150]]",diamond,red,hori,left,"[-106,106]","[0,-150]",left,1,,,,,,001,2025-03-10_17h18.12.379,SL_base_41,2021.2.3,Win32,60.24096386,,,37,0,37,0,1,1.6413,,,,,,,,
,,"[""diamond"",""no_dis"",""vert"",""up"",[99999,99999],[0,150]]",diamond,no_dis,vert,up,"[99999,99999]","[0,150]",up,1,,,,,,001,2025-03-10_17h18.12.379,SL_base_41,2021.2.3,Win32,60.24096386,,,38,0,38,0,1,0.9929,,,,,,,,
,,"[""circle"",""green"",""hori"",""left"",[150,0],[106,106]]",circle,green,hori,left,"[150,0]","[106,106]",up,0,,,,,,001,2025-03-10_17h18.12.379,SL_base_41,2021.2.3,Win32,60.24096386,,,39,0,39,0,1,0.6422,,,,,,,,
,,"[""circle"",""no_dis"",""hori"",""left"",[99999,99999],[0,150]]",circle,no_dis,hori,left,"[99999,99999]","[0,150]",left,1,,,,,,001,2025-03-10_17h18.12.379,SL_base_41,2021.2.3,Win32,60.24096386,,,40,0,40,0,1,1.3668,,,,,,,,
,,"[""diamond"",""red"",""vert"",""up"",[-106,-106],[150,0]]",diamond,red,vert,up,"[-106,-106]","[150,0]",up,1,,,,,,001,2025-03-10_17h18.12.379,SL_base_41,2021.2.3,Win32,60.24096386,,,41,0,41,0,1,1.7511,,,,,,,,
,,"[""circle"",""red"",""vert"",""up"",[-150,0],[-106,-106]]",circle,red,vert,up,"[-150,0]","[-106,-106]",left,0,,,,,,001,2025-03-10_17h18.12.379,SL_base_41,2021.2.3,Win32,60.24096386,,,42,0,42,0,1,2.0346,,,,,,,,
,,"[""circle"",""green"",""vert"",""up"",[-150,0],[0,150]]",circle,green,vert,up,"[-150,0]","[0,150]",up,1,,,,,,001,2025-03-10_17h18.12.379,SL_base_41,2021.2.3,Win32,60.24096386,,,43,0,43,0,1,1.4524,,,,,,,,
,,"[""circle"",""green"",""vert"",""up"",[106,106],[-106,106]]",circle,green,vert,up,"[106,106]","[-106,106]",left,0,,,,,,001,2025-03-10_17h18.12.379,SL_base_41,2021.2.3,Win32,60.24096386,,,44,0,44,0,1,1.0746,,,,,,,,
,,"[""diamond"",""no_dis"",""vert"",""up"",[99999,99999],[150,0]]",diamond,no_dis,vert,up,"[99999,99999]","[150,0]",up,1,,,,,,001,2025-03-10_17h18.12.379,SL_base_41,2021.2.3,Win32,60.24096386,,,45,0,45,0,1,1.4121,,,,,,,,
,,"[""diamond"",""no_dis"",""vert"",""up"",[99999,99999],[-106,-106]]",diamond,no_dis,vert,up,"[99999,99999]","[-106,-106]",up,1,,,,,,001,2025-03-10_17h18.12.379,SL_base_41,2021.2.3,Win32,60.24096386,,,46,0,46,0,1,1.8501,,,,,,,,
,,"[""diamond"",""red"",""hori"",""left"",[-106,106],[0,150]]",diamond,red,hori,left,"[-106,106]","[0,150]",left,1,,,,,,001,2025-03-10_17h18.12.379,SL_base_41,2021.2.3,Win32,60.24096386,,,47,0,47,0,1,1.4368,,,,,,,,
,,"[""circle"",""green"",""vert"",""up"",[-150,0],[0,-150]]",circle,green,vert,up,"[-150,0]","[0,-150]",left,0,,,,,,001,2025-03-10_17h18.12.379,SL_base_41,2021.2.3,Win32,60.24096386,,,48,0,48,0,1,1.1026,,,,,,,,
,,"[""diamond"",""red"",""hori"",""left"",[-106,106],[0,-150]]",diamond,red,hori,left,"[-106,106]","[0,-150]",left,1,,,,,,001,2025-03-10_17h18.12.379,SL_base_41,2021.2.3,Win32,60.24096386,,,49,0,49,0,1,1.0111,,,,,,,,
,,"[""circle"",""red"",""vert"",""up"",[-106,-106],[0,-150]]",circle,red,vert,up,"[-106,-106]","[0,-150]",left,0,,,,,,001,2025-03-10_17h18.12.379,SL_base_41,2021.2.3,Win32,60.24096386,,,50,0,50,0,1,1.9244,,,,,,,,
,,"[""diamond"",""green"",""hori"",""left"",[-106,106],[0,-150]]",diamond,green,hori,left,"[-106,106]","[0,-150]",left,1,,,,,,001,2025-03-10_17h18.12.379,SL_base_41,2021.2.3,Win32,60.24096386,,,51,0,51,0,1,0.7717,,,,,,,,
,,"[""diamond"",""red"",""vert"",""up"",[106,-106],[150,0]]",diamond,red,vert,up,"[106,-106]","[150,0]",up,1,,,,,,001,2025-03-10_17h18.12.379,SL_base_41,2021.2.3,Win32,60.24096386,,,52,0,52,0,1,1.7489,,,,,,,,
,,"[""diamond"",""green"",""vert"",""up"",[-106,106],[0,150]]",diamond,green,vert,up,"[-106,106]","[0,150]",up,1,,,,,,001,2025-03-10_17h18.12.379,SL_base_41,2021.2.3,Win32,60.24096386,,,53,0,53,0,1,1.7673,,,,,,,,
,,"[""circle"",""green"",""vert"",""up"",[106,106],[-106,106]]",circle,green,vert,up,"[106,106]","[-106,106]",up,1,,,,,,001,2025-03-10_17h18.12.379,SL_base_41,2021.2.3,Win32,60.24096386,,,54,0,54,0,1,2.4695,,,,,,,,
,,"[""diamond"",""no_dis"",""hori"",""left"",[99999,99999],[-106,106]]",diamond,no_dis,hori,left,"[99999,99999]","[-106,106]",left,1,,,,,,001,2025-03-10_17h18.12.379,SL_base_41,2021.2.3,Win32,60.24096386,,,55,0,55,0,1,2.5185,,,,,,,,
,,"[""diamond"",""red"",""vert"",""up"",[-106,-106],[0,-150]]",diamond,red,vert,up,"[-106,-106]","[0,-150]",up,1,,,,,,001,2025-03-10_17h18.12.379,SL_base_41,2021.2.3,Win32,60.24096386,,,56,0,56,0,1,1.9416,,,,,,,,
,,"[""circle"",""no_dis"",""vert"",""up"",[99999,99999],[-106,106]]",circle,no_dis,vert,up,"[99999,99999]","[-106,106]",left,0,,,,,,001,2025-03-10_17h18.12.379,SL_base_41,2021.2.3,Win32,60.24096386,,,57,0,57,0,1,2.1896,,,,,,,,
,,"[""circle"",""green"",""hori"",""left"",[-106,106],[106,-106]]",circle,green,hori,left,"[-106,106]","[106,-106]",left,1,,,,,,001,2025-03-10_17h18.12.379,SL_base_41,2021.2.3,Win32,60.24096386,,,58,0,58,0,1,2.1081,,,,,,,,
,,"[""diamond"",""green"",""hori"",""left"",[106,106],[-106,106]]",diamond,green,hori,left,"[106,106]","[-106,106]",left,1,,,,,,001,2025-03-10_17h18.12.379,SL_base_41,2021.2.3,Win32,60.24096386,,,59,0,59,0,1,1.7915,,,,,,,,
,,"[""diamond"",""green"",""hori"",""left"",[0,150],[-106,106]]",diamond,green,hori,left,"[0,150]","[-106,106]",left,1,,,,,,001,2025-03-10_17h18.12.379,SL_base_41,2021.2.3,Win32,60.24096386,,,60,0,60,0,1,1.5255,,,,,,,,
,,"[""circle"",""green"",""hori"",""left"",[-106,106],[106,-106]]",circle,green,hori,left,"[-106,106]","[106,-106]",,0,,,,,,001,2025-03-10_17h18.12.379,SL_base_41,2021.2.3,Win32,60.24096386,,,61,0,61,0,1,,,,,,,,,
,,"[""diamond"",""no_dis"",""hori"",""left"",[99999,99999],[106,106]]",diamond,no_dis,hori,left,"[99999,99999]","[106,106]",left,1,,,,,,001,2025-03-10_17h18.12.379,SL_base_41,2021.2.3,Win32,60.24096386,,,62,0,62,0,1,1.3073,,,,,,,,
,,"[""diamond"",""no_dis"",""vert"",""up"",[99999,99999],[106,-106]]",diamond,no_dis,vert,up,"[99999,99999]","[106,-106]",up,1,,,,,,001,2025-03-10_17h18.12.379,SL_base_41,2021.2.3,Win32,60.24096386,,,63,0,63,0,1,1.1008,,,,,,,,
,,"[""circle"",""no_dis"",""vert"",""up"",[99999,99999],[150,0]]",circle,no_dis,vert,up,"[99999,99999]","[150,0]",up,1,,,,,,001,2025-03-10_17h18.12.379,SL_base_41,2021.2.3,Win32,60.24096386,,,64,0,64,0,1,1.8588,,,,,,,,
,,"[""circle"",""green"",""hori"",""left"",[-106,106],[-106,-106]]",circle,green,hori,left,"[-106,106]","[-106,-106]",up,0,,,,,,001,2025-03-10_17h18.12.379,SL_base_41,2021.2.3,Win32,60.24096386,,,65,0,65,0,1,1.8388,,,,,,,,
,,"[""circle"",""red"",""vert"",""up"",[-106,106],[0,-150]]",circle,red,vert,up,"[-106,106]","[0,-150]",left,0,,,,,,001,2025-03-10_17h18.12.379,SL_base_41,2021.2.3,Win32,60.24096386,,,66,0,66,0,1,1.59,,,,,,,,
,,"[""circle"",""red"",""vert"",""up"",[0,-150],[150,0]]",circle,red,vert,up,"[0,-150]","[150,0]",left,0,,,,,,001,2025-03-10_17h18.12.379,SL_base_41,2021.2.3,Win32,60.24096386,,,67,0,67,0,1,2.168,,,,,,,,
,,"[""diamond"",""green"",""vert"",""up"",[-106,106],[106,-106]]",diamond,green,vert,up,"[-106,106]","[106,-106]",up,1,,,,,,001,2025-03-10_17h18.12.379,SL_base_41,2021.2.3,Win32,60.24096386,,,68,0,68,0,1,1.3551,,,,,,,,
,,"[""diamond"",""no_dis"",""hori"",""left"",[99999,99999],[-150,0]]",diamond,no_dis,hori,left,"[99999,99999]","[-150,0]",left,1,,,,,,001,2025-03-10_17h18.12.379,SL_base_41,2021.2.3,Win32,60.24096386,,,69,0,69,0,1,1.3014,,,,,,,,
,,"[""diamond"",""green"",""vert"",""up"",[106,-106],[106,106]]",diamond,green,vert,up,"[106,-106]","[106,106]",up,1,,,,,,001,2025-03-10_17h18.12.379,SL_base_41,2021.2.3,Win32,60.24096386,,,70,0,70,0,1,1.0343,,,,,,,,
,,"[""diamond"",""red"",""vert"",""up"",[106,-106],[150,0]]",diamond,red,vert,up,"[106,-106]","[150,0]",up,1,,,,,,001,2025-03-10_17h18.12.379,SL_base_41,2021.2.3,Win32,60.24096386,,,71,0,71,0,1,1.4698,,,,,,,,
,,"[""diamond"",""green"",""vert"",""up"",[-106,106],[0,-150]]",diamond,green,vert,up,"[-106,106]","[0,-150]",left,0,,,,,,001,2025-03-10_17h18.12.379,SL_base_41,2021.2.3,Win32,60.24096386,,,72,0,72,0,1,1.9099,,,,,,,,
,,"[""circle"",""red"",""hori"",""left"",[0,-150],[-106,106]]",circle,red,hori,left,"[0,-150]","[-106,106]",left,1,,,,,,001,2025-03-10_17h18.12.379,SL_base_41,2021.2.3,Win32,60.24096386,,,73,0,73,0,1,2.2582,,,,,,,,
,,"[""circle"",""red"",""hori"",""left"",[150,0],[-106,-106]]",circle,red,hori,left,"[150,0]","[-106,-106]",left,1,,,,,,001,2025-03-10_17h18.12.379,SL_base_41,2021.2.3,Win32,60.24096386,,,74,0,74,0,1,2.2376,,,,,,,,
,,"[""diamond"",""red"",""vert"",""up"",[0,-150],[-106,106]]",diamond,red,vert,up,"[0,-150]","[-106,106]",up,1,,,,,,001,2025-03-10_17h18.12.379,SL_base_41,2021.2.3,Win32,60.24096386,,,75,0,75,0,1,2.3005,,,,,,,,
,,"[""diamond"",""red"",""vert"",""up"",[-106,106],[106,-106]]",diamond,red,vert,up,"[-106,106]","[106,-106]",up,1,,,,,,001,2025-03-10_17h18.12.379,SL_base_41,2021.2.3,Win32,60.24096386,,,76,0,76,0,1,1.3925,,,,,,,,
,,"[""circle"",""red"",""hori"",""left"",[-106,106],[-150,0]]",circle,red,hori,left,"[-106,106]","[-150,0]",left,1,,,,,,001,2025-03-10_17h18.12.379,SL_base_41,2021.2.3,Win32,60.24096386,,,77,0,77,0,1,2.5944,,,,,,,,
,,"[""diamond"",""red"",""vert"",""up"",[0,-150],[150,0]]",diamond,red,vert,up,"[0,-150]","[150,0]",up,1,,,,,,001,2025-03-10_17h18.12.379,SL_base_41,2021.2.3,Win32,60.24096386,,,78,0,78,0,1,2.0927,,,,,,,,
,,"[""circle"",""no_dis"",""hori"",""left"",[99999,99999],[106,106]]",circle,no_dis,hori,left,"[99999,99999]","[106,106]",up,0,,,,,,001,2025-03-10_17h18.12.379,SL_base_41,2021.2.3,Win32,60.24096386,,,79,0,79,0,1,2.2375,,,,,,,,
,,"[""diamond"",""no_dis"",""vert"",""up"",[99999,99999],[0,-150]]",diamond,no_dis,vert,up,"[99999,99999]","[0,-150]",up,1,,,,,,001,2025-03-10_17h18.12.379,SL_base_41,2021.2.3,Win32,60.24096386,,,80,0,80,0,1,1.6153,,,,,,,,
,,"[""circle"",""no_dis"",""hori"",""left"",[99999,99999],[-106,-106]]",circle,no_dis,hori,left,"[99999,99999]","[-106,-106]",left,1,,,,,,001,2025-03-10_17h18.12.379,SL_base_41,2021.2.3,Win32,60.24096386,,,81,0,81,0,1,2.19,,,,,,,,
,,"[""diamond"",""no_dis"",""hori"",""left"",[99999,99999],[0,-150]]",diamond,no_dis,hori,left,"[99999,99999]","[0,-150]",left,1,,,,,,001,2025-03-10_17h18.12.379,SL_base_41,2021.2.3,Win32,60.24096386,,,82,0,82,0,1,1.8196,,,,,,,,
,,"[""diamond"",""green"",""vert"",""up"",[-106,106],[106,106]]",diamond,green,vert,up,"[-106,106]","[106,106]",up,1,,,,,,001,2025-03-10_17h18.12.379,SL_base_41,2021.2.3,Win32,60.24096386,,,83,0,83,0,1,1.7153,,,,,,,,
,,"[""diamond"",""red"",""hori"",""left"",[-150,0],[-106,-106]]",diamond,red,hori,left,"[-150,0]","[-106,-106]",left,1,,,,,,001,2025-03-10_17h18.12.379,SL_base_41,2021.2.3,Win32,60.24096386,,,84,0,84,0,1,1.2005,,,,,,,,
,,"[""diamond"",""no_dis"",""hori"",""left"",[99999,99999],[0,150]]",diamond,no_dis,hori,left,"[99999,99999]","[0,150]",left,1,,,,,,001,2025-03-10_17h18.12.379,SL_base_41,2021.2.3,Win32,60.24096386,,,85,0,85,0,1,1.2241,,,,,,,,
,,"[""diamond"",""no_dis"",""hori"",""left"",[99999,99999],[-106,106]]",diamond,no_dis,hori,left,"[99999,99999]","[-106,106]",left,1,,,,,,001,2025-03-10_17h18.12.379,SL_base_41,2021.2.3,Win32,60.24096386,,,86,0,86,0,1,1.121,,,,,,,,
,,"[""circle"",""red"",""hori"",""left"",[0,-150],[-106,-106]]",circle,red,hori,left,"[0,-150]","[-106,-106]",left,1,,,,,,001,2025-03-10_17h18.12.379,SL_base_41,2021.2.3,Win32,60.24096386,,,87,0,87,0,1,2.7544,,,,,,,,
,,"[""circle"",""green"",""hori"",""left"",[0,150],[-106,106]]",circle,green,hori,left,"[0,150]","[-106,106]",left,1,,,,,,001,2025-03-10_17h18.12.379,SL_base_41,2021.2.3,Win32,60.24096386,,,88,0,88,0,1,2.2803,,,,,,,,
,,"[""circle"",""no_dis"",""vert"",""up"",[99999,99999],[-106,-106]]",circle,no_dis,vert,up,"[99999,99999]","[-106,-106]",up,1,,,,,,001,2025-03-10_17h18.12.379,SL_base_41,2021.2.3,Win32,60.24096386,,,89,0,89,0,1,2.4692,,,,,,,,
,,"[""circle"",""no_dis"",""hori"",""left"",[99999,99999],[0,150]]",circle,no_dis,hori,left,"[99999,99999]","[0,150]",left,1,,,,,,001,2025-03-10_17h18.12.379,SL_base_41,2021.2.3,Win32,60.24096386,,,90,0,90,0,1,2.0066,,,,,,,,
,,"[""circle"",""green"",""vert"",""up"",[-106,106],[106,106]]",circle,green,vert,up,"[-106,106]","[106,106]",left,0,,,,,,001,2025-03-10_17h18.12.379,SL_base_41,2021.2.3,Win32,60.24096386,,,91,0,91,0,1,2.0879,,,,,,,,
,,"[""diamond"",""no_dis"",""hori"",""left"",[99999,99999],[-150,0]]",diamond,no_dis,hori,left,"[99999,99999]","[-150,0]",left,1,,,,,,001,2025-03-10_17h18.12.379,SL_base_41,2021.2.3,Win32,60.24096386,,,92,0,92,0,1,1.1671,,,,,,,,
,,"[""circle"",""no_dis"",""vert"",""up"",[99999,99999],[106,106]]",circle,no_dis,vert,up,"[99999,99999]","[106,106]",up,1,,,,,,001,2025-03-10_17h18.12.379,SL_base_41,2021.2.3,Win32,60.24096386,,,93,0,93,0,1,2.1863,,,,,,,,
,,"[""diamond"",""no_dis"",""hori"",""left"",[99999,99999],[0,-150]]",diamond,no_dis,hori,left,"[99999,99999]","[0,-150]",left,1,,,,,,001,2025-03-10_17h18.12.379,SL_base_41,2021.2.3,Win32,60.24096386,,,94,0,94,0,1,2.2352,,,,,,,,
,,"[""diamond"",""red"",""vert"",""up"",[-106,106],[0,-150]]",diamond,red,vert,up,"[-106,106]","[0,-150]",up,1,,,,,,001,2025-03-10_17h18.12.379,SL_base_41,2021.2.3,Win32,60.24096386,,,95,0,95,0,1,1.9545,,,,,,,,
,,"[""diamond"",""red"",""hori"",""left"",[0,-150],[0,150]]",diamond,red,hori,left,"[0,-150]","[0,150]",left,1,,,,,,001,2025-03-10_17h18.12.379,SL_base_41,2021.2.3,Win32,60.24096386,,,96,0,96,0,1,1.1359,,,,,,,,
,,"[""diamond"",""red"",""vert"",""up"",[-106,-106],[-150,0]]",diamond,red,vert,up,"[-106,-106]","[-150,0]",up,1,,,,,,001,2025-03-10_17h18.12.379,SL_base_41,2021.2.3,Win32,60.24096386,,,97,0,97,0,1,1.2354,,,,,,,,
,,"[""diamond"",""red"",""hori"",""left"",[-106,106],[-106,-106]]",diamond,red,hori,left,"[-106,106]","[-106,-106]",left,1,,,,,,001,2025-03-10_17h18.12.379,SL_base_41,2021.2.3,Win32,60.24096386,,,98,0,98,0,1,1.1914,,,,,,,,
,,"[""diamond"",""green"",""hori"",""left"",[-106,106],[106,-106]]",diamond,green,hori,left,"[-106,106]","[106,-106]",left,1,,,,,,001,2025-03-10_17h18.12.379,SL_base_41,2021.2.3,Win32,60.24096386,,,99,0,99,0,1,1.1032,,,,,,,,
,,"[""diamond"",""green"",""hori"",""left"",[-106,106],[106,-106]]",diamond,green,hori,left,"[-106,106]","[106,-106]",left,1,,,,,,001,2025-03-10_17h18.12.379,SL_base_41,2021.2.3,Win32,60.24096386,,,100,0,100,0,1,0.8578,,,,,,,,
,,"[""circle"",""no_dis"",""vert"",""up"",[99999,99999],[-150,0]]",circle,no_dis,vert,up,"[99999,99999]","[-150,0]",up,1,,,,,,001,2025-03-10_17h18.12.379,SL_base_41,2021.2.3,Win32,60.24096386,,,101,0,101,0,1,2.3355,,,,,,,,
,,"[""diamond"",""green"",""vert"",""up"",[-106,106],[-106,-106]]",diamond,green,vert,up,"[-106,106]","[-106,-106]",up,1,,,,,,001,2025-03-10_17h18.12.379,SL_base_41,2021.2.3,Win32,60.24096386,,,102,0,102,0,1,1.0103,,,,,,,,
,,"[""diamond"",""no_dis"",""hori"",""left"",[99999,99999],[106,-106]]",diamond,no_dis,hori,left,"[99999,99999]","[106,-106]",left,1,,,,,,001,2025-03-10_17h18.12.379,SL_base_41,2021.2.3,Win32,60.24096386,,,103,0,103,0,1,1.1537,,,,,,,,
,,"[""diamond"",""green"",""hori"",""left"",[106,-106],[-106,-106]]",diamond,green,hori,left,"[106,-106]","[-106,-106]",left,1,,,,,,001,2025-03-10_17h18.12.379,SL_base_41,2021.2.3,Win32,60.24096386,,,104,0,104,0,1,1.0185,,,,,,,,
,,"[""circle"",""green"",""hori"",""left"",[-150,0],[106,-106]]",circle,green,hori,left,"[-150,0]","[106,-106]",up,0,,,,,,001,2025-03-10_17h18.12.379,SL_base_41,2021.2.3,Win32,60.24096386,,,105,0,105,0,1,1.6543,,,,,,,,
,,"[""diamond"",""green"",""vert"",""up"",[150,0],[0,150]]",diamond,green,vert,up,"[150,0]","[0,150]",up,1,,,,,,001,2025-03-10_17h18.12.379,SL_base_41,2021.2.3,Win32,60.24096386,,,106,0,106,0,1,0.8416,,,,,,,,
,,"[""diamond"",""no_dis"",""vert"",""up"",[99999,99999],[-150,0]]",diamond,no_dis,vert,up,"[99999,99999]","[-150,0]",up,1,,,,,,001,2025-03-10_17h18.12.379,SL_base_41,2021.2.3,Win32,60.24096386,,,107,0,107,0,1,1.6398,,,,,,,,
,,"[""circle"",""green"",""hori"",""left"",[106,106],[-106,106]]",circle,green,hori,left,"[106,106]","[-106,106]",left,1,,,,,,001,2025-03-10_17h18.12.379,SL_base_41,2021.2.3,Win32,60.24096386,,,108,0,108,0,1,1.9201,,,,,,,,
,,"[""diamond"",""red"",""hori"",""left"",[106,-106],[106,106]]",diamond,red,hori,left,"[106,-106]","[106,106]",left,1,,,,,,001,2025-03-10_17h18.12.379,SL_base_41,2021.2.3,Win32,60.24096386,,,109,0,109,0,1,1.4259,,,,,,,,
,,"[""diamond"",""red"",""vert"",""up"",[150,0],[0,150]]",diamond,red,vert,up,"[150,0]","[0,150]",up,1,,,,,,001,2025-03-10_17h18.12.379,SL_base_41,2021.2.3,Win32,60.24096386,,,110,0,110,0,1,1.3642,,,,,,,,
,,"[""circle"",""no_dis"",""vert"",""up"",[99999,99999],[-106,-106]]",circle,no_dis,vert,up,"[99999,99999]","[-106,-106]",up,1,,,,,,001,2025-03-10_17h18.12.379,SL_base_41,2021.2.3,Win32,60.24096386,,,111,0,111,0,1,1.9915,,,,,,,,
,,"[""diamond"",""no_dis"",""hori"",""left"",[99999,99999],[150,0]]",diamond,no_dis,hori,left,"[99999,99999]","[150,0]",left,1,,,,,,001,2025-03-10_17h18.12.379,SL_base_41,2021.2.3,Win32,60.24096386,,,112,0,112,0,1,1.3189,,,,,,,,
,,"[""diamond"",""red"",""hori"",""left"",[0,150],[150,0]]",diamond,red,hori,left,"[0,150]","[150,0]",left,1,,,,,,001,2025-03-10_17h18.12.379,SL_base_41,2021.2.3,Win32,60.24096386,,,113,0,113,0,1,1.6872,,,,,,,,
,,"[""diamond"",""no_dis"",""vert"",""up"",[99999,99999],[0,150]]",diamond,no_dis,vert,up,"[99999,99999]","[0,150]",up,1,,,,,,001,2025-03-10_17h18.12.379,SL_base_41,2021.2.3,Win32,60.24096386,,,114,0,114,0,1,1.0723,,,,,,,,
,,"[""circle"",""red"",""hori"",""left"",[106,-106],[0,150]]",circle,red,hori,left,"[106,-106]","[0,150]",up,0,,,,,,001,2025-03-10_17h18.12.379,SL_base_41,2021.2.3,Win32,60.24096386,,,115,0,115,0,1,1.4628,,,,,,,,
,,"[""circle"",""red"",""vert"",""up"",[106,-106],[-106,106]]",circle,red,vert,up,"[106,-106]","[-106,106]",left,0,,,,,,001,2025-03-10_17h18.12.379,SL_base_41,2021.2.3,Win32,60.24096386,,,116,0,116,0,1,2.3849,,,,,,,,
,,"[""circle"",""no_dis"",""vert"",""up"",[99999,99999],[106,-106]]",circle,no_dis,vert,up,"[99999,99999]","[106,-106]",left,0,,,,,,001,2025-03-10_17h18.12.379,SL_base_41,2021.2.3,Win32,60.24096386,,,117,0,117,0,1,2.6358,,,,,,,,
,,"[""circle"",""green"",""vert"",""up"",[0,-150],[-150,0]]",circle,green,vert,up,"[0,-150]","[-150,0]",left,0,,,,,,001,2025-03-10_17h18.12.379,SL_base_41,2021.2.3,Win32,60.24096386,,,118,0,118,0,1,2.6753,,,,,,,,
,,"[""diamond"",""green"",""vert"",""up"",[0,150],[-106,-106]]",diamond,green,vert,up,"[0,150]","[-106,-106]",up,1,,,,,,001,2025-03-10_17h18.12.379,SL_base_41,2021.2.3,Win32,60.24096386,,,119,0,119,0,1,0.9997,,,,,,,,
,,"[""circle"",""no_dis"",""hori"",""left"",[99999,99999],[-106,-106]]",circle,no_dis,hori,left,"[99999,99999]","[-106,-106]",up,0,,,,,,001,2025-03-10_17h18.12.379,SL_base_41,2021.2.3,Win32,60.24096386,,,120,0,120,0,1,2.3184,,,,,,,,
,,"[""circle"",""green"",""vert"",""up"",[-150,0],[106,106]]",circle,green,vert,up,"[-150,0]","[106,106]",left,0,,,,,,001,2025-03-10_17h18.12.379,SL_base_41,2021.2.3,Win32,60.24096386,,,121,0,121,0,1,1.633,,,,,,,,
,,"[""circle"",""green"",""hori"",""left"",[106,106],[-106,106]]",circle,green,hori,left,"[106,106]","[-106,106]",up,0,,,,,,001,2025-03-10_17h18.12.379,SL_base_41,2021.2.3,Win32,60.24096386,,,122,0,122,0,1,2.2247,,,,,,,,
,,"[""diamond"",""green"",""vert"",""up"",[-106,106],[106,-106]]",diamond,green,vert,up,"[-106,106]","[106,-106]",up,1,,,,,,001,2025-03-10_17h18.12.379,SL_base_41,2021.2.3,Win32,60.24096386,,,123,0,123,0,1,1.2369,,,,,,,,
,,"[""diamond"",""green"",""hori"",""left"",[150,0],[-106,-106]]",diamond,green,hori,left,"[150,0]","[-106,-106]",left,1,,,,,,001,2025-03-10_17h18.12.379,SL_base_41,2021.2.3,Win32,60.24096386,,,124,0,124,0,1,0.966,,,,,,,,
,,"[""diamond"",""green"",""vert"",""up"",[-106,106],[0,150]]",diamond,green,vert,up,"[-106,106]","[0,150]",up,1,,,,,,001,2025-03-10_17h18.12.379,SL_base_41,2021.2.3,Win32,60.24096386,,,125,0,125,0,1,0.5698,,,,,,,,
,,"[""diamond"",""no_dis"",""vert"",""up"",[99999,99999],[150,0]]",diamond,no_dis,vert,up,"[99999,99999]","[150,0]",up,1,,,,,,001,2025-03-10_17h18.12.379,SL_base_41,2021.2.3,Win32,60.24096386,,,126,0,126,0,1,0.8165,,,,,,,,
,,"[""circle"",""no_dis"",""hori"",""left"",[99999,99999],[-106,106]]",circle,no_dis,hori,left,"[99999,99999]","[-106,106]",left,1,,,,,,001,2025-03-10_17h18.12.379,SL_base_41,2021.2.3,Win32,60.24096386,,,127,0,127,0,1,2.631,,,,,,,,
,,,,,,,,,,,,,,,,001,2025-03-10_17h18.12.379,SL_base_41,2021.2.3,Win32,60.24096386,,,,,,,,,2,space,53.0248,1,0,1,0,1
,,"[""diamond"",""no_dis"",""hori"",""left"",[99999,99999],[0,150]]",diamond,no_dis,hori,left,"[99999,99999]","[0,150]",left,1,,,,,,001,2025-03-10_17h18.12.379,SL_base_41,2021.2.3,Win32,60.24096386,,,0,0,0,0,1,1.0815,,,,,,,,
,,"[""diamond"",""no_dis"",""hori"",""left"",[99999,99999],[-106,106]]",diamond,no_dis,hori,left,"[99999,99999]","[-106,106]",left,1,,,,,,001,2025-03-10_17h18.12.379,SL_base_41,2021.2.3,Win32,60.24096386,,,1,0,1,0,1,0.916,,,,,,,,
,,"[""circle"",""green"",""vert"",""up"",[-150,0],[106,106]]",circle,green,vert,up,"[-150,0]","[106,106]",left,0,,,,,,001,2025-03-10_17h18.12.379,SL_base_41,2021.2.3,Win32,60.24096386,,,2,0,2,0,1,1.9101,,,,,,,,
,,"[""circle"",""no_dis"",""vert"",""up"",[99999,99999],[-106,-106]]",circle,no_dis,vert,up,"[99999,99999]","[-106,-106]",left,0,,,,,,001,2025-03-10_17h18.12.379,SL_base_41,2021.2.3,Win32,60.24096386,,,3,0,3,0,1,2.2583,,,,,,,,
,,"[""circle"",""green"",""hori"",""left"",[106,106],[-106,106]]",circle,green,hori,left,"[106,106]","[-106,106]",left,1,,,,,,001,2025-03-10_17h18.12.379,SL_base_41,2021.2.3,Win32,60.24096386,,,4,0,4,0,1,2.0349,,,,,,,,
,,"[""circle"",""red"",""hori"",""left"",[0,-150],[-106,-106]]",circle,red,hori,left,"[0,-150]","[-106,-106]",left,1,,,,,,001,2025-03-10_17h18.12.379,SL_base_41,2021.2.3,Win32,60.24096386,,,5,0,5,0,1,2.0404,,,,,,,,
,,"[""diamond"",""red"",""hori"",""left"",[-106,106],[0,-150]]",diamond,red,hori,left,"[-106,106]","[0,-150]",left,1,,,,,,001,2025-03-10_17h18.12.379,SL_base_41,2021.2.3,Win32,60.24096386,,,6,0,6,0,1,1.4016,,,,,,,,
,,"[""diamond"",""green"",""vert"",""up"",[150,0],[0,150]]",diamond,green,vert,up,"[150,0]","[0,150]",up,1,,,,,,001,2025-03-10_17h18.12.379,SL_base_41,2021.2.3,Win32,60.24096386,,,7,0,7,0,1,0.8231,,,,,,,,
,,"[""circle"",""no_dis"",""vert"",""up"",[99999,99999],[106,106]]",circle,no_dis,vert,up,"[99999,99999]","[106,106]",left,0,,,,,,001,2025-03-10_17h18.12.379,SL_base_41,2021.2.3,Win32,60.24096386,,,8,0,8,0,1,1.8542,,,,,,,,
,,"[""circle"",""red"",""hori"",""left"",[150,0],[-150,0]]",circle,red,hori,left,"[150,0]","[-150,0]",left,1,,,,,,001,2025-03-10_17h18.12.379,SL_base_41,2021.2.3,Win32,60.24096386,,,9,0,9,0,1,2.2034,,,,,,,,
,,"[""circle"",""green"",""vert"",""up"",[106,106],[-106,106]]",circle,green,vert,up,"[106,106]","[-106,106]",up,1,,,,,,001,2025-03-10_17h18.12.379,SL_base_41,2021.2.3,Win32,60.24096386,,,10,0,10,0,1,1.5849,,,,,,,,
,,"[""diamond"",""green"",""vert"",""up"",[-106,106],[0,150]]",diamond,green,vert,up,"[-106,106]","[0,150]",up,1,,,,,,001,2025-03-10_17h18.12.379,SL_base_41,2021.2.3,Win32,60.24096386,,,11,0,11,0,1,1.4146,,,,,,,,
,,"[""diamond"",""no_dis"",""vert"",""up"",[99999,99999],[150,0]]",diamond,no_dis,vert,up,"[99999,99999]","[150,0]",up,1,,,,,,001,2025-03-10_17h18.12.379,SL_base_41,2021.2.3,Win32,60.24096386,,,12,0,12,0,1,0.9025,,,,,,,,
,,"[""circle"",""red"",""vert"",""up"",[-106,106],[0,-150]]",circle,red,vert,up,"[-106,106]","[0,-150]",left,0,,,,,,001,2025-03-10_17h18.12.379,SL_base_41,2021.2.3,Win32,60.24096386,,,13,0,13,0,1,1.9008,,,,,,,,
,,"[""circle"",""red"",""hori"",""left"",[-106,106],[-150,0]]",circle,red,hori,left,"[-106,106]","[-150,0]",up,0,,,,,,001,2025-03-10_17h18.12.379,SL_base_41,2021.2.3,Win32,60.24096386,,,14,0,14,0,1,1.4515,,,,,,,,
,,"[""diamond"",""no_dis"",""vert"",""up"",[99999,99999],[0,150]]",diamond,no_dis,vert,up,"[99999,99999]","[0,150]",up,1,,,,,,001,2025-03-10_17h18.12.379,SL_base_41,2021.2.3,Win32,60.24096386,,,15,0,15,0,1,1.4635,,,,,,,,
,,"[""circle"",""green"",""hori"",""left"",[0,150],[-150,0]]",circle,green,hori,left,"[0,150]","[-150,0]",up,0,,,,,,001,2025-03-10_17h18.12.379,SL_base_41,2021.2.3,Win32,60.24096386,,,16,0,16,0,1,2.0378,,,,,,,,
,,"[""diamond"",""red"",""vert"",""up"",[150,0],[0,150]]",diamond,red,vert,up,"[150,0]","[0,150]",up,1,,,,,,001,2025-03-10_17h18.12.379,SL_base_41,2021.2.3,Win32,60.24096386,,,17,0,17,0,1,0.9754,,,,,,,,
,,"[""circle"",""green"",""hori"",""left"",[-150,0],[106,-106]]",circle,green,hori,left,"[-150,0]","[106,-106]",left,1,,,,,,001,2025-03-10_17h18.12.379,SL_base_41,2021.2.3,Win32,60.24096386,,,18,0,18,0,1,1.9224,,,,,,,,
,,"[""diamond"",""green"",""vert"",""up"",[-106,106],[106,-106]]",diamond,green,vert,up,"[-106,106]","[106,-106]",up,1,,,,,,001,2025-03-10_17h18.12.379,SL_base_41,2021.2.3,Win32,60.24096386,,,19,0,19,0,1,1.1158,,,,,,,,
,,"[""circle"",""green"",""hori"",""left"",[-106,106],[0,-150]]",circle,green,hori,left,"[-106,106]","[0,-150]",left,1,,,,,,001,2025-03-10_17h18.12.379,SL_base_41,2021.2.3,Win32,60.24096386,,,20,0,20,0,1,2.001,,,,,,,,
,,"[""circle"",""red"",""hori"",""left"",[0,150],[150,0]]",circle,red,hori,left,"[0,150]","[150,0]",left,1,,,,,,001,2025-03-10_17h18.12.379,SL_base_41,2021.2.3,Win32,60.24096386,,,21,0,21,0,1,2.2356,,,,,,,,
,,"[""diamond"",""green"",""vert"",""up"",[-106,106],[106,106]]",diamond,green,vert,up,"[-106,106]","[106,106]",up,1,,,,,,001,2025-03-10_17h18.12.379,SL_base_41,2021.2.3,Win32,60.24096386,,,22,0,22,0,1,1.1908,,,,,,,,
,,"[""diamond"",""red"",""hori"",""left"",[-150,0],[106,106]]",diamond,red,hori,left,"[-150,0]","[106,106]",left,1,,,,,,001,2025-03-10_17h18.12.379,SL_base_41,2021.2.3,Win32,60.24096386,,,23,0,23,0,1,1.6528,,,,,,,,
,,"[""circle"",""red"",""vert"",""up"",[-150,0],[0,150]]",circle,red,vert,up,"[-150,0]","[0,150]",up,1,,,,,,001,2025-03-10_17h18.12.379,SL_base_41,2021.2.3,Win32,60.24096386,,,24,0,24,0,1,2.5208,,,,,,,,
,,"[""circle"",""no_dis"",""vert"",""up"",[99999,99999],[106,-106]]",circle,no_dis,vert,up,"[99999,99999]","[106,-106]",up,1,,,,,,001,2025-03-10_17h18.12.379,SL_base_41,2021.2.3,Win32,60.24096386,,,25,0,25,0,1,2.6791,,,,,,,,
,,"[""diamond"",""green"",""vert"",""up"",[-106,106],[-106,-106]]",diamond,green,vert,up,"[-106,106]","[-106,-106]",up,1,,,,,,001,2025-03-10_17h18.12.379,SL_base_41,2021.2.3,Win32,60.24096386,,,26,0,26,0,1,0.7817,,,,,,,,
,,"[""circle"",""red"",""hori"",""left"",[-106,106],[0,-150]]",circle,red,hori,left,"[-106,106]","[0,-150]",left,1,,,,,,001,2025-03-10_17h18.12.379,SL_base_41,2021.2.3,Win32,60.24096386,,,27,0,27,0,1,2.5621,,,,,,,,
,,"[""diamond"",""no_dis"",""vert"",""up"",[99999,99999],[150,0]]",diamond,no_dis,vert,up,"[99999,99999]","[150,0]",up,1,,,,,,001,2025-03-10_17h18.12.379,SL_base_41,2021.2.3,Win32,60.24096386,,,28,0,28,0,1,1.0222,,,,,,,,
,,"[""diamond"",""no_dis"",""hori"",""left"",[99999,99999],[106,-106]]",diamond,no_dis,hori,left,"[99999,99999]","[106,-106]",left,1,,,,,,001,2025-03-10_17h18.12.379,SL_base_41,2021.2.3,Win32,60.24096386,,,29,0,29,0,1,0.9252,,,,,,,,
,,"[""diamond"",""red"",""vert"",""up"",[0,-150],[150,0]]",diamond,red,vert,up,"[0,-150]","[150,0]",up,1,,,,,,001,2025-03-10_17h18.12.379,SL_base_41,2021.2.3,Win32,60.24096386,,,30,0,30,0,1,1.1747,,,,,,,,
,,"[""circle"",""green"",""hori"",""left"",[0,150],[-106,106]]",circle,green,hori,left,"[0,150]","[-106,106]",up,0,,,,,,001,2025-03-10_17h18.12.379,SL_base_41,2021.2.3,Win32,60.24096386,,,31,0,31,0,1,2.4329,,,,,,,,
,,"[""diamond"",""green"",""hori"",""left"",[-106,106],[106,-106]]",diamond,green,hori,left,"[-106,106]","[106,-106]",left,1,,,,,,001,2025-03-10_17h18.12.379,SL_base_41,2021.2.3,Win32,60.24096386,,,32,0,32,0,1,0.9324,,,,,,,,
,,"[""diamond"",""red"",""vert"",""up"",[-106,-106],[0,-150]]",diamond,red,vert,up,"[-106,-106]","[0,-150]",up,1,,,,,,001,2025-03-10_17h18.12.379,SL_base_41,2021.2.3,Win32,60.24096386,,,33,0,33,0,1,1.8715,,,,,,,,
,,"[""circle"",""no_dis"",""hori"",""left"",[99999,99999],[-150,0]]",circle,no_dis,hori,left,"[99999,99999]","[-150,0]",up,0,,,,,,001,2025-03-10_17h18.12.379,SL_base_41,2021.2.3,Win32,60.24096386,,,34,0,34,0,1,1.8347,,,,,,,,
,,"[""diamond"",""green"",""hori"",""left"",[0,150],[-106,106]]",diamond,green,hori,left,"[0,150]","[-106,106]",left,1,,,,,,001,2025-03-10_17h18.12.379,SL_base_41,2021.2.3,Win32,60.24096386,,,35,0,35,0,1,1.7,,,,,,,,
,,"[""circle"",""green"",""vert"",""up"",[-106,106],[106,106]]",circle,green,vert,up,"[-106,106]","[106,106]",up,1,,,,,,001,2025-03-10_17h18.12.379,SL_base_41,2021.2.3,Win32,60.24096386,,,36,0,36,0,1,1.8099,,,,,,,,
,,"[""circle"",""no_dis"",""vert"",""up"",[99999,99999],[150,0]]",circle,no_dis,vert,up,"[99999,99999]","[150,0]",up,1,,,,,,001,2025-03-10_17h18.12.379,SL_base_41,2021.2.3,Win32,60.24096386,,,37,0,37,0,1,2.1952,,,,,,,,
,,"[""diamond"",""no_dis"",""hori"",""left"",[99999,99999],[-106,106]]",diamond,no_dis,hori,left,"[99999,99999]","[-106,106]",left,1,,,,,,001,2025-03-10_17h18.12.379,SL_base_41,2021.2.3,Win32,60.24096386,,,38,0,38,0,1,1.2746,,,,,,,,
,,"[""circle"",""red"",""hori"",""left"",[106,-106],[0,150]]",circle,red,hori,left,"[106,-106]","[0,150]",left,1,,,,,,001,2025-03-10_17h18.12.379,SL_base_41,2021.2.3,Win32,60.24096386,,,39,0,39,0,1,2.5694,,,,,,,,
,,"[""diamond"",""red"",""hori"",""left"",[-150,0],[-106,-106]]",diamond,red,hori,left,"[-150,0]","[-106,-106]",up,0,,,,,,001,2025-03-10_17h18.12.379,SL_base_41,2021.2.3,Win32,60.24096386,,,40,0,40,0,1,2.6919,,,,,,,,
,,"[""circle"",""red"",""vert"",""up"",[-106,106],[0,-150]]",circle,red,vert,up,"[-106,106]","[0,-150]",left,0,,,,,,001,2025-03-10_17h18.12.379,SL_base_41,2021.2.3,Win32,60.24096386,,,41,0,41,0,1,2.3175,,,,,,,,
,,"[""diamond"",""no_dis"",""hori"",""left"",[99999,99999],[-150,0]]",diamond,no_dis,hori,left,"[99999,99999]","[-150,0]",left,1,,,,,,001,2025-03-10_17h18.12.379,SL_base_41,2021.2.3,Win32,60.24096386,,,42,0,42,0,1,0.7324,,,,,,,,
,,"[""diamond"",""green"",""vert"",""up"",[106,-106],[106,106]]",diamond,green,vert,up,"[106,-106]","[106,106]",up,1,,,,,,001,2025-03-10_17h18.12.379,SL_base_41,2021.2.3,Win32,60.24096386,,,43,0,43,0,1,1.0089,,,,,,,,
,,"[""diamond"",""red"",""hori"",""left"",[-106,106],[-106,-106]]",diamond,red,hori,left,"[-106,106]","[-106,-106]",left,1,,,,,,001,2025-03-10_17h18.12.379,SL_base_41,2021.2.3,Win32,60.24096386,,,44,0,44,0,1,2.2872,,,,,,,,
,,"[""diamond"",""red"",""hori"",""left"",[-106,106],[150,0]]",diamond,red,hori,left,"[-106,106]","[150,0]",left,1,,,,,,001,2025-03-10_17h18.12.379,SL_base_41,2021.2.3,Win32,60.24096386,,,45,0,45,0,1,1.1094,,,,,,,,
,,"[""diamond"",""red"",""vert"",""up"",[-106,-106],[-150,0]]",diamond,red,vert,up,"[-106,-106]","[-150,0]",up,1,,,,,,001,2025-03-10_17h18.12.379,SL_base_41,2021.2.3,Win32,60.24096386,,,46,0,46,0,1,1.337,,,,,,,,
,,"[""diamond"",""no_dis"",""hori"",""left"",[99999,99999],[-150,0]]",diamond,no_dis,hori,left,"[99999,99999]","[-150,0]",left,1,,,,,,001,2025-03-10_17h18.12.379,SL_base_41,2021.2.3,Win32,60.24096386,,,47,0,47,0,1,0.9396,,,,,,,,
,,"[""circle"",""no_dis"",""vert"",""up"",[99999,99999],[106,-106]]",circle,no_dis,vert,up,"[99999,99999]","[106,-106]",,0,,,,,,001,2025-03-10_17h18.12.379,SL_base_41,2021.2.3,Win32,60.24096386,,,48,0,48,0,1,,,,,,,,,
,,"[""circle"",""red"",""hori"",""left"",[-106,-106],[106,-106]]",circle,red,hori,left,"[-106,-106]","[106,-106]",left,1,,,,,,001,2025-03-10_17h18.12.379,SL_base_41,2021.2.3,Win32,60.24096386,,,49,0,49,0,1,1.0371,,,,,,,,
,,"[""diamond"",""no_dis"",""vert"",""up"",[99999,99999],[-150,0]]",diamond,no_dis,vert,up,"[99999,99999]","[-150,0]",left,0,,,,,,001,2025-03-10_17h18.12.379,SL_base_41,2021.2.3,Win32,60.24096386,,,50,0,50,0,1,2.4524,,,,,,,,
,,"[""circle"",""green"",""hori"",""left"",[-106,106],[106,-106]]",circle,green,hori,left,"[-106,106]","[106,-106]",left,1,,,,,,001,2025-03-10_17h18.12.379,SL_base_41,2021.2.3,Win32,60.24096386,,,51,0,51,0,1,2.2849,,,,,,,,
,,"[""circle"",""green"",""vert"",""up"",[-106,106],[-106,-106]]",circle,green,vert,up,"[-106,106]","[-106,-106]",up,1,,,,,,001,2025-03-10_17h18.12.379,SL_base_41,2021.2.3,Win32,60.24096386,,,52,0,52,0,1,1.5335,,,,,,,,
,,"[""circle"",""green"",""vert"",""up"",[-106,-106],[0,-150]]",circle,green,vert,up,"[-106,-106]","[0,-150]",left,0,,,,,,001,2025-03-10_17h18.12.379,SL_base_41,2021.2.3,Win32,60.24096386,,,53,0,53,0,1,2.4302,,,,,,,,
,,"[""diamond"",""green"",""vert"",""up"",[0,150],[-106,-106]]",diamond,green,vert,up,"[0,150]","[-106,-106]",up,1,,,,,,001,2025-03-10_17h18.12.379,SL_base_41,2021.2.3,Win32,60.24096386,,,54,0,54,0,1,1.8431,,,,,,,,
,,"[""diamond"",""red"",""vert"",""up"",[106,-106],[150,0]]",diamond,red,vert,up,"[106,-106]","[150,0]",up,1,,,,,,001,2025-03-10_17h18.12.379,SL_base_41,2021.2.3,Win32,60.24096386,,,55,0,55,0,1,1.2805,,,,,,,,
,,"[""circle"",""no_dis"",""hori"",""left"",[99999,99999],[-106,106]]",circle,no_dis,hori,left,"[99999,99999]","[-106,106]",left,1,,,,,,001,2025-03-10_17h18.12.379,SL_base_41,2021.2.3,Win32,60.24096386,,,56,0,56,0,1,2.3904,,,,,,,,
,,"[""circle"",""green"",""vert"",""up"",[-150,0],[0,150]]",circle,green,vert,up,"[-150,0]","[0,150]",left,0,,,,,,001,2025-03-10_17h18.12.379,SL_base_41,2021.2.3,Win32,60.24096386,,,57,0,57,0,1,2.5855,,,,,,,,
,,"[""circle"",""no_dis"",""hori"",""left"",[99999,99999],[106,106]]",circle,no_dis,hori,left,"[99999,99999]","[106,106]",left,1,,,,,,001,2025-03-10_17h18.12.379,SL_base_41,2021.2.3,Win32,60.24096386,,,58,0,58,0,1,2.0178,,,,,,,,
,,"[""diamond"",""no_dis"",""hori"",""left"",[99999,99999],[106,106]]",diamond,no_dis,hori,left,"[99999,99999]","[106,106]",left,1,,,,,,001,2025-03-10_17h18.12.379,SL_base_41,2021.2.3,Win32,60.24096386,,,59,0,59,0,1,1.0745,,,,,,,,
,,"[""circle"",""red"",""vert"",""up"",[106,106],[-106,106]]",circle,red,vert,up,"[106,106]","[-106,106]",left,0,,,,,,001,2025-03-10_17h18.12.379,SL_base_41,2021.2.3,Win32,60.24096386,,,60,0,60,0,1,2.4562,,,,,,,,
,,"[""diamond"",""green"",""hori"",""left"",[-106,106],[0,-150]]",diamond,green,hori,left,"[-106,106]","[0,-150]",left,1,,,,,,001,2025-03-10_17h18.12.379,SL_base_41,2021.2.3,Win32,60.24096386,,,61,0,61,0,1,1.2993,,,,,,,,
,,"[""circle"",""no_dis"",""hori"",""left"",[99999,99999],[0,150]]",circle,no_dis,hori,left,"[99999,99999]","[0,150]",up,0,,,,,,001,2025-03-10_17h18.12.379,SL_base_41,2021.2.3,Win32,60.24096386,,,62,0,62,0,1,2.3359,,,,,,,,
,,"[""diamond"",""no_dis"",""vert"",""up"",[99999,99999],[0,-150]]",diamond,no_dis,vert,up,"[99999,99999]","[0,-150]",up,1,,,,,,001,2025-03-10_17h18.12.379,SL_base_41,2021.2.3,Win32,60.24096386,,,63,0,63,0,1,1.618,,,,,,,,
,,"[""diamond"",""red"",""hori"",""left"",[0,150],[150,0]]",diamond,red,hori,left,"[0,150]","[150,0]",left,1,,,,,,001,2025-03-10_17h18.12.379,SL_base_41,2021.2.3,Win32,60.24096386,,,64,0,64,0,1,1.1648,,,,,,,,
,,"[""circle"",""no_dis"",""hori"",""left"",[99999,99999],[0,150]]",circle,no_dis,hori,left,"[99999,99999]","[0,150]",,0,,,,,,001,2025-03-10_17h18.12.379,SL_base_41,2021.2.3,Win32,60.24096386,,,65,0,65,0,1,,,,,,,,,
,,"[""diamond"",""green"",""hori"",""left"",[106,-106],[-106,-106]]",diamond,green,hori,left,"[106,-106]","[-106,-106]",left,1,,,,,,001,2025-03-10_17h18.12.379,SL_base_41,2021.2.3,Win32,60.24096386,,,66,0,66,0,1,1.8226,,,,,,,,
,,"[""diamond"",""no_dis"",""vert"",""up"",[99999,99999],[0,150]]",diamond,no_dis,vert,up,"[99999,99999]","[0,150]",up,1,,,,,,001,2025-03-10_17h18.12.379,SL_base_41,2021.2.3,Win32,60.24096386,,,67,0,67,0,1,1.5749,,,,,,,,
,,"[""circle"",""no_dis"",""hori"",""left"",[99999,99999],[-106,-106]]",circle,no_dis,hori,left,"[99999,99999]","[-106,-106]",left,1,,,,,,001,2025-03-10_17h18.12.379,SL_base_41,2021.2.3,Win32,60.24096386,,,68,0,68,0,1,2.6625,,,,,,,,
,,"[""diamond"",""no_dis"",""hori"",""left"",[99999,99999],[0,-150]]",diamond,no_dis,hori,left,"[99999,99999]","[0,-150]",left,1,,,,,,001,2025-03-10_17h18.12.379,SL_base_41,2021.2.3,Win32,60.24096386,,,69,0,69,0,1,1.7586,,,,,,,,
,,"[""circle"",""no_dis"",""hori"",""left"",[99999,99999],[150,0]]",circle,no_dis,hori,left,"[99999,99999]","[150,0]",left,1,,,,,,001,2025-03-10_17h18.12.379,SL_base_41,2021.2.3,Win32,60.24096386,,,70,0,70,0,1,1.6185,,,,,,,,
,,"[""diamond"",""no_dis"",""vert"",""up"",[99999,99999],[0,-150]]",diamond,no_dis,vert,up,"[99999,99999]","[0,-150]",up,1,,,,,,001,2025-03-10_17h18.12.379,SL_base_41,2021.2.3,Win32,60.24096386,,,71,0,71,0,1,1.4058,,,,,,,,
,,"[""diamond"",""green"",""hori"",""left"",[106,106],[-106,106]]",diamond,green,hori,left,"[106,106]","[-106,106]",left,1,,,,,,001,2025-03-10_17h18.12.379,SL_base_41,2021.2.3,Win32,60.24096386,,,72,0,72,0,1,1.1329,,,,,,,,
,,"[""circle"",""green"",""vert"",""up"",[-150,0],[0,-150]]",circle,green,vert,up,"[-150,0]","[0,-150]",up,1,,,,,,001,2025-03-10_17h18.12.379,SL_base_41,2021.2.3,Win32,60.24096386,,,73,0,73,0,1,1.7718,,,,,,,,
,,"[""circle"",""no_dis"",""hori"",""left"",[99999,99999],[-106,106]]",circle,no_dis,hori,left,"[99999,99999]","[-106,106]",left,1,,,,,,001,2025-03-10_17h18.12.379,SL_base_41,2021.2.3,Win32,60.24096386,,,74,0,74,0,1,1.4001,,,,,,,,
,,"[""circle"",""red"",""vert"",""up"",[-150,0],[-106,-106]]",circle,red,vert,up,"[-150,0]","[-106,-106]",up,1,,,,,,001,2025-03-10_17h18.12.379,SL_base_41,2021.2.3,Win32,60.24096386,,,75,0,75,0,1,1.7093,,,,,,,,
,,"[""diamond"",""green"",""hori"",""left"",[-106,106],[106,-106]]",diamond,green,hori,left,"[-106,106]","[106,-106]",left,1,,,,,,001,2025-03-10_17h18.12.379,SL_base_41,2021.2.3,Win32,60.24096386,,,76,0,76,0,1,1.3301,,,,,,,,
,,"[""circle"",""red"",""hori"",""left"",[150,0],[-106,-106]]",circle,red,hori,left,"[150,0]","[-106,-106]",up,0,,,,,,001,2025-03-10_17h18.12.379,SL_base_41,2021.2.3,Win32,60.24096386,,,77,0,77,0,1,1.297,,,,,,,,
,,"[""circle"",""no_dis"",""vert"",""up"",[99999,99999],[-106,-106]]",circle,no_dis,vert,up,"[99999,99999]","[-106,-106]",up,1,,,,,,001,2025-03-10_17h18.12.379,SL_base_41,2021.2.3,Win32,60.24096386,,,78,0,78,0,1,1.8888,,,,,,,,
,,"[""circle"",""green"",""vert"",""up"",[0,-150],[-150,0]]",circle,green,vert,up,"[0,-150]","[-150,0]",up,1,,,,,,001,2025-03-10_17h18.12.379,SL_base_41,2021.2.3,Win32,60.24096386,,,79,0,79,0,1,1.1627,,,,,,,,
,,"[""circle"",""red"",""hori"",""left"",[0,-150],[-106,106]]",circle,red,hori,left,"[0,-150]","[-106,106]",left,1,,,,,,001,2025-03-10_17h18.12.379,SL_base_41,2021.2.3,Win32,60.24096386,,,80,0,80,0,1,1.4373,,,,,,,,
,,"[""diamond"",""green"",""hori"",""left"",[0,-150],[-106,-106]]",diamond,green,hori,left,"[0,-150]","[-106,-106]",left,1,,,,,,001,2025-03-10_17h18.12.379,SL_base_41,2021.2.3,Win32,60.24096386,,,81,0,81,0,1,2.0859,,,,,,,,
,,"[""diamond"",""red"",""hori"",""left"",[-106,106],[0,150]]",diamond,red,hori,left,"[-106,106]","[0,150]",left,1,,,,,,001,2025-03-10_17h18.12.379,SL_base_41,2021.2.3,Win32,60.24096386,,,82,0,82,0,1,2.3621,,,,,,,,
,,"[""circle"",""no_dis"",""vert"",""up"",[99999,99999],[106,106]]",circle,no_dis,vert,up,"[99999,99999]","[106,106]",up,1,,,,,,001,2025-03-10_17h18.12.379,SL_base_41,2021.2.3,Win32,60.24096386,,,83,0,83,0,1,2.2034,,,,,,,,
,,"[""diamond"",""no_dis"",""hori"",""left"",[99999,99999],[0,-150]]",diamond,no_dis,hori,left,"[99999,99999]","[0,-150]",left,1,,,,,,001,2025-03-10_17h18.12.379,SL_base_41,2021.2.3,Win32,60.24096386,,,84,0,84,0,1,1.1693,,,,,,,,
,,"[""diamond"",""red"",""hori"",""left"",[-106,106],[0,-150]]",diamond,red,hori,left,"[-106,106]","[0,-150]",left,1,,,,,,001,2025-03-10_17h18.12.379,SL_base_41,2021.2.3,Win32,60.24096386,,,85,0,85,0,1,1.4032,,,,,,,,
,,"[""circle"",""red"",""hori"",""left"",[-106,106],[-150,0]]",circle,red,hori,left,"[-106,106]","[-150,0]",left,1,,,,,,001,2025-03-10_17h18.12.379,SL_base_41,2021.2.3,Win32,60.24096386,,,86,0,86,0,1,1.6565,,,,,,,,
,,"[""circle"",""no_dis"",""hori"",""left"",[99999,99999],[106,106]]",circle,no_dis,hori,left,"[99999,99999]","[106,106]",left,1,,,,,,001,2025-03-10_17h18.12.379,SL_base_41,2021.2.3,Win32,60.24096386,,,87,0,87,0,1,0.9344,,,,,,,,
,,"[""diamond"",""green"",""vert"",""up"",[-106,106],[0,-150]]",diamond,green,vert,up,"[-106,106]","[0,-150]",up,1,,,,,,001,2025-03-10_17h18.12.379,SL_base_41,2021.2.3,Win32,60.24096386,,,88,0,88,0,1,1.2513,,,,,,,,
,,"[""diamond"",""red"",""hori"",""left"",[0,-150],[0,150]]",diamond,red,hori,left,"[0,-150]","[0,150]",left,1,,,,,,001,2025-03-10_17h18.12.379,SL_base_41,2021.2.3,Win32,60.24096386,,,89,0,89,0,1,1.0321,,,,,,,,
,,"[""diamond"",""green"",""vert"",""up"",[-106,106],[106,106]]",diamond,green,vert,up,"[-106,106]","[106,106]",up,1,,,,,,001,2025-03-10_17h18.12.379,SL_base_41,2021.2.3,Win32,60.24096386,,,90,0,90,0,1,1.1916,,,,,,,,
,,"[""diamond"",""red"",""vert"",""up"",[106,-106],[150,0]]",diamond,red,vert,up,"[106,-106]","[150,0]",up,1,,,,,,001,2025-03-10_17h18.12.379,SL_base_41,2021.2.3,Win32,60.24096386,,,91,0,91,0,1,1.2885,,,,,,,,
,,"[""circle"",""green"",""vert"",""up"",[106,-106],[150,0]]",circle,green,vert,up,"[106,-106]","[150,0]",up,1,,,,,,001,2025-03-10_17h18.12.379,SL_base_41,2021.2.3,Win32,60.24096386,,,92,0,92,0,1,1.6684,,,,,,,,
,,"[""circle"",""red"",""hori"",""left"",[106,106],[-106,106]]",circle,red,hori,left,"[106,106]","[-106,106]",left,1,,,,,,001,2025-03-10_17h18.12.379,SL_base_41,2021.2.3,Win32,60.24096386,,,93,0,93,0,1,1.5893,,,,,,,,
,,"[""diamond"",""green"",""hori"",""left"",[0,150],[-106,106]]",diamond,green,hori,left,"[0,150]","[-106,106]",up,0,,,,,,001,2025-03-10_17h18.12.379,SL_base_41,2021.2.3,Win32,60.24096386,,,94,0,94,0,1,1.4167,,,,,,,,
,,"[""circle"",""green"",""vert"",""up"",[106,106],[-106,106]]",circle,green,vert,up,"[106,106]","[-106,106]",up,1,,,,,,001,2025-03-10_17h18.12.379,SL_base_41,2021.2.3,Win32,60.24096386,,,95,0,95,0,1,1.1041,,,,,,,,
,,"[""circle"",""red"",""vert"",""up"",[-106,-106],[106,106]]",circle,red,vert,up,"[-106,-106]","[106,106]",up,1,,,,,,001,2025-03-10_17h18.12.379,SL_base_41,2021.2.3,Win32,60.24096386,,,96,0,96,0,1,1.5451,,,,,,,,
,,"[""diamond"",""red"",""vert"",""up"",[-106,-106],[150,0]]",diamond,red,vert,up,"[-106,-106]","[150,0]",up,1,,,,,,001,2025-03-10_17h18.12.379,SL_base_41,2021.2.3,Win32,60.24096386,,,97,0,97,0,1,1.6762,,,,,,,,
,,"[""circle"",""red"",""vert"",""up"",[0,-150],[150,0]]",circle,red,vert,up,"[0,-150]","[150,0]",up,1,,,,,,001,2025-03-10_17h18.12.379,SL_base_41,2021.2.3,Win32,60.24096386,,,98,0,98,0,1,1.4085,,,,,,,,
,,"[""diamond"",""red"",""hori"",""left"",[106,-106],[106,106]]",diamond,red,hori,left,"[106,-106]","[106,106]",left,1,,,,,,001,2025-03-10_17h18.12.379,SL_base_41,2021.2.3,Win32,60.24096386,,,99,0,99,0,1,1.6649,,,,,,,,
,,"[""circle"",""green"",""vert"",""up"",[106,106],[-106,106]]",circle,green,vert,up,"[106,106]","[-106,106]",up,1,,,,,,001,2025-03-10_17h18.12.379,SL_base_41,2021.2.3,Win32,60.24096386,,,100,0,100,0,1,1.547,,,,,,,,
,,"[""circle"",""green"",""hori"",""left"",[106,106],[-106,106]]",circle,green,hori,left,"[106,106]","[-106,106]",left,1,,,,,,001,2025-03-10_17h18.12.379,SL_base_41,2021.2.3,Win32,60.24096386,,,101,0,101,0,1,1.143,,,,,,,,
,,"[""circle"",""no_dis"",""vert"",""up"",[99999,99999],[-150,0]]",circle,no_dis,vert,up,"[99999,99999]","[-150,0]",up,1,,,,,,001,2025-03-10_17h18.12.379,SL_base_41,2021.2.3,Win32,60.24096386,,,102,0,102,0,1,0.9303,,,,,,,,
,,"[""diamond"",""no_dis"",""hori"",""left"",[99999,99999],[150,0]]",diamond,no_dis,hori,left,"[99999,99999]","[150,0]",left,1,,,,,,001,2025-03-10_17h18.12.379,SL_base_41,2021.2.3,Win32,60.24096386,,,103,0,103,0,1,0.8222,,,,,,,,
,,"[""diamond"",""red"",""vert"",""up"",[-106,106],[106,-106]]",diamond,red,vert,up,"[-106,106]","[106,-106]",up,1,,,,,,001,2025-03-10_17h18.12.379,SL_base_41,2021.2.3,Win32,60.24096386,,,104,0,104,0,1,1.0644,,,,,,,,
,,"[""circle"",""green"",""hori"",""left"",[150,0],[106,106]]",circle,green,hori,left,"[150,0]","[106,106]",left,1,,,,,,001,2025-03-10_17h18.12.379,SL_base_41,2021.2.3,Win32,60.24096386,,,105,0,105,0,1,1.0783,,,,,,,,
,,"[""diamond"",""red"",""vert"",""up"",[-106,106],[106,106]]",diamond,red,vert,up,"[-106,106]","[106,106]",up,1,,,,,,001,2025-03-10_17h18.12.379,SL_base_41,2021.2.3,Win32,60.24096386,,,106,0,106,0,1,1.6554,,,,,,,,
,,"[""diamond"",""no_dis"",""vert"",""up"",[99999,99999],[106,-106]]",diamond,no_dis,vert,up,"[99999,99999]","[106,-106]",up,1,,,,,,001,2025-03-10_17h18.12.379,SL_base_41,2021.2.3,Win32,60.24096386,,,107,0,107,0,1,1.3933,,,,,,,,
,,"[""circle"",""red"",""vert"",""up"",[106,-106],[-106,106]]",circle,red,vert,up,"[106,-106]","[-106,106]",up,1,,,,,,001,2025-03-10_17h18.12.379,SL_base_41,2021.2.3,Win32,60.24096386,,,108,0,108,0,1,1.7809,,,,,,,,
,,"[""diamond"",""green"",""hori"",""left"",[150,0],[106,106]]",diamond,green,hori,left,"[150,0]","[106,106]",left,1,,,,,,001,2025-03-10_17h18.12.379,SL_base_41,2021.2.3,Win32,60.24096386,,,109,0,109,0,1,1.2804,,,,,,,,
,,"[""diamond"",""red"",""vert"",""up"",[0,-150],[-106,106]]",diamond,red,vert,up,"[0,-150]","[-106,106]",up,1,,,,,,001,2025-03-10_17h18.12.379,SL_base_41,2021.2.3,Win32,60.24096386,,,110,0,110,0,1,0.8394,,,,,,,,
,,"[""diamond"",""no_dis"",""vert"",""up"",[99999,99999],[0,-150]]",diamond,no_dis,vert,up,"[99999,99999]","[0,-150]",up,1,,,,,,001,2025-03-10_17h18.12.379,SL_base_41,2021.2.3,Win32,60.24096386,,,111,0,111,0,1,0.9311,,,,,,,,
,,"[""circle"",""green"",""hori"",""left"",[-106,106],[0,150]]",circle,green,hori,left,"[-106,106]","[0,150]",left,1,,,,,,001,2025-03-10_17h18.12.379,SL_base_41,2021.2.3,Win32,60.24096386,,,112,0,112,0,1,1.5191,,,,,,,,
,,"[""circle"",""no_dis"",""vert"",""up"",[99999,99999],[-106,106]]",circle,no_dis,vert,up,"[99999,99999]","[-106,106]",up,1,,,,,,001,2025-03-10_17h18.12.379,SL_base_41,2021.2.3,Win32,60.24096386,,,113,0,113,0,1,0.8842,,,,,,,,
,,"[""diamond"",""green"",""hori"",""left"",[150,0],[-106,-106]]",diamond,green,hori,left,"[150,0]","[-106,-106]",left,1,,,,,,001,2025-03-10_17h18.12.379,SL_base_41,2021.2.3,Win32,60.24096386,,,114,0,114,0,1,0.9167,,,,,,,,
,,"[""circle"",""red"",""vert"",""up"",[-106,-106],[0,-150]]",circle,red,vert,up,"[-106,-106]","[0,-150]",up,1,,,,,,001,2025-03-10_17h18.12.379,SL_base_41,2021.2.3,Win32,60.24096386,,,115,0,115,0,1,1.6125,,,,,,,,
,,"[""diamond"",""red"",""hori"",""left"",[150,0],[106,-106]]",diamond,red,hori,left,"[150,0]","[106,-106]",left,1,,,,,,001,2025-03-10_17h18.12.379,SL_base_41,2021.2.3,Win32,60.24096386,,,116,0,116,0,1,1.1491,,,,,,,,
,,"[""diamond"",""green"",""hori"",""left"",[-106,-106],[0,150]]",diamond,green,hori,left,"[-106,-106]","[0,150]",left,1,,,,,,001,2025-03-10_17h18.12.379,SL_base_41,2021.2.3,Win32,60.24096386,,,117,0,117,0,1,1.0932,,,,,,,,
,,"[""diamond"",""green"",""vert"",""up"",[-106,106],[0,150]]",diamond,green,vert,up,"[-106,106]","[0,150]",up,1,,,,,,001,2025-03-10_17h18.12.379,SL_base_41,2021.2.3,Win32,60.24096386,,,118,0,118,0,1,1.0256,,,,,,,,
,,"[""diamond"",""red"",""vert"",""up"",[-106,106],[0,-150]]",diamond,red,vert,up,"[-106,106]","[0,-150]",up,1,,,,,,001,2025-03-10_17h18.12.379,SL_base_41,2021.2.3,Win32,60.24096386,,,119,0,119,0,1,0.8593,,,,,,,,
,,"[""circle"",""no_dis"",""vert"",""up"",[99999,99999],[106,-106]]",circle,no_dis,vert,up,"[99999,99999]","[106,-106]",up,1,,,,,,001,2025-03-10_17h18.12.379,SL_base_41,2021.2.3,Win32,60.24096386,,,120,0,120,0,1,2.1673,,,,,,,,
,,"[""circle"",""red"",""vert"",""up"",[-106,106],[-106,-106]]",circle,red,vert,up,"[-106,106]","[-106,-106]",up,1,,,,,,001,2025-03-10_17h18.12.379,SL_base_41,2021.2.3,Win32,60.24096386,,,121,0,121,0,1,0.9549,,,,,,,,
,,"[""circle"",""green"",""hori"",""left"",[-106,106],[106,-106]]",circle,green,hori,left,"[-106,106]","[106,-106]",left,1,,,,,,001,2025-03-10_17h18.12.379,SL_base_41,2021.2.3,Win32,60.24096386,,,122,0,122,0,1,1.1394,,,,,,,,
,,"[""diamond"",""green"",""vert"",""up"",[-106,106],[106,-106]]",diamond,green,vert,up,"[-106,106]","[106,-106]",up,1,,,,,,001,2025-03-10_17h18.12.379,SL_base_41,2021.2.3,Win32,60.24096386,,,123,0,123,0,1,1.1255,,,,,,,,
,,"[""circle"",""green"",""hori"",""left"",[-106,106],[-106,-106]]",circle,green,hori,left,"[-106,106]","[-106,-106]",left,1,,,,,,001,2025-03-10_17h18.12.379,SL_base_41,2021.2.3,Win32,60.24096386,,,124,0,124,0,1,1.3345,,,,,,,,
,,"[""diamond"",""no_dis"",""vert"",""up"",[99999,99999],[-106,-106]]",diamond,no_dis,vert,up,"[99999,99999]","[-106,-106]",up,1,,,,,,001,2025-03-10_17h18.12.379,SL_base_41,2021.2.3,Win32,60.24096386,,,125,0,125,0,1,1.1909,,,,,,,,
,,"[""circle"",""no_dis"",""hori"",""left"",[99999,99999],[-106,-106]]",circle,no_dis,hori,left,"[99999,99999]","[-106,-106]",left,1,,,,,,001,2025-03-10_17h18.12.379,SL_base_41,2021.2.3,Win32,60.24096386,,,126,0,126,0,1,1.5674,,,,,,,,
,,"[""circle"",""red"",""vert"",""up"",[0,150],[-106,106]]",circle,red,vert,up,"[0,150]","[-106,106]",up,1,,,,,,001,2025-03-10_17h18.12.379,SL_base_41,2021.2.3,Win32,60.24096386,,,127,0,127,0,1,1.1797,,,,,,,,
,,,,,,,,,,,,,,,,001,2025-03-10_17h18.12.379,SL_base_41,2021.2.3,Win32,60.24096386,,,,,,,,,3,space,60.5025,2,0,2,0,1
,,"[""circle"",""red"",""hori"",""left"",[150,0],[-106,-106]]",circle,red,hori,left,"[150,0]","[-106,-106]",left,1,,,,,,001,2025-03-10_17h18.12.379,SL_base_41,2021.2.3,Win32,60.24096386,,,0,0,0,0,1,1.7522,,,,,,,,
,,"[""circle"",""no_dis"",""vert"",""up"",[99999,99999],[106,-106]]",circle,no_dis,vert,up,"[99999,99999]","[106,-106]",up,1,,,,,,001,2025-03-10_17h18.12.379,SL_base_41,2021.2.3,Win32,60.24096386,,,1,0,1,0,1,1.1833,,,,,,,,
,,"[""circle"",""red"",""vert"",""up"",[-150,0],[-106,-106]]",circle,red,vert,up,"[-150,0]","[-106,-106]",up,1,,,,,,001,2025-03-10_17h18.12.379,SL_base_41,2021.2.3,Win32,60.24096386,,,2,0,2,0,1,1.3225,,,,,,,,
,,"[""circle"",""red"",""vert"",""up"",[0,150],[-106,106]]",circle,red,vert,up,"[0,150]","[-106,106]",up,1,,,,,,001,2025-03-10_17h18.12.379,SL_base_41,2021.2.3,Win32,60.24096386,,,3,0,3,0,1,0.9848,,,,,,,,
,,"[""diamond"",""no_dis"",""hori"",""left"",[99999,99999],[0,-150]]",diamond,no_dis,hori,left,"[99999,99999]","[0,-150]",left,1,,,,,,001,2025-03-10_17h18.12.379,SL_base_41,2021.2.3,Win32,60.24096386,,,4,0,4,0,1,0.8695,,,,,,,,
,,"[""circle"",""no_dis"",""vert"",""up"",[99999,99999],[-106,-106]]",circle,no_dis,vert,up,"[99999,99999]","[-106,-106]",up,1,,,,,,001,2025-03-10_17h18.12.379,SL_base_41,2021.2.3,Win32,60.24096386,,,5,0,5,0,1,1.1183,,,,,,,,
,,"[""diamond"",""green"",""vert"",""up"",[-106,106],[106,-106]]",diamond,green,vert,up,"[-106,106]","[106,-106]",left,0,,,,,,001,2025-03-10_17h18.12.379,SL_base_41,2021.2.3,Win32,60.24096386,,,6,0,6,0,1,0.9822,,,,,,,,
,,"[""diamond"",""red"",""vert"",""up"",[-106,-106],[-150,0]]",diamond,red,vert,up,"[-106,-106]","[-150,0]",up,1,,,,,,001,2025-03-10_17h18.12.379,SL_base_41,2021.2.3,Win32,60.24096386,,,7,0,7,0,1,1.1495,,,,,,,,
,,"[""diamond"",""green"",""vert"",""up"",[-106,106],[0,150]]",diamond,green,vert,up,"[-106,106]","[0,150]",up,1,,,,,,001,2025-03-10_17h18.12.379,SL_base_41,2021.2.3,Win32,60.24096386,,,8,0,8,0,1,0.7273,,,,,,,,
,,"[""diamond"",""red"",""hori"",""left"",[-106,106],[0,150]]",diamond,red,hori,left,"[-106,106]","[0,150]",left,1,,,,,,001,2025-03-10_17h18.12.379,SL_base_41,2021.2.3,Win32,60.24096386,,,9,0,9,0,1,1.0307,,,,,,,,
,,"[""diamond"",""no_dis"",""hori"",""left"",[99999,99999],[-150,0]]",diamond,no_dis,hori,left,"[99999,99999]","[-150,0]",left,1,,,,,,001,2025-03-10_17h18.12.379,SL_base_41,2021.2.3,Win32,60.24096386,,,10,0,10,0,1,0.6141,,,,,,,,
,,"[""diamond"",""no_dis"",""vert"",""up"",[99999,99999],[0,-150]]",diamond,no_dis,vert,up,"[99999,99999]","[0,-150]",up,1,,,,,,001,2025-03-10_17h18.12.379,SL_base_41,2021.2.3,Win32,60.24096386,,,11,0,11,0,1,1.0787,,,,,,,,
,,"[""diamond"",""red"",""hori"",""left"",[-106,106],[0,-150]]",diamond,red,hori,left,"[-106,106]","[0,-150]",left,1,,,,,,001,2025-03-10_17h18.12.379,SL_base_41,2021.2.3,Win32,60.24096386,,,12,0,12,0,1,1.1197,,,,,,,,
,,"[""circle"",""green"",""vert"",""up"",[-106,106],[-106,-106]]",circle,green,vert,up,"[-106,106]","[-106,-106]",up,1,,,,,,001,2025-03-10_17h18.12.379,SL_base_41,2021.2.3,Win32,60.24096386,,,13,0,13,0,1,1.474,,,,,,,,
,,"[""diamond"",""red"",""hori"",""left"",[-150,0],[106,106]]",diamond,red,hori,left,"[-150,0]","[106,106]",up,0,,,,,,001,2025-03-10_17h18.12.379,SL_base_41,2021.2.3,Win32,60.24096386,,,14,0,14,0,1,1.956,,,,,,,,
,,"[""circle"",""green"",""vert"",""up"",[-106,106],[106,106]]",circle,green,vert,up,"[-106,106]","[106,106]",up,1,,,,,,001,2025-03-10_17h18.12.379,SL_base_41,2021.2.3,Win32,60.24096386,,,15,0,15,0,1,1.7031,,,,,,,,
,,"[""circle"",""green"",""hori"",""left"",[-106,106],[-106,-106]]",circle,green,hori,left,"[-106,106]","[-106,-106]",left,1,,,,,,001,2025-03-10_17h18.12.379,SL_base_41,2021.2.3,Win32,60.24096386,,,16,0,16,0,1,1.1263,,,,,,,,
,,"[""diamond"",""red"",""vert"",""up"",[0,-150],[-106,106]]",diamond,red,vert,up,"[0,-150]","[-106,106]",up,1,,,,,,001,2025-03-10_17h18.12.379,SL_base_41,2021.2.3,Win32,60.24096386,,,17,0,17,0,1,1.1098,,,,,,,,
,,"[""diamond"",""red"",""vert"",""up"",[-106,106],[0,-150]]",diamond,red,vert,up,"[-106,106]","[0,-150]",up,1,,,,,,001,2025-03-10_17h18.12.379,SL_base_41,2021.2.3,Win32,60.24096386,,,18,0,18,0,1,1.6334,,,,,,,,
,,"[""circle"",""green"",""vert"",""up"",[-150,0],[106,106]]",circle,green,vert,up,"[-150,0]","[106,106]",up,1,,,,,,001,2025-03-10_17h18.12.379,SL_base_41,2021.2.3,Win32,60.24096386,,,19,0,19,0,1,1.486,,,,,,,,
,,"[""circle"",""no_dis"",""vert"",""up"",[99999,99999],[-150,0]]",circle,no_dis,vert,up,"[99999,99999]","[-150,0]",up,1,,,,,,001,2025-03-10_17h18.12.379,SL_base_41,2021.2.3,Win32,60.24096386,,,20,0,20,0,1,1.2552,,,,,,,,
,,"[""circle"",""green"",""vert"",""up"",[106,106],[-106,106]]",circle,green,vert,up,"[106,106]","[-106,106]",up,1,,,,,,001,2025-03-10_17h18.12.379,SL_base_41,2021.2.3,Win32,60.24096386,,,21,0,21,0,1,1.5783,,,,,,,,
,,"[""circle"",""red"",""vert"",""up"",[-106,106],[0,-150]]",circle,red,vert,up,"[-106,106]","[0,-150]",up,1,,,,,,001,2025-03-10_17h18.12.379,SL_base_41,2021.2.3,Win32,60.24096386,,,22,0,22,0,1,1.7393,,,,,,,,
,,"[""diamond"",""green"",""vert"",""up"",[-106,106],[106,106]]",diamond,green,vert,up,"[-106,106]","[106,106]",up,1,,,,,,001,2025-03-10_17h18.12.379,SL_base_41,2021.2.3,Win32,60.24096386,,,23,0,23,0,1,1.3935,,,,,,,,
,,"[""diamond"",""red"",""vert"",""up"",[-106,-106],[0,-150]]",diamond,red,vert,up,"[-106,-106]","[0,-150]",up,1,,,,,,001,2025-03-10_17h18.12.379,SL_base_41,2021.2.3,Win32,60.24096386,,,24,0,24,0,1,1.1029,,,,,,,,
,,"[""circle"",""red"",""hori"",""left"",[106,106],[-106,106]]",circle,red,hori,left,"[106,106]","[-106,106]",left,1,,,,,,001,2025-03-10_17h18.12.379,SL_base_41,2021.2.3,Win32,60.24096386,,,25,0,25,0,1,2.1969,,,,,,,,
,,"[""circle"",""red"",""vert"",""up"",[106,-106],[-106,106]]",circle,red,vert,up,"[106,-106]","[-106,106]",up,1,,,,,,001,2025-03-10_17h18.12.379,SL_base_41,2021.2.3,Win32,60.24096386,,,26,0,26,0,1,1.017,,,,,,,,
,,"[""circle"",""green"",""vert"",""up"",[-150,0],[0,150]]",circle,green,vert,up,"[-150,0]","[0,150]",up,1,,,,,,001,2025-03-10_17h18.12.379,SL_base_41,2021.2.3,Win32,60.24096386,,,27,0,27,0,1,1.8174,,,,,,,,
,,"[""diamond"",""green"",""vert"",""up"",[-106,106],[0,150]]",diamond,green,vert,up,"[-106,106]","[0,150]",up,1,,,,,,001,2025-03-10_17h18.12.379,SL_base_41,2021.2.3,Win32,60.24096386,,,28,0,28,0,1,2.2834,,,,,,,,
,,"[""circle"",""green"",""hori"",""left"",[0,150],[-150,0]]",circle,green,hori,left,"[0,150]","[-150,0]",left,1,,,,,,001,2025-03-10_17h18.12.379,SL_base_41,2021.2.3,Win32,60.24096386,,,29,0,29,0,1,2.0213,,,,,,,,
,,"[""circle"",""green"",""vert"",""up"",[0,-150],[-150,0]]",circle,green,vert,up,"[0,-150]","[-150,0]",up,1,,,,,,001,2025-03-10_17h18.12.379,SL_base_41,2021.2.3,Win32,60.24096386,,,30,0,30,0,1,1.4664,,,,,,,,
,,"[""diamond"",""no_dis"",""hori"",""left"",[99999,99999],[150,0]]",diamond,no_dis,hori,left,"[99999,99999]","[150,0]",left,1,,,,,,001,2025-03-10_17h18.12.379,SL_base_41,2021.2.3,Win32,60.24096386,,,31,0,31,0,1,1.2648,,,,,,,,
,,"[""circle"",""red"",""hori"",""left"",[0,150],[150,0]]",circle,red,hori,left,"[0,150]","[150,0]",left,1,,,,,,001,2025-03-10_17h18.12.379,SL_base_41,2021.2.3,Win32,60.24096386,,,32,0,32,0,1,1.5375,,,,,,,,
,,"[""diamond"",""green"",""hori"",""left"",[106,106],[-106,106]]",diamond,green,hori,left,"[106,106]","[-106,106]",left,1,,,,,,001,2025-03-10_17h18.12.379,SL_base_41,2021.2.3,Win32,60.24096386,,,33,0,33,0,1,1.4099,,,,,,,,
,,"[""diamond"",""green"",""hori"",""left"",[-106,106],[106,-106]]",diamond,green,hori,left,"[-106,106]","[106,-106]",left,1,,,,,,001,2025-03-10_17h18.12.379,SL_base_41,2021.2.3,Win32,60.24096386,,,34,0,34,0,1,1.4199,,,,,,,,
,,"[""diamond"",""no_dis"",""vert"",""up"",[99999,99999],[0,150]]",diamond,no_dis,vert,up,"[99999,99999]","[0,150]",up,1,,,,,,001,2025-03-10_17h18.12.379,SL_base_41,2021.2.3,Win32,60.24096386,,,35,0,35,0,1,1.4707,,,,,,,,
,,"[""circle"",""no_dis"",""vert"",""up"",[99999,99999],[-106,-106]]",circle,no_dis,vert,up,"[99999,99999]","[-106,-106]",up,1,,,,,,001,2025-03-10_17h18.12.379,SL_base_41,2021.2.3,Win32,60.24096386,,,36,0,36,0,1,1.2622,,,,,,,,
,,"[""diamond"",""green"",""hori"",""left"",[-106,-106],[0,150]]",diamond,green,hori,left,"[-106,-106]","[0,150]",left,1,,,,,,001,2025-03-10_17h18.12.379,SL_base_41,2021.2.3,Win32,60.24096386,,,37,0,37,0,1,1.2026,,,,,,,,
,,"[""diamond"",""no_dis"",""vert"",""up"",[99999,99999],[0,150]]",diamond,no_dis,vert,up,"[99999,99999]","[0,150]",up,1,,,,,,001,2025-03-10_17h18.12.379,SL_base_41,2021.2.3,Win32,60.24096386,,,38,0,38,0,1,1.749,,,,,,,,
,,"[""circle"",""no_dis"",""vert"",""up"",[99999,99999],[106,-106]]",circle,no_dis,vert,up,"[99999,99999]","[106,-106]",up,1,,,,,,001,2025-03-10_17h18.12.379,SL_base_41,2021.2.3,Win32,60.24096386,,,39,0,39,0,1,1.1131,,,,,,,,
,,"[""diamond"",""no_dis"",""hori"",""left"",[99999,99999],[106,106]]",diamond,no_dis,hori,left,"[99999,99999]","[106,106]",left,1,,,,,,001,2025-03-10_17h18.12.379,SL_base_41,2021.2.3,Win32,60.24096386,,,40,0,40,0,1,1.2641,,,,,,,,
,,"[""circle"",""green"",""hori"",""left"",[-106,106],[106,-106]]",circle,green,hori,left,"[-106,106]","[106,-106]",left,1,,,,,,001,2025-03-10_17h18.12.379,SL_base_41,2021.2.3,Win32,60.24096386,,,41,0,41,0,1,1.2435,,,,,,,,
,,"[""diamond"",""red"",""vert"",""up"",[0,-150],[150,0]]",diamond,red,vert,up,"[0,-150]","[150,0]",up,1,,,,,,001,2025-03-10_17h18.12.379,SL_base_41,2021.2.3,Win32,60.24096386,,,42,0,42,0,1,1.032,,,,,,,,
,,"[""diamond"",""no_dis"",""vert"",""up"",[99999,99999],[0,-150]]",diamond,no_dis,vert,up,"[99999,99999]","[0,-150]",up,1,,,,,,001,2025-03-10_17h18.12.379,SL_base_41,2021.2.3,Win32,60.24096386,,,43,0,43,0,1,1.5194,,,,,,,,
,,"[""circle"",""no_dis"",""vert"",""up"",[99999,99999],[-106,106]]",circle,no_dis,vert,up,"[99999,99999]","[-106,106]",up,1,,,,,,001,2025-03-10_17h18.12.379,SL_base_41,2021.2.3,Win32,60.24096386,,,44,0,44,0,1,1.5344,,,,,,,,
,,"[""diamond"",""no_dis"",""hori"",""left"",[99999,99999],[106,-106]]",diamond,no_dis,hori,left,"[99999,99999]","[106,-106]",left,1,,,,,,001,2025-03-10_17h18.12.379,SL_base_41,2021.2.3,Win32,60.24096386,,,45,0,45,0,1,2.4747,,,,,,,,
,,"[""circle"",""no_dis"",""hori"",""left"",[99999,99999],[106,106]]",circle,no_dis,hori,left,"[99999,99999]","[106,106]",left,1,,,,,,001,2025-03-10_17h18.12.379,SL_base_41,2021.2.3,Win32,60.24096386,,,46,0,46,0,1,1.249,,,,,,,,
,,"[""circle"",""green"",""hori"",""left"",[-106,106],[106,-106]]",circle,green,hori,left,"[-106,106]","[106,-106]",left,1,,,,,,001,2025-03-10_17h18.12.379,SL_base_41,2021.2.3,Win32,60.24096386,,,47,0,47,0,1,1.5074,,,,,,,,
,,"[""circle"",""green"",""vert"",""up"",[-150,0],[0,-150]]",circle,green,vert,up,"[-150,0]","[0,-150]",up,1,,,,,,001,2025-03-10_17h18.12.379,SL_base_41,2021.2.3,Win32,60.24096386,,,48,0,48,0,1,1.2448,,,,,,,,
,,"[""diamond"",""green"",""hori"",""left"",[150,0],[106,106]]",diamond,green,hori,left,"[150,0]","[106,106]",left,1,,,,,,001,2025-03-10_17h18.12.379,SL_base_41,2021.2.3,Win32,60.24096386,,,49,0,49,0,1,1.0299,,,,,,,,
,,"[""diamond"",""green"",""hori"",""left"",[0,-150],[-106,-106]]",diamond,green,hori,left,"[0,-150]","[-106,-106]",left,1,,,,,,001,2025-03-10_17h18.12.379,SL_base_41,2021.2.3,Win32,60.24096386,,,50,0,50,0,1,1.0732,,,,,,,,
,,"[""circle"",""no_dis"",""hori"",""left"",[99999,99999],[-106,-106]]",circle,no_dis,hori,left,"[99999,99999]","[-106,-106]",left,1,,,,,,001,2025-03-10_17h18.12.379,SL_base_41,2021.2.3,Win32,60.24096386,,,51,0,51,0,1,1.2533,,,,,,,,
,,"[""diamond"",""green"",""hori"",""left"",[106,-106],[-106,-106]]",diamond,green,hori,left,"[106,-106]","[-106,-106]",left,1,,,,,,001,2025-03-10_17h18.12.379,SL_base_41,2021.2.3,Win32,60.24096386,,,52,0,52,0,1,1.1396,,,,,,,,
,,"[""circle"",""green"",""hori"",""left"",[0,150],[-106,106]]",circle,green,hori,left,"[0,150]","[-106,106]",left,1,,,,,,001,2025-03-10_17h18.12.379,SL_base_41,2021.2.3,Win32,60.24096386,,,53,0,53,0,1,1.7728,,,,,,,,
,,"[""diamond"",""no_dis"",""hori"",""left"",[99999,99999],[-106,106]]",diamond,no_dis,hori,left,"[99999,99999]","[-106,106]",left,1,,,,,,001,2025-03-10_17h18.12.379,SL_base_41,2021.2.3,Win32,60.24096386,,,54,0,54,0,1,1.2231,,,,,,,,
,,"[""diamond"",""no_dis"",""hori"",""left"",[99999,99999],[-150,0]]",diamond,no_dis,hori,left,"[99999,99999]","[-150,0]",left,1,,,,,,001,2025-03-10_17h18.12.379,SL_base_41,2021.2.3,Win32,60.24096386,,,55,0,55,0,1,1.2413,,,,,,,,
,,"[""circle"",""green"",""vert"",""up"",[106,106],[-106,106]]",circle,green,vert,up,"[106,106]","[-106,106]",up,1,,,,,,001,2025-03-10_17h18.12.379,SL_base_41,2021.2.3,Win32,60.24096386,,,56,0,56,0,1,1.321,,,,,,,,
,,"[""diamond"",""red"",""hori"",""left"",[-106,106],[150,0]]",diamond,red,hori,left,"[-106,106]","[150,0]",left,1,,,,,,001,2025-03-10_17h18.12.379,SL_base_41,2021.2.3,Win32,60.24096386,,,57,0,57,0,1,1.4014,,,,,,,,
,,"[""diamond"",""no_dis"",""hori"",""left"",[99999,99999],[0,-150]]",diamond,no_dis,hori,left,"[99999,99999]","[0,-150]",left,1,,,,,,001,2025-03-10_17h18.12.379,SL_base_41,2021.2.3,Win32,60.24096386,,,58,0,58,0,1,0.8812,,,,,,,,
,,"[""circle"",""red"",""hori"",""left"",[-106,106],[-150,0]]",circle,red,hori,left,"[-106,106]","[-150,0]",left,1,,,,,,001,2025-03-10_17h18.12.379,SL_base_41,2021.2.3,Win32,60.24096386,,,59,0,59,0,1,1.5668,,,,,,,,
