﻿key_resp.keys,key_resp.rt,trial_para,tar_shape,dis_color_condi,tar_line,cor_resp,dis_loc,tar_loc,resp.keys,resp.corr,resp.rt,trials.thisRepN,trials.thisTrialN,trials.thisN,trials.thisIndex,trials.ran,participant,date,expName,psychopyVersion,OS,frameRate,key_resp_2.keys,key_resp_2.rt,trials_2.thisRepN,trials_2.thisTrialN,trials_2.thisN,trials_2.thisIndex,trials_2.ran,block_num,key_resp_3.keys,key_resp_3.rt,trials_3.thisRepN,trials_3.thisTrialN,trials_3.thisN,trials_3.thisIndex,trials_3.ran
space,39.9826,"[""circle"",""no_dis"",""hori"",""left"",[99999,99999],[106,-106]]",circle,no_dis,hori,left,"[99999,99999]","[106,-106]",left,1,2.8176,0,0,0,0,1,001,2025-03-10_16h54.41.791,SL_base_41,2021.2.3,Win32,59.88023952,,,,,,,,,,,,,,,
,,"[""circle"",""red"",""vert"",""up"",[0,-150],[-106,-106]]",circle,red,vert,up,"[0,-150]","[-106,-106]",,0,,1,0,1,0,1,001,2025-03-10_16h54.41.791,SL_base_41,2021.2.3,Win32,59.88023952,,,,,,,,,,,,,,,
,,"[""diamond"",""no_dis"",""hori"",""left"",[99999,99999],[106,106]]",diamond,no_dis,hori,left,"[99999,99999]","[106,106]",left,1,1.9447,2,0,2,0,1,001,2025-03-10_16h54.41.791,SL_base_41,2021.2.3,Win32,59.88023952,,,,,,,,,,,,,,,
,,"[""diamond"",""green"",""vert"",""up"",[-150,0],[150,0]]",diamond,green,vert,up,"[-150,0]","[150,0]",up,1,1.8692,3,0,3,0,1,001,2025-03-10_16h54.41.791,SL_base_41,2021.2.3,Win32,59.88023952,,,,,,,,,,,,,,,
,,"[""circle"",""red"",""vert"",""up"",[106,106],[-106,-106]]",circle,red,vert,up,"[106,106]","[-106,-106]",up,1,1.4167,4,0,4,0,1,001,2025-03-10_16h54.41.791,SL_base_41,2021.2.3,Win32,59.88023952,,,,,,,,,,,,,,,
,,"[""diamond"",""red"",""hori"",""left"",[106,106],[-106,106]]",diamond,red,hori,left,"[106,106]","[-106,106]",up,0,2.5514,5,0,5,0,1,001,2025-03-10_16h54.41.791,SL_base_41,2021.2.3,Win32,59.88023952,,,,,,,,,,,,,,,
,,"[""diamond"",""red"",""vert"",""up"",[0,150],[-106,-106]]",diamond,red,vert,up,"[0,150]","[-106,-106]",left,0,2.4144,6,0,6,0,1,001,2025-03-10_16h54.41.791,SL_base_41,2021.2.3,Win32,59.88023952,,,,,,,,,,,,,,,
,,"[""diamond"",""green"",""vert"",""up"",[150,0],[-150,0]]",diamond,green,vert,up,"[150,0]","[-150,0]",up,1,1.962,7,0,7,0,1,001,2025-03-10_16h54.41.791,SL_base_41,2021.2.3,Win32,59.88023952,,,,,,,,,,,,,,,
,,"[""circle"",""red"",""hori"",""left"",[-150,0],[106,106]]",circle,red,hori,left,"[-150,0]","[106,106]",,0,,8,0,8,0,1,001,2025-03-10_16h54.41.791,SL_base_41,2021.2.3,Win32,59.88023952,,,,,,,,,,,,,,,
,,"[""diamond"",""green"",""hori"",""left"",[106,106],[0,-150]]",diamond,green,hori,left,"[106,106]","[0,-150]",left,1,1.1672,9,0,9,0,1,001,2025-03-10_16h54.41.791,SL_base_41,2021.2.3,Win32,59.88023952,,,,,,,,,,,,,,,
,,"[""circle"",""no_dis"",""hori"",""left"",[99999,99999],[106,-106]]",circle,no_dis,hori,left,"[99999,99999]","[106,-106]",left,1,1.4342,,,,,,001,2025-03-10_16h54.41.791,SL_base_41,2021.2.3,Win32,59.88023952,space,19.334,0,0,0,0,1,,,,,,,,
,,"[""circle"",""red"",""vert"",""up"",[0,-150],[-106,-106]]",circle,red,vert,up,"[0,-150]","[-106,-106]",left,0,1.4861,,,,,,001,2025-03-10_16h54.41.791,SL_base_41,2021.2.3,Win32,59.88023952,,,1,0,1,0,1,,,,,,,,
,,"[""diamond"",""no_dis"",""hori"",""left"",[99999,99999],[106,106]]",diamond,no_dis,hori,left,"[99999,99999]","[106,106]",left,1,1.45,,,,,,001,2025-03-10_16h54.41.791,SL_base_41,2021.2.3,Win32,59.88023952,,,2,0,2,0,1,,,,,,,,
,,"[""diamond"",""green"",""vert"",""up"",[-150,0],[150,0]]",diamond,green,vert,up,"[-150,0]","[150,0]",up,1,2.2149,,,,,,001,2025-03-10_16h54.41.791,SL_base_41,2021.2.3,Win32,59.88023952,,,3,0,3,0,1,,,,,,,,
,,"[""circle"",""red"",""vert"",""up"",[106,106],[-106,-106]]",circle,red,vert,up,"[106,106]","[-106,-106]",up,1,1.7626,,,,,,001,2025-03-10_16h54.41.791,SL_base_41,2021.2.3,Win32,59.88023952,,,4,0,4,0,1,,,,,,,,
,,"[""diamond"",""red"",""hori"",""left"",[106,106],[-106,106]]",diamond,red,hori,left,"[106,106]","[-106,106]",left,1,1.6567,,,,,,001,2025-03-10_16h54.41.791,SL_base_41,2021.2.3,Win32,59.88023952,,,5,0,5,0,1,,,,,,,,
,,"[""diamond"",""red"",""vert"",""up"",[0,150],[-106,-106]]",diamond,red,vert,up,"[0,150]","[-106,-106]",up,1,1.1411,,,,,,001,2025-03-10_16h54.41.791,SL_base_41,2021.2.3,Win32,59.88023952,,,6,0,6,0,1,,,,,,,,
,,"[""diamond"",""green"",""vert"",""up"",[150,0],[-150,0]]",diamond,green,vert,up,"[150,0]","[-150,0]",up,1,1.4824,,,,,,001,2025-03-10_16h54.41.791,SL_base_41,2021.2.3,Win32,59.88023952,,,7,0,7,0,1,,,,,,,,
,,"[""circle"",""red"",""hori"",""left"",[-150,0],[106,106]]",circle,red,hori,left,"[-150,0]","[106,106]",left,1,2.0345,,,,,,001,2025-03-10_16h54.41.791,SL_base_41,2021.2.3,Win32,59.88023952,,,8,0,8,0,1,,,,,,,,
,,"[""diamond"",""green"",""hori"",""left"",[106,106],[0,-150]]",diamond,green,hori,left,"[106,106]","[0,-150]",up,0,1.3126,,,,,,001,2025-03-10_16h54.41.791,SL_base_41,2021.2.3,Win32,59.88023952,,,9,0,9,0,1,,,,,,,,
,,"[""circle"",""red"",""vert"",""up"",[150,0],[0,-150]]",circle,red,vert,up,"[150,0]","[0,-150]",up,1,1.5088,,,,,,001,2025-03-10_16h54.41.791,SL_base_41,2021.2.3,Win32,59.88023952,,,10,0,10,0,1,,,,,,,,
,,"[""circle"",""no_dis"",""hori"",""left"",[99999,99999],[0,-150]]",circle,no_dis,hori,left,"[99999,99999]","[0,-150]",left,1,1.7419,,,,,,001,2025-03-10_16h54.41.791,SL_base_41,2021.2.3,Win32,59.88023952,,,11,0,11,0,1,,,,,,,,
,,"[""diamond"",""green"",""hori"",""left"",[106,-106],[106,106]]",diamond,green,hori,left,"[106,-106]","[106,106]",up,0,1.5523,,,,,,001,2025-03-10_16h54.41.791,SL_base_41,2021.2.3,Win32,59.88023952,,,12,0,12,0,1,,,,,,,,
,,"[""diamond"",""red"",""hori"",""left"",[-150,0],[-106,106]]",diamond,red,hori,left,"[-150,0]","[-106,106]",left,1,1.9848,,,,,,001,2025-03-10_16h54.41.791,SL_base_41,2021.2.3,Win32,59.88023952,,,13,0,13,0,1,,,,,,,,
,,"[""diamond"",""green"",""vert"",""up"",[0,150],[150,0]]",diamond,green,vert,up,"[0,150]","[150,0]",up,1,1.4309,,,,,,001,2025-03-10_16h54.41.791,SL_base_41,2021.2.3,Win32,59.88023952,,,14,0,14,0,1,,,,,,,,
,,"[""circle"",""green"",""hori"",""left"",[106,106],[106,-106]]",circle,green,hori,left,"[106,106]","[106,-106]",left,1,1.7827,,,,,,001,2025-03-10_16h54.41.791,SL_base_41,2021.2.3,Win32,59.88023952,,,15,0,15,0,1,,,,,,,,
,,"[""diamond"",""no_dis"",""vert"",""up"",[99999,99999],[-106,106]]",diamond,no_dis,vert,up,"[99999,99999]","[-106,106]",up,1,1.9292,,,,,,001,2025-03-10_16h54.41.791,SL_base_41,2021.2.3,Win32,59.88023952,,,16,0,16,0,1,,,,,,,,
,,"[""diamond"",""red"",""vert"",""up"",[106,106],[-106,106]]",diamond,red,vert,up,"[106,106]","[-106,106]",up,1,1.474,,,,,,001,2025-03-10_16h54.41.791,SL_base_41,2021.2.3,Win32,59.88023952,,,17,0,17,0,1,,,,,,,,
,,"[""circle"",""green"",""vert"",""up"",[-106,-106],[106,106]]",circle,green,vert,up,"[-106,-106]","[106,106]",up,1,1.9514,,,,,,001,2025-03-10_16h54.41.791,SL_base_41,2021.2.3,Win32,59.88023952,,,18,0,18,0,1,,,,,,,,
,,"[""circle"",""no_dis"",""vert"",""up"",[99999,99999],[106,106]]",circle,no_dis,vert,up,"[99999,99999]","[106,106]",up,1,1.993,,,,,,001,2025-03-10_16h54.41.791,SL_base_41,2021.2.3,Win32,59.88023952,,,19,0,19,0,1,,,,,,,,
,,"[""circle"",""green"",""hori"",""left"",[106,106],[106,-106]]",circle,green,hori,left,"[106,106]","[106,-106]",up,0,2.0613,,,,,,001,2025-03-10_16h54.41.791,SL_base_41,2021.2.3,Win32,59.88023952,,,20,0,20,0,1,,,,,,,,
,,"[""diamond"",""green"",""hori"",""left"",[-106,106],[150,0]]",diamond,green,hori,left,"[-106,106]","[150,0]",left,1,2.2383,,,,,,001,2025-03-10_16h54.41.791,SL_base_41,2021.2.3,Win32,59.88023952,,,21,0,21,0,1,,,,,,,,
,,"[""diamond"",""red"",""vert"",""up"",[106,-106],[0,150]]",diamond,red,vert,up,"[106,-106]","[0,150]",up,1,1.6986,,,,,,001,2025-03-10_16h54.41.791,SL_base_41,2021.2.3,Win32,59.88023952,,,22,0,22,0,1,,,,,,,,
,,"[""circle"",""red"",""hori"",""left"",[-106,-106],[0,-150]]",circle,red,hori,left,"[-106,-106]","[0,-150]",left,1,1.6499,,,,,,001,2025-03-10_16h54.41.791,SL_base_41,2021.2.3,Win32,59.88023952,,,23,0,23,0,1,,,,,,,,
,,"[""diamond"",""no_dis"",""hori"",""left"",[99999,99999],[-150,0]]",diamond,no_dis,hori,left,"[99999,99999]","[-150,0]",left,1,1.8422,,,,,,001,2025-03-10_16h54.41.791,SL_base_41,2021.2.3,Win32,59.88023952,,,24,0,24,0,1,,,,,,,,
,,"[""circle"",""no_dis"",""vert"",""up"",[99999,99999],[0,150]]",circle,no_dis,vert,up,"[99999,99999]","[0,150]",up,1,2.6263,,,,,,001,2025-03-10_16h54.41.791,SL_base_41,2021.2.3,Win32,59.88023952,,,25,0,25,0,1,,,,,,,,
,,"[""diamond"",""no_dis"",""hori"",""left"",[99999,99999],[150,0]]",diamond,no_dis,hori,left,"[99999,99999]","[150,0]",left,1,0.9677,,,,,,001,2025-03-10_16h54.41.791,SL_base_41,2021.2.3,Win32,59.88023952,,,26,0,26,0,1,,,,,,,,
,,"[""circle"",""green"",""hori"",""left"",[106,106],[106,-106]]",circle,green,hori,left,"[106,106]","[106,-106]",left,1,1.3998,,,,,,001,2025-03-10_16h54.41.791,SL_base_41,2021.2.3,Win32,59.88023952,,,27,0,27,0,1,,,,,,,,
,,"[""diamond"",""green"",""hori"",""left"",[106,106],[-150,0]]",diamond,green,hori,left,"[106,106]","[-150,0]",left,1,1.3647,,,,,,001,2025-03-10_16h54.41.791,SL_base_41,2021.2.3,Win32,59.88023952,,,28,0,28,0,1,,,,,,,,
,,"[""diamond"",""red"",""hori"",""left"",[106,106],[106,-106]]",diamond,red,hori,left,"[106,106]","[106,-106]",left,1,1.535,,,,,,001,2025-03-10_16h54.41.791,SL_base_41,2021.2.3,Win32,59.88023952,,,29,0,29,0,1,,,,,,,,
,,"[""diamond"",""green"",""vert"",""up"",[106,106],[-106,-106]]",diamond,green,vert,up,"[106,106]","[-106,-106]",up,1,1.6709,,,,,,001,2025-03-10_16h54.41.791,SL_base_41,2021.2.3,Win32,59.88023952,,,30,0,30,0,1,,,,,,,,
,,"[""diamond"",""red"",""vert"",""up"",[0,-150],[106,106]]",diamond,red,vert,up,"[0,-150]","[106,106]",up,1,1.5841,,,,,,001,2025-03-10_16h54.41.791,SL_base_41,2021.2.3,Win32,59.88023952,,,31,0,31,0,1,,,,,,,,
,,"[""circle"",""no_dis"",""vert"",""up"",[99999,99999],[-150,0]]",circle,no_dis,vert,up,"[99999,99999]","[-150,0]",up,1,1.5989,,,,,,001,2025-03-10_16h54.41.791,SL_base_41,2021.2.3,Win32,59.88023952,,,32,0,32,0,1,,,,,,,,
,,"[""circle"",""green"",""vert"",""up"",[106,106],[150,0]]",circle,green,vert,up,"[106,106]","[150,0]",up,1,1.833,,,,,,001,2025-03-10_16h54.41.791,SL_base_41,2021.2.3,Win32,59.88023952,,,33,0,33,0,1,,,,,,,,
,,"[""circle"",""red"",""hori"",""left"",[-106,-106],[106,-106]]",circle,red,hori,left,"[-106,-106]","[106,-106]",left,1,1.4334,,,,,,001,2025-03-10_16h54.41.791,SL_base_41,2021.2.3,Win32,59.88023952,,,34,0,34,0,1,,,,,,,,
,,"[""diamond"",""green"",""vert"",""up"",[-106,-106],[106,106]]",diamond,green,vert,up,"[-106,-106]","[106,106]",up,1,1.4981,,,,,,001,2025-03-10_16h54.41.791,SL_base_41,2021.2.3,Win32,59.88023952,,,35,0,35,0,1,,,,,,,,
,,"[""diamond"",""red"",""hori"",""left"",[106,-106],[0,-150]]",diamond,red,hori,left,"[106,-106]","[0,-150]",left,1,1.2504,,,,,,001,2025-03-10_16h54.41.791,SL_base_41,2021.2.3,Win32,59.88023952,,,36,0,36,0,1,,,,,,,,
,,"[""circle"",""no_dis"",""vert"",""up"",[99999,99999],[-106,-106]]",circle,no_dis,vert,up,"[99999,99999]","[-106,-106]",left,0,1.1744,,,,,,001,2025-03-10_16h54.41.791,SL_base_41,2021.2.3,Win32,59.88023952,,,37,0,37,0,1,,,,,,,,
,,"[""circle"",""red"",""hori"",""left"",[-150,0],[0,-150]]",circle,red,hori,left,"[-150,0]","[0,-150]",left,1,1.3965,,,,,,001,2025-03-10_16h54.41.791,SL_base_41,2021.2.3,Win32,59.88023952,,,38,0,38,0,1,,,,,,,,
,,"[""circle"",""green"",""vert"",""up"",[0,-150],[-106,-106]]",circle,green,vert,up,"[0,-150]","[-106,-106]",up,1,1.3861,,,,,,001,2025-03-10_16h54.41.791,SL_base_41,2021.2.3,Win32,59.88023952,,,39,0,39,0,1,,,,,,,,
,,"[""diamond"",""red"",""hori"",""left"",[106,-106],[0,-150]]",diamond,red,hori,left,"[106,-106]","[0,-150]",left,1,1.9636,,,,,,001,2025-03-10_16h54.41.791,SL_base_41,2021.2.3,Win32,59.88023952,,,40,0,40,0,1,,,,,,,,
,,"[""circle"",""green"",""vert"",""up"",[106,106],[-150,0]]",circle,green,vert,up,"[106,106]","[-150,0]",up,1,1.4706,,,,,,001,2025-03-10_16h54.41.791,SL_base_41,2021.2.3,Win32,59.88023952,,,41,0,41,0,1,,,,,,,,
,,"[""diamond"",""red"",""hori"",""left"",[-150,0],[0,-150]]",diamond,red,hori,left,"[-150,0]","[0,-150]",left,1,1.2833,,,,,,001,2025-03-10_16h54.41.791,SL_base_41,2021.2.3,Win32,59.88023952,,,42,0,42,0,1,,,,,,,,
,,"[""circle"",""red"",""hori"",""left"",[106,106],[0,-150]]",circle,red,hori,left,"[106,106]","[0,-150]",left,1,1.3959,,,,,,001,2025-03-10_16h54.41.791,SL_base_41,2021.2.3,Win32,59.88023952,,,43,0,43,0,1,,,,,,,,
,,"[""circle"",""red"",""vert"",""up"",[-150,0],[0,-150]]",circle,red,vert,up,"[-150,0]","[0,-150]",up,1,1.4606,,,,,,001,2025-03-10_16h54.41.791,SL_base_41,2021.2.3,Win32,59.88023952,,,44,0,44,0,1,,,,,,,,
,,"[""diamond"",""no_dis"",""hori"",""left"",[99999,99999],[106,-106]]",diamond,no_dis,hori,left,"[99999,99999]","[106,-106]",left,1,1.7497,,,,,,001,2025-03-10_16h54.41.791,SL_base_41,2021.2.3,Win32,59.88023952,,,45,0,45,0,1,,,,,,,,
,,"[""circle"",""green"",""vert"",""up"",[106,106],[0,150]]",circle,green,vert,up,"[106,106]","[0,150]",up,1,1.6628,,,,,,001,2025-03-10_16h54.41.791,SL_base_41,2021.2.3,Win32,59.88023952,,,46,0,46,0,1,,,,,,,,
,,"[""circle"",""no_dis"",""hori"",""left"",[99999,99999],[-106,106]]",circle,no_dis,hori,left,"[99999,99999]","[-106,106]",left,1,1.6974,,,,,,001,2025-03-10_16h54.41.791,SL_base_41,2021.2.3,Win32,59.88023952,,,47,0,47,0,1,,,,,,,,
,,"[""diamond"",""no_dis"",""hori"",""left"",[99999,99999],[-106,-106]]",diamond,no_dis,hori,left,"[99999,99999]","[-106,-106]",left,1,1.496,,,,,,001,2025-03-10_16h54.41.791,SL_base_41,2021.2.3,Win32,59.88023952,,,48,0,48,0,1,,,,,,,,
,,"[""diamond"",""no_dis"",""vert"",""up"",[99999,99999],[0,150]]",diamond,no_dis,vert,up,"[99999,99999]","[0,150]",up,1,1.934,,,,,,001,2025-03-10_16h54.41.791,SL_base_41,2021.2.3,Win32,59.88023952,,,49,0,49,0,1,,,,,,,,
,,"[""diamond"",""no_dis"",""vert"",""up"",[99999,99999],[0,-150]]",diamond,no_dis,vert,up,"[99999,99999]","[0,-150]",up,1,1.6468,,,,,,001,2025-03-10_16h54.41.791,SL_base_41,2021.2.3,Win32,59.88023952,,,50,0,50,0,1,,,,,,,,
,,"[""diamond"",""no_dis"",""hori"",""left"",[99999,99999],[-106,106]]",diamond,no_dis,hori,left,"[99999,99999]","[-106,106]",left,1,1.8153,,,,,,001,2025-03-10_16h54.41.791,SL_base_41,2021.2.3,Win32,59.88023952,,,51,0,51,0,1,,,,,,,,
,,"[""diamond"",""no_dis"",""hori"",""left"",[99999,99999],[-106,-106]]",diamond,no_dis,hori,left,"[99999,99999]","[-106,-106]",left,1,1.5053,,,,,,001,2025-03-10_16h54.41.791,SL_base_41,2021.2.3,Win32,59.88023952,,,52,0,52,0,1,,,,,,,,
,,"[""diamond"",""red"",""vert"",""up"",[106,-106],[150,0]]",diamond,red,vert,up,"[106,-106]","[150,0]",up,1,1.5993,,,,,,001,2025-03-10_16h54.41.791,SL_base_41,2021.2.3,Win32,59.88023952,,,53,0,53,0,1,,,,,,,,
,,"[""circle"",""green"",""hori"",""left"",[106,106],[150,0]]",circle,green,hori,left,"[106,106]","[150,0]",left,1,1.7933,,,,,,001,2025-03-10_16h54.41.791,SL_base_41,2021.2.3,Win32,59.88023952,,,54,0,54,0,1,,,,,,,,
,,"[""diamond"",""no_dis"",""vert"",""up"",[99999,99999],[106,106]]",diamond,no_dis,vert,up,"[99999,99999]","[106,106]",up,1,1.7424,,,,,,001,2025-03-10_16h54.41.791,SL_base_41,2021.2.3,Win32,59.88023952,,,55,0,55,0,1,,,,,,,,
,,"[""circle"",""red"",""hori"",""left"",[0,150],[150,0]]",circle,red,hori,left,"[0,150]","[150,0]",left,1,1.5911,,,,,,001,2025-03-10_16h54.41.791,SL_base_41,2021.2.3,Win32,59.88023952,,,56,0,56,0,1,,,,,,,,
,,"[""circle"",""red"",""hori"",""left"",[150,0],[-106,-106]]",circle,red,hori,left,"[150,0]","[-106,-106]",left,1,1.3023,,,,,,001,2025-03-10_16h54.41.791,SL_base_41,2021.2.3,Win32,59.88023952,,,57,0,57,0,1,,,,,,,,
,,"[""circle"",""red"",""vert"",""up"",[-106,106],[0,150]]",circle,red,vert,up,"[-106,106]","[0,150]",up,1,1.733,,,,,,001,2025-03-10_16h54.41.791,SL_base_41,2021.2.3,Win32,59.88023952,,,58,0,58,0,1,,,,,,,,
,,"[""diamond"",""red"",""vert"",""up"",[-106,106],[106,-106]]",diamond,red,vert,up,"[-106,106]","[106,-106]",up,1,1.9625,,,,,,001,2025-03-10_16h54.41.791,SL_base_41,2021.2.3,Win32,59.88023952,,,59,0,59,0,1,,,,,,,,
,,"[""diamond"",""red"",""hori"",""left"",[106,106],[-150,0]]",diamond,red,hori,left,"[106,106]","[-150,0]",up,0,1.4716,,,,,,001,2025-03-10_16h54.41.791,SL_base_41,2021.2.3,Win32,59.88023952,,,60,0,60,0,1,,,,,,,,
,,"[""diamond"",""green"",""vert"",""up"",[106,106],[106,-106]]",diamond,green,vert,up,"[106,106]","[106,-106]",up,1,1.7487,,,,,,001,2025-03-10_16h54.41.791,SL_base_41,2021.2.3,Win32,59.88023952,,,61,0,61,0,1,,,,,,,,
,,"[""diamond"",""red"",""vert"",""up"",[0,-150],[106,106]]",diamond,red,vert,up,"[0,-150]","[106,106]",up,1,2.4238,,,,,,001,2025-03-10_16h54.41.791,SL_base_41,2021.2.3,Win32,59.88023952,,,62,0,62,0,1,,,,,,,,
,,"[""diamond"",""red"",""vert"",""up"",[0,150],[-106,-106]]",diamond,red,vert,up,"[0,150]","[-106,-106]",up,1,1.5492,,,,,,001,2025-03-10_16h54.41.791,SL_base_41,2021.2.3,Win32,59.88023952,,,63,0,63,0,1,,,,,,,,
,,"[""circle"",""red"",""vert"",""up"",[0,-150],[-106,106]]",circle,red,vert,up,"[0,-150]","[-106,106]",up,1,1.9346,,,,,,001,2025-03-10_16h54.41.791,SL_base_41,2021.2.3,Win32,59.88023952,,,64,0,64,0,1,,,,,,,,
,,"[""diamond"",""red"",""vert"",""up"",[-106,106],[106,-106]]",diamond,red,vert,up,"[-106,106]","[106,-106]",up,1,1.8127,,,,,,001,2025-03-10_16h54.41.791,SL_base_41,2021.2.3,Win32,59.88023952,,,65,0,65,0,1,,,,,,,,
,,"[""diamond"",""red"",""vert"",""up"",[106,106],[106,-106]]",diamond,red,vert,up,"[106,106]","[106,-106]",up,1,2.2966,,,,,,001,2025-03-10_16h54.41.791,SL_base_41,2021.2.3,Win32,59.88023952,,,66,0,66,0,1,,,,,,,,
,,"[""circle"",""red"",""hori"",""left"",[106,-106],[106,106]]",circle,red,hori,left,"[106,-106]","[106,106]",left,1,1.9035,,,,,,001,2025-03-10_16h54.41.791,SL_base_41,2021.2.3,Win32,59.88023952,,,67,0,67,0,1,,,,,,,,
,,"[""circle"",""red"",""hori"",""left"",[-106,106],[106,106]]",circle,red,hori,left,"[-106,106]","[106,106]",left,1,1.2619,,,,,,001,2025-03-10_16h54.41.791,SL_base_41,2021.2.3,Win32,59.88023952,,,68,0,68,0,1,,,,,,,,
,,"[""diamond"",""green"",""hori"",""left"",[-106,106],[106,106]]",diamond,green,hori,left,"[-106,106]","[106,106]",left,1,1.3475,,,,,,001,2025-03-10_16h54.41.791,SL_base_41,2021.2.3,Win32,59.88023952,,,69,0,69,0,1,,,,,,,,
,,"[""circle"",""green"",""vert"",""up"",[106,-106],[150,0]]",circle,green,vert,up,"[106,-106]","[150,0]",up,1,1.6769,,,,,,001,2025-03-10_16h54.41.791,SL_base_41,2021.2.3,Win32,59.88023952,,,70,0,70,0,1,,,,,,,,
,,"[""circle"",""no_dis"",""vert"",""up"",[99999,99999],[-150,0]]",circle,no_dis,vert,up,"[99999,99999]","[-150,0]",up,1,2.3988,,,,,,001,2025-03-10_16h54.41.791,SL_base_41,2021.2.3,Win32,59.88023952,,,71,0,71,0,1,,,,,,,,
,,"[""circle"",""no_dis"",""hori"",""left"",[99999,99999],[-106,-106]]",circle,no_dis,hori,left,"[99999,99999]","[-106,-106]",left,1,1.9015,,,,,,001,2025-03-10_16h54.41.791,SL_base_41,2021.2.3,Win32,59.88023952,,,72,0,72,0,1,,,,,,,,
,,"[""circle"",""red"",""vert"",""up"",[106,106],[150,0]]",circle,red,vert,up,"[106,106]","[150,0]",up,1,2.6165,,,,,,001,2025-03-10_16h54.41.791,SL_base_41,2021.2.3,Win32,59.88023952,,,73,0,73,0,1,,,,,,,,
,,"[""diamond"",""red"",""hori"",""left"",[106,106],[0,150]]",diamond,red,hori,left,"[106,106]","[0,150]",left,1,1.8222,,,,,,001,2025-03-10_16h54.41.791,SL_base_41,2021.2.3,Win32,59.88023952,,,74,0,74,0,1,,,,,,,,
,,"[""circle"",""green"",""hori"",""left"",[0,-150],[-150,0]]",circle,green,hori,left,"[0,-150]","[-150,0]",left,1,2.1331,,,,,,001,2025-03-10_16h54.41.791,SL_base_41,2021.2.3,Win32,59.88023952,,,75,0,75,0,1,,,,,,,,
,,"[""diamond"",""green"",""hori"",""left"",[-106,-106],[-106,106]]",diamond,green,hori,left,"[-106,-106]","[-106,106]",left,1,2.5725,,,,,,001,2025-03-10_16h54.41.791,SL_base_41,2021.2.3,Win32,59.88023952,,,76,0,76,0,1,,,,,,,,
,,"[""circle"",""green"",""hori"",""left"",[0,-150],[0,150]]",circle,green,hori,left,"[0,-150]","[0,150]",left,1,2.1965,,,,,,001,2025-03-10_16h54.41.791,SL_base_41,2021.2.3,Win32,59.88023952,,,77,0,77,0,1,,,,,,,,
,,"[""diamond"",""red"",""hori"",""left"",[106,106],[0,150]]",diamond,red,hori,left,"[106,106]","[0,150]",left,1,2.2103,,,,,,001,2025-03-10_16h54.41.791,SL_base_41,2021.2.3,Win32,59.88023952,,,78,0,78,0,1,,,,,,,,
,,"[""circle"",""no_dis"",""vert"",""up"",[99999,99999],[-150,0]]",circle,no_dis,vert,up,"[99999,99999]","[-150,0]",up,1,1.3057,,,,,,001,2025-03-10_16h54.41.791,SL_base_41,2021.2.3,Win32,59.88023952,,,79,0,79,0,1,,,,,,,,
,,"[""circle"",""no_dis"",""vert"",""up"",[99999,99999],[-106,106]]",circle,no_dis,vert,up,"[99999,99999]","[-106,106]",up,1,1.8516,,,,,,001,2025-03-10_16h54.41.791,SL_base_41,2021.2.3,Win32,59.88023952,,,80,0,80,0,1,,,,,,,,
,,"[""diamond"",""no_dis"",""vert"",""up"",[99999,99999],[0,-150]]",diamond,no_dis,vert,up,"[99999,99999]","[0,-150]",up,1,1.3467,,,,,,001,2025-03-10_16h54.41.791,SL_base_41,2021.2.3,Win32,59.88023952,,,81,0,81,0,1,,,,,,,,
,,"[""diamond"",""no_dis"",""vert"",""up"",[99999,99999],[0,-150]]",diamond,no_dis,vert,up,"[99999,99999]","[0,-150]",up,1,1.165,,,,,,001,2025-03-10_16h54.41.791,SL_base_41,2021.2.3,Win32,59.88023952,,,82,0,82,0,1,,,,,,,,
,,"[""circle"",""no_dis"",""hori"",""left"",[99999,99999],[106,-106]]",circle,no_dis,hori,left,"[99999,99999]","[106,-106]",left,1,1.9838,,,,,,001,2025-03-10_16h54.41.791,SL_base_41,2021.2.3,Win32,59.88023952,,,83,0,83,0,1,,,,,,,,
,,"[""diamond"",""red"",""hori"",""left"",[106,106],[-106,106]]",diamond,red,hori,left,"[106,106]","[-106,106]",left,1,1.8937,,,,,,001,2025-03-10_16h54.41.791,SL_base_41,2021.2.3,Win32,59.88023952,,,84,0,84,0,1,,,,,,,,
,,"[""circle"",""red"",""hori"",""left"",[-106,106],[-150,0]]",circle,red,hori,left,"[-106,106]","[-150,0]",left,1,1.7275,,,,,,001,2025-03-10_16h54.41.791,SL_base_41,2021.2.3,Win32,59.88023952,,,85,0,85,0,1,,,,,,,,
,,"[""circle"",""green"",""hori"",""left"",[-106,-106],[-106,106]]",circle,green,hori,left,"[-106,-106]","[-106,106]",left,1,2.4642,,,,,,001,2025-03-10_16h54.41.791,SL_base_41,2021.2.3,Win32,59.88023952,,,86,0,86,0,1,,,,,,,,
,,"[""circle"",""red"",""vert"",""up"",[106,-106],[-106,106]]",circle,red,vert,up,"[106,-106]","[-106,106]",up,1,2.5205,,,,,,001,2025-03-10_16h54.41.791,SL_base_41,2021.2.3,Win32,59.88023952,,,87,0,87,0,1,,,,,,,,
,,"[""diamond"",""green"",""vert"",""up"",[-106,-106],[106,-106]]",diamond,green,vert,up,"[-106,-106]","[106,-106]",up,1,1.7361,,,,,,001,2025-03-10_16h54.41.791,SL_base_41,2021.2.3,Win32,59.88023952,,,88,0,88,0,1,,,,,,,,
,,"[""circle"",""green"",""hori"",""left"",[106,106],[150,0]]",circle,green,hori,left,"[106,106]","[150,0]",left,1,2.4286,,,,,,001,2025-03-10_16h54.41.791,SL_base_41,2021.2.3,Win32,59.88023952,,,89,0,89,0,1,,,,,,,,
,,"[""diamond"",""no_dis"",""hori"",""left"",[99999,99999],[106,-106]]",diamond,no_dis,hori,left,"[99999,99999]","[106,-106]",up,0,2.9055,,,,,,001,2025-03-10_16h54.41.791,SL_base_41,2021.2.3,Win32,59.88023952,,,90,0,90,0,1,,,,,,,,
,,"[""diamond"",""red"",""vert"",""up"",[106,106],[150,0]]",diamond,red,vert,up,"[106,106]","[150,0]",up,1,1.6527,,,,,,001,2025-03-10_16h54.41.791,SL_base_41,2021.2.3,Win32,59.88023952,,,91,0,91,0,1,,,,,,,,
,,"[""diamond"",""green"",""hori"",""left"",[150,0],[-150,0]]",diamond,green,hori,left,"[150,0]","[-150,0]",left,1,2.2127,,,,,,001,2025-03-10_16h54.41.791,SL_base_41,2021.2.3,Win32,59.88023952,,,92,0,92,0,1,,,,,,,,
,,"[""diamond"",""green"",""hori"",""left"",[106,106],[-106,-106]]",diamond,green,hori,left,"[106,106]","[-106,-106]",left,1,1.7363,,,,,,001,2025-03-10_16h54.41.791,SL_base_41,2021.2.3,Win32,59.88023952,,,93,0,93,0,1,,,,,,,,
,,"[""circle"",""green"",""vert"",""up"",[0,150],[106,-106]]",circle,green,vert,up,"[0,150]","[106,-106]",up,1,1.8777,,,,,,001,2025-03-10_16h54.41.791,SL_base_41,2021.2.3,Win32,59.88023952,,,94,0,94,0,1,,,,,,,,
,,"[""diamond"",""red"",""hori"",""left"",[106,106],[150,0]]",diamond,red,hori,left,"[106,106]","[150,0]",left,1,2.3944,,,,,,001,2025-03-10_16h54.41.791,SL_base_41,2021.2.3,Win32,59.88023952,,,95,0,95,0,1,,,,,,,,
,,"[""circle"",""no_dis"",""vert"",""up"",[99999,99999],[-106,-106]]",circle,no_dis,vert,up,"[99999,99999]","[-106,-106]",up,1,2.6721,,,,,,001,2025-03-10_16h54.41.791,SL_base_41,2021.2.3,Win32,59.88023952,,,96,0,96,0,1,,,,,,,,
,,"[""circle"",""green"",""hori"",""left"",[0,150],[106,-106]]",circle,green,hori,left,"[0,150]","[106,-106]",left,1,1.697,,,,,,001,2025-03-10_16h54.41.791,SL_base_41,2021.2.3,Win32,59.88023952,,,97,0,97,0,1,,,,,,,,
,,"[""circle"",""red"",""vert"",""up"",[106,106],[150,0]]",circle,red,vert,up,"[106,106]","[150,0]",up,1,2.5276,,,,,,001,2025-03-10_16h54.41.791,SL_base_41,2021.2.3,Win32,59.88023952,,,98,0,98,0,1,,,,,,,,
,,"[""circle"",""red"",""vert"",""up"",[150,0],[0,-150]]",circle,red,vert,up,"[150,0]","[0,-150]",up,1,1.2659,,,,,,001,2025-03-10_16h54.41.791,SL_base_41,2021.2.3,Win32,59.88023952,,,99,0,99,0,1,,,,,,,,
,,"[""circle"",""green"",""hori"",""left"",[106,106],[-150,0]]",circle,green,hori,left,"[106,106]","[-150,0]",left,1,1.8264,,,,,,001,2025-03-10_16h54.41.791,SL_base_41,2021.2.3,Win32,59.88023952,,,100,0,100,0,1,,,,,,,,
,,"[""circle"",""no_dis"",""hori"",""left"",[99999,99999],[106,106]]",circle,no_dis,hori,left,"[99999,99999]","[106,106]",left,1,1.6256,,,,,,001,2025-03-10_16h54.41.791,SL_base_41,2021.2.3,Win32,59.88023952,,,101,0,101,0,1,,,,,,,,
,,"[""circle"",""no_dis"",""hori"",""left"",[99999,99999],[-150,0]]",circle,no_dis,hori,left,"[99999,99999]","[-150,0]",left,1,1.2178,,,,,,001,2025-03-10_16h54.41.791,SL_base_41,2021.2.3,Win32,59.88023952,,,102,0,102,0,1,,,,,,,,
,,"[""diamond"",""no_dis"",""vert"",""up"",[99999,99999],[150,0]]",diamond,no_dis,vert,up,"[99999,99999]","[150,0]",up,1,2.0937,,,,,,001,2025-03-10_16h54.41.791,SL_base_41,2021.2.3,Win32,59.88023952,,,103,0,103,0,1,,,,,,,,
,,"[""circle"",""green"",""hori"",""left"",[150,0],[-106,106]]",circle,green,hori,left,"[150,0]","[-106,106]",left,1,1.8483,,,,,,001,2025-03-10_16h54.41.791,SL_base_41,2021.2.3,Win32,59.88023952,,,104,0,104,0,1,,,,,,,,
,,"[""diamond"",""green"",""hori"",""left"",[106,106],[-106,-106]]",diamond,green,hori,left,"[106,106]","[-106,-106]",left,1,1.949,,,,,,001,2025-03-10_16h54.41.791,SL_base_41,2021.2.3,Win32,59.88023952,,,105,0,105,0,1,,,,,,,,
,,"[""circle"",""green"",""vert"",""up"",[0,150],[-150,0]]",circle,green,vert,up,"[0,150]","[-150,0]",up,1,2.6121,,,,,,001,2025-03-10_16h54.41.791,SL_base_41,2021.2.3,Win32,59.88023952,,,106,0,106,0,1,,,,,,,,
,,"[""diamond"",""green"",""vert"",""up"",[-106,106],[0,150]]",diamond,green,vert,up,"[-106,106]","[0,150]",up,1,2.019,,,,,,001,2025-03-10_16h54.41.791,SL_base_41,2021.2.3,Win32,59.88023952,,,107,0,107,0,1,,,,,,,,
,,"[""diamond"",""green"",""vert"",""up"",[150,0],[-106,-106]]",diamond,green,vert,up,"[150,0]","[-106,-106]",up,1,1.8872,,,,,,001,2025-03-10_16h54.41.791,SL_base_41,2021.2.3,Win32,59.88023952,,,108,0,108,0,1,,,,,,,,
,,"[""circle"",""green"",""vert"",""up"",[0,150],[0,-150]]",circle,green,vert,up,"[0,150]","[0,-150]",up,1,1.8844,,,,,,001,2025-03-10_16h54.41.791,SL_base_41,2021.2.3,Win32,59.88023952,,,109,0,109,0,1,,,,,,,,
,,"[""circle"",""green"",""vert"",""up"",[-150,0],[106,106]]",circle,green,vert,up,"[-150,0]","[106,106]",up,1,1.9498,,,,,,001,2025-03-10_16h54.41.791,SL_base_41,2021.2.3,Win32,59.88023952,,,110,0,110,0,1,,,,,,,,
,,"[""diamond"",""green"",""hori"",""left"",[-150,0],[-106,106]]",diamond,green,hori,left,"[-150,0]","[-106,106]",left,1,2.1003,,,,,,001,2025-03-10_16h54.41.791,SL_base_41,2021.2.3,Win32,59.88023952,,,111,0,111,0,1,,,,,,,,
,,"[""circle"",""red"",""vert"",""up"",[150,0],[0,-150]]",circle,red,vert,up,"[150,0]","[0,-150]",up,1,1.5159,,,,,,001,2025-03-10_16h54.41.791,SL_base_41,2021.2.3,Win32,59.88023952,,,112,0,112,0,1,,,,,,,,
,,"[""circle"",""no_dis"",""vert"",""up"",[99999,99999],[0,-150]]",circle,no_dis,vert,up,"[99999,99999]","[0,-150]",up,1,1.2344,,,,,,001,2025-03-10_16h54.41.791,SL_base_41,2021.2.3,Win32,59.88023952,,,113,0,113,0,1,,,,,,,,
,,"[""circle"",""no_dis"",""hori"",""left"",[99999,99999],[150,0]]",circle,no_dis,hori,left,"[99999,99999]","[150,0]",left,1,2.2773,,,,,,001,2025-03-10_16h54.41.791,SL_base_41,2021.2.3,Win32,59.88023952,,,114,0,114,0,1,,,,,,,,
,,"[""circle"",""no_dis"",""vert"",""up"",[99999,99999],[0,150]]",circle,no_dis,vert,up,"[99999,99999]","[0,150]",up,1,1.6326,,,,,,001,2025-03-10_16h54.41.791,SL_base_41,2021.2.3,Win32,59.88023952,,,115,0,115,0,1,,,,,,,,
,,"[""circle"",""green"",""vert"",""up"",[106,106],[0,-150]]",circle,green,vert,up,"[106,106]","[0,-150]",up,1,0.9212,,,,,,001,2025-03-10_16h54.41.791,SL_base_41,2021.2.3,Win32,59.88023952,,,116,0,116,0,1,,,,,,,,
,,"[""diamond"",""green"",""hori"",""left"",[106,106],[-106,-106]]",diamond,green,hori,left,"[106,106]","[-106,-106]",left,1,1.6955,,,,,,001,2025-03-10_16h54.41.791,SL_base_41,2021.2.3,Win32,59.88023952,,,117,0,117,0,1,,,,,,,,
,,"[""diamond"",""no_dis"",""vert"",""up"",[99999,99999],[150,0]]",diamond,no_dis,vert,up,"[99999,99999]","[150,0]",up,1,1.0067,,,,,,001,2025-03-10_16h54.41.791,SL_base_41,2021.2.3,Win32,59.88023952,,,118,0,118,0,1,,,,,,,,
,,"[""diamond"",""no_dis"",""vert"",""up"",[99999,99999],[150,0]]",diamond,no_dis,vert,up,"[99999,99999]","[150,0]",up,1,0.9006,,,,,,001,2025-03-10_16h54.41.791,SL_base_41,2021.2.3,Win32,59.88023952,,,119,0,119,0,1,,,,,,,,
,,"[""diamond"",""no_dis"",""vert"",""up"",[99999,99999],[0,150]]",diamond,no_dis,vert,up,"[99999,99999]","[0,150]",up,1,1.3521,,,,,,001,2025-03-10_16h54.41.791,SL_base_41,2021.2.3,Win32,59.88023952,,,120,0,120,0,1,,,,,,,,
,,"[""diamond"",""no_dis"",""hori"",""left"",[99999,99999],[106,106]]",diamond,no_dis,hori,left,"[99999,99999]","[106,106]",left,1,1.6683,,,,,,001,2025-03-10_16h54.41.791,SL_base_41,2021.2.3,Win32,59.88023952,,,121,0,121,0,1,,,,,,,,
,,"[""circle"",""no_dis"",""hori"",""left"",[99999,99999],[-106,106]]",circle,no_dis,hori,left,"[99999,99999]","[-106,106]",left,1,2.4268,,,,,,001,2025-03-10_16h54.41.791,SL_base_41,2021.2.3,Win32,59.88023952,,,122,0,122,0,1,,,,,,,,
,,"[""diamond"",""green"",""vert"",""up"",[0,-150],[0,150]]",diamond,green,vert,up,"[0,-150]","[0,150]",up,1,1.9115,,,,,,001,2025-03-10_16h54.41.791,SL_base_41,2021.2.3,Win32,59.88023952,,,123,0,123,0,1,,,,,,,,
,,"[""circle"",""red"",""hori"",""left"",[106,106],[0,150]]",circle,red,hori,left,"[106,106]","[0,150]",left,1,2.4441,,,,,,001,2025-03-10_16h54.41.791,SL_base_41,2021.2.3,Win32,59.88023952,,,124,0,124,0,1,,,,,,,,
,,"[""diamond"",""green"",""vert"",""up"",[-106,-106],[0,-150]]",diamond,green,vert,up,"[-106,-106]","[0,-150]",up,1,1.5982,,,,,,001,2025-03-10_16h54.41.791,SL_base_41,2021.2.3,Win32,59.88023952,,,125,0,125,0,1,,,,,,,,
,,"[""circle"",""no_dis"",""hori"",""left"",[99999,99999],[106,-106]]",circle,no_dis,hori,left,"[99999,99999]","[106,-106]",up,0,1.9056,,,,,,001,2025-03-10_16h54.41.791,SL_base_41,2021.2.3,Win32,59.88023952,,,126,0,126,0,1,,,,,,,,
,,"[""diamond"",""no_dis"",""hori"",""left"",[99999,99999],[0,150]]",diamond,no_dis,hori,left,"[99999,99999]","[0,150]",left,1,2.7827,,,,,,001,2025-03-10_16h54.41.791,SL_base_41,2021.2.3,Win32,59.88023952,,,127,0,127,0,1,,,,,,,,
,,,,,,,,,,,,,,,,,001,2025-03-10_16h54.41.791,SL_base_41,2021.2.3,Win32,59.88023952,,,,,,,,1,space,51.7385,0,0,0,0,1
,,"[""diamond"",""red"",""hori"",""left"",[-150,0],[0,-150]]",diamond,red,hori,left,"[-150,0]","[0,-150]",left,1,1.5349,,,,,,001,2025-03-10_16h54.41.791,SL_base_41,2021.2.3,Win32,59.88023952,,,0,0,0,0,1,,,,,,,,
,,"[""circle"",""red"",""vert"",""up"",[106,106],[150,0]]",circle,red,vert,up,"[106,106]","[150,0]",up,1,1.1339,,,,,,001,2025-03-10_16h54.41.791,SL_base_41,2021.2.3,Win32,59.88023952,,,1,0,1,0,1,,,,,,,,
,,"[""circle"",""green"",""vert"",""up"",[0,-150],[-106,-106]]",circle,green,vert,up,"[0,-150]","[-106,-106]",up,1,2.7994,,,,,,001,2025-03-10_16h54.41.791,SL_base_41,2021.2.3,Win32,59.88023952,,,2,0,2,0,1,,,,,,,,
,,"[""diamond"",""no_dis"",""vert"",""up"",[99999,99999],[150,0]]",diamond,no_dis,vert,up,"[99999,99999]","[150,0]",up,1,2.109,,,,,,001,2025-03-10_16h54.41.791,SL_base_41,2021.2.3,Win32,59.88023952,,,3,0,3,0,1,,,,,,,,
,,"[""circle"",""green"",""hori"",""left"",[106,106],[106,-106]]",circle,green,hori,left,"[106,106]","[106,-106]",left,1,1.4423,,,,,,001,2025-03-10_16h54.41.791,SL_base_41,2021.2.3,Win32,59.88023952,,,4,0,4,0,1,,,,,,,,
,,"[""diamond"",""red"",""hori"",""left"",[106,106],[106,-106]]",diamond,red,hori,left,"[106,106]","[106,-106]",up,0,1.1634,,,,,,001,2025-03-10_16h54.41.791,SL_base_41,2021.2.3,Win32,59.88023952,,,5,0,5,0,1,,,,,,,,
,,"[""circle"",""red"",""vert"",""up"",[0,-150],[-106,106]]",circle,red,vert,up,"[0,-150]","[-106,106]",up,1,2.1433,,,,,,001,2025-03-10_16h54.41.791,SL_base_41,2021.2.3,Win32,59.88023952,,,6,0,6,0,1,,,,,,,,
,,"[""circle"",""no_dis"",""hori"",""left"",[99999,99999],[-106,-106]]",circle,no_dis,hori,left,"[99999,99999]","[-106,-106]",left,1,1.2435,,,,,,001,2025-03-10_16h54.41.791,SL_base_41,2021.2.3,Win32,59.88023952,,,7,0,7,0,1,,,,,,,,
,,"[""diamond"",""no_dis"",""hori"",""left"",[99999,99999],[106,-106]]",diamond,no_dis,hori,left,"[99999,99999]","[106,-106]",left,1,1.4993,,,,,,001,2025-03-10_16h54.41.791,SL_base_41,2021.2.3,Win32,59.88023952,,,8,0,8,0,1,,,,,,,,
,,"[""diamond"",""no_dis"",""vert"",""up"",[99999,99999],[0,-150]]",diamond,no_dis,vert,up,"[99999,99999]","[0,-150]",up,1,2.0523,,,,,,001,2025-03-10_16h54.41.791,SL_base_41,2021.2.3,Win32,59.88023952,,,9,0,9,0,1,,,,,,,,
,,"[""diamond"",""green"",""hori"",""left"",[-106,-106],[-106,106]]",diamond,green,hori,left,"[-106,-106]","[-106,106]",left,1,2.1844,,,,,,001,2025-03-10_16h54.41.791,SL_base_41,2021.2.3,Win32,59.88023952,,,10,0,10,0,1,,,,,,,,
,,"[""diamond"",""no_dis"",""vert"",""up"",[99999,99999],[-106,106]]",diamond,no_dis,vert,up,"[99999,99999]","[-106,106]",,0,,,,,,,001,2025-03-10_16h54.41.791,SL_base_41,2021.2.3,Win32,59.88023952,,,11,0,11,0,1,,,,,,,,
,,"[""circle"",""red"",""hori"",""left"",[-150,0],[106,106]]",circle,red,hori,left,"[-150,0]","[106,106]",left,1,2.561,,,,,,001,2025-03-10_16h54.41.791,SL_base_41,2021.2.3,Win32,59.88023952,,,12,0,12,0,1,,,,,,,,
,,"[""diamond"",""no_dis"",""vert"",""up"",[99999,99999],[0,-150]]",diamond,no_dis,vert,up,"[99999,99999]","[0,-150]",up,1,2.2523,,,,,,001,2025-03-10_16h54.41.791,SL_base_41,2021.2.3,Win32,59.88023952,,,13,0,13,0,1,,,,,,,,
,,"[""circle"",""no_dis"",""hori"",""left"",[99999,99999],[0,-150]]",circle,no_dis,hori,left,"[99999,99999]","[0,-150]",left,1,1.7026,,,,,,001,2025-03-10_16h54.41.791,SL_base_41,2021.2.3,Win32,59.88023952,,,14,0,14,0,1,,,,,,,,
,,"[""circle"",""red"",""hori"",""left"",[-106,-106],[0,-150]]",circle,red,hori,left,"[-106,-106]","[0,-150]",left,1,2.3948,,,,,,001,2025-03-10_16h54.41.791,SL_base_41,2021.2.3,Win32,59.88023952,,,15,0,15,0,1,,,,,,,,
,,"[""diamond"",""red"",""vert"",""up"",[106,106],[-106,106]]",diamond,red,vert,up,"[106,106]","[-106,106]",up,1,1.4138,,,,,,001,2025-03-10_16h54.41.791,SL_base_41,2021.2.3,Win32,59.88023952,,,16,0,16,0,1,,,,,,,,
,,"[""diamond"",""green"",""vert"",""up"",[-106,-106],[0,-150]]",diamond,green,vert,up,"[-106,-106]","[0,-150]",up,1,1.4683,,,,,,001,2025-03-10_16h54.41.791,SL_base_41,2021.2.3,Win32,59.88023952,,,17,0,17,0,1,,,,,,,,
,,"[""diamond"",""green"",""hori"",""left"",[106,106],[-106,-106]]",diamond,green,hori,left,"[106,106]","[-106,-106]",left,1,1.4041,,,,,,001,2025-03-10_16h54.41.791,SL_base_41,2021.2.3,Win32,59.88023952,,,18,0,18,0,1,,,,,,,,
,,"[""diamond"",""green"",""vert"",""up"",[106,106],[-106,-106]]",diamond,green,vert,up,"[106,106]","[-106,-106]",up,1,1.7332,,,,,,001,2025-03-10_16h54.41.791,SL_base_41,2021.2.3,Win32,59.88023952,,,19,0,19,0,1,,,,,,,,
,,"[""diamond"",""red"",""vert"",""up"",[0,-150],[106,106]]",diamond,red,vert,up,"[0,-150]","[106,106]",up,1,2.2466,,,,,,001,2025-03-10_16h54.41.791,SL_base_41,2021.2.3,Win32,59.88023952,,,20,0,20,0,1,,,,,,,,
,,"[""circle"",""no_dis"",""hori"",""left"",[99999,99999],[106,-106]]",circle,no_dis,hori,left,"[99999,99999]","[106,-106]",left,1,2.1504,,,,,,001,2025-03-10_16h54.41.791,SL_base_41,2021.2.3,Win32,59.88023952,,,21,0,21,0,1,,,,,,,,
,,"[""circle"",""no_dis"",""vert"",""up"",[99999,99999],[-150,0]]",circle,no_dis,vert,up,"[99999,99999]","[-150,0]",up,1,1.6236,,,,,,001,2025-03-10_16h54.41.791,SL_base_41,2021.2.3,Win32,59.88023952,,,22,0,22,0,1,,,,,,,,
,,"[""circle"",""no_dis"",""hori"",""left"",[99999,99999],[-150,0]]",circle,no_dis,hori,left,"[99999,99999]","[-150,0]",left,1,2.5834,,,,,,001,2025-03-10_16h54.41.791,SL_base_41,2021.2.3,Win32,59.88023952,,,23,0,23,0,1,,,,,,,,
,,"[""circle"",""no_dis"",""vert"",""up"",[99999,99999],[-150,0]]",circle,no_dis,vert,up,"[99999,99999]","[-150,0]",up,1,1.4421,,,,,,001,2025-03-10_16h54.41.791,SL_base_41,2021.2.3,Win32,59.88023952,,,24,0,24,0,1,,,,,,,,
,,"[""circle"",""no_dis"",""hori"",""left"",[99999,99999],[106,-106]]",circle,no_dis,hori,left,"[99999,99999]","[106,-106]",left,1,1.7791,,,,,,001,2025-03-10_16h54.41.791,SL_base_41,2021.2.3,Win32,59.88023952,,,25,0,25,0,1,,,,,,,,
,,"[""circle"",""red"",""hori"",""left"",[106,-106],[106,106]]",circle,red,hori,left,"[106,-106]","[106,106]",left,1,1.6657,,,,,,001,2025-03-10_16h54.41.791,SL_base_41,2021.2.3,Win32,59.88023952,,,26,0,26,0,1,,,,,,,,
,,"[""diamond"",""red"",""vert"",""up"",[106,106],[150,0]]",diamond,red,vert,up,"[106,106]","[150,0]",up,1,1.7185,,,,,,001,2025-03-10_16h54.41.791,SL_base_41,2021.2.3,Win32,59.88023952,,,27,0,27,0,1,,,,,,,,
,,"[""circle"",""red"",""vert"",""up"",[150,0],[0,-150]]",circle,red,vert,up,"[150,0]","[0,-150]",up,1,1.994,,,,,,001,2025-03-10_16h54.41.791,SL_base_41,2021.2.3,Win32,59.88023952,,,28,0,28,0,1,,,,,,,,
,,"[""diamond"",""green"",""hori"",""left"",[150,0],[-150,0]]",diamond,green,hori,left,"[150,0]","[-150,0]",left,1,2.0507,,,,,,001,2025-03-10_16h54.41.791,SL_base_41,2021.2.3,Win32,59.88023952,,,29,0,29,0,1,,,,,,,,
,,"[""circle"",""no_dis"",""vert"",""up"",[99999,99999],[-106,-106]]",circle,no_dis,vert,up,"[99999,99999]","[-106,-106]",up,1,1.5664,,,,,,001,2025-03-10_16h54.41.791,SL_base_41,2021.2.3,Win32,59.88023952,,,30,0,30,0,1,,,,,,,,
,,"[""circle"",""green"",""hori"",""left"",[106,106],[150,0]]",circle,green,hori,left,"[106,106]","[150,0]",left,1,1.7687,,,,,,001,2025-03-10_16h54.41.791,SL_base_41,2021.2.3,Win32,59.88023952,,,31,0,31,0,1,,,,,,,,
,,"[""diamond"",""green"",""hori"",""left"",[106,106],[-106,-106]]",diamond,green,hori,left,"[106,106]","[-106,-106]",left,1,1.9682,,,,,,001,2025-03-10_16h54.41.791,SL_base_41,2021.2.3,Win32,59.88023952,,,32,0,32,0,1,,,,,,,,
,,"[""diamond"",""no_dis"",""vert"",""up"",[99999,99999],[150,0]]",diamond,no_dis,vert,up,"[99999,99999]","[150,0]",up,1,1.5864,,,,,,001,2025-03-10_16h54.41.791,SL_base_41,2021.2.3,Win32,59.88023952,,,33,0,33,0,1,,,,,,,,
,,"[""diamond"",""no_dis"",""hori"",""left"",[99999,99999],[106,-106]]",diamond,no_dis,hori,left,"[99999,99999]","[106,-106]",left,1,1.2335,,,,,,001,2025-03-10_16h54.41.791,SL_base_41,2021.2.3,Win32,59.88023952,,,34,0,34,0,1,,,,,,,,
,,"[""diamond"",""green"",""vert"",""up"",[-150,0],[150,0]]",diamond,green,vert,up,"[-150,0]","[150,0]",up,1,1.1521,,,,,,001,2025-03-10_16h54.41.791,SL_base_41,2021.2.3,Win32,59.88023952,,,35,0,35,0,1,,,,,,,,
,,"[""circle"",""red"",""hori"",""left"",[106,106],[0,-150]]",circle,red,hori,left,"[106,106]","[0,-150]",left,1,1.5401,,,,,,001,2025-03-10_16h54.41.791,SL_base_41,2021.2.3,Win32,59.88023952,,,36,0,36,0,1,,,,,,,,
,,"[""diamond"",""red"",""hori"",""left"",[106,106],[-106,106]]",diamond,red,hori,left,"[106,106]","[-106,106]",left,1,1.3291,,,,,,001,2025-03-10_16h54.41.791,SL_base_41,2021.2.3,Win32,59.88023952,,,37,0,37,0,1,,,,,,,,
,,"[""circle"",""green"",""hori"",""left"",[106,106],[-150,0]]",circle,green,hori,left,"[106,106]","[-150,0]",left,1,1.8648,,,,,,001,2025-03-10_16h54.41.791,SL_base_41,2021.2.3,Win32,59.88023952,,,38,0,38,0,1,,,,,,,,
,,"[""circle"",""green"",""hori"",""left"",[106,106],[150,0]]",circle,green,hori,left,"[106,106]","[150,0]",left,1,1.8954,,,,,,001,2025-03-10_16h54.41.791,SL_base_41,2021.2.3,Win32,59.88023952,,,39,0,39,0,1,,,,,,,,
,,"[""circle"",""green"",""hori"",""left"",[106,106],[106,-106]]",circle,green,hori,left,"[106,106]","[106,-106]",left,1,2.3737,,,,,,001,2025-03-10_16h54.41.791,SL_base_41,2021.2.3,Win32,59.88023952,,,40,0,40,0,1,,,,,,,,
,,"[""circle"",""green"",""vert"",""up"",[106,106],[0,-150]]",circle,green,vert,up,"[106,106]","[0,-150]",up,1,1.131,,,,,,001,2025-03-10_16h54.41.791,SL_base_41,2021.2.3,Win32,59.88023952,,,41,0,41,0,1,,,,,,,,
,,"[""diamond"",""red"",""vert"",""up"",[-106,106],[106,-106]]",diamond,red,vert,up,"[-106,106]","[106,-106]",up,1,1.5494,,,,,,001,2025-03-10_16h54.41.791,SL_base_41,2021.2.3,Win32,59.88023952,,,42,0,42,0,1,,,,,,,,
,,"[""diamond"",""green"",""hori"",""left"",[-106,106],[150,0]]",diamond,green,hori,left,"[-106,106]","[150,0]",left,1,1.2652,,,,,,001,2025-03-10_16h54.41.791,SL_base_41,2021.2.3,Win32,59.88023952,,,43,0,43,0,1,,,,,,,,
,,"[""diamond"",""no_dis"",""hori"",""left"",[99999,99999],[-106,-106]]",diamond,no_dis,hori,left,"[99999,99999]","[-106,-106]",left,1,1.1149,,,,,,001,2025-03-10_16h54.41.791,SL_base_41,2021.2.3,Win32,59.88023952,,,44,0,44,0,1,,,,,,,,
,,"[""circle"",""no_dis"",""vert"",""up"",[99999,99999],[-106,-106]]",circle,no_dis,vert,up,"[99999,99999]","[-106,-106]",up,1,1.5848,,,,,,001,2025-03-10_16h54.41.791,SL_base_41,2021.2.3,Win32,59.88023952,,,45,0,45,0,1,,,,,,,,
,,"[""diamond"",""no_dis"",""hori"",""left"",[99999,99999],[106,106]]",diamond,no_dis,hori,left,"[99999,99999]","[106,106]",left,1,1.2175,,,,,,001,2025-03-10_16h54.41.791,SL_base_41,2021.2.3,Win32,59.88023952,,,46,0,46,0,1,,,,,,,,
,,"[""circle"",""green"",""vert"",""up"",[0,150],[106,-106]]",circle,green,vert,up,"[0,150]","[106,-106]",up,1,1.2349,,,,,,001,2025-03-10_16h54.41.791,SL_base_41,2021.2.3,Win32,59.88023952,,,47,0,47,0,1,,,,,,,,
,,"[""diamond"",""green"",""hori"",""left"",[106,106],[-150,0]]",diamond,green,hori,left,"[106,106]","[-150,0]",left,1,0.8842,,,,,,001,2025-03-10_16h54.41.791,SL_base_41,2021.2.3,Win32,59.88023952,,,48,0,48,0,1,,,,,,,,
,,"[""circle"",""red"",""vert"",""up"",[106,106],[150,0]]",circle,red,vert,up,"[106,106]","[150,0]",up,1,1.3828,,,,,,001,2025-03-10_16h54.41.791,SL_base_41,2021.2.3,Win32,59.88023952,,,49,0,49,0,1,,,,,,,,
,,"[""diamond"",""red"",""vert"",""up"",[0,150],[-106,-106]]",diamond,red,vert,up,"[0,150]","[-106,-106]",up,1,1.2513,,,,,,001,2025-03-10_16h54.41.791,SL_base_41,2021.2.3,Win32,59.88023952,,,50,0,50,0,1,,,,,,,,
,,"[""diamond"",""no_dis"",""hori"",""left"",[99999,99999],[106,106]]",diamond,no_dis,hori,left,"[99999,99999]","[106,106]",left,1,1.2429,,,,,,001,2025-03-10_16h54.41.791,SL_base_41,2021.2.3,Win32,59.88023952,,,51,0,51,0,1,,,,,,,,
,,"[""diamond"",""red"",""hori"",""left"",[106,106],[150,0]]",diamond,red,hori,left,"[106,106]","[150,0]",left,1,0.92,,,,,,001,2025-03-10_16h54.41.791,SL_base_41,2021.2.3,Win32,59.88023952,,,52,0,52,0,1,,,,,,,,
,,"[""circle"",""no_dis"",""hori"",""left"",[99999,99999],[-106,106]]",circle,no_dis,hori,left,"[99999,99999]","[-106,106]",left,1,1.6176,,,,,,001,2025-03-10_16h54.41.791,SL_base_41,2021.2.3,Win32,59.88023952,,,53,0,53,0,1,,,,,,,,
,,"[""diamond"",""no_dis"",""vert"",""up"",[99999,99999],[0,150]]",diamond,no_dis,vert,up,"[99999,99999]","[0,150]",up,1,1.6569,,,,,,001,2025-03-10_16h54.41.791,SL_base_41,2021.2.3,Win32,59.88023952,,,54,0,54,0,1,,,,,,,,
,,"[""circle"",""red"",""vert"",""up"",[0,-150],[-106,-106]]",circle,red,vert,up,"[0,-150]","[-106,-106]",up,1,1.5262,,,,,,001,2025-03-10_16h54.41.791,SL_base_41,2021.2.3,Win32,59.88023952,,,55,0,55,0,1,,,,,,,,
,,"[""circle"",""no_dis"",""hori"",""left"",[99999,99999],[106,-106]]",circle,no_dis,hori,left,"[99999,99999]","[106,-106]",left,1,1.1677,,,,,,001,2025-03-10_16h54.41.791,SL_base_41,2021.2.3,Win32,59.88023952,,,56,0,56,0,1,,,,,,,,
,,"[""circle"",""red"",""vert"",""up"",[150,0],[0,-150]]",circle,red,vert,up,"[150,0]","[0,-150]",up,1,1.6504,,,,,,001,2025-03-10_16h54.41.791,SL_base_41,2021.2.3,Win32,59.88023952,,,57,0,57,0,1,,,,,,,,
,,"[""diamond"",""red"",""hori"",""left"",[106,106],[-106,106]]",diamond,red,hori,left,"[106,106]","[-106,106]",left,1,1.6834,,,,,,001,2025-03-10_16h54.41.791,SL_base_41,2021.2.3,Win32,59.88023952,,,58,0,58,0,1,,,,,,,,
,,"[""diamond"",""red"",""hori"",""left"",[106,106],[0,150]]",diamond,red,hori,left,"[106,106]","[0,150]",left,1,1.1181,,,,,,001,2025-03-10_16h54.41.791,SL_base_41,2021.2.3,Win32,59.88023952,,,59,0,59,0,1,,,,,,,,
,,"[""diamond"",""no_dis"",""vert"",""up"",[99999,99999],[0,150]]",diamond,no_dis,vert,up,"[99999,99999]","[0,150]",up,1,1.0315,,,,,,001,2025-03-10_16h54.41.791,SL_base_41,2021.2.3,Win32,59.88023952,,,60,0,60,0,1,,,,,,,,
,,"[""circle"",""green"",""hori"",""left"",[-106,-106],[-106,106]]",circle,green,hori,left,"[-106,-106]","[-106,106]",left,1,1.3657,,,,,,001,2025-03-10_16h54.41.791,SL_base_41,2021.2.3,Win32,59.88023952,,,61,0,61,0,1,,,,,,,,
,,"[""diamond"",""green"",""vert"",""up"",[0,150],[150,0]]",diamond,green,vert,up,"[0,150]","[150,0]",up,1,1.2162,,,,,,001,2025-03-10_16h54.41.791,SL_base_41,2021.2.3,Win32,59.88023952,,,62,0,62,0,1,,,,,,,,
,,"[""circle"",""red"",""hori"",""left"",[-106,106],[106,106]]",circle,red,hori,left,"[-106,106]","[106,106]",left,1,1.4568,,,,,,001,2025-03-10_16h54.41.791,SL_base_41,2021.2.3,Win32,59.88023952,,,63,0,63,0,1,,,,,,,,
,,"[""diamond"",""green"",""hori"",""left"",[106,106],[-106,-106]]",diamond,green,hori,left,"[106,106]","[-106,-106]",left,1,1.3829,,,,,,001,2025-03-10_16h54.41.791,SL_base_41,2021.2.3,Win32,59.88023952,,,64,0,64,0,1,,,,,,,,
,,"[""diamond"",""red"",""vert"",""up"",[106,106],[106,-106]]",diamond,red,vert,up,"[106,106]","[106,-106]",up,1,1.7092,,,,,,001,2025-03-10_16h54.41.791,SL_base_41,2021.2.3,Win32,59.88023952,,,65,0,65,0,1,,,,,,,,
,,"[""circle"",""no_dis"",""hori"",""left"",[99999,99999],[150,0]]",circle,no_dis,hori,left,"[99999,99999]","[150,0]",left,1,1.6855,,,,,,001,2025-03-10_16h54.41.791,SL_base_41,2021.2.3,Win32,59.88023952,,,66,0,66,0,1,,,,,,,,
,,"[""circle"",""red"",""hori"",""left"",[0,150],[150,0]]",circle,red,hori,left,"[0,150]","[150,0]",left,1,1.5677,,,,,,001,2025-03-10_16h54.41.791,SL_base_41,2021.2.3,Win32,59.88023952,,,67,0,67,0,1,,,,,,,,
,,"[""circle"",""red"",""vert"",""up"",[106,106],[-106,-106]]",circle,red,vert,up,"[106,106]","[-106,-106]",up,1,1.4333,,,,,,001,2025-03-10_16h54.41.791,SL_base_41,2021.2.3,Win32,59.88023952,,,68,0,68,0,1,,,,,,,,
,,"[""circle"",""green"",""vert"",""up"",[0,150],[0,-150]]",circle,green,vert,up,"[0,150]","[0,-150]",left,0,2.0342,,,,,,001,2025-03-10_16h54.41.791,SL_base_41,2021.2.3,Win32,59.88023952,,,69,0,69,0,1,,,,,,,,
,,"[""diamond"",""red"",""vert"",""up"",[106,-106],[0,150]]",diamond,red,vert,up,"[106,-106]","[0,150]",up,1,2.7644,,,,,,001,2025-03-10_16h54.41.791,SL_base_41,2021.2.3,Win32,59.88023952,,,70,0,70,0,1,,,,,,,,
,,"[""circle"",""green"",""vert"",""up"",[106,106],[150,0]]",circle,green,vert,up,"[106,106]","[150,0]",up,1,2.0327,,,,,,001,2025-03-10_16h54.41.791,SL_base_41,2021.2.3,Win32,59.88023952,,,71,0,71,0,1,,,,,,,,
,,"[""diamond"",""no_dis"",""vert"",""up"",[99999,99999],[106,106]]",diamond,no_dis,vert,up,"[99999,99999]","[106,106]",up,1,1.6485,,,,,,001,2025-03-10_16h54.41.791,SL_base_41,2021.2.3,Win32,59.88023952,,,72,0,72,0,1,,,,,,,,
,,"[""diamond"",""green"",""hori"",""left"",[-106,106],[106,106]]",diamond,green,hori,left,"[-106,106]","[106,106]",left,1,0.9842,,,,,,001,2025-03-10_16h54.41.791,SL_base_41,2021.2.3,Win32,59.88023952,,,73,0,73,0,1,,,,,,,,
,,"[""circle"",""green"",""hori"",""left"",[0,-150],[-150,0]]",circle,green,hori,left,"[0,-150]","[-150,0]",left,1,1.4342,,,,,,001,2025-03-10_16h54.41.791,SL_base_41,2021.2.3,Win32,59.88023952,,,74,0,74,0,1,,,,,,,,
,,"[""circle"",""no_dis"",""vert"",""up"",[99999,99999],[106,106]]",circle,no_dis,vert,up,"[99999,99999]","[106,106]",up,1,1.5346,,,,,,001,2025-03-10_16h54.41.791,SL_base_41,2021.2.3,Win32,59.88023952,,,75,0,75,0,1,,,,,,,,
,,"[""diamond"",""red"",""hori"",""left"",[106,106],[-150,0]]",diamond,red,hori,left,"[106,106]","[-150,0]",left,1,1.8531,,,,,,001,2025-03-10_16h54.41.791,SL_base_41,2021.2.3,Win32,59.88023952,,,76,0,76,0,1,,,,,,,,
,,"[""diamond"",""red"",""vert"",""up"",[-106,106],[106,-106]]",diamond,red,vert,up,"[-106,106]","[106,-106]",up,1,1.5775,,,,,,001,2025-03-10_16h54.41.791,SL_base_41,2021.2.3,Win32,59.88023952,,,77,0,77,0,1,,,,,,,,
,,"[""diamond"",""green"",""vert"",""up"",[-106,106],[0,150]]",diamond,green,vert,up,"[-106,106]","[0,150]",up,1,1.0801,,,,,,001,2025-03-10_16h54.41.791,SL_base_41,2021.2.3,Win32,59.88023952,,,78,0,78,0,1,,,,,,,,
,,"[""diamond"",""no_dis"",""hori"",""left"",[99999,99999],[-150,0]]",diamond,no_dis,hori,left,"[99999,99999]","[-150,0]",left,1,1.3779,,,,,,001,2025-03-10_16h54.41.791,SL_base_41,2021.2.3,Win32,59.88023952,,,79,0,79,0,1,,,,,,,,
,,"[""diamond"",""green"",""vert"",""up"",[-106,-106],[106,106]]",diamond,green,vert,up,"[-106,-106]","[106,106]",up,1,2.3144,,,,,,001,2025-03-10_16h54.41.791,SL_base_41,2021.2.3,Win32,59.88023952,,,80,0,80,0,1,,,,,,,,
,,"[""circle"",""no_dis"",""hori"",""left"",[99999,99999],[-106,106]]",circle,no_dis,hori,left,"[99999,99999]","[-106,106]",left,1,1.9507,,,,,,001,2025-03-10_16h54.41.791,SL_base_41,2021.2.3,Win32,59.88023952,,,81,0,81,0,1,,,,,,,,
,,"[""circle"",""red"",""vert"",""up"",[106,-106],[-106,106]]",circle,red,vert,up,"[106,-106]","[-106,106]",up,1,1.8673,,,,,,001,2025-03-10_16h54.41.791,SL_base_41,2021.2.3,Win32,59.88023952,,,82,0,82,0,1,,,,,,,,
,,"[""circle"",""green"",""vert"",""up"",[0,150],[-150,0]]",circle,green,vert,up,"[0,150]","[-150,0]",up,1,1.6045,,,,,,001,2025-03-10_16h54.41.791,SL_base_41,2021.2.3,Win32,59.88023952,,,83,0,83,0,1,,,,,,,,
,,"[""diamond"",""red"",""vert"",""up"",[0,150],[-106,-106]]",diamond,red,vert,up,"[0,150]","[-106,-106]",up,1,2.2642,,,,,,001,2025-03-10_16h54.41.791,SL_base_41,2021.2.3,Win32,59.88023952,,,84,0,84,0,1,,,,,,,,
,,"[""diamond"",""green"",""vert"",""up"",[106,106],[106,-106]]",diamond,green,vert,up,"[106,106]","[106,-106]",up,1,2.7078,,,,,,001,2025-03-10_16h54.41.791,SL_base_41,2021.2.3,Win32,59.88023952,,,85,0,85,0,1,,,,,,,,
,,"[""circle"",""no_dis"",""vert"",""up"",[99999,99999],[-106,106]]",circle,no_dis,vert,up,"[99999,99999]","[-106,106]",up,1,1.1367,,,,,,001,2025-03-10_16h54.41.791,SL_base_41,2021.2.3,Win32,59.88023952,,,86,0,86,0,1,,,,,,,,
,,"[""diamond"",""green"",""vert"",""up"",[150,0],[-106,-106]]",diamond,green,vert,up,"[150,0]","[-106,-106]",up,1,1.5492,,,,,,001,2025-03-10_16h54.41.791,SL_base_41,2021.2.3,Win32,59.88023952,,,87,0,87,0,1,,,,,,,,
,,"[""diamond"",""no_dis"",""vert"",""up"",[99999,99999],[150,0]]",diamond,no_dis,vert,up,"[99999,99999]","[150,0]",up,1,1.4116,,,,,,001,2025-03-10_16h54.41.791,SL_base_41,2021.2.3,Win32,59.88023952,,,88,0,88,0,1,,,,,,,,
,,"[""diamond"",""no_dis"",""vert"",""up"",[99999,99999],[0,-150]]",diamond,no_dis,vert,up,"[99999,99999]","[0,-150]",up,1,1.2263,,,,,,001,2025-03-10_16h54.41.791,SL_base_41,2021.2.3,Win32,59.88023952,,,89,0,89,0,1,,,,,,,,
,,"[""circle"",""green"",""vert"",""up"",[106,-106],[150,0]]",circle,green,vert,up,"[106,-106]","[150,0]",up,1,2.5416,,,,,,001,2025-03-10_16h54.41.791,SL_base_41,2021.2.3,Win32,59.88023952,,,90,0,90,0,1,,,,,,,,
,,"[""diamond"",""no_dis"",""hori"",""left"",[99999,99999],[150,0]]",diamond,no_dis,hori,left,"[99999,99999]","[150,0]",left,1,1.5949,,,,,,001,2025-03-10_16h54.41.791,SL_base_41,2021.2.3,Win32,59.88023952,,,91,0,91,0,1,,,,,,,,
,,"[""circle"",""green"",""vert"",""up"",[-150,0],[106,106]]",circle,green,vert,up,"[-150,0]","[106,106]",up,1,1.9686,,,,,,001,2025-03-10_16h54.41.791,SL_base_41,2021.2.3,Win32,59.88023952,,,92,0,92,0,1,,,,,,,,
,,"[""diamond"",""no_dis"",""hori"",""left"",[99999,99999],[-106,106]]",diamond,no_dis,hori,left,"[99999,99999]","[-106,106]",left,1,2.2425,,,,,,001,2025-03-10_16h54.41.791,SL_base_41,2021.2.3,Win32,59.88023952,,,93,0,93,0,1,,,,,,,,
,,"[""diamond"",""green"",""hori"",""left"",[106,106],[0,-150]]",diamond,green,hori,left,"[106,106]","[0,-150]",left,1,1.251,,,,,,001,2025-03-10_16h54.41.791,SL_base_41,2021.2.3,Win32,59.88023952,,,94,0,94,0,1,,,,,,,,
,,"[""diamond"",""green"",""vert"",""up"",[-106,-106],[106,-106]]",diamond,green,vert,up,"[-106,-106]","[106,-106]",up,1,1.7174,,,,,,001,2025-03-10_16h54.41.791,SL_base_41,2021.2.3,Win32,59.88023952,,,95,0,95,0,1,,,,,,,,
,,"[""diamond"",""green"",""vert"",""up"",[150,0],[-150,0]]",diamond,green,vert,up,"[150,0]","[-150,0]",up,1,1.4008,,,,,,001,2025-03-10_16h54.41.791,SL_base_41,2021.2.3,Win32,59.88023952,,,96,0,96,0,1,,,,,,,,
,,"[""circle"",""green"",""hori"",""left"",[106,106],[106,-106]]",circle,green,hori,left,"[106,106]","[106,-106]",left,1,1.2906,,,,,,001,2025-03-10_16h54.41.791,SL_base_41,2021.2.3,Win32,59.88023952,,,97,0,97,0,1,,,,,,,,
,,"[""diamond"",""red"",""hori"",""left"",[106,106],[0,150]]",diamond,red,hori,left,"[106,106]","[0,150]",up,0,1.6375,,,,,,001,2025-03-10_16h54.41.791,SL_base_41,2021.2.3,Win32,59.88023952,,,98,0,98,0,1,,,,,,,,
,,"[""circle"",""red"",""hori"",""left"",[150,0],[-106,-106]]",circle,red,hori,left,"[150,0]","[-106,-106]",left,1,2.4103,,,,,,001,2025-03-10_16h54.41.791,SL_base_41,2021.2.3,Win32,59.88023952,,,99,0,99,0,1,,,,,,,,
,,"[""diamond"",""red"",""hori"",""left"",[106,-106],[0,-150]]",diamond,red,hori,left,"[106,-106]","[0,-150]",left,1,1.2342,,,,,,001,2025-03-10_16h54.41.791,SL_base_41,2021.2.3,Win32,59.88023952,,,100,0,100,0,1,,,,,,,,
,,"[""circle"",""green"",""vert"",""up"",[106,106],[0,150]]",circle,green,vert,up,"[106,106]","[0,150]",up,1,1.1939,,,,,,001,2025-03-10_16h54.41.791,SL_base_41,2021.2.3,Win32,59.88023952,,,101,0,101,0,1,,,,,,,,
,,"[""circle"",""no_dis"",""hori"",""left"",[99999,99999],[106,106]]",circle,no_dis,hori,left,"[99999,99999]","[106,106]",left,1,1.6787,,,,,,001,2025-03-10_16h54.41.791,SL_base_41,2021.2.3,Win32,59.88023952,,,102,0,102,0,1,,,,,,,,
,,"[""diamond"",""no_dis"",""hori"",""left"",[99999,99999],[-106,-106]]",diamond,no_dis,hori,left,"[99999,99999]","[-106,-106]",left,1,1.7851,,,,,,001,2025-03-10_16h54.41.791,SL_base_41,2021.2.3,Win32,59.88023952,,,103,0,103,0,1,,,,,,,,
,,"[""circle"",""no_dis"",""vert"",""up"",[99999,99999],[0,150]]",circle,no_dis,vert,up,"[99999,99999]","[0,150]",up,1,0.9923,,,,,,001,2025-03-10_16h54.41.791,SL_base_41,2021.2.3,Win32,59.88023952,,,104,0,104,0,1,,,,,,,,
,,"[""diamond"",""red"",""vert"",""up"",[0,-150],[106,106]]",diamond,red,vert,up,"[0,-150]","[106,106]",up,1,1.4115,,,,,,001,2025-03-10_16h54.41.791,SL_base_41,2021.2.3,Win32,59.88023952,,,105,0,105,0,1,,,,,,,,
,,"[""circle"",""red"",""hori"",""left"",[-106,106],[-150,0]]",circle,red,hori,left,"[-106,106]","[-150,0]",left,1,1.6578,,,,,,001,2025-03-10_16h54.41.791,SL_base_41,2021.2.3,Win32,59.88023952,,,106,0,106,0,1,,,,,,,,
,,"[""circle"",""red"",""hori"",""left"",[-106,-106],[106,-106]]",circle,red,hori,left,"[-106,-106]","[106,-106]",left,1,1.3361,,,,,,001,2025-03-10_16h54.41.791,SL_base_41,2021.2.3,Win32,59.88023952,,,107,0,107,0,1,,,,,,,,
,,"[""circle"",""green"",""vert"",""up"",[106,106],[-150,0]]",circle,green,vert,up,"[106,106]","[-150,0]",up,1,2.2297,,,,,,001,2025-03-10_16h54.41.791,SL_base_41,2021.2.3,Win32,59.88023952,,,108,0,108,0,1,,,,,,,,
,,"[""circle"",""red"",""vert"",""up"",[150,0],[0,-150]]",circle,red,vert,up,"[150,0]","[0,-150]",up,1,1.7635,,,,,,001,2025-03-10_16h54.41.791,SL_base_41,2021.2.3,Win32,59.88023952,,,109,0,109,0,1,,,,,,,,
,,"[""circle"",""red"",""hori"",""left"",[-150,0],[0,-150]]",circle,red,hori,left,"[-150,0]","[0,-150]",left,1,1.9971,,,,,,001,2025-03-10_16h54.41.791,SL_base_41,2021.2.3,Win32,59.88023952,,,110,0,110,0,1,,,,,,,,
,,"[""circle"",""green"",""vert"",""up"",[-106,-106],[106,106]]",circle,green,vert,up,"[-106,-106]","[106,106]",up,1,1.3257,,,,,,001,2025-03-10_16h54.41.791,SL_base_41,2021.2.3,Win32,59.88023952,,,111,0,111,0,1,,,,,,,,
,,"[""circle"",""red"",""vert"",""up"",[-150,0],[0,-150]]",circle,red,vert,up,"[-150,0]","[0,-150]",up,1,1.3128,,,,,,001,2025-03-10_16h54.41.791,SL_base_41,2021.2.3,Win32,59.88023952,,,112,0,112,0,1,,,,,,,,
,,"[""diamond"",""red"",""hori"",""left"",[106,-106],[0,-150]]",diamond,red,hori,left,"[106,-106]","[0,-150]",left,1,1.786,,,,,,001,2025-03-10_16h54.41.791,SL_base_41,2021.2.3,Win32,59.88023952,,,113,0,113,0,1,,,,,,,,
,,"[""circle"",""green"",""hori"",""left"",[0,150],[106,-106]]",circle,green,hori,left,"[0,150]","[106,-106]",left,1,1.2269,,,,,,001,2025-03-10_16h54.41.791,SL_base_41,2021.2.3,Win32,59.88023952,,,114,0,114,0,1,,,,,,,,
,,"[""diamond"",""green"",""hori"",""left"",[106,-106],[106,106]]",diamond,green,hori,left,"[106,-106]","[106,106]",left,1,1.7457,,,,,,001,2025-03-10_16h54.41.791,SL_base_41,2021.2.3,Win32,59.88023952,,,115,0,115,0,1,,,,,,,,
,,"[""circle"",""green"",""hori"",""left"",[0,-150],[0,150]]",circle,green,hori,left,"[0,-150]","[0,150]",up,0,2.8323,,,,,,001,2025-03-10_16h54.41.791,SL_base_41,2021.2.3,Win32,59.88023952,,,116,0,116,0,1,,,,,,,,
,,"[""circle"",""no_dis"",""vert"",""up"",[99999,99999],[0,150]]",circle,no_dis,vert,up,"[99999,99999]","[0,150]",up,1,2.1652,,,,,,001,2025-03-10_16h54.41.791,SL_base_41,2021.2.3,Win32,59.88023952,,,117,0,117,0,1,,,,,,,,
,,"[""diamond"",""green"",""hori"",""left"",[-150,0],[-106,106]]",diamond,green,hori,left,"[-150,0]","[-106,106]",left,1,1.6533,,,,,,001,2025-03-10_16h54.41.791,SL_base_41,2021.2.3,Win32,59.88023952,,,118,0,118,0,1,,,,,,,,
,,"[""circle"",""green"",""hori"",""left"",[150,0],[-106,106]]",circle,green,hori,left,"[150,0]","[-106,106]",left,1,1.7008,,,,,,001,2025-03-10_16h54.41.791,SL_base_41,2021.2.3,Win32,59.88023952,,,119,0,119,0,1,,,,,,,,
,,"[""circle"",""no_dis"",""vert"",""up"",[99999,99999],[-150,0]]",circle,no_dis,vert,up,"[99999,99999]","[-150,0]",up,1,1.5412,,,,,,001,2025-03-10_16h54.41.791,SL_base_41,2021.2.3,Win32,59.88023952,,,120,0,120,0,1,,,,,,,,
,,"[""diamond"",""no_dis"",""hori"",""left"",[99999,99999],[0,150]]",diamond,no_dis,hori,left,"[99999,99999]","[0,150]",left,1,1.8358,,,,,,001,2025-03-10_16h54.41.791,SL_base_41,2021.2.3,Win32,59.88023952,,,121,0,121,0,1,,,,,,,,
,,"[""circle"",""red"",""hori"",""left"",[106,106],[0,150]]",circle,red,hori,left,"[106,106]","[0,150]",left,1,2.0664,,,,,,001,2025-03-10_16h54.41.791,SL_base_41,2021.2.3,Win32,59.88023952,,,122,0,122,0,1,,,,,,,,
,,"[""circle"",""red"",""vert"",""up"",[-106,106],[0,150]]",circle,red,vert,up,"[-106,106]","[0,150]",up,1,1.7689,,,,,,001,2025-03-10_16h54.41.791,SL_base_41,2021.2.3,Win32,59.88023952,,,123,0,123,0,1,,,,,,,,
,,"[""circle"",""no_dis"",""vert"",""up"",[99999,99999],[0,-150]]",circle,no_dis,vert,up,"[99999,99999]","[0,-150]",up,1,1.1519,,,,,,001,2025-03-10_16h54.41.791,SL_base_41,2021.2.3,Win32,59.88023952,,,124,0,124,0,1,,,,,,,,
,,"[""diamond"",""red"",""vert"",""up"",[106,-106],[150,0]]",diamond,red,vert,up,"[106,-106]","[150,0]",up,1,1.7165,,,,,,001,2025-03-10_16h54.41.791,SL_base_41,2021.2.3,Win32,59.88023952,,,125,0,125,0,1,,,,,,,,
,,"[""diamond"",""red"",""hori"",""left"",[-150,0],[-106,106]]",diamond,red,hori,left,"[-150,0]","[-106,106]",,0,,,,,,,001,2025-03-10_16h54.41.791,SL_base_41,2021.2.3,Win32,59.88023952,,,126,0,126,0,1,,,,,,,,
,,"[""diamond"",""green"",""vert"",""up"",[0,-150],[0,150]]",diamond,green,vert,up,"[0,-150]","[0,150]",up,1,1.3657,,,,,,001,2025-03-10_16h54.41.791,SL_base_41,2021.2.3,Win32,59.88023952,,,127,0,127,0,1,,,,,,,,
,,,,,,,,,,,,,,,,,001,2025-03-10_16h54.41.791,SL_base_41,2021.2.3,Win32,59.88023952,,,,,,,,2,space,3.0005,1,0,1,0,1
,,"[""circle"",""no_dis"",""vert"",""up"",[99999,99999],[106,106]]",circle,no_dis,vert,up,"[99999,99999]","[106,106]",up,1,1.2836,,,,,,001,2025-03-10_16h54.41.791,SL_base_41,2021.2.3,Win32,59.88023952,,,0,0,0,0,1,,,,,,,,
,,"[""diamond"",""no_dis"",""hori"",""left"",[99999,99999],[150,0]]",diamond,no_dis,hori,left,"[99999,99999]","[150,0]",left,1,1.0508,,,,,,001,2025-03-10_16h54.41.791,SL_base_41,2021.2.3,Win32,59.88023952,,,1,0,1,0,1,,,,,,,,
,,"[""diamond"",""no_dis"",""vert"",""up"",[99999,99999],[150,0]]",diamond,no_dis,vert,up,"[99999,99999]","[150,0]",up,1,1.7014,,,,,,001,2025-03-10_16h54.41.791,SL_base_41,2021.2.3,Win32,59.88023952,,,2,0,2,0,1,,,,,,,,
,,"[""circle"",""green"",""vert"",""up"",[106,-106],[150,0]]",circle,green,vert,up,"[106,-106]","[150,0]",up,1,1.9002,,,,,,001,2025-03-10_16h54.41.791,SL_base_41,2021.2.3,Win32,59.88023952,,,3,0,3,0,1,,,,,,,,
,,"[""circle"",""red"",""hori"",""left"",[106,-106],[106,106]]",circle,red,hori,left,"[106,-106]","[106,106]",left,1,1.7987,,,,,,001,2025-03-10_16h54.41.791,SL_base_41,2021.2.3,Win32,59.88023952,,,4,0,4,0,1,,,,,,,,
,,"[""circle"",""no_dis"",""hori"",""left"",[99999,99999],[106,-106]]",circle,no_dis,hori,left,"[99999,99999]","[106,-106]",left,1,1.208,,,,,,001,2025-03-10_16h54.41.791,SL_base_41,2021.2.3,Win32,59.88023952,,,5,0,5,0,1,,,,,,,,
,,"[""circle"",""green"",""vert"",""up"",[106,106],[-150,0]]",circle,green,vert,up,"[106,106]","[-150,0]",up,1,1.3846,,,,,,001,2025-03-10_16h54.41.791,SL_base_41,2021.2.3,Win32,59.88023952,,,6,0,6,0,1,,,,,,,,
,,"[""diamond"",""no_dis"",""hori"",""left"",[99999,99999],[106,-106]]",diamond,no_dis,hori,left,"[99999,99999]","[106,-106]",left,1,1.185,,,,,,001,2025-03-10_16h54.41.791,SL_base_41,2021.2.3,Win32,59.88023952,,,7,0,7,0,1,,,,,,,,
,,"[""diamond"",""green"",""hori"",""left"",[106,106],[-150,0]]",diamond,green,hori,left,"[106,106]","[-150,0]",left,1,1.0472,,,,,,001,2025-03-10_16h54.41.791,SL_base_41,2021.2.3,Win32,59.88023952,,,8,0,8,0,1,,,,,,,,
,,"[""circle"",""green"",""vert"",""up"",[106,106],[0,150]]",circle,green,vert,up,"[106,106]","[0,150]",up,1,1.9999,,,,,,001,2025-03-10_16h54.41.791,SL_base_41,2021.2.3,Win32,59.88023952,,,9,0,9,0,1,,,,,,,,
,,"[""circle"",""green"",""vert"",""up"",[0,-150],[-106,-106]]",circle,green,vert,up,"[0,-150]","[-106,-106]",up,1,1.4848,,,,,,001,2025-03-10_16h54.41.791,SL_base_41,2021.2.3,Win32,59.88023952,,,10,0,10,0,1,,,,,,,,
,,"[""diamond"",""green"",""hori"",""left"",[106,106],[-106,-106]]",diamond,green,hori,left,"[106,106]","[-106,-106]",left,1,1.4121,,,,,,001,2025-03-10_16h54.41.791,SL_base_41,2021.2.3,Win32,59.88023952,,,11,0,11,0,1,,,,,,,,
,,"[""diamond"",""no_dis"",""vert"",""up"",[99999,99999],[0,-150]]",diamond,no_dis,vert,up,"[99999,99999]","[0,-150]",up,1,0.9701,,,,,,001,2025-03-10_16h54.41.791,SL_base_41,2021.2.3,Win32,59.88023952,,,12,0,12,0,1,,,,,,,,
,,"[""diamond"",""no_dis"",""vert"",""up"",[99999,99999],[-106,106]]",diamond,no_dis,vert,up,"[99999,99999]","[-106,106]",up,1,1.3167,,,,,,001,2025-03-10_16h54.41.791,SL_base_41,2021.2.3,Win32,59.88023952,,,13,0,13,0,1,,,,,,,,
,,"[""diamond"",""red"",""hori"",""left"",[106,106],[-106,106]]",diamond,red,hori,left,"[106,106]","[-106,106]",left,1,1.6894,,,,,,001,2025-03-10_16h54.41.791,SL_base_41,2021.2.3,Win32,59.88023952,,,14,0,14,0,1,,,,,,,,
,,"[""circle"",""no_dis"",""hori"",""left"",[99999,99999],[0,-150]]",circle,no_dis,hori,left,"[99999,99999]","[0,-150]",left,1,1.5938,,,,,,001,2025-03-10_16h54.41.791,SL_base_41,2021.2.3,Win32,59.88023952,,,15,0,15,0,1,,,,,,,,
,,"[""diamond"",""red"",""hori"",""left"",[106,106],[0,150]]",diamond,red,hori,left,"[106,106]","[0,150]",left,1,1.4839,,,,,,001,2025-03-10_16h54.41.791,SL_base_41,2021.2.3,Win32,59.88023952,,,16,0,16,0,1,,,,,,,,
,,"[""diamond"",""red"",""hori"",""left"",[-150,0],[0,-150]]",diamond,red,hori,left,"[-150,0]","[0,-150]",left,1,1.2689,,,,,,001,2025-03-10_16h54.41.791,SL_base_41,2021.2.3,Win32,59.88023952,,,17,0,17,0,1,,,,,,,,
,,"[""circle"",""red"",""vert"",""up"",[150,0],[0,-150]]",circle,red,vert,up,"[150,0]","[0,-150]",up,1,1.7833,,,,,,001,2025-03-10_16h54.41.791,SL_base_41,2021.2.3,Win32,59.88023952,,,18,0,18,0,1,,,,,,,,
,,"[""diamond"",""no_dis"",""vert"",""up"",[99999,99999],[150,0]]",diamond,no_dis,vert,up,"[99999,99999]","[150,0]",up,1,2.2893,,,,,,001,2025-03-10_16h54.41.791,SL_base_41,2021.2.3,Win32,59.88023952,,,19,0,19,0,1,,,,,,,,
,,"[""circle"",""no_dis"",""hori"",""left"",[99999,99999],[-106,106]]",circle,no_dis,hori,left,"[99999,99999]","[-106,106]",left,1,1.8739,,,,,,001,2025-03-10_16h54.41.791,SL_base_41,2021.2.3,Win32,59.88023952,,,20,0,20,0,1,,,,,,,,
,,"[""diamond"",""no_dis"",""vert"",""up"",[99999,99999],[150,0]]",diamond,no_dis,vert,up,"[99999,99999]","[150,0]",up,1,1.2489,,,,,,001,2025-03-10_16h54.41.791,SL_base_41,2021.2.3,Win32,59.88023952,,,21,0,21,0,1,,,,,,,,
,,"[""circle"",""green"",""vert"",""up"",[106,106],[150,0]]",circle,green,vert,up,"[106,106]","[150,0]",up,1,1.76,,,,,,001,2025-03-10_16h54.41.791,SL_base_41,2021.2.3,Win32,59.88023952,,,22,0,22,0,1,,,,,,,,
,,"[""diamond"",""green"",""vert"",""up"",[150,0],[-106,-106]]",diamond,green,vert,up,"[150,0]","[-106,-106]",up,1,1.1355,,,,,,001,2025-03-10_16h54.41.791,SL_base_41,2021.2.3,Win32,59.88023952,,,23,0,23,0,1,,,,,,,,
,,"[""diamond"",""red"",""vert"",""up"",[0,-150],[106,106]]",diamond,red,vert,up,"[0,-150]","[106,106]",up,1,1.2344,,,,,,001,2025-03-10_16h54.41.791,SL_base_41,2021.2.3,Win32,59.88023952,,,24,0,24,0,1,,,,,,,,
,,"[""circle"",""red"",""vert"",""up"",[106,-106],[-106,106]]",circle,red,vert,up,"[106,-106]","[-106,106]",up,1,1.3848,,,,,,001,2025-03-10_16h54.41.791,SL_base_41,2021.2.3,Win32,59.88023952,,,25,0,25,0,1,,,,,,,,
,,"[""circle"",""green"",""vert"",""up"",[-106,-106],[106,106]]",circle,green,vert,up,"[-106,-106]","[106,106]",up,1,2.0582,,,,,,001,2025-03-10_16h54.41.791,SL_base_41,2021.2.3,Win32,59.88023952,,,26,0,26,0,1,,,,,,,,
,,"[""circle"",""red"",""hori"",""left"",[-106,-106],[0,-150]]",circle,red,hori,left,"[-106,-106]","[0,-150]",left,1,2.0847,,,,,,001,2025-03-10_16h54.41.791,SL_base_41,2021.2.3,Win32,59.88023952,,,27,0,27,0,1,,,,,,,,
,,"[""circle"",""green"",""hori"",""left"",[106,106],[106,-106]]",circle,green,hori,left,"[106,106]","[106,-106]",left,1,1.0843,,,,,,001,2025-03-10_16h54.41.791,SL_base_41,2021.2.3,Win32,59.88023952,,,28,0,28,0,1,,,,,,,,
,,"[""circle"",""red"",""hori"",""left"",[-106,-106],[106,-106]]",circle,red,hori,left,"[-106,-106]","[106,-106]",left,1,1.6679,,,,,,001,2025-03-10_16h54.41.791,SL_base_41,2021.2.3,Win32,59.88023952,,,29,0,29,0,1,,,,,,,,
,,"[""diamond"",""red"",""hori"",""left"",[106,106],[-106,106]]",diamond,red,hori,left,"[106,106]","[-106,106]",left,1,1.3682,,,,,,001,2025-03-10_16h54.41.791,SL_base_41,2021.2.3,Win32,59.88023952,,,30,0,30,0,1,,,,,,,,
,,"[""diamond"",""green"",""vert"",""up"",[-106,-106],[0,-150]]",diamond,green,vert,up,"[-106,-106]","[0,-150]",up,1,1.3012,,,,,,001,2025-03-10_16h54.41.791,SL_base_41,2021.2.3,Win32,59.88023952,,,31,0,31,0,1,,,,,,,,
,,"[""circle"",""no_dis"",""hori"",""left"",[99999,99999],[-106,106]]",circle,no_dis,hori,left,"[99999,99999]","[-106,106]",left,1,1.2009,,,,,,001,2025-03-10_16h54.41.791,SL_base_41,2021.2.3,Win32,59.88023952,,,32,0,32,0,1,,,,,,,,
,,"[""diamond"",""red"",""hori"",""left"",[106,106],[150,0]]",diamond,red,hori,left,"[106,106]","[150,0]",left,1,2.108,,,,,,001,2025-03-10_16h54.41.791,SL_base_41,2021.2.3,Win32,59.88023952,,,33,0,33,0,1,,,,,,,,
,,"[""diamond"",""green"",""vert"",""up"",[-150,0],[150,0]]",diamond,green,vert,up,"[-150,0]","[150,0]",up,1,1.3631,,,,,,001,2025-03-10_16h54.41.791,SL_base_41,2021.2.3,Win32,59.88023952,,,34,0,34,0,1,,,,,,,,
,,"[""diamond"",""green"",""vert"",""up"",[-106,-106],[106,-106]]",diamond,green,vert,up,"[-106,-106]","[106,-106]",up,1,1.2656,,,,,,001,2025-03-10_16h54.41.791,SL_base_41,2021.2.3,Win32,59.88023952,,,35,0,35,0,1,,,,,,,,
,,"[""diamond"",""no_dis"",""hori"",""left"",[99999,99999],[106,106]]",diamond,no_dis,hori,left,"[99999,99999]","[106,106]",left,1,1.2235,,,,,,001,2025-03-10_16h54.41.791,SL_base_41,2021.2.3,Win32,59.88023952,,,36,0,36,0,1,,,,,,,,
,,"[""diamond"",""red"",""vert"",""up"",[0,150],[-106,-106]]",diamond,red,vert,up,"[0,150]","[-106,-106]",up,1,1.2274,,,,,,001,2025-03-10_16h54.41.791,SL_base_41,2021.2.3,Win32,59.88023952,,,37,0,37,0,1,,,,,,,,
,,"[""circle"",""no_dis"",""vert"",""up"",[99999,99999],[-106,106]]",circle,no_dis,vert,up,"[99999,99999]","[-106,106]",up,1,1.2148,,,,,,001,2025-03-10_16h54.41.791,SL_base_41,2021.2.3,Win32,59.88023952,,,38,0,38,0,1,,,,,,,,
,,"[""diamond"",""no_dis"",""vert"",""up"",[99999,99999],[106,106]]",diamond,no_dis,vert,up,"[99999,99999]","[106,106]",up,1,1.3508,,,,,,001,2025-03-10_16h54.41.791,SL_base_41,2021.2.3,Win32,59.88023952,,,39,0,39,0,1,,,,,,,,
,,"[""circle"",""no_dis"",""hori"",""left"",[99999,99999],[106,-106]]",circle,no_dis,hori,left,"[99999,99999]","[106,-106]",left,1,1.0169,,,,,,001,2025-03-10_16h54.41.791,SL_base_41,2021.2.3,Win32,59.88023952,,,40,0,40,0,1,,,,,,,,
,,"[""circle"",""red"",""vert"",""up"",[106,106],[150,0]]",circle,red,vert,up,"[106,106]","[150,0]",up,1,1.2991,,,,,,001,2025-03-10_16h54.41.791,SL_base_41,2021.2.3,Win32,59.88023952,,,41,0,41,0,1,,,,,,,,
,,"[""diamond"",""no_dis"",""hori"",""left"",[99999,99999],[106,106]]",diamond,no_dis,hori,left,"[99999,99999]","[106,106]",left,1,1.1786,,,,,,001,2025-03-10_16h54.41.791,SL_base_41,2021.2.3,Win32,59.88023952,,,42,0,42,0,1,,,,,,,,
,,"[""circle"",""green"",""hori"",""left"",[-106,-106],[-106,106]]",circle,green,hori,left,"[-106,-106]","[-106,106]",left,1,1.5001,,,,,,001,2025-03-10_16h54.41.791,SL_base_41,2021.2.3,Win32,59.88023952,,,43,0,43,0,1,,,,,,,,
,,"[""circle"",""red"",""hori"",""left"",[-106,106],[106,106]]",circle,red,hori,left,"[-106,106]","[106,106]",left,1,1.0881,,,,,,001,2025-03-10_16h54.41.791,SL_base_41,2021.2.3,Win32,59.88023952,,,44,0,44,0,1,,,,,,,,
,,"[""diamond"",""green"",""hori"",""left"",[106,106],[-106,-106]]",diamond,green,hori,left,"[106,106]","[-106,-106]",left,1,1.3324,,,,,,001,2025-03-10_16h54.41.791,SL_base_41,2021.2.3,Win32,59.88023952,,,45,0,45,0,1,,,,,,,,
,,"[""circle"",""no_dis"",""vert"",""up"",[99999,99999],[0,-150]]",circle,no_dis,vert,up,"[99999,99999]","[0,-150]",up,1,1.0345,,,,,,001,2025-03-10_16h54.41.791,SL_base_41,2021.2.3,Win32,59.88023952,,,46,0,46,0,1,,,,,,,,
,,"[""diamond"",""green"",""vert"",""up"",[0,-150],[0,150]]",diamond,green,vert,up,"[0,-150]","[0,150]",up,1,1.3857,,,,,,001,2025-03-10_16h54.41.791,SL_base_41,2021.2.3,Win32,59.88023952,,,47,0,47,0,1,,,,,,,,
,,"[""circle"",""red"",""vert"",""up"",[106,106],[150,0]]",circle,red,vert,up,"[106,106]","[150,0]",up,1,1.6849,,,,,,001,2025-03-10_16h54.41.791,SL_base_41,2021.2.3,Win32,59.88023952,,,48,0,48,0,1,,,,,,,,
,,"[""diamond"",""no_dis"",""vert"",""up"",[99999,99999],[0,150]]",diamond,no_dis,vert,up,"[99999,99999]","[0,150]",up,1,0.8744,,,,,,001,2025-03-10_16h54.41.791,SL_base_41,2021.2.3,Win32,59.88023952,,,49,0,49,0,1,,,,,,,,
,,"[""circle"",""green"",""vert"",""up"",[106,106],[0,-150]]",circle,green,vert,up,"[106,106]","[0,-150]",up,1,1.2574,,,,,,001,2025-03-10_16h54.41.791,SL_base_41,2021.2.3,Win32,59.88023952,,,50,0,50,0,1,,,,,,,,
,,"[""diamond"",""red"",""hori"",""left"",[106,106],[0,150]]",diamond,red,hori,left,"[106,106]","[0,150]",left,1,1.7436,,,,,,001,2025-03-10_16h54.41.791,SL_base_41,2021.2.3,Win32,59.88023952,,,51,0,51,0,1,,,,,,,,
,,"[""diamond"",""no_dis"",""vert"",""up"",[99999,99999],[0,150]]",diamond,no_dis,vert,up,"[99999,99999]","[0,150]",up,1,1.4668,,,,,,001,2025-03-10_16h54.41.791,SL_base_41,2021.2.3,Win32,59.88023952,,,52,0,52,0,1,,,,,,,,
,,"[""diamond"",""no_dis"",""hori"",""left"",[99999,99999],[-106,106]]",diamond,no_dis,hori,left,"[99999,99999]","[-106,106]",left,1,1.1609,,,,,,001,2025-03-10_16h54.41.791,SL_base_41,2021.2.3,Win32,59.88023952,,,53,0,53,0,1,,,,,,,,
,,"[""diamond"",""red"",""hori"",""left"",[106,106],[-150,0]]",diamond,red,hori,left,"[106,106]","[-150,0]",left,1,1.2626,,,,,,001,2025-03-10_16h54.41.791,SL_base_41,2021.2.3,Win32,59.88023952,,,54,0,54,0,1,,,,,,,,
,,"[""diamond"",""red"",""hori"",""left"",[106,106],[106,-106]]",diamond,red,hori,left,"[106,106]","[106,-106]",left,1,0.8849,,,,,,001,2025-03-10_16h54.41.791,SL_base_41,2021.2.3,Win32,59.88023952,,,55,0,55,0,1,,,,,,,,
,,"[""circle"",""no_dis"",""vert"",""up"",[99999,99999],[0,150]]",circle,no_dis,vert,up,"[99999,99999]","[0,150]",up,1,1.2838,,,,,,001,2025-03-10_16h54.41.791,SL_base_41,2021.2.3,Win32,59.88023952,,,56,0,56,0,1,,,,,,,,
,,"[""diamond"",""no_dis"",""vert"",""up"",[99999,99999],[0,-150]]",diamond,no_dis,vert,up,"[99999,99999]","[0,-150]",up,1,0.9569,,,,,,001,2025-03-10_16h54.41.791,SL_base_41,2021.2.3,Win32,59.88023952,,,57,0,57,0,1,,,,,,,,
,,"[""circle"",""no_dis"",""vert"",""up"",[99999,99999],[-106,-106]]",circle,no_dis,vert,up,"[99999,99999]","[-106,-106]",up,1,1.2696,,,,,,001,2025-03-10_16h54.41.791,SL_base_41,2021.2.3,Win32,59.88023952,,,58,0,58,0,1,,,,,,,,
,,"[""diamond"",""green"",""hori"",""left"",[-106,106],[106,106]]",diamond,green,hori,left,"[-106,106]","[106,106]",left,1,0.9838,,,,,,001,2025-03-10_16h54.41.791,SL_base_41,2021.2.3,Win32,59.88023952,,,59,0,59,0,1,,,,,,,,
,,"[""circle"",""green"",""hori"",""left"",[150,0],[-106,106]]",circle,green,hori,left,"[150,0]","[-106,106]",left,1,1.3331,,,,,,001,2025-03-10_16h54.41.791,SL_base_41,2021.2.3,Win32,59.88023952,,,60,0,60,0,1,,,,,,,,
,,"[""diamond"",""green"",""hori"",""left"",[-150,0],[-106,106]]",diamond,green,hori,left,"[-150,0]","[-106,106]",left,1,1.5016,,,,,,001,2025-03-10_16h54.41.791,SL_base_41,2021.2.3,Win32,59.88023952,,,61,0,61,0,1,,,,,,,,
,,"[""circle"",""no_dis"",""vert"",""up"",[99999,99999],[-150,0]]",circle,no_dis,vert,up,"[99999,99999]","[-150,0]",up,1,1.0462,,,,,,001,2025-03-10_16h54.41.791,SL_base_41,2021.2.3,Win32,59.88023952,,,62,0,62,0,1,,,,,,,,
,,"[""diamond"",""red"",""vert"",""up"",[106,106],[150,0]]",diamond,red,vert,up,"[106,106]","[150,0]",up,1,1.1077,,,,,,001,2025-03-10_16h54.41.791,SL_base_41,2021.2.3,Win32,59.88023952,,,63,0,63,0,1,,,,,,,,
,,"[""circle"",""no_dis"",""hori"",""left"",[99999,99999],[106,-106]]",circle,no_dis,hori,left,"[99999,99999]","[106,-106]",left,1,1.298,,,,,,001,2025-03-10_16h54.41.791,SL_base_41,2021.2.3,Win32,59.88023952,,,64,0,64,0,1,,,,,,,,
,,"[""diamond"",""green"",""hori"",""left"",[150,0],[-150,0]]",diamond,green,hori,left,"[150,0]","[-150,0]",left,1,2.0511,,,,,,001,2025-03-10_16h54.41.791,SL_base_41,2021.2.3,Win32,59.88023952,,,65,0,65,0,1,,,,,,,,
,,"[""circle"",""no_dis"",""hori"",""left"",[99999,99999],[-150,0]]",circle,no_dis,hori,left,"[99999,99999]","[-150,0]",left,1,1.7645,,,,,,001,2025-03-10_16h54.41.791,SL_base_41,2021.2.3,Win32,59.88023952,,,66,0,66,0,1,,,,,,,,
,,"[""diamond"",""red"",""vert"",""up"",[0,150],[-106,-106]]",diamond,red,vert,up,"[0,150]","[-106,-106]",up,1,1.5347,,,,,,001,2025-03-10_16h54.41.791,SL_base_41,2021.2.3,Win32,59.88023952,,,67,0,67,0,1,,,,,,,,
,,"[""circle"",""red"",""vert"",""up"",[0,-150],[-106,106]]",circle,red,vert,up,"[0,-150]","[-106,106]",up,1,1.1561,,,,,,001,2025-03-10_16h54.41.791,SL_base_41,2021.2.3,Win32,59.88023952,,,68,0,68,0,1,,,,,,,,
,,"[""diamond"",""red"",""vert"",""up"",[106,-106],[150,0]]",diamond,red,vert,up,"[106,-106]","[150,0]",up,1,0.9565,,,,,,001,2025-03-10_16h54.41.791,SL_base_41,2021.2.3,Win32,59.88023952,,,69,0,69,0,1,,,,,,,,
,,"[""diamond"",""green"",""vert"",""up"",[106,106],[106,-106]]",diamond,green,vert,up,"[106,106]","[106,-106]",up,1,1.2836,,,,,,001,2025-03-10_16h54.41.791,SL_base_41,2021.2.3,Win32,59.88023952,,,70,0,70,0,1,,,,,,,,
,,"[""diamond"",""green"",""hori"",""left"",[106,106],[-106,-106]]",diamond,green,hori,left,"[106,106]","[-106,-106]",left,1,0.9847,,,,,,001,2025-03-10_16h54.41.791,SL_base_41,2021.2.3,Win32,59.88023952,,,71,0,71,0,1,,,,,,,,
,,"[""circle"",""no_dis"",""vert"",""up"",[99999,99999],[-150,0]]",circle,no_dis,vert,up,"[99999,99999]","[-150,0]",up,1,1.3191,,,,,,001,2025-03-10_16h54.41.791,SL_base_41,2021.2.3,Win32,59.88023952,,,72,0,72,0,1,,,,,,,,
,,"[""circle"",""green"",""hori"",""left"",[0,-150],[-150,0]]",circle,green,hori,left,"[0,-150]","[-150,0]",left,1,1.1831,,,,,,001,2025-03-10_16h54.41.791,SL_base_41,2021.2.3,Win32,59.88023952,,,73,0,73,0,1,,,,,,,,
,,"[""diamond"",""red"",""vert"",""up"",[0,-150],[106,106]]",diamond,red,vert,up,"[0,-150]","[106,106]",up,1,1.1332,,,,,,001,2025-03-10_16h54.41.791,SL_base_41,2021.2.3,Win32,59.88023952,,,74,0,74,0,1,,,,,,,,
,,"[""diamond"",""no_dis"",""hori"",""left"",[99999,99999],[0,150]]",diamond,no_dis,hori,left,"[99999,99999]","[0,150]",left,1,0.9985,,,,,,001,2025-03-10_16h54.41.791,SL_base_41,2021.2.3,Win32,59.88023952,,,75,0,75,0,1,,,,,,,,
,,"[""circle"",""red"",""vert"",""up"",[150,0],[0,-150]]",circle,red,vert,up,"[150,0]","[0,-150]",up,1,1.4313,,,,,,001,2025-03-10_16h54.41.791,SL_base_41,2021.2.3,Win32,59.88023952,,,76,0,76,0,1,,,,,,,,
,,"[""diamond"",""green"",""hori"",""left"",[106,-106],[106,106]]",diamond,green,hori,left,"[106,-106]","[106,106]",left,1,1.3008,,,,,,001,2025-03-10_16h54.41.791,SL_base_41,2021.2.3,Win32,59.88023952,,,77,0,77,0,1,,,,,,,,
,,"[""circle"",""no_dis"",""vert"",""up"",[99999,99999],[0,150]]",circle,no_dis,vert,up,"[99999,99999]","[0,150]",up,1,0.979,,,,,,001,2025-03-10_16h54.41.791,SL_base_41,2021.2.3,Win32,59.88023952,,,78,0,78,0,1,,,,,,,,
,,"[""circle"",""green"",""vert"",""up"",[-150,0],[106,106]]",circle,green,vert,up,"[-150,0]","[106,106]",up,1,1.1018,,,,,,001,2025-03-10_16h54.41.791,SL_base_41,2021.2.3,Win32,59.88023952,,,79,0,79,0,1,,,,,,,,
,,"[""circle"",""green"",""hori"",""left"",[0,-150],[0,150]]",circle,green,hori,left,"[0,-150]","[0,150]",left,1,1.4877,,,,,,001,2025-03-10_16h54.41.791,SL_base_41,2021.2.3,Win32,59.88023952,,,80,0,80,0,1,,,,,,,,
,,"[""circle"",""red"",""hori"",""left"",[106,106],[0,-150]]",circle,red,hori,left,"[106,106]","[0,-150]",left,1,1.5339,,,,,,001,2025-03-10_16h54.41.791,SL_base_41,2021.2.3,Win32,59.88023952,,,81,0,81,0,1,,,,,,,,
,,"[""diamond"",""red"",""vert"",""up"",[-106,106],[106,-106]]",diamond,red,vert,up,"[-106,106]","[106,-106]",up,1,1.0346,,,,,,001,2025-03-10_16h54.41.791,SL_base_41,2021.2.3,Win32,59.88023952,,,82,0,82,0,1,,,,,,,,
,,"[""circle"",""red"",""hori"",""left"",[150,0],[-106,-106]]",circle,red,hori,left,"[150,0]","[-106,-106]",left,1,1.6019,,,,,,001,2025-03-10_16h54.41.791,SL_base_41,2021.2.3,Win32,59.88023952,,,83,0,83,0,1,,,,,,,,
,,"[""circle"",""red"",""hori"",""left"",[0,150],[150,0]]",circle,red,hori,left,"[0,150]","[150,0]",left,1,1.0841,,,,,,001,2025-03-10_16h54.41.791,SL_base_41,2021.2.3,Win32,59.88023952,,,84,0,84,0,1,,,,,,,,
,,"[""diamond"",""no_dis"",""hori"",""left"",[99999,99999],[106,-106]]",diamond,no_dis,hori,left,"[99999,99999]","[106,-106]",left,1,1.8328,,,,,,001,2025-03-10_16h54.41.791,SL_base_41,2021.2.3,Win32,59.88023952,,,85,0,85,0,1,,,,,,,,
,,"[""circle"",""red"",""vert"",""up"",[150,0],[0,-150]]",circle,red,vert,up,"[150,0]","[0,-150]",up,1,1.4073,,,,,,001,2025-03-10_16h54.41.791,SL_base_41,2021.2.3,Win32,59.88023952,,,86,0,86,0,1,,,,,,,,
,,"[""circle"",""green"",""hori"",""left"",[106,106],[150,0]]",circle,green,hori,left,"[106,106]","[150,0]",left,1,1.6207,,,,,,001,2025-03-10_16h54.41.791,SL_base_41,2021.2.3,Win32,59.88023952,,,87,0,87,0,1,,,,,,,,
,,"[""circle"",""red"",""hori"",""left"",[106,106],[0,150]]",circle,red,hori,left,"[106,106]","[0,150]",left,1,1.7435,,,,,,001,2025-03-10_16h54.41.791,SL_base_41,2021.2.3,Win32,59.88023952,,,88,0,88,0,1,,,,,,,,
,,"[""circle"",""red"",""vert"",""up"",[-106,106],[0,150]]",circle,red,vert,up,"[-106,106]","[0,150]",up,1,1.2338,,,,,,001,2025-03-10_16h54.41.791,SL_base_41,2021.2.3,Win32,59.88023952,,,89,0,89,0,1,,,,,,,,
,,"[""circle"",""red"",""hori"",""left"",[-106,106],[-150,0]]",circle,red,hori,left,"[-106,106]","[-150,0]",left,1,1.382,,,,,,001,2025-03-10_16h54.41.791,SL_base_41,2021.2.3,Win32,59.88023952,,,90,0,90,0,1,,,,,,,,
,,"[""diamond"",""green"",""vert"",""up"",[150,0],[-150,0]]",diamond,green,vert,up,"[150,0]","[-150,0]",up,1,1.1976,,,,,,001,2025-03-10_16h54.41.791,SL_base_41,2021.2.3,Win32,59.88023952,,,91,0,91,0,1,,,,,,,,
,,"[""circle"",""green"",""hori"",""left"",[106,106],[106,-106]]",circle,green,hori,left,"[106,106]","[106,-106]",left,1,1.1958,,,,,,001,2025-03-10_16h54.41.791,SL_base_41,2021.2.3,Win32,59.88023952,,,92,0,92,0,1,,,,,,,,
,,"[""diamond"",""red"",""vert"",""up"",[106,-106],[0,150]]",diamond,red,vert,up,"[106,-106]","[0,150]",up,1,1.4858,,,,,,001,2025-03-10_16h54.41.791,SL_base_41,2021.2.3,Win32,59.88023952,,,93,0,93,0,1,,,,,,,,
,,"[""diamond"",""green"",""hori"",""left"",[-106,106],[150,0]]",diamond,green,hori,left,"[-106,106]","[150,0]",left,1,1.0841,,,,,,001,2025-03-10_16h54.41.791,SL_base_41,2021.2.3,Win32,59.88023952,,,94,0,94,0,1,,,,,,,,
,,"[""circle"",""no_dis"",""hori"",""left"",[99999,99999],[106,106]]",circle,no_dis,hori,left,"[99999,99999]","[106,106]",left,1,1.3414,,,,,,001,2025-03-10_16h54.41.791,SL_base_41,2021.2.3,Win32,59.88023952,,,95,0,95,0,1,,,,,,,,
,,"[""circle"",""green"",""hori"",""left"",[106,106],[-150,0]]",circle,green,hori,left,"[106,106]","[-150,0]",left,1,1.9142,,,,,,001,2025-03-10_16h54.41.791,SL_base_41,2021.2.3,Win32,59.88023952,,,96,0,96,0,1,,,,,,,,
,,"[""circle"",""red"",""hori"",""left"",[-150,0],[106,106]]",circle,red,hori,left,"[-150,0]","[106,106]",left,1,1.4972,,,,,,001,2025-03-10_16h54.41.791,SL_base_41,2021.2.3,Win32,59.88023952,,,97,0,97,0,1,,,,,,,,
,,"[""diamond"",""green"",""vert"",""up"",[-106,106],[0,150]]",diamond,green,vert,up,"[-106,106]","[0,150]",up,1,2.1361,,,,,,001,2025-03-10_16h54.41.791,SL_base_41,2021.2.3,Win32,59.88023952,,,98,0,98,0,1,,,,,,,,
,,"[""circle"",""green"",""vert"",""up"",[0,150],[-150,0]]",circle,green,vert,up,"[0,150]","[-150,0]",up,1,1.7816,,,,,,001,2025-03-10_16h54.41.791,SL_base_41,2021.2.3,Win32,59.88023952,,,99,0,99,0,1,,,,,,,,
,,"[""circle"",""red"",""hori"",""left"",[-150,0],[0,-150]]",circle,red,hori,left,"[-150,0]","[0,-150]",left,1,1.09,,,,,,001,2025-03-10_16h54.41.791,SL_base_41,2021.2.3,Win32,59.88023952,,,100,0,100,0,1,,,,,,,,
,,"[""diamond"",""red"",""hori"",""left"",[106,-106],[0,-150]]",diamond,red,hori,left,"[106,-106]","[0,-150]",left,1,1.2158,,,,,,001,2025-03-10_16h54.41.791,SL_base_41,2021.2.3,Win32,59.88023952,,,101,0,101,0,1,,,,,,,,
,,"[""circle"",""green"",""hori"",""left"",[106,106],[106,-106]]",circle,green,hori,left,"[106,106]","[106,-106]",left,1,1.2026,,,,,,001,2025-03-10_16h54.41.791,SL_base_41,2021.2.3,Win32,59.88023952,,,102,0,102,0,1,,,,,,,,
,,"[""diamond"",""green"",""vert"",""up"",[0,150],[150,0]]",diamond,green,vert,up,"[0,150]","[150,0]",up,1,1.3624,,,,,,001,2025-03-10_16h54.41.791,SL_base_41,2021.2.3,Win32,59.88023952,,,103,0,103,0,1,,,,,,,,
,,"[""diamond"",""no_dis"",""vert"",""up"",[99999,99999],[0,-150]]",diamond,no_dis,vert,up,"[99999,99999]","[0,-150]",up,1,1.2352,,,,,,001,2025-03-10_16h54.41.791,SL_base_41,2021.2.3,Win32,59.88023952,,,104,0,104,0,1,,,,,,,,
,,"[""circle"",""no_dis"",""vert"",""up"",[99999,99999],[-106,-106]]",circle,no_dis,vert,up,"[99999,99999]","[-106,-106]",up,1,1.3813,,,,,,001,2025-03-10_16h54.41.791,SL_base_41,2021.2.3,Win32,59.88023952,,,105,0,105,0,1,,,,,,,,
,,"[""diamond"",""red"",""vert"",""up"",[106,106],[-106,106]]",diamond,red,vert,up,"[106,106]","[-106,106]",up,1,1.2506,,,,,,001,2025-03-10_16h54.41.791,SL_base_41,2021.2.3,Win32,59.88023952,,,106,0,106,0,1,,,,,,,,
,,"[""circle"",""green"",""hori"",""left"",[106,106],[150,0]]",circle,green,hori,left,"[106,106]","[150,0]",left,1,1.2798,,,,,,001,2025-03-10_16h54.41.791,SL_base_41,2021.2.3,Win32,59.88023952,,,107,0,107,0,1,,,,,,,,
,,"[""diamond"",""red"",""vert"",""up"",[106,106],[106,-106]]",diamond,red,vert,up,"[106,106]","[106,-106]",up,1,1.1511,,,,,,001,2025-03-10_16h54.41.791,SL_base_41,2021.2.3,Win32,59.88023952,,,108,0,108,0,1,,,,,,,,
,,"[""circle"",""green"",""vert"",""up"",[0,150],[0,-150]]",circle,green,vert,up,"[0,150]","[0,-150]",up,1,1.1985,,,,,,001,2025-03-10_16h54.41.791,SL_base_41,2021.2.3,Win32,59.88023952,,,109,0,109,0,1,,,,,,,,
,,"[""diamond"",""green"",""hori"",""left"",[-106,-106],[-106,106]]",diamond,green,hori,left,"[-106,-106]","[-106,106]",left,1,1.9841,,,,,,001,2025-03-10_16h54.41.791,SL_base_41,2021.2.3,Win32,59.88023952,,,110,0,110,0,1,,,,,,,,
,,"[""circle"",""no_dis"",""hori"",""left"",[99999,99999],[-106,-106]]",circle,no_dis,hori,left,"[99999,99999]","[-106,-106]",left,1,1.1156,,,,,,001,2025-03-10_16h54.41.791,SL_base_41,2021.2.3,Win32,59.88023952,,,111,0,111,0,1,,,,,,,,
,,"[""diamond"",""no_dis"",""hori"",""left"",[99999,99999],[-106,-106]]",diamond,no_dis,hori,left,"[99999,99999]","[-106,-106]",left,1,1.4073,,,,,,001,2025-03-10_16h54.41.791,SL_base_41,2021.2.3,Win32,59.88023952,,,112,0,112,0,1,,,,,,,,
,,"[""circle"",""no_dis"",""hori"",""left"",[99999,99999],[150,0]]",circle,no_dis,hori,left,"[99999,99999]","[150,0]",left,1,1.6425,,,,,,001,2025-03-10_16h54.41.791,SL_base_41,2021.2.3,Win32,59.88023952,,,113,0,113,0,1,,,,,,,,
,,"[""diamond"",""red"",""hori"",""left"",[-150,0],[-106,106]]",diamond,red,hori,left,"[-150,0]","[-106,106]",left,1,2.2663,,,,,,001,2025-03-10_16h54.41.791,SL_base_41,2021.2.3,Win32,59.88023952,,,114,0,114,0,1,,,,,,,,
,,"[""diamond"",""no_dis"",""hori"",""left"",[99999,99999],[-150,0]]",diamond,no_dis,hori,left,"[99999,99999]","[-150,0]",left,1,1.7041,,,,,,001,2025-03-10_16h54.41.791,SL_base_41,2021.2.3,Win32,59.88023952,,,115,0,115,0,1,,,,,,,,
,,"[""diamond"",""green"",""hori"",""left"",[106,106],[0,-150]]",diamond,green,hori,left,"[106,106]","[0,-150]",left,1,1.1362,,,,,,001,2025-03-10_16h54.41.791,SL_base_41,2021.2.3,Win32,59.88023952,,,116,0,116,0,1,,,,,,,,
,,"[""circle"",""red"",""vert"",""up"",[-150,0],[0,-150]]",circle,red,vert,up,"[-150,0]","[0,-150]",up,1,1.551,,,,,,001,2025-03-10_16h54.41.791,SL_base_41,2021.2.3,Win32,59.88023952,,,117,0,117,0,1,,,,,,,,
,,"[""circle"",""no_dis"",""vert"",""up"",[99999,99999],[-150,0]]",circle,no_dis,vert,up,"[99999,99999]","[-150,0]",up,1,1.5341,,,,,,001,2025-03-10_16h54.41.791,SL_base_41,2021.2.3,Win32,59.88023952,,,118,0,118,0,1,,,,,,,,
,,"[""circle"",""green"",""hori"",""left"",[0,150],[106,-106]]",circle,green,hori,left,"[0,150]","[106,-106]",left,1,1.3836,,,,,,001,2025-03-10_16h54.41.791,SL_base_41,2021.2.3,Win32,59.88023952,,,119,0,119,0,1,,,,,,,,
,,"[""diamond"",""green"",""vert"",""up"",[106,106],[-106,-106]]",diamond,green,vert,up,"[106,106]","[-106,-106]",up,1,1.1844,,,,,,001,2025-03-10_16h54.41.791,SL_base_41,2021.2.3,Win32,59.88023952,,,120,0,120,0,1,,,,,,,,
,,"[""diamond"",""green"",""vert"",""up"",[-106,-106],[106,106]]",diamond,green,vert,up,"[-106,-106]","[106,106]",left,0,0.8796,,,,,,001,2025-03-10_16h54.41.791,SL_base_41,2021.2.3,Win32,59.88023952,,,121,0,121,0,1,,,,,,,,
,,"[""circle"",""green"",""vert"",""up"",[0,150],[106,-106]]",circle,green,vert,up,"[0,150]","[106,-106]",up,1,2.3625,,,,,,001,2025-03-10_16h54.41.791,SL_base_41,2021.2.3,Win32,59.88023952,,,122,0,122,0,1,,,,,,,,
,,"[""diamond"",""no_dis"",""hori"",""left"",[99999,99999],[-106,-106]]",diamond,no_dis,hori,left,"[99999,99999]","[-106,-106]",left,1,1.2032,,,,,,001,2025-03-10_16h54.41.791,SL_base_41,2021.2.3,Win32,59.88023952,,,123,0,123,0,1,,,,,,,,
,,"[""diamond"",""red"",""vert"",""up"",[-106,106],[106,-106]]",diamond,red,vert,up,"[-106,106]","[106,-106]",up,1,1.1342,,,,,,001,2025-03-10_16h54.41.791,SL_base_41,2021.2.3,Win32,59.88023952,,,124,0,124,0,1,,,,,,,,
,,"[""circle"",""red"",""vert"",""up"",[106,106],[-106,-106]]",circle,red,vert,up,"[106,106]","[-106,-106]",up,1,2.138,,,,,,001,2025-03-10_16h54.41.791,SL_base_41,2021.2.3,Win32,59.88023952,,,125,0,125,0,1,,,,,,,,
,,"[""diamond"",""red"",""hori"",""left"",[106,-106],[0,-150]]",diamond,red,hori,left,"[106,-106]","[0,-150]",left,1,1.0864,,,,,,001,2025-03-10_16h54.41.791,SL_base_41,2021.2.3,Win32,59.88023952,,,126,0,126,0,1,,,,,,,,
,,"[""circle"",""red"",""vert"",""up"",[0,-150],[-106,-106]]",circle,red,vert,up,"[0,-150]","[-106,-106]",up,1,1.7346,,,,,,001,2025-03-10_16h54.41.791,SL_base_41,2021.2.3,Win32,59.88023952,,,127,0,127,0,1,,,,,,,,
,,,,,,,,,,,,,,,,,001,2025-03-10_16h54.41.791,SL_base_41,2021.2.3,Win32,59.88023952,,,,,,,,3,space,2.2167,2,0,2,0,1
,,"[""circle"",""green"",""vert"",""up"",[-150,0],[106,106]]",circle,green,vert,up,"[-150,0]","[106,106]",up,1,1.6512,,,,,,001,2025-03-10_16h54.41.791,SL_base_41,2021.2.3,Win32,59.88023952,,,0,0,0,0,1,,,,,,,,
,,"[""circle"",""no_dis"",""hori"",""left"",[99999,99999],[-106,106]]",circle,no_dis,hori,left,"[99999,99999]","[-106,106]",left,1,1.2004,,,,,,001,2025-03-10_16h54.41.791,SL_base_41,2021.2.3,Win32,59.88023952,,,1,0,1,0,1,,,,,,,,
,,"[""circle"",""green"",""vert"",""up"",[106,106],[150,0]]",circle,green,vert,up,"[106,106]","[150,0]",up,1,1.0511,,,,,,001,2025-03-10_16h54.41.791,SL_base_41,2021.2.3,Win32,59.88023952,,,2,0,2,0,1,,,,,,,,
,,"[""diamond"",""green"",""hori"",""left"",[106,106],[0,-150]]",diamond,green,hori,left,"[106,106]","[0,-150]",left,1,1.1692,,,,,,001,2025-03-10_16h54.41.791,SL_base_41,2021.2.3,Win32,59.88023952,,,3,0,3,0,1,,,,,,,,
,,"[""diamond"",""red"",""hori"",""left"",[106,106],[0,150]]",diamond,red,hori,left,"[106,106]","[0,150]",left,1,1.143,,,,,,001,2025-03-10_16h54.41.791,SL_base_41,2021.2.3,Win32,59.88023952,,,4,0,4,0,1,,,,,,,,
,,"[""circle"",""green"",""hori"",""left"",[0,-150],[0,150]]",circle,green,hori,left,"[0,-150]","[0,150]",up,0,1.4807,,,,,,001,2025-03-10_16h54.41.791,SL_base_41,2021.2.3,Win32,59.88023952,,,5,0,5,0,1,,,,,,,,
,,"[""diamond"",""green"",""vert"",""up"",[-106,106],[0,150]]",diamond,green,vert,up,"[-106,106]","[0,150]",up,1,1.7665,,,,,,001,2025-03-10_16h54.41.791,SL_base_41,2021.2.3,Win32,59.88023952,,,6,0,6,0,1,,,,,,,,
,,"[""circle"",""red"",""vert"",""up"",[150,0],[0,-150]]",circle,red,vert,up,"[150,0]","[0,-150]",up,1,1.4259,,,,,,001,2025-03-10_16h54.41.791,SL_base_41,2021.2.3,Win32,59.88023952,,,7,0,7,0,1,,,,,,,,
,,"[""circle"",""red"",""hori"",""left"",[-106,-106],[0,-150]]",circle,red,hori,left,"[-106,-106]","[0,-150]",left,1,1.8918,,,,,,001,2025-03-10_16h54.41.791,SL_base_41,2021.2.3,Win32,59.88023952,,,8,0,8,0,1,,,,,,,,
,,"[""circle"",""no_dis"",""hori"",""left"",[99999,99999],[106,-106]]",circle,no_dis,hori,left,"[99999,99999]","[106,-106]",left,1,1.2199,,,,,,001,2025-03-10_16h54.41.791,SL_base_41,2021.2.3,Win32,59.88023952,,,9,0,9,0,1,,,,,,,,
,,"[""diamond"",""no_dis"",""vert"",""up"",[99999,99999],[0,150]]",diamond,no_dis,vert,up,"[99999,99999]","[0,150]",up,1,1.0831,,,,,,001,2025-03-10_16h54.41.791,SL_base_41,2021.2.3,Win32,59.88023952,,,10,0,10,0,1,,,,,,,,
,,"[""diamond"",""no_dis"",""hori"",""left"",[99999,99999],[150,0]]",diamond,no_dis,hori,left,"[99999,99999]","[150,0]",left,1,1.2145,,,,,,001,2025-03-10_16h54.41.791,SL_base_41,2021.2.3,Win32,59.88023952,,,11,0,11,0,1,,,,,,,,
,,"[""diamond"",""green"",""hori"",""left"",[150,0],[-150,0]]",diamond,green,hori,left,"[150,0]","[-150,0]",left,1,1.2143,,,,,,001,2025-03-10_16h54.41.791,SL_base_41,2021.2.3,Win32,59.88023952,,,12,0,12,0,1,,,,,,,,
,,"[""diamond"",""no_dis"",""vert"",""up"",[99999,99999],[0,150]]",diamond,no_dis,vert,up,"[99999,99999]","[0,150]",up,1,0.7899,,,,,,001,2025-03-10_16h54.41.791,SL_base_41,2021.2.3,Win32,59.88023952,,,13,0,13,0,1,,,,,,,,
,,"[""circle"",""green"",""hori"",""left"",[106,106],[106,-106]]",circle,green,hori,left,"[106,106]","[106,-106]",left,1,1.9884,,,,,,001,2025-03-10_16h54.41.791,SL_base_41,2021.2.3,Win32,59.88023952,,,14,0,14,0,1,,,,,,,,
,,"[""circle"",""no_dis"",""vert"",""up"",[99999,99999],[106,106]]",circle,no_dis,vert,up,"[99999,99999]","[106,106]",up,1,1.0848,,,,,,001,2025-03-10_16h54.41.791,SL_base_41,2021.2.3,Win32,59.88023952,,,15,0,15,0,1,,,,,,,,
,,"[""circle"",""no_dis"",""hori"",""left"",[99999,99999],[106,-106]]",circle,no_dis,hori,left,"[99999,99999]","[106,-106]",left,1,1.3141,,,,,,001,2025-03-10_16h54.41.791,SL_base_41,2021.2.3,Win32,59.88023952,,,16,0,16,0,1,,,,,,,,
,,"[""diamond"",""green"",""vert"",""up"",[0,-150],[0,150]]",diamond,green,vert,up,"[0,-150]","[0,150]",up,1,1.7713,,,,,,001,2025-03-10_16h54.41.791,SL_base_41,2021.2.3,Win32,59.88023952,,,17,0,17,0,1,,,,,,,,
,,"[""diamond"",""red"",""hori"",""left"",[106,106],[-150,0]]",diamond,red,hori,left,"[106,106]","[-150,0]",left,1,0.944,,,,,,001,2025-03-10_16h54.41.791,SL_base_41,2021.2.3,Win32,59.88023952,,,18,0,18,0,1,,,,,,,,
,,"[""diamond"",""red"",""vert"",""up"",[-106,106],[106,-106]]",diamond,red,vert,up,"[-106,106]","[106,-106]",up,1,0.9836,,,,,,001,2025-03-10_16h54.41.791,SL_base_41,2021.2.3,Win32,59.88023952,,,19,0,19,0,1,,,,,,,,
,,"[""diamond"",""red"",""hori"",""left"",[106,-106],[0,-150]]",diamond,red,hori,left,"[106,-106]","[0,-150]",left,1,1.026,,,,,,001,2025-03-10_16h54.41.791,SL_base_41,2021.2.3,Win32,59.88023952,,,20,0,20,0,1,,,,,,,,
,,"[""circle"",""no_dis"",""hori"",""left"",[99999,99999],[0,-150]]",circle,no_dis,hori,left,"[99999,99999]","[0,-150]",up,0,1.6026,,,,,,001,2025-03-10_16h54.41.791,SL_base_41,2021.2.3,Win32,59.88023952,,,21,0,21,0,1,,,,,,,,
,,"[""circle"",""green"",""vert"",""up"",[106,106],[-150,0]]",circle,green,vert,up,"[106,106]","[-150,0]",up,1,1.3667,,,,,,001,2025-03-10_16h54.41.791,SL_base_41,2021.2.3,Win32,59.88023952,,,22,0,22,0,1,,,,,,,,
,,"[""diamond"",""red"",""hori"",""left"",[106,106],[0,150]]",diamond,red,hori,left,"[106,106]","[0,150]",left,1,1.5699,,,,,,001,2025-03-10_16h54.41.791,SL_base_41,2021.2.3,Win32,59.88023952,,,23,0,23,0,1,,,,,,,,
,,"[""diamond"",""no_dis"",""vert"",""up"",[99999,99999],[0,-150]]",diamond,no_dis,vert,up,"[99999,99999]","[0,-150]",up,1,0.9369,,,,,,001,2025-03-10_16h54.41.791,SL_base_41,2021.2.3,Win32,59.88023952,,,24,0,24,0,1,,,,,,,,
,,"[""diamond"",""no_dis"",""hori"",""left"",[99999,99999],[-150,0]]",diamond,no_dis,hori,left,"[99999,99999]","[-150,0]",left,1,1.1874,,,,,,001,2025-03-10_16h54.41.791,SL_base_41,2021.2.3,Win32,59.88023952,,,25,0,25,0,1,,,,,,,,
,,"[""diamond"",""red"",""vert"",""up"",[0,150],[-106,-106]]",diamond,red,vert,up,"[0,150]","[-106,-106]",up,1,1.6379,,,,,,001,2025-03-10_16h54.41.791,SL_base_41,2021.2.3,Win32,59.88023952,,,26,0,26,0,1,,,,,,,,
,,"[""circle"",""green"",""vert"",""up"",[106,-106],[150,0]]",circle,green,vert,up,"[106,-106]","[150,0]",up,1,1.5175,,,,,,001,2025-03-10_16h54.41.791,SL_base_41,2021.2.3,Win32,59.88023952,,,27,0,27,0,1,,,,,,,,
,,"[""diamond"",""no_dis"",""vert"",""up"",[99999,99999],[0,-150]]",diamond,no_dis,vert,up,"[99999,99999]","[0,-150]",up,1,1.3191,,,,,,001,2025-03-10_16h54.41.791,SL_base_41,2021.2.3,Win32,59.88023952,,,28,0,28,0,1,,,,,,,,
,,"[""diamond"",""no_dis"",""hori"",""left"",[99999,99999],[-106,106]]",diamond,no_dis,hori,left,"[99999,99999]","[-106,106]",left,1,1.4405,,,,,,001,2025-03-10_16h54.41.791,SL_base_41,2021.2.3,Win32,59.88023952,,,29,0,29,0,1,,,,,,,,
,,"[""diamond"",""red"",""vert"",""up"",[106,106],[106,-106]]",diamond,red,vert,up,"[106,106]","[106,-106]",up,1,1.0341,,,,,,001,2025-03-10_16h54.41.791,SL_base_41,2021.2.3,Win32,59.88023952,,,30,0,30,0,1,,,,,,,,
,,"[""diamond"",""green"",""hori"",""left"",[-106,106],[150,0]]",diamond,green,hori,left,"[-106,106]","[150,0]",left,1,1.226,,,,,,001,2025-03-10_16h54.41.791,SL_base_41,2021.2.3,Win32,59.88023952,,,31,0,31,0,1,,,,,,,,
,,"[""circle"",""red"",""vert"",""up"",[106,106],[150,0]]",circle,red,vert,up,"[106,106]","[150,0]",up,1,1.7853,,,,,,001,2025-03-10_16h54.41.791,SL_base_41,2021.2.3,Win32,59.88023952,,,32,0,32,0,1,,,,,,,,
,,"[""diamond"",""no_dis"",""vert"",""up"",[99999,99999],[150,0]]",diamond,no_dis,vert,up,"[99999,99999]","[150,0]",up,1,1.1917,,,,,,001,2025-03-10_16h54.41.791,SL_base_41,2021.2.3,Win32,59.88023952,,,33,0,33,0,1,,,,,,,,
,,"[""diamond"",""green"",""hori"",""left"",[-106,-106],[-106,106]]",diamond,green,hori,left,"[-106,-106]","[-106,106]",left,1,1.4854,,,,,,001,2025-03-10_16h54.41.791,SL_base_41,2021.2.3,Win32,59.88023952,,,34,0,34,0,1,,,,,,,,
,,"[""circle"",""red"",""hori"",""left"",[-150,0],[0,-150]]",circle,red,hori,left,"[-150,0]","[0,-150]",left,1,1.991,,,,,,001,2025-03-10_16h54.41.791,SL_base_41,2021.2.3,Win32,59.88023952,,,35,0,35,0,1,,,,,,,,
,,"[""diamond"",""red"",""vert"",""up"",[106,-106],[150,0]]",diamond,red,vert,up,"[106,-106]","[150,0]",up,1,1.6238,,,,,,001,2025-03-10_16h54.41.791,SL_base_41,2021.2.3,Win32,59.88023952,,,36,0,36,0,1,,,,,,,,
,,"[""diamond"",""red"",""vert"",""up"",[106,-106],[0,150]]",diamond,red,vert,up,"[106,-106]","[0,150]",up,1,0.9507,,,,,,001,2025-03-10_16h54.41.791,SL_base_41,2021.2.3,Win32,59.88023952,,,37,0,37,0,1,,,,,,,,
,,"[""circle"",""red"",""hori"",""left"",[106,-106],[106,106]]",circle,red,hori,left,"[106,-106]","[106,106]",left,1,2.1498,,,,,,001,2025-03-10_16h54.41.791,SL_base_41,2021.2.3,Win32,59.88023952,,,38,0,38,0,1,,,,,,,,
,,"[""circle"",""no_dis"",""vert"",""up"",[99999,99999],[-150,0]]",circle,no_dis,vert,up,"[99999,99999]","[-150,0]",up,1,1.533,,,,,,001,2025-03-10_16h54.41.791,SL_base_41,2021.2.3,Win32,59.88023952,,,39,0,39,0,1,,,,,,,,
,,"[""diamond"",""green"",""vert"",""up"",[-106,-106],[106,106]]",diamond,green,vert,up,"[-106,-106]","[106,106]",up,1,1.4114,,,,,,001,2025-03-10_16h54.41.791,SL_base_41,2021.2.3,Win32,59.88023952,,,40,0,40,0,1,,,,,,,,
,,"[""circle"",""red"",""vert"",""up"",[0,-150],[-106,-106]]",circle,red,vert,up,"[0,-150]","[-106,-106]",up,1,1.2677,,,,,,001,2025-03-10_16h54.41.791,SL_base_41,2021.2.3,Win32,59.88023952,,,41,0,41,0,1,,,,,,,,
,,"[""diamond"",""green"",""hori"",""left"",[-106,106],[106,106]]",diamond,green,hori,left,"[-106,106]","[106,106]",left,1,1.2008,,,,,,001,2025-03-10_16h54.41.791,SL_base_41,2021.2.3,Win32,59.88023952,,,42,0,42,0,1,,,,,,,,
,,"[""circle"",""red"",""vert"",""up"",[106,106],[-106,-106]]",circle,red,vert,up,"[106,106]","[-106,-106]",up,1,1.3827,,,,,,001,2025-03-10_16h54.41.791,SL_base_41,2021.2.3,Win32,59.88023952,,,43,0,43,0,1,,,,,,,,
,,"[""diamond"",""no_dis"",""hori"",""left"",[99999,99999],[106,106]]",diamond,no_dis,hori,left,"[99999,99999]","[106,106]",left,1,0.9018,,,,,,001,2025-03-10_16h54.41.791,SL_base_41,2021.2.3,Win32,59.88023952,,,44,0,44,0,1,,,,,,,,
,,"[""diamond"",""red"",""hori"",""left"",[106,106],[-106,106]]",diamond,red,hori,left,"[106,106]","[-106,106]",left,1,1.0982,,,,,,001,2025-03-10_16h54.41.791,SL_base_41,2021.2.3,Win32,59.88023952,,,45,0,45,0,1,,,,,,,,
,,"[""circle"",""red"",""vert"",""up"",[150,0],[0,-150]]",circle,red,vert,up,"[150,0]","[0,-150]",up,1,1.231,,,,,,001,2025-03-10_16h54.41.791,SL_base_41,2021.2.3,Win32,59.88023952,,,46,0,46,0,1,,,,,,,,
,,"[""diamond"",""green"",""hori"",""left"",[-150,0],[-106,106]]",diamond,green,hori,left,"[-150,0]","[-106,106]",left,1,1.6555,,,,,,001,2025-03-10_16h54.41.791,SL_base_41,2021.2.3,Win32,59.88023952,,,47,0,47,0,1,,,,,,,,
,,"[""diamond"",""red"",""hori"",""left"",[106,106],[106,-106]]",diamond,red,hori,left,"[106,106]","[106,-106]",left,1,1.1687,,,,,,001,2025-03-10_16h54.41.791,SL_base_41,2021.2.3,Win32,59.88023952,,,48,0,48,0,1,,,,,,,,
,,"[""circle"",""red"",""hori"",""left"",[0,150],[150,0]]",circle,red,hori,left,"[0,150]","[150,0]",left,1,1.4409,,,,,,001,2025-03-10_16h54.41.791,SL_base_41,2021.2.3,Win32,59.88023952,,,49,0,49,0,1,,,,,,,,
,,"[""circle"",""no_dis"",""hori"",""left"",[99999,99999],[150,0]]",circle,no_dis,hori,left,"[99999,99999]","[150,0]",left,1,0.9124,,,,,,001,2025-03-10_16h54.41.791,SL_base_41,2021.2.3,Win32,59.88023952,,,50,0,50,0,1,,,,,,,,
,,"[""diamond"",""green"",""vert"",""up"",[150,0],[-150,0]]",diamond,green,vert,up,"[150,0]","[-150,0]",up,1,0.9711,,,,,,001,2025-03-10_16h54.41.791,SL_base_41,2021.2.3,Win32,59.88023952,,,51,0,51,0,1,,,,,,,,
,,"[""circle"",""green"",""vert"",""up"",[0,150],[-150,0]]",circle,green,vert,up,"[0,150]","[-150,0]",up,1,1.0134,,,,,,001,2025-03-10_16h54.41.791,SL_base_41,2021.2.3,Win32,59.88023952,,,52,0,52,0,1,,,,,,,,
,,"[""diamond"",""green"",""vert"",""up"",[-106,-106],[106,-106]]",diamond,green,vert,up,"[-106,-106]","[106,-106]",up,1,1.1383,,,,,,001,2025-03-10_16h54.41.791,SL_base_41,2021.2.3,Win32,59.88023952,,,53,0,53,0,1,,,,,,,,
,,"[""circle"",""red"",""hori"",""left"",[106,106],[0,-150]]",circle,red,hori,left,"[106,106]","[0,-150]",left,1,1.062,,,,,,001,2025-03-10_16h54.41.791,SL_base_41,2021.2.3,Win32,59.88023952,,,54,0,54,0,1,,,,,,,,
,,"[""diamond"",""green"",""vert"",""up"",[-106,-106],[0,-150]]",diamond,green,vert,up,"[-106,-106]","[0,-150]",up,1,1.4366,,,,,,001,2025-03-10_16h54.41.791,SL_base_41,2021.2.3,Win32,59.88023952,,,55,0,55,0,1,,,,,,,,
,,"[""diamond"",""no_dis"",""vert"",""up"",[99999,99999],[150,0]]",diamond,no_dis,vert,up,"[99999,99999]","[150,0]",up,1,1.1077,,,,,,001,2025-03-10_16h54.41.791,SL_base_41,2021.2.3,Win32,59.88023952,,,56,0,56,0,1,,,,,,,,
,,"[""circle"",""red"",""vert"",""up"",[-106,106],[0,150]]",circle,red,vert,up,"[-106,106]","[0,150]",up,1,1.4393,,,,,,001,2025-03-10_16h54.41.791,SL_base_41,2021.2.3,Win32,59.88023952,,,57,0,57,0,1,,,,,,,,
,,"[""circle"",""no_dis"",""vert"",""up"",[99999,99999],[-106,106]]",circle,no_dis,vert,up,"[99999,99999]","[-106,106]",up,1,2.0674,,,,,,001,2025-03-10_16h54.41.791,SL_base_41,2021.2.3,Win32,59.88023952,,,58,0,58,0,1,,,,,,,,
,,"[""diamond"",""red"",""vert"",""up"",[106,106],[-106,106]]",diamond,red,vert,up,"[106,106]","[-106,106]",left,0,2.2294,,,,,,001,2025-03-10_16h54.41.791,SL_base_41,2021.2.3,Win32,59.88023952,,,59,0,59,0,1,,,,,,,,
,,"[""circle"",""no_dis"",""hori"",""left"",[99999,99999],[106,-106]]",circle,no_dis,hori,left,"[99999,99999]","[106,-106]",left,1,1.2552,,,,,,001,2025-03-10_16h54.41.791,SL_base_41,2021.2.3,Win32,59.88023952,,,60,0,60,0,1,,,,,,,,
