﻿key_resp.keys,key_resp.rt,trial_para,tar_shape,dis_color_condi,tar_line,cor_resp,dis_loc,tar_loc,resp.keys,resp.corr,trials.thisRepN,trials.thisTrialN,trials.thisN,trials.thisIndex,trials.ran,participant,date,expName,psychopyVersion,OS,frameRate,resp.rt,key_resp_2.keys,key_resp_2.rt,trials_2.thisRepN,trials_2.thisTrialN,trials_2.thisN,trials_2.thisIndex,trials_2.ran,block_num,key_resp_3.keys,key_resp_3.rt,trials_3.thisRepN,trials_3.thisTrialN,trials_3.thisN,trials_3.thisIndex,trials_3.ran
space,84.8127,"[""diamond"",""green"",""hori"",""left"",[-106,106],[106,106]]",diamond,green,hori,left,"[-106,106]","[106,106]",,0,0,0,0,0,1,001,2025-03-10_16h53.20.049,SL_base_41,2021.2.3,Win32,90.09009009,,,,,,,,,,,,,,,,
,,"[""diamond"",""green"",""hori"",""left"",[106,106],[-106,106]]",diamond,green,hori,left,"[106,106]","[-106,106]",up,0,1,0,1,0,1,001,2025-03-10_16h53.20.049,SL_base_41,2021.2.3,Win32,90.09009009,2.7436,,,,,,,,,,,,,,,
,,"[""diamond"",""green"",""vert"",""up"",[106,106],[106,-106]]",diamond,green,vert,up,"[106,106]","[106,-106]",up,1,2,0,2,0,1,001,2025-03-10_16h53.20.049,SL_base_41,2021.2.3,Win32,90.09009009,0.244,,,,,,,,,,,,,,,
,,"[""circle"",""red"",""vert"",""up"",[106,106],[-106,-106]]",circle,red,vert,up,"[106,106]","[-106,-106]",up,1,3,0,3,0,1,001,2025-03-10_16h53.20.049,SL_base_41,2021.2.3,Win32,90.09009009,2.1509,,,,,,,,,,,,,,,
,,"[""circle"",""no_dis"",""hori"",""left"",[99999,99999],[106,-106]]",circle,no_dis,hori,left,"[99999,99999]","[106,-106]",,0,4,0,4,0,1,001,2025-03-10_16h53.20.049,SL_base_41,2021.2.3,Win32,90.09009009,,,,,,,,,,,,,,,,
,,"[""circle"",""red"",""hori"",""left"",[106,106],[106,-106]]",circle,red,hori,left,"[106,106]","[106,-106]",up,0,5,0,5,0,1,001,2025-03-10_16h53.20.049,SL_base_41,2021.2.3,Win32,90.09009009,2.8161,,,,,,,,,,,,,,,
,,"[""diamond"",""no_dis"",""hori"",""left"",[99999,99999],[-106,-106]]",diamond,no_dis,hori,left,"[99999,99999]","[-106,-106]",,0,6,0,6,0,1,001,2025-03-10_16h53.20.049,SL_base_41,2021.2.3,Win32,90.09009009,,,,,,,,,,,,,,,,
,,"[""circle"",""green"",""vert"",""up"",[-106,-106],[0,-150]]",circle,green,vert,up,"[-106,-106]","[0,-150]",up,1,7,0,7,0,1,001,2025-03-10_16h53.20.049,SL_base_41,2021.2.3,Win32,90.09009009,0.8691,,,,,,,,,,,,,,,
,,"[""circle"",""green"",""hori"",""left"",[0,-150],[106,106]]",circle,green,hori,left,"[0,-150]","[106,106]",up,0,8,0,8,0,1,001,2025-03-10_16h53.20.049,SL_base_41,2021.2.3,Win32,90.09009009,1.5812,,,,,,,,,,,,,,,
,,"[""diamond"",""no_dis"",""hori"",""left"",[99999,99999],[150,0]]",diamond,no_dis,hori,left,"[99999,99999]","[150,0]",,0,9,0,9,0,1,001,2025-03-10_16h53.20.049,SL_base_41,2021.2.3,Win32,90.09009009,,,,,,,,,,,,,,,,
,,"[""diamond"",""green"",""hori"",""left"",[-106,106],[106,106]]",diamond,green,hori,left,"[-106,106]","[106,106]",,0,,,,,,001,2025-03-10_16h53.20.049,SL_base_41,2021.2.3,Win32,90.09009009,,space,38.8907,0,0,0,0,1,,,,,,,,
,,"[""diamond"",""green"",""hori"",""left"",[106,106],[-106,106]]",diamond,green,hori,left,"[106,106]","[-106,106]",up,0,,,,,,001,2025-03-10_16h53.20.049,SL_base_41,2021.2.3,Win32,90.09009009,1.072,,,1,0,1,0,1,,,,,,,,
,,"[""diamond"",""green"",""vert"",""up"",[106,106],[106,-106]]",diamond,green,vert,up,"[106,106]","[106,-106]",up,1,,,,,,001,2025-03-10_16h53.20.049,SL_base_41,2021.2.3,Win32,90.09009009,1.7104,,,2,0,2,0,1,,,,,,,,
,,"[""circle"",""red"",""vert"",""up"",[106,106],[-106,-106]]",circle,red,vert,up,"[106,106]","[-106,-106]",,0,,,,,,001,2025-03-10_16h53.20.049,SL_base_41,2021.2.3,Win32,90.09009009,,,,3,0,3,0,1,,,,,,,,
,,"[""circle"",""no_dis"",""hori"",""left"",[99999,99999],[106,-106]]",circle,no_dis,hori,left,"[99999,99999]","[106,-106]",up,0,,,,,,001,2025-03-10_16h53.20.049,SL_base_41,2021.2.3,Win32,90.09009009,2.7632,,,4,0,4,0,1,,,,,,,,
,,"[""circle"",""red"",""hori"",""left"",[106,106],[106,-106]]",circle,red,hori,left,"[106,106]","[106,-106]",,0,,,,,,001,2025-03-10_16h53.20.049,SL_base_41,2021.2.3,Win32,90.09009009,,,,5,0,5,0,1,,,,,,,,
,,"[""diamond"",""no_dis"",""hori"",""left"",[99999,99999],[-106,-106]]",diamond,no_dis,hori,left,"[99999,99999]","[-106,-106]",left,1,,,,,,001,2025-03-10_16h53.20.049,SL_base_41,2021.2.3,Win32,90.09009009,2.1333,,,6,0,6,0,1,,,,,,,,
,,"[""circle"",""green"",""vert"",""up"",[-106,-106],[0,-150]]",circle,green,vert,up,"[-106,-106]","[0,-150]",left,0,,,,,,001,2025-03-10_16h53.20.049,SL_base_41,2021.2.3,Win32,90.09009009,1.9407,,,7,0,7,0,1,,,,,,,,
,,"[""circle"",""green"",""hori"",""left"",[0,-150],[106,106]]",circle,green,hori,left,"[0,-150]","[106,106]",up,0,,,,,,001,2025-03-10_16h53.20.049,SL_base_41,2021.2.3,Win32,90.09009009,2.5103,,,8,0,8,0,1,,,,,,,,
,,"[""diamond"",""no_dis"",""hori"",""left"",[99999,99999],[150,0]]",diamond,no_dis,hori,left,"[99999,99999]","[150,0]",left,1,,,,,,001,2025-03-10_16h53.20.049,SL_base_41,2021.2.3,Win32,90.09009009,1.5254,,,9,0,9,0,1,,,,,,,,
,,"[""circle"",""red"",""vert"",""up"",[106,106],[-106,-106]]",circle,red,vert,up,"[106,106]","[-106,-106]",up,1,,,,,,001,2025-03-10_16h53.20.049,SL_base_41,2021.2.3,Win32,90.09009009,1.8769,,,10,0,10,0,1,,,,,,,,
,,"[""diamond"",""green"",""hori"",""left"",[106,106],[0,150]]",diamond,green,hori,left,"[106,106]","[0,150]",left,1,,,,,,001,2025-03-10_16h53.20.049,SL_base_41,2021.2.3,Win32,90.09009009,1.7457,,,11,0,11,0,1,,,,,,,,
,,"[""diamond"",""green"",""hori"",""left"",[-150,0],[0,150]]",diamond,green,hori,left,"[-150,0]","[0,150]",up,0,,,,,,001,2025-03-10_16h53.20.049,SL_base_41,2021.2.3,Win32,90.09009009,1.0888,,,12,0,12,0,1,,,,,,,,
,,"[""diamond"",""red"",""vert"",""up"",[150,0],[106,-106]]",diamond,red,vert,up,"[150,0]","[106,-106]",left,0,,,,,,001,2025-03-10_16h53.20.049,SL_base_41,2021.2.3,Win32,90.09009009,1.7801,,,13,0,13,0,1,,,,,,,,
,,"[""diamond"",""red"",""hori"",""left"",[150,0],[-106,106]]",diamond,red,hori,left,"[150,0]","[-106,106]",left,1,,,,,,001,2025-03-10_16h53.20.049,SL_base_41,2021.2.3,Win32,90.09009009,1.7659,,,14,0,14,0,1,,,,,,,,
,,"[""diamond"",""red"",""hori"",""left"",[-150,0],[106,-106]]",diamond,red,hori,left,"[-150,0]","[106,-106]",up,0,,,,,,001,2025-03-10_16h53.20.049,SL_base_41,2021.2.3,Win32,90.09009009,1.4437,,,15,0,15,0,1,,,,,,,,
,,"[""circle"",""green"",""hori"",""left"",[0,-150],[-106,106]]",circle,green,hori,left,"[0,-150]","[-106,106]",up,0,,,,,,001,2025-03-10_16h53.20.049,SL_base_41,2021.2.3,Win32,90.09009009,1.8118,,,16,0,16,0,1,,,,,,,,
,,"[""circle"",""no_dis"",""vert"",""up"",[99999,99999],[-106,106]]",circle,no_dis,vert,up,"[99999,99999]","[-106,106]",left,0,,,,,,001,2025-03-10_16h53.20.049,SL_base_41,2021.2.3,Win32,90.09009009,2.4669,,,17,0,17,0,1,,,,,,,,
,,"[""circle"",""green"",""vert"",""up"",[0,150],[150,0]]",circle,green,vert,up,"[0,150]","[150,0]",up,1,,,,,,001,2025-03-10_16h53.20.049,SL_base_41,2021.2.3,Win32,90.09009009,1.6224,,,18,0,18,0,1,,,,,,,,
,,"[""circle"",""red"",""hori"",""left"",[0,150],[150,0]]",circle,red,hori,left,"[0,150]","[150,0]",left,1,,,,,,001,2025-03-10_16h53.20.049,SL_base_41,2021.2.3,Win32,90.09009009,2.2436,,,19,0,19,0,1,,,,,,,,
,,"[""circle"",""green"",""hori"",""left"",[-150,0],[150,0]]",circle,green,hori,left,"[-150,0]","[150,0]",up,0,,,,,,001,2025-03-10_16h53.20.049,SL_base_41,2021.2.3,Win32,90.09009009,1.6103,,,20,0,20,0,1,,,,,,,,
,,"[""circle"",""red"",""vert"",""up"",[-106,106],[0,150]]",circle,red,vert,up,"[-106,106]","[0,150]",left,0,,,,,,001,2025-03-10_16h53.20.049,SL_base_41,2021.2.3,Win32,90.09009009,2.2833,,,21,0,21,0,1,,,,,,,,
,,"[""circle"",""green"",""vert"",""up"",[106,106],[-106,-106]]",circle,green,vert,up,"[106,106]","[-106,-106]",up,1,,,,,,001,2025-03-10_16h53.20.049,SL_base_41,2021.2.3,Win32,90.09009009,1.5782,,,22,0,22,0,1,,,,,,,,
,,"[""diamond"",""red"",""vert"",""up"",[106,-106],[-106,106]]",diamond,red,vert,up,"[106,-106]","[-106,106]",left,0,,,,,,001,2025-03-10_16h53.20.049,SL_base_41,2021.2.3,Win32,90.09009009,1.8945,,,23,0,23,0,1,,,,,,,,
,,"[""circle"",""green"",""vert"",""up"",[106,106],[-150,0]]",circle,green,vert,up,"[106,106]","[-150,0]",up,1,,,,,,001,2025-03-10_16h53.20.049,SL_base_41,2021.2.3,Win32,90.09009009,2.4917,,,24,0,24,0,1,,,,,,,,
,,"[""circle"",""red"",""hori"",""left"",[106,-106],[0,150]]",circle,red,hori,left,"[106,-106]","[0,150]",left,1,,,,,,001,2025-03-10_16h53.20.049,SL_base_41,2021.2.3,Win32,90.09009009,2.6405,,,25,0,25,0,1,,,,,,,,
,,"[""diamond"",""red"",""hori"",""left"",[106,106],[0,150]]",diamond,red,hori,left,"[106,106]","[0,150]",left,1,,,,,,001,2025-03-10_16h53.20.049,SL_base_41,2021.2.3,Win32,90.09009009,1.8571,,,26,0,26,0,1,,,,,,,,
,,"[""diamond"",""red"",""vert"",""up"",[106,106],[-150,0]]",diamond,red,vert,up,"[106,106]","[-150,0]",up,1,,,,,,001,2025-03-10_16h53.20.049,SL_base_41,2021.2.3,Win32,90.09009009,2.6324,,,27,0,27,0,1,,,,,,,,
,,"[""diamond"",""red"",""hori"",""left"",[0,-150],[106,106]]",diamond,red,hori,left,"[0,-150]","[106,106]",left,1,,,,,,001,2025-03-10_16h53.20.049,SL_base_41,2021.2.3,Win32,90.09009009,1.2001,,,28,0,28,0,1,,,,,,,,
,,"[""circle"",""no_dis"",""vert"",""up"",[99999,99999],[106,106]]",circle,no_dis,vert,up,"[99999,99999]","[106,106]",left,0,,,,,,001,2025-03-10_16h53.20.049,SL_base_41,2021.2.3,Win32,90.09009009,1.9288,,,29,0,29,0,1,,,,,,,,
,,"[""circle"",""green"",""hori"",""left"",[106,106],[106,-106]]",circle,green,hori,left,"[106,106]","[106,-106]",left,1,,,,,,001,2025-03-10_16h53.20.049,SL_base_41,2021.2.3,Win32,90.09009009,1.6247,,,30,0,30,0,1,,,,,,,,
,,"[""diamond"",""no_dis"",""hori"",""left"",[99999,99999],[-106,-106]]",diamond,no_dis,hori,left,"[99999,99999]","[-106,-106]",left,1,,,,,,001,2025-03-10_16h53.20.049,SL_base_41,2021.2.3,Win32,90.09009009,1.9139,,,31,0,31,0,1,,,,,,,,
,,"[""circle"",""red"",""vert"",""up"",[-106,106],[-106,-106]]",circle,red,vert,up,"[-106,106]","[-106,-106]",up,1,,,,,,001,2025-03-10_16h53.20.049,SL_base_41,2021.2.3,Win32,90.09009009,1.2344,,,32,0,32,0,1,,,,,,,,
,,"[""circle"",""no_dis"",""hori"",""left"",[99999,99999],[-106,106]]",circle,no_dis,hori,left,"[99999,99999]","[-106,106]",up,0,,,,,,001,2025-03-10_16h53.20.049,SL_base_41,2021.2.3,Win32,90.09009009,1.6781,,,33,0,33,0,1,,,,,,,,
,,"[""diamond"",""red"",""hori"",""left"",[106,106],[-150,0]]",diamond,red,hori,left,"[106,106]","[-150,0]",up,0,,,,,,001,2025-03-10_16h53.20.049,SL_base_41,2021.2.3,Win32,90.09009009,2.2557,,,34,0,34,0,1,,,,,,,,
,,"[""diamond"",""green"",""hori"",""left"",[-106,106],[0,-150]]",diamond,green,hori,left,"[-106,106]","[0,-150]",left,1,,,,,,001,2025-03-10_16h53.20.049,SL_base_41,2021.2.3,Win32,90.09009009,2.0224,,,35,0,35,0,1,,,,,,,,
,,"[""circle"",""no_dis"",""hori"",""left"",[99999,99999],[150,0]]",circle,no_dis,hori,left,"[99999,99999]","[150,0]",left,1,,,,,,001,2025-03-10_16h53.20.049,SL_base_41,2021.2.3,Win32,90.09009009,2.1669,,,36,0,36,0,1,,,,,,,,
,,"[""circle"",""green"",""vert"",""up"",[0,150],[-106,106]]",circle,green,vert,up,"[0,150]","[-106,106]",up,1,,,,,,001,2025-03-10_16h53.20.049,SL_base_41,2021.2.3,Win32,90.09009009,1.5449,,,37,0,37,0,1,,,,,,,,
,,"[""circle"",""red"",""vert"",""up"",[0,150],[0,-150]]",circle,red,vert,up,"[0,150]","[0,-150]",left,0,,,,,,001,2025-03-10_16h53.20.049,SL_base_41,2021.2.3,Win32,90.09009009,2.5769,,,38,0,38,0,1,,,,,,,,
,,"[""circle"",""green"",""hori"",""left"",[106,106],[150,0]]",circle,green,hori,left,"[106,106]","[150,0]",up,0,,,,,,001,2025-03-10_16h53.20.049,SL_base_41,2021.2.3,Win32,90.09009009,1.7915,,,39,0,39,0,1,,,,,,,,
,,"[""diamond"",""green"",""vert"",""up"",[106,106],[0,150]]",diamond,green,vert,up,"[106,106]","[0,150]",up,1,,,,,,001,2025-03-10_16h53.20.049,SL_base_41,2021.2.3,Win32,90.09009009,2.7992,,,40,0,40,0,1,,,,,,,,
,,"[""diamond"",""green"",""vert"",""up"",[-106,-106],[150,0]]",diamond,green,vert,up,"[-106,-106]","[150,0]",up,1,,,,,,001,2025-03-10_16h53.20.049,SL_base_41,2021.2.3,Win32,90.09009009,2.2393,,,41,0,41,0,1,,,,,,,,
,,"[""circle"",""green"",""vert"",""up"",[-106,-106],[106,106]]",circle,green,vert,up,"[-106,-106]","[106,106]",up,1,,,,,,001,2025-03-10_16h53.20.049,SL_base_41,2021.2.3,Win32,90.09009009,1.9736,,,42,0,42,0,1,,,,,,,,
,,"[""circle"",""red"",""hori"",""left"",[-106,106],[150,0]]",circle,red,hori,left,"[-106,106]","[150,0]",left,1,,,,,,001,2025-03-10_16h53.20.049,SL_base_41,2021.2.3,Win32,90.09009009,2.1909,,,43,0,43,0,1,,,,,,,,
,,"[""circle"",""red"",""vert"",""up"",[-150,0],[0,-150]]",circle,red,vert,up,"[-150,0]","[0,-150]",up,1,,,,,,001,2025-03-10_16h53.20.049,SL_base_41,2021.2.3,Win32,90.09009009,1.5893,,,44,0,44,0,1,,,,,,,,
,,"[""diamond"",""no_dis"",""hori"",""left"",[99999,99999],[0,150]]",diamond,no_dis,hori,left,"[99999,99999]","[0,150]",left,1,,,,,,001,2025-03-10_16h53.20.049,SL_base_41,2021.2.3,Win32,90.09009009,1.8079,,,45,0,45,0,1,,,,,,,,
,,"[""circle"",""no_dis"",""vert"",""up"",[99999,99999],[-150,0]]",circle,no_dis,vert,up,"[99999,99999]","[-150,0]",up,1,,,,,,001,2025-03-10_16h53.20.049,SL_base_41,2021.2.3,Win32,90.09009009,1.9325,,,46,0,46,0,1,,,,,,,,
,,"[""diamond"",""green"",""vert"",""up"",[150,0],[0,150]]",diamond,green,vert,up,"[150,0]","[0,150]",left,0,,,,,,001,2025-03-10_16h53.20.049,SL_base_41,2021.2.3,Win32,90.09009009,2.1549,,,47,0,47,0,1,,,,,,,,
,,"[""circle"",""no_dis"",""hori"",""left"",[99999,99999],[-106,-106]]",circle,no_dis,hori,left,"[99999,99999]","[-106,-106]",left,1,,,,,,001,2025-03-10_16h53.20.049,SL_base_41,2021.2.3,Win32,90.09009009,2.7952,,,48,0,48,0,1,,,,,,,,
,,"[""circle"",""no_dis"",""hori"",""left"",[99999,99999],[0,-150]]",circle,no_dis,hori,left,"[99999,99999]","[0,-150]",left,1,,,,,,001,2025-03-10_16h53.20.049,SL_base_41,2021.2.3,Win32,90.09009009,1.8945,,,49,0,49,0,1,,,,,,,,
,,"[""diamond"",""green"",""hori"",""left"",[106,106],[0,150]]",diamond,green,hori,left,"[106,106]","[0,150]",left,1,,,,,,001,2025-03-10_16h53.20.049,SL_base_41,2021.2.3,Win32,90.09009009,2.1548,,,50,0,50,0,1,,,,,,,,
,,"[""diamond"",""no_dis"",""vert"",""up"",[99999,99999],[106,-106]]",diamond,no_dis,vert,up,"[99999,99999]","[106,-106]",up,1,,,,,,001,2025-03-10_16h53.20.049,SL_base_41,2021.2.3,Win32,90.09009009,1.7447,,,51,0,51,0,1,,,,,,,,
,,"[""circle"",""no_dis"",""hori"",""left"",[99999,99999],[106,-106]]",circle,no_dis,hori,left,"[99999,99999]","[106,-106]",left,1,,,,,,001,2025-03-10_16h53.20.049,SL_base_41,2021.2.3,Win32,90.09009009,1.4335,,,52,0,52,0,1,,,,,,,,
,,"[""circle"",""no_dis"",""vert"",""up"",[99999,99999],[-150,0]]",circle,no_dis,vert,up,"[99999,99999]","[-150,0]",up,1,,,,,,001,2025-03-10_16h53.20.049,SL_base_41,2021.2.3,Win32,90.09009009,1.8113,,,53,0,53,0,1,,,,,,,,
,,"[""circle"",""red"",""hori"",""left"",[106,106],[150,0]]",circle,red,hori,left,"[106,106]","[150,0]",left,1,,,,,,001,2025-03-10_16h53.20.049,SL_base_41,2021.2.3,Win32,90.09009009,1.1227,,,54,0,54,0,1,,,,,,,,
,,"[""circle"",""red"",""hori"",""left"",[106,106],[0,150]]",circle,red,hori,left,"[106,106]","[0,150]",left,1,,,,,,001,2025-03-10_16h53.20.049,SL_base_41,2021.2.3,Win32,90.09009009,1.8811,,,55,0,55,0,1,,,,,,,,
,,"[""circle"",""green"",""vert"",""up"",[-106,-106],[0,-150]]",circle,green,vert,up,"[-106,-106]","[0,-150]",up,1,,,,,,001,2025-03-10_16h53.20.049,SL_base_41,2021.2.3,Win32,90.09009009,1.7687,,,56,0,56,0,1,,,,,,,,
,,"[""circle"",""green"",""vert"",""up"",[106,106],[-106,106]]",circle,green,vert,up,"[106,106]","[-106,106]",up,1,,,,,,001,2025-03-10_16h53.20.049,SL_base_41,2021.2.3,Win32,90.09009009,1.8603,,,57,0,57,0,1,,,,,,,,
,,"[""diamond"",""red"",""vert"",""up"",[106,106],[150,0]]",diamond,red,vert,up,"[106,106]","[150,0]",up,1,,,,,,001,2025-03-10_16h53.20.049,SL_base_41,2021.2.3,Win32,90.09009009,1.9104,,,58,0,58,0,1,,,,,,,,
,,"[""diamond"",""no_dis"",""hori"",""left"",[99999,99999],[-106,-106]]",diamond,no_dis,hori,left,"[99999,99999]","[-106,-106]",left,1,,,,,,001,2025-03-10_16h53.20.049,SL_base_41,2021.2.3,Win32,90.09009009,2.5234,,,59,0,59,0,1,,,,,,,,
,,"[""diamond"",""green"",""hori"",""left"",[0,150],[106,-106]]",diamond,green,hori,left,"[0,150]","[106,-106]",,0,,,,,,001,2025-03-10_16h53.20.049,SL_base_41,2021.2.3,Win32,90.09009009,,,,60,0,60,0,1,,,,,,,,
,,"[""diamond"",""green"",""vert"",""up"",[0,-150],[-106,-106]]",diamond,green,vert,up,"[0,-150]","[-106,-106]",up,1,,,,,,001,2025-03-10_16h53.20.049,SL_base_41,2021.2.3,Win32,90.09009009,2.6558,,,61,0,61,0,1,,,,,,,,
,,"[""circle"",""green"",""vert"",""up"",[-106,106],[-150,0]]",circle,green,vert,up,"[-106,106]","[-150,0]",up,1,,,,,,001,2025-03-10_16h53.20.049,SL_base_41,2021.2.3,Win32,90.09009009,2.6175,,,62,0,62,0,1,,,,,,,,
,,"[""diamond"",""red"",""vert"",""up"",[0,-150],[106,-106]]",diamond,red,vert,up,"[0,-150]","[106,-106]",,0,,,,,,001,2025-03-10_16h53.20.049,SL_base_41,2021.2.3,Win32,90.09009009,,,,63,0,63,0,1,,,,,,,,
,,"[""diamond"",""green"",""vert"",""up"",[-106,-106],[106,106]]",diamond,green,vert,up,"[-106,-106]","[106,106]",up,1,,,,,,001,2025-03-10_16h53.20.049,SL_base_41,2021.2.3,Win32,90.09009009,2.388,,,64,0,64,0,1,,,,,,,,
,,"[""circle"",""green"",""hori"",""left"",[106,106],[150,0]]",circle,green,hori,left,"[106,106]","[150,0]",left,1,,,,,,001,2025-03-10_16h53.20.049,SL_base_41,2021.2.3,Win32,90.09009009,1.7216,,,65,0,65,0,1,,,,,,,,
,,"[""circle"",""red"",""hori"",""left"",[106,106],[150,0]]",circle,red,hori,left,"[106,106]","[150,0]",,0,,,,,,001,2025-03-10_16h53.20.049,SL_base_41,2021.2.3,Win32,90.09009009,,,,66,0,66,0,1,,,,,,,,
,,"[""circle"",""no_dis"",""vert"",""up"",[99999,99999],[-150,0]]",circle,no_dis,vert,up,"[99999,99999]","[-150,0]",up,1,,,,,,001,2025-03-10_16h53.20.049,SL_base_41,2021.2.3,Win32,90.09009009,2.035,,,67,0,67,0,1,,,,,,,,
,,"[""diamond"",""red"",""vert"",""up"",[0,-150],[0,150]]",diamond,red,vert,up,"[0,-150]","[0,150]",up,1,,,,,,001,2025-03-10_16h53.20.049,SL_base_41,2021.2.3,Win32,90.09009009,2.1509,,,68,0,68,0,1,,,,,,,,
,,"[""diamond"",""red"",""vert"",""up"",[106,106],[0,150]]",diamond,red,vert,up,"[106,106]","[0,150]",,0,,,,,,001,2025-03-10_16h53.20.049,SL_base_41,2021.2.3,Win32,90.09009009,,,,69,0,69,0,1,,,,,,,,
,,"[""diamond"",""green"",""vert"",""up"",[106,-106],[106,106]]",diamond,green,vert,up,"[106,-106]","[106,106]",,0,,,,,,001,2025-03-10_16h53.20.049,SL_base_41,2021.2.3,Win32,90.09009009,,,,70,0,70,0,1,,,,,,,,
,,"[""circle"",""red"",""vert"",""up"",[106,-106],[0,150]]",circle,red,vert,up,"[106,-106]","[0,150]",up,1,,,,,,001,2025-03-10_16h53.20.049,SL_base_41,2021.2.3,Win32,90.09009009,2.5542,,,71,0,71,0,1,,,,,,,,
,,"[""circle"",""green"",""hori"",""left"",[106,106],[150,0]]",circle,green,hori,left,"[106,106]","[150,0]",,0,,,,,,001,2025-03-10_16h53.20.049,SL_base_41,2021.2.3,Win32,90.09009009,,,,72,0,72,0,1,,,,,,,,
,,"[""diamond"",""red"",""vert"",""up"",[106,-106],[-106,-106]]",diamond,red,vert,up,"[106,-106]","[-106,-106]",up,1,,,,,,001,2025-03-10_16h53.20.049,SL_base_41,2021.2.3,Win32,90.09009009,2.1446,,,73,0,73,0,1,,,,,,,,
,,"[""diamond"",""no_dis"",""hori"",""left"",[99999,99999],[-150,0]]",diamond,no_dis,hori,left,"[99999,99999]","[-150,0]",left,1,,,,,,001,2025-03-10_16h53.20.049,SL_base_41,2021.2.3,Win32,90.09009009,1.394,,,74,0,74,0,1,,,,,,,,
,,"[""diamond"",""red"",""hori"",""left"",[-150,0],[106,106]]",diamond,red,hori,left,"[-150,0]","[106,106]",,0,,,,,,001,2025-03-10_16h53.20.049,SL_base_41,2021.2.3,Win32,90.09009009,,,,75,0,75,0,1,,,,,,,,
,,"[""diamond"",""no_dis"",""vert"",""up"",[99999,99999],[0,-150]]",diamond,no_dis,vert,up,"[99999,99999]","[0,-150]",,0,,,,,,001,2025-03-10_16h53.20.049,SL_base_41,2021.2.3,Win32,90.09009009,,,,76,0,76,0,1,,,,,,,,
,,"[""circle"",""no_dis"",""vert"",""up"",[99999,99999],[106,-106]]",circle,no_dis,vert,up,"[99999,99999]","[106,-106]",up,1,,,,,,001,2025-03-10_16h53.20.049,SL_base_41,2021.2.3,Win32,90.09009009,2.3925,,,77,0,77,0,1,,,,,,,,
,,"[""circle"",""green"",""hori"",""left"",[-150,0],[0,-150]]",circle,green,hori,left,"[-150,0]","[0,-150]",left,1,,,,,,001,2025-03-10_16h53.20.049,SL_base_41,2021.2.3,Win32,90.09009009,1.6558,,,78,0,78,0,1,,,,,,,,
,,"[""circle"",""red"",""vert"",""up"",[-106,-106],[-150,0]]",circle,red,vert,up,"[-106,-106]","[-150,0]",up,1,,,,,,001,2025-03-10_16h53.20.049,SL_base_41,2021.2.3,Win32,90.09009009,1.7213,,,79,0,79,0,1,,,,,,,,
,,"[""circle"",""no_dis"",""hori"",""left"",[99999,99999],[0,150]]",circle,no_dis,hori,left,"[99999,99999]","[0,150]",left,1,,,,,,001,2025-03-10_16h53.20.049,SL_base_41,2021.2.3,Win32,90.09009009,1.4853,,,80,0,80,0,1,,,,,,,,
,,"[""circle"",""no_dis"",""vert"",""up"",[99999,99999],[106,106]]",circle,no_dis,vert,up,"[99999,99999]","[106,106]",up,1,,,,,,001,2025-03-10_16h53.20.049,SL_base_41,2021.2.3,Win32,90.09009009,1.967,,,81,0,81,0,1,,,,,,,,
,,"[""circle"",""red"",""hori"",""left"",[0,150],[-106,106]]",circle,red,hori,left,"[0,150]","[-106,106]",left,1,,,,,,001,2025-03-10_16h53.20.049,SL_base_41,2021.2.3,Win32,90.09009009,1.7446,,,82,0,82,0,1,,,,,,,,
,,"[""circle"",""no_dis"",""hori"",""left"",[99999,99999],[106,106]]",circle,no_dis,hori,left,"[99999,99999]","[106,106]",left,1,,,,,,001,2025-03-10_16h53.20.049,SL_base_41,2021.2.3,Win32,90.09009009,2.1669,,,83,0,83,0,1,,,,,,,,
,,"[""circle"",""green"",""hori"",""left"",[106,106],[-106,-106]]",circle,green,hori,left,"[106,106]","[-106,-106]",left,1,,,,,,001,2025-03-10_16h53.20.049,SL_base_41,2021.2.3,Win32,90.09009009,2.0474,,,84,0,84,0,1,,,,,,,,
,,"[""diamond"",""no_dis"",""hori"",""left"",[99999,99999],[-106,-106]]",diamond,no_dis,hori,left,"[99999,99999]","[-106,-106]",left,1,,,,,,001,2025-03-10_16h53.20.049,SL_base_41,2021.2.3,Win32,90.09009009,1.866,,,85,0,85,0,1,,,,,,,,
,,"[""diamond"",""red"",""vert"",""up"",[106,106],[106,-106]]",diamond,red,vert,up,"[106,106]","[106,-106]",up,1,,,,,,001,2025-03-10_16h53.20.049,SL_base_41,2021.2.3,Win32,90.09009009,1.6439,,,86,0,86,0,1,,,,,,,,
,,"[""diamond"",""no_dis"",""vert"",""up"",[99999,99999],[0,-150]]",diamond,no_dis,vert,up,"[99999,99999]","[0,-150]",up,1,,,,,,001,2025-03-10_16h53.20.049,SL_base_41,2021.2.3,Win32,90.09009009,1.5557,,,87,0,87,0,1,,,,,,,,
,,"[""circle"",""red"",""hori"",""left"",[150,0],[-106,106]]",circle,red,hori,left,"[150,0]","[-106,106]",left,1,,,,,,001,2025-03-10_16h53.20.049,SL_base_41,2021.2.3,Win32,90.09009009,1.6001,,,88,0,88,0,1,,,,,,,,
,,"[""diamond"",""no_dis"",""hori"",""left"",[99999,99999],[150,0]]",diamond,no_dis,hori,left,"[99999,99999]","[150,0]",left,1,,,,,,001,2025-03-10_16h53.20.049,SL_base_41,2021.2.3,Win32,90.09009009,1.3466,,,89,0,89,0,1,,,,,,,,
,,"[""circle"",""red"",""vert"",""up"",[106,-106],[150,0]]",circle,red,vert,up,"[106,-106]","[150,0]",up,1,,,,,,001,2025-03-10_16h53.20.049,SL_base_41,2021.2.3,Win32,90.09009009,1.9152,,,90,0,90,0,1,,,,,,,,
,,"[""diamond"",""red"",""vert"",""up"",[106,106],[0,-150]]",diamond,red,vert,up,"[106,106]","[0,-150]",up,1,,,,,,001,2025-03-10_16h53.20.049,SL_base_41,2021.2.3,Win32,90.09009009,1.9297,,,91,0,91,0,1,,,,,,,,
,,"[""circle"",""green"",""vert"",""up"",[106,106],[0,-150]]",circle,green,vert,up,"[106,106]","[0,-150]",up,1,,,,,,001,2025-03-10_16h53.20.049,SL_base_41,2021.2.3,Win32,90.09009009,1.5557,,,92,0,92,0,1,,,,,,,,
,,"[""diamond"",""red"",""hori"",""left"",[-150,0],[150,0]]",diamond,red,hori,left,"[-150,0]","[150,0]",left,1,,,,,,001,2025-03-10_16h53.20.049,SL_base_41,2021.2.3,Win32,90.09009009,2.8326,,,93,0,93,0,1,,,,,,,,
,,"[""circle"",""no_dis"",""hori"",""left"",[99999,99999],[150,0]]",circle,no_dis,hori,left,"[99999,99999]","[150,0]",left,1,,,,,,001,2025-03-10_16h53.20.049,SL_base_41,2021.2.3,Win32,90.09009009,2.2295,,,94,0,94,0,1,,,,,,,,
,,"[""diamond"",""green"",""hori"",""left"",[106,106],[-106,106]]",diamond,green,hori,left,"[106,106]","[-106,106]",,0,,,,,,001,2025-03-10_16h53.20.049,SL_base_41,2021.2.3,Win32,90.09009009,,,,95,0,95,0,1,,,,,,,,
,,"[""diamond"",""red"",""hori"",""left"",[106,-106],[0,150]]",diamond,red,hori,left,"[106,-106]","[0,150]",,0,,,,,,001,2025-03-10_16h53.20.049,SL_base_41,2021.2.3,Win32,90.09009009,,,,96,0,96,0,1,,,,,,,,
,,"[""diamond"",""green"",""vert"",""up"",[0,-150],[-106,-106]]",diamond,green,vert,up,"[0,-150]","[-106,-106]",up,1,,,,,,001,2025-03-10_16h53.20.049,SL_base_41,2021.2.3,Win32,90.09009009,1.8726,,,97,0,97,0,1,,,,,,,,
,,"[""diamond"",""no_dis"",""hori"",""left"",[99999,99999],[-106,106]]",diamond,no_dis,hori,left,"[99999,99999]","[-106,106]",left,1,,,,,,001,2025-03-10_16h53.20.049,SL_base_41,2021.2.3,Win32,90.09009009,2.4965,,,98,0,98,0,1,,,,,,,,
,,"[""diamond"",""green"",""vert"",""up"",[-106,-106],[-106,106]]",diamond,green,vert,up,"[-106,-106]","[-106,106]",left,0,,,,,,001,2025-03-10_16h53.20.049,SL_base_41,2021.2.3,Win32,90.09009009,2.2609,,,99,0,99,0,1,,,,,,,,
,,"[""diamond"",""no_dis"",""vert"",""up"",[99999,99999],[0,150]]",diamond,no_dis,vert,up,"[99999,99999]","[0,150]",,0,,,,,,001,2025-03-10_16h53.20.049,SL_base_41,2021.2.3,Win32,90.09009009,,,,100,0,100,0,1,,,,,,,,
,,"[""circle"",""no_dis"",""hori"",""left"",[99999,99999],[-150,0]]",circle,no_dis,hori,left,"[99999,99999]","[-150,0]",left,1,,,,,,001,2025-03-10_16h53.20.049,SL_base_41,2021.2.3,Win32,90.09009009,1.8891,,,101,0,101,0,1,,,,,,,,
,,"[""diamond"",""red"",""hori"",""left"",[0,150],[150,0]]",diamond,red,hori,left,"[0,150]","[150,0]",left,1,,,,,,001,2025-03-10_16h53.20.049,SL_base_41,2021.2.3,Win32,90.09009009,1.5133,,,102,0,102,0,1,,,,,,,,
,,"[""diamond"",""green"",""hori"",""left"",[150,0],[106,-106]]",diamond,green,hori,left,"[150,0]","[106,-106]",up,0,,,,,,001,2025-03-10_16h53.20.049,SL_base_41,2021.2.3,Win32,90.09009009,2.2224,,,103,0,103,0,1,,,,,,,,
,,"[""circle"",""red"",""hori"",""left"",[106,106],[-150,0]]",circle,red,hori,left,"[106,106]","[-150,0]",left,1,,,,,,001,2025-03-10_16h53.20.049,SL_base_41,2021.2.3,Win32,90.09009009,1.8691,,,104,0,104,0,1,,,,,,,,
,,"[""diamond"",""no_dis"",""vert"",""up"",[99999,99999],[-106,106]]",diamond,no_dis,vert,up,"[99999,99999]","[-106,106]",up,1,,,,,,001,2025-03-10_16h53.20.049,SL_base_41,2021.2.3,Win32,90.09009009,1.5215,,,105,0,105,0,1,,,,,,,,
,,"[""diamond"",""green"",""hori"",""left"",[106,106],[106,-106]]",diamond,green,hori,left,"[106,106]","[106,-106]",left,1,,,,,,001,2025-03-10_16h53.20.049,SL_base_41,2021.2.3,Win32,90.09009009,1.5472,,,106,0,106,0,1,,,,,,,,
,,"[""circle"",""green"",""vert"",""up"",[-106,106],[150,0]]",circle,green,vert,up,"[-106,106]","[150,0]",up,1,,,,,,001,2025-03-10_16h53.20.049,SL_base_41,2021.2.3,Win32,90.09009009,1.903,,,107,0,107,0,1,,,,,,,,
,,"[""diamond"",""red"",""hori"",""left"",[0,-150],[-106,106]]",diamond,red,hori,left,"[0,-150]","[-106,106]",left,1,,,,,,001,2025-03-10_16h53.20.049,SL_base_41,2021.2.3,Win32,90.09009009,1.7325,,,108,0,108,0,1,,,,,,,,
,,"[""diamond"",""green"",""hori"",""left"",[150,0],[106,106]]",diamond,green,hori,left,"[150,0]","[106,106]",left,1,,,,,,001,2025-03-10_16h53.20.049,SL_base_41,2021.2.3,Win32,90.09009009,1.9817,,,109,0,109,0,1,,,,,,,,
,,"[""diamond"",""no_dis"",""vert"",""up"",[99999,99999],[0,150]]",diamond,no_dis,vert,up,"[99999,99999]","[0,150]",up,1,,,,,,001,2025-03-10_16h53.20.049,SL_base_41,2021.2.3,Win32,90.09009009,1.8515,,,110,0,110,0,1,,,,,,,,
,,"[""diamond"",""no_dis"",""vert"",""up"",[99999,99999],[106,106]]",diamond,no_dis,vert,up,"[99999,99999]","[106,106]",up,1,,,,,,001,2025-03-10_16h53.20.049,SL_base_41,2021.2.3,Win32,90.09009009,1.9333,,,111,0,111,0,1,,,,,,,,
,,"[""diamond"",""no_dis"",""vert"",""up"",[99999,99999],[106,-106]]",diamond,no_dis,vert,up,"[99999,99999]","[106,-106]",up,1,,,,,,001,2025-03-10_16h53.20.049,SL_base_41,2021.2.3,Win32,90.09009009,1.5025,,,112,0,112,0,1,,,,,,,,
,,"[""circle"",""no_dis"",""vert"",""up"",[99999,99999],[0,-150]]",circle,no_dis,vert,up,"[99999,99999]","[0,-150]",up,1,,,,,,001,2025-03-10_16h53.20.049,SL_base_41,2021.2.3,Win32,90.09009009,1.3768,,,113,0,113,0,1,,,,,,,,
,,"[""circle"",""red"",""vert"",""up"",[-106,-106],[106,-106]]",circle,red,vert,up,"[-106,-106]","[106,-106]",up,1,,,,,,001,2025-03-10_16h53.20.049,SL_base_41,2021.2.3,Win32,90.09009009,2.0558,,,114,0,114,0,1,,,,,,,,
,,"[""diamond"",""red"",""vert"",""up"",[150,0],[0,-150]]",diamond,red,vert,up,"[150,0]","[0,-150]",up,1,,,,,,001,2025-03-10_16h53.20.049,SL_base_41,2021.2.3,Win32,90.09009009,1.5333,,,115,0,115,0,1,,,,,,,,
,,"[""circle"",""red"",""vert"",""up"",[106,-106],[-150,0]]",circle,red,vert,up,"[106,-106]","[-150,0]",up,1,,,,,,001,2025-03-10_16h53.20.049,SL_base_41,2021.2.3,Win32,90.09009009,1.5889,,,116,0,116,0,1,,,,,,,,
,,"[""diamond"",""no_dis"",""vert"",""up"",[99999,99999],[150,0]]",diamond,no_dis,vert,up,"[99999,99999]","[150,0]",up,1,,,,,,001,2025-03-10_16h53.20.049,SL_base_41,2021.2.3,Win32,90.09009009,1.5843,,,117,0,117,0,1,,,,,,,,
,,"[""diamond"",""no_dis"",""vert"",""up"",[99999,99999],[-106,106]]",diamond,no_dis,vert,up,"[99999,99999]","[-106,106]",up,1,,,,,,001,2025-03-10_16h53.20.049,SL_base_41,2021.2.3,Win32,90.09009009,1.9558,,,118,0,118,0,1,,,,,,,,
,,"[""diamond"",""no_dis"",""hori"",""left"",[99999,99999],[0,150]]",diamond,no_dis,hori,left,"[99999,99999]","[0,150]",left,1,,,,,,001,2025-03-10_16h53.20.049,SL_base_41,2021.2.3,Win32,90.09009009,1.6114,,,119,0,119,0,1,,,,,,,,
,,"[""circle"",""green"",""hori"",""left"",[0,150],[0,-150]]",circle,green,hori,left,"[0,150]","[0,-150]",left,1,,,,,,001,2025-03-10_16h53.20.049,SL_base_41,2021.2.3,Win32,90.09009009,1.6339,,,120,0,120,0,1,,,,,,,,
,,"[""diamond"",""green"",""vert"",""up"",[106,106],[-106,106]]",diamond,green,vert,up,"[106,106]","[-106,106]",up,1,,,,,,001,2025-03-10_16h53.20.049,SL_base_41,2021.2.3,Win32,90.09009009,2.3899,,,121,0,121,0,1,,,,,,,,
,,"[""circle"",""red"",""hori"",""left"",[-106,106],[106,106]]",circle,red,hori,left,"[-106,106]","[106,106]",left,1,,,,,,001,2025-03-10_16h53.20.049,SL_base_41,2021.2.3,Win32,90.09009009,1.8162,,,122,0,122,0,1,,,,,,,,
,,"[""diamond"",""red"",""hori"",""left"",[150,0],[106,-106]]",diamond,red,hori,left,"[150,0]","[106,-106]",up,0,,,,,,001,2025-03-10_16h53.20.049,SL_base_41,2021.2.3,Win32,90.09009009,2.7556,,,123,0,123,0,1,,,,,,,,
,,"[""circle"",""green"",""hori"",""left"",[106,106],[0,150]]",circle,green,hori,left,"[106,106]","[0,150]",,0,,,,,,001,2025-03-10_16h53.20.049,SL_base_41,2021.2.3,Win32,90.09009009,,,,124,0,124,0,1,,,,,,,,
,,"[""diamond"",""green"",""vert"",""up"",[-150,0],[106,106]]",diamond,green,vert,up,"[-150,0]","[106,106]",up,1,,,,,,001,2025-03-10_16h53.20.049,SL_base_41,2021.2.3,Win32,90.09009009,2.1237,,,125,0,125,0,1,,,,,,,,
,,"[""circle"",""no_dis"",""vert"",""up"",[99999,99999],[0,-150]]",circle,no_dis,vert,up,"[99999,99999]","[0,-150]",up,1,,,,,,001,2025-03-10_16h53.20.049,SL_base_41,2021.2.3,Win32,90.09009009,2.1548,,,126,0,126,0,1,,,,,,,,
,,"[""circle"",""no_dis"",""vert"",""up"",[99999,99999],[106,106]]",circle,no_dis,vert,up,"[99999,99999]","[106,106]",up,1,,,,,,001,2025-03-10_16h53.20.049,SL_base_41,2021.2.3,Win32,90.09009009,1.3511,,,127,0,127,0,1,,,,,,,,
,,,,,,,,,,,,,,,,001,2025-03-10_16h53.20.049,SL_base_41,2021.2.3,Win32,90.09009009,,,,,,,,,1,space,2.412,0,0,0,0,1
,,"[""circle"",""green"",""vert"",""up"",[-106,106],[-150,0]]",circle,green,vert,up,"[-106,106]","[-150,0]",up,1,,,,,,001,2025-03-10_16h53.20.049,SL_base_41,2021.2.3,Win32,90.09009009,2.2217,,,0,0,0,0,1,,,,,,,,
,,"[""diamond"",""no_dis"",""hori"",""left"",[99999,99999],[150,0]]",diamond,no_dis,hori,left,"[99999,99999]","[150,0]",left,1,,,,,,001,2025-03-10_16h53.20.049,SL_base_41,2021.2.3,Win32,90.09009009,2.9225,,,1,0,1,0,1,,,,,,,,
,,"[""circle"",""no_dis"",""vert"",""up"",[99999,99999],[106,106]]",circle,no_dis,vert,up,"[99999,99999]","[106,106]",up,1,,,,,,001,2025-03-10_16h53.20.049,SL_base_41,2021.2.3,Win32,90.09009009,1.3153,,,2,0,2,0,1,,,,,,,,
,,"[""circle"",""no_dis"",""hori"",""left"",[99999,99999],[150,0]]",circle,no_dis,hori,left,"[99999,99999]","[150,0]",left,1,,,,,,001,2025-03-10_16h53.20.049,SL_base_41,2021.2.3,Win32,90.09009009,1.6548,,,3,0,3,0,1,,,,,,,,
,,"[""circle"",""green"",""vert"",""up"",[106,106],[-106,-106]]",circle,green,vert,up,"[106,106]","[-106,-106]",up,1,,,,,,001,2025-03-10_16h53.20.049,SL_base_41,2021.2.3,Win32,90.09009009,2.0159,,,4,0,4,0,1,,,,,,,,
,,"[""circle"",""red"",""hori"",""left"",[0,150],[-106,106]]",circle,red,hori,left,"[0,150]","[-106,106]",left,1,,,,,,001,2025-03-10_16h53.20.049,SL_base_41,2021.2.3,Win32,90.09009009,1.2381,,,5,0,5,0,1,,,,,,,,
,,"[""diamond"",""red"",""vert"",""up"",[0,-150],[0,150]]",diamond,red,vert,up,"[0,-150]","[0,150]",up,1,,,,,,001,2025-03-10_16h53.20.049,SL_base_41,2021.2.3,Win32,90.09009009,2.3891,,,6,0,6,0,1,,,,,,,,
,,"[""circle"",""red"",""hori"",""left"",[-106,106],[106,106]]",circle,red,hori,left,"[-106,106]","[106,106]",left,1,,,,,,001,2025-03-10_16h53.20.049,SL_base_41,2021.2.3,Win32,90.09009009,1.857,,,7,0,7,0,1,,,,,,,,
,,"[""diamond"",""red"",""hori"",""left"",[-150,0],[106,106]]",diamond,red,hori,left,"[-150,0]","[106,106]",left,1,,,,,,001,2025-03-10_16h53.20.049,SL_base_41,2021.2.3,Win32,90.09009009,1.7224,,,8,0,8,0,1,,,,,,,,
,,"[""circle"",""green"",""vert"",""up"",[0,150],[150,0]]",circle,green,vert,up,"[0,150]","[150,0]",up,1,,,,,,001,2025-03-10_16h53.20.049,SL_base_41,2021.2.3,Win32,90.09009009,1.5002,,,9,0,9,0,1,,,,,,,,
,,"[""diamond"",""red"",""vert"",""up"",[106,106],[0,150]]",diamond,red,vert,up,"[106,106]","[0,150]",up,1,,,,,,001,2025-03-10_16h53.20.049,SL_base_41,2021.2.3,Win32,90.09009009,1.8559,,,10,0,10,0,1,,,,,,,,
,,"[""diamond"",""no_dis"",""hori"",""left"",[99999,99999],[-106,-106]]",diamond,no_dis,hori,left,"[99999,99999]","[-106,-106]",left,1,,,,,,001,2025-03-10_16h53.20.049,SL_base_41,2021.2.3,Win32,90.09009009,1.9004,,,11,0,11,0,1,,,,,,,,
,,"[""circle"",""green"",""hori"",""left"",[0,-150],[106,106]]",circle,green,hori,left,"[0,-150]","[106,106]",left,1,,,,,,001,2025-03-10_16h53.20.049,SL_base_41,2021.2.3,Win32,90.09009009,2.1596,,,12,0,12,0,1,,,,,,,,
,,"[""diamond"",""green"",""vert"",""up"",[106,106],[-106,106]]",diamond,green,vert,up,"[106,106]","[-106,106]",up,1,,,,,,001,2025-03-10_16h53.20.049,SL_base_41,2021.2.3,Win32,90.09009009,2.1995,,,13,0,13,0,1,,,,,,,,
,,"[""circle"",""red"",""vert"",""up"",[106,-106],[-150,0]]",circle,red,vert,up,"[106,-106]","[-150,0]",up,1,,,,,,001,2025-03-10_16h53.20.049,SL_base_41,2021.2.3,Win32,90.09009009,1.967,,,14,0,14,0,1,,,,,,,,
,,"[""circle"",""green"",""hori"",""left"",[-150,0],[0,-150]]",circle,green,hori,left,"[-150,0]","[0,-150]",left,1,,,,,,001,2025-03-10_16h53.20.049,SL_base_41,2021.2.3,Win32,90.09009009,1.8437,,,15,0,15,0,1,,,,,,,,
,,"[""circle"",""no_dis"",""vert"",""up"",[99999,99999],[-150,0]]",circle,no_dis,vert,up,"[99999,99999]","[-150,0]",up,1,,,,,,001,2025-03-10_16h53.20.049,SL_base_41,2021.2.3,Win32,90.09009009,1.6336,,,16,0,16,0,1,,,,,,,,
,,"[""circle"",""green"",""vert"",""up"",[106,106],[-106,106]]",circle,green,vert,up,"[106,106]","[-106,106]",up,1,,,,,,001,2025-03-10_16h53.20.049,SL_base_41,2021.2.3,Win32,90.09009009,1.878,,,17,0,17,0,1,,,,,,,,
,,"[""circle"",""no_dis"",""hori"",""left"",[99999,99999],[106,-106]]",circle,no_dis,hori,left,"[99999,99999]","[106,-106]",left,1,,,,,,001,2025-03-10_16h53.20.049,SL_base_41,2021.2.3,Win32,90.09009009,1.4281,,,18,0,18,0,1,,,,,,,,
,,"[""diamond"",""green"",""vert"",""up"",[106,106],[106,-106]]",diamond,green,vert,up,"[106,106]","[106,-106]",up,1,,,,,,001,2025-03-10_16h53.20.049,SL_base_41,2021.2.3,Win32,90.09009009,1.9102,,,19,0,19,0,1,,,,,,,,
,,"[""diamond"",""no_dis"",""vert"",""up"",[99999,99999],[150,0]]",diamond,no_dis,vert,up,"[99999,99999]","[150,0]",up,1,,,,,,001,2025-03-10_16h53.20.049,SL_base_41,2021.2.3,Win32,90.09009009,1.2333,,,20,0,20,0,1,,,,,,,,
,,"[""diamond"",""no_dis"",""vert"",""up"",[99999,99999],[0,150]]",diamond,no_dis,vert,up,"[99999,99999]","[0,150]",up,1,,,,,,001,2025-03-10_16h53.20.049,SL_base_41,2021.2.3,Win32,90.09009009,1.8446,,,21,0,21,0,1,,,,,,,,
,,"[""diamond"",""red"",""hori"",""left"",[-150,0],[106,-106]]",diamond,red,hori,left,"[-150,0]","[106,-106]",left,1,,,,,,001,2025-03-10_16h53.20.049,SL_base_41,2021.2.3,Win32,90.09009009,1.9325,,,22,0,22,0,1,,,,,,,,
,,"[""circle"",""no_dis"",""hori"",""left"",[99999,99999],[-106,106]]",circle,no_dis,hori,left,"[99999,99999]","[-106,106]",left,1,,,,,,001,2025-03-10_16h53.20.049,SL_base_41,2021.2.3,Win32,90.09009009,2.4136,,,23,0,23,0,1,,,,,,,,
,,"[""circle"",""green"",""hori"",""left"",[106,106],[-106,-106]]",circle,green,hori,left,"[106,106]","[-106,-106]",left,1,,,,,,001,2025-03-10_16h53.20.049,SL_base_41,2021.2.3,Win32,90.09009009,2.0335,,,24,0,24,0,1,,,,,,,,
,,"[""circle"",""red"",""vert"",""up"",[106,106],[-106,-106]]",circle,red,vert,up,"[106,106]","[-106,-106]",up,1,,,,,,001,2025-03-10_16h53.20.049,SL_base_41,2021.2.3,Win32,90.09009009,1.9234,,,25,0,25,0,1,,,,,,,,
,,"[""diamond"",""no_dis"",""hori"",""left"",[99999,99999],[-106,-106]]",diamond,no_dis,hori,left,"[99999,99999]","[-106,-106]",left,1,,,,,,001,2025-03-10_16h53.20.049,SL_base_41,2021.2.3,Win32,90.09009009,2.0671,,,26,0,26,0,1,,,,,,,,
,,"[""circle"",""no_dis"",""hori"",""left"",[99999,99999],[-150,0]]",circle,no_dis,hori,left,"[99999,99999]","[-150,0]",left,1,,,,,,001,2025-03-10_16h53.20.049,SL_base_41,2021.2.3,Win32,90.09009009,1.9113,,,27,0,27,0,1,,,,,,,,
,,"[""diamond"",""green"",""hori"",""left"",[-106,106],[106,106]]",diamond,green,hori,left,"[-106,106]","[106,106]",left,1,,,,,,001,2025-03-10_16h53.20.049,SL_base_41,2021.2.3,Win32,90.09009009,1.9924,,,28,0,28,0,1,,,,,,,,
,,"[""diamond"",""green"",""vert"",""up"",[-150,0],[106,106]]",diamond,green,vert,up,"[-150,0]","[106,106]",up,1,,,,,,001,2025-03-10_16h53.20.049,SL_base_41,2021.2.3,Win32,90.09009009,1.2557,,,29,0,29,0,1,,,,,,,,
,,"[""circle"",""red"",""vert"",""up"",[-106,-106],[-150,0]]",circle,red,vert,up,"[-106,-106]","[-150,0]",up,1,,,,,,001,2025-03-10_16h53.20.049,SL_base_41,2021.2.3,Win32,90.09009009,1.5769,,,30,0,30,0,1,,,,,,,,
,,"[""circle"",""green"",""hori"",""left"",[106,106],[106,-106]]",circle,green,hori,left,"[106,106]","[106,-106]",left,1,,,,,,001,2025-03-10_16h53.20.049,SL_base_41,2021.2.3,Win32,90.09009009,1.2448,,,31,0,31,0,1,,,,,,,,
,,"[""circle"",""green"",""hori"",""left"",[-150,0],[150,0]]",circle,green,hori,left,"[-150,0]","[150,0]",left,1,,,,,,001,2025-03-10_16h53.20.049,SL_base_41,2021.2.3,Win32,90.09009009,1.6889,,,32,0,32,0,1,,,,,,,,
,,"[""circle"",""no_dis"",""hori"",""left"",[99999,99999],[-106,-106]]",circle,no_dis,hori,left,"[99999,99999]","[-106,-106]",left,1,,,,,,001,2025-03-10_16h53.20.049,SL_base_41,2021.2.3,Win32,90.09009009,1.3394,,,33,0,33,0,1,,,,,,,,
,,"[""diamond"",""no_dis"",""vert"",""up"",[99999,99999],[0,-150]]",diamond,no_dis,vert,up,"[99999,99999]","[0,-150]",up,1,,,,,,001,2025-03-10_16h53.20.049,SL_base_41,2021.2.3,Win32,90.09009009,1.2667,,,34,0,34,0,1,,,,,,,,
,,"[""circle"",""green"",""vert"",""up"",[106,106],[-150,0]]",circle,green,vert,up,"[106,106]","[-150,0]",up,1,,,,,,001,2025-03-10_16h53.20.049,SL_base_41,2021.2.3,Win32,90.09009009,1.7449,,,35,0,35,0,1,,,,,,,,
,,"[""circle"",""green"",""vert"",""up"",[-106,106],[150,0]]",circle,green,vert,up,"[-106,106]","[150,0]",up,1,,,,,,001,2025-03-10_16h53.20.049,SL_base_41,2021.2.3,Win32,90.09009009,1.3783,,,36,0,36,0,1,,,,,,,,
,,"[""diamond"",""green"",""hori"",""left"",[106,106],[-106,106]]",diamond,green,hori,left,"[106,106]","[-106,106]",left,1,,,,,,001,2025-03-10_16h53.20.049,SL_base_41,2021.2.3,Win32,90.09009009,1.6601,,,37,0,37,0,1,,,,,,,,
,,"[""circle"",""green"",""hori"",""left"",[106,106],[150,0]]",circle,green,hori,left,"[106,106]","[150,0]",left,1,,,,,,001,2025-03-10_16h53.20.049,SL_base_41,2021.2.3,Win32,90.09009009,1.7446,,,38,0,38,0,1,,,,,,,,
,,"[""diamond"",""no_dis"",""vert"",""up"",[99999,99999],[-106,106]]",diamond,no_dis,vert,up,"[99999,99999]","[-106,106]",up,1,,,,,,001,2025-03-10_16h53.20.049,SL_base_41,2021.2.3,Win32,90.09009009,1.6029,,,39,0,39,0,1,,,,,,,,
,,"[""circle"",""no_dis"",""vert"",""up"",[99999,99999],[106,106]]",circle,no_dis,vert,up,"[99999,99999]","[106,106]",up,1,,,,,,001,2025-03-10_16h53.20.049,SL_base_41,2021.2.3,Win32,90.09009009,1.3507,,,40,0,40,0,1,,,,,,,,
,,"[""diamond"",""red"",""hori"",""left"",[150,0],[106,-106]]",diamond,red,hori,left,"[150,0]","[106,-106]",left,1,,,,,,001,2025-03-10_16h53.20.049,SL_base_41,2021.2.3,Win32,90.09009009,1.8783,,,41,0,41,0,1,,,,,,,,
,,"[""circle"",""red"",""vert"",""up"",[106,-106],[0,150]]",circle,red,vert,up,"[106,-106]","[0,150]",up,1,,,,,,001,2025-03-10_16h53.20.049,SL_base_41,2021.2.3,Win32,90.09009009,1.5164,,,42,0,42,0,1,,,,,,,,
,,"[""diamond"",""green"",""hori"",""left"",[106,106],[0,150]]",diamond,green,hori,left,"[106,106]","[0,150]",left,1,,,,,,001,2025-03-10_16h53.20.049,SL_base_41,2021.2.3,Win32,90.09009009,1.8814,,,43,0,43,0,1,,,,,,,,
,,"[""circle"",""red"",""vert"",""up"",[-106,106],[0,150]]",circle,red,vert,up,"[-106,106]","[0,150]",up,1,,,,,,001,2025-03-10_16h53.20.049,SL_base_41,2021.2.3,Win32,90.09009009,2.0779,,,44,0,44,0,1,,,,,,,,
,,"[""circle"",""green"",""hori"",""left"",[0,150],[0,-150]]",circle,green,hori,left,"[0,150]","[0,-150]",left,1,,,,,,001,2025-03-10_16h53.20.049,SL_base_41,2021.2.3,Win32,90.09009009,1.651,,,45,0,45,0,1,,,,,,,,
,,"[""diamond"",""no_dis"",""hori"",""left"",[99999,99999],[0,150]]",diamond,no_dis,hori,left,"[99999,99999]","[0,150]",left,1,,,,,,001,2025-03-10_16h53.20.049,SL_base_41,2021.2.3,Win32,90.09009009,1.9019,,,46,0,46,0,1,,,,,,,,
,,"[""circle"",""green"",""vert"",""up"",[-106,-106],[0,-150]]",circle,green,vert,up,"[-106,-106]","[0,-150]",up,1,,,,,,001,2025-03-10_16h53.20.049,SL_base_41,2021.2.3,Win32,90.09009009,1.9278,,,47,0,47,0,1,,,,,,,,
,,"[""circle"",""no_dis"",""hori"",""left"",[99999,99999],[150,0]]",circle,no_dis,hori,left,"[99999,99999]","[150,0]",left,1,,,,,,001,2025-03-10_16h53.20.049,SL_base_41,2021.2.3,Win32,90.09009009,1.6437,,,48,0,48,0,1,,,,,,,,
,,"[""circle"",""green"",""hori"",""left"",[106,106],[150,0]]",circle,green,hori,left,"[106,106]","[150,0]",left,1,,,,,,001,2025-03-10_16h53.20.049,SL_base_41,2021.2.3,Win32,90.09009009,1.755,,,49,0,49,0,1,,,,,,,,
,,"[""circle"",""no_dis"",""hori"",""left"",[99999,99999],[106,-106]]",circle,no_dis,hori,left,"[99999,99999]","[106,-106]",left,1,,,,,,001,2025-03-10_16h53.20.049,SL_base_41,2021.2.3,Win32,90.09009009,1.2223,,,50,0,50,0,1,,,,,,,,
,,"[""circle"",""green"",""vert"",""up"",[106,106],[0,-150]]",circle,green,vert,up,"[106,106]","[0,-150]",up,1,,,,,,001,2025-03-10_16h53.20.049,SL_base_41,2021.2.3,Win32,90.09009009,1.567,,,51,0,51,0,1,,,,,,,,
,,"[""circle"",""red"",""hori"",""left"",[106,-106],[0,150]]",circle,red,hori,left,"[106,-106]","[0,150]",left,1,,,,,,001,2025-03-10_16h53.20.049,SL_base_41,2021.2.3,Win32,90.09009009,1.3448,,,52,0,52,0,1,,,,,,,,
,,"[""diamond"",""red"",""vert"",""up"",[106,106],[-150,0]]",diamond,red,vert,up,"[106,106]","[-150,0]",up,1,,,,,,001,2025-03-10_16h53.20.049,SL_base_41,2021.2.3,Win32,90.09009009,1.489,,,53,0,53,0,1,,,,,,,,
,,"[""diamond"",""green"",""hori"",""left"",[150,0],[106,-106]]",diamond,green,hori,left,"[150,0]","[106,-106]",left,1,,,,,,001,2025-03-10_16h53.20.049,SL_base_41,2021.2.3,Win32,90.09009009,1.5892,,,54,0,54,0,1,,,,,,,,
,,"[""circle"",""red"",""hori"",""left"",[106,106],[150,0]]",circle,red,hori,left,"[106,106]","[150,0]",left,1,,,,,,001,2025-03-10_16h53.20.049,SL_base_41,2021.2.3,Win32,90.09009009,1.48,,,55,0,55,0,1,,,,,,,,
,,"[""diamond"",""no_dis"",""hori"",""left"",[99999,99999],[-106,-106]]",diamond,no_dis,hori,left,"[99999,99999]","[-106,-106]",left,1,,,,,,001,2025-03-10_16h53.20.049,SL_base_41,2021.2.3,Win32,90.09009009,1.9327,,,56,0,56,0,1,,,,,,,,
,,"[""diamond"",""no_dis"",""vert"",""up"",[99999,99999],[-106,106]]",diamond,no_dis,vert,up,"[99999,99999]","[-106,106]",up,1,,,,,,001,2025-03-10_16h53.20.049,SL_base_41,2021.2.3,Win32,90.09009009,1.5003,,,57,0,57,0,1,,,,,,,,
,,"[""circle"",""red"",""hori"",""left"",[150,0],[-106,106]]",circle,red,hori,left,"[150,0]","[-106,106]",left,1,,,,,,001,2025-03-10_16h53.20.049,SL_base_41,2021.2.3,Win32,90.09009009,1.6814,,,58,0,58,0,1,,,,,,,,
,,"[""diamond"",""no_dis"",""hori"",""left"",[99999,99999],[150,0]]",diamond,no_dis,hori,left,"[99999,99999]","[150,0]",left,1,,,,,,001,2025-03-10_16h53.20.049,SL_base_41,2021.2.3,Win32,90.09009009,1.2571,,,59,0,59,0,1,,,,,,,,
,,"[""diamond"",""no_dis"",""vert"",""up"",[99999,99999],[0,-150]]",diamond,no_dis,vert,up,"[99999,99999]","[0,-150]",up,1,,,,,,001,2025-03-10_16h53.20.049,SL_base_41,2021.2.3,Win32,90.09009009,1.2114,,,60,0,60,0,1,,,,,,,,
,,"[""diamond"",""green"",""hori"",""left"",[106,106],[106,-106]]",diamond,green,hori,left,"[106,106]","[106,-106]",left,1,,,,,,001,2025-03-10_16h53.20.049,SL_base_41,2021.2.3,Win32,90.09009009,1.6134,,,61,0,61,0,1,,,,,,,,
,,"[""circle"",""red"",""vert"",""up"",[-150,0],[0,-150]]",circle,red,vert,up,"[-150,0]","[0,-150]",up,1,,,,,,001,2025-03-10_16h53.20.049,SL_base_41,2021.2.3,Win32,90.09009009,1.4224,,,62,0,62,0,1,,,,,,,,
,,"[""diamond"",""green"",""vert"",""up"",[106,106],[0,150]]",diamond,green,vert,up,"[106,106]","[0,150]",up,1,,,,,,001,2025-03-10_16h53.20.049,SL_base_41,2021.2.3,Win32,90.09009009,2.5558,,,63,0,63,0,1,,,,,,,,
,,"[""circle"",""red"",""hori"",""left"",[106,106],[-150,0]]",circle,red,hori,left,"[106,106]","[-150,0]",left,1,,,,,,001,2025-03-10_16h53.20.049,SL_base_41,2021.2.3,Win32,90.09009009,1.0802,,,64,0,64,0,1,,,,,,,,
,,"[""circle"",""no_dis"",""vert"",""up"",[99999,99999],[106,-106]]",circle,no_dis,vert,up,"[99999,99999]","[106,-106]",up,1,,,,,,001,2025-03-10_16h53.20.049,SL_base_41,2021.2.3,Win32,90.09009009,1.2004,,,65,0,65,0,1,,,,,,,,
,,"[""diamond"",""no_dis"",""vert"",""up"",[99999,99999],[106,106]]",diamond,no_dis,vert,up,"[99999,99999]","[106,106]",up,1,,,,,,001,2025-03-10_16h53.20.049,SL_base_41,2021.2.3,Win32,90.09009009,1.5595,,,66,0,66,0,1,,,,,,,,
,,"[""diamond"",""no_dis"",""vert"",""up"",[99999,99999],[106,-106]]",diamond,no_dis,vert,up,"[99999,99999]","[106,-106]",up,1,,,,,,001,2025-03-10_16h53.20.049,SL_base_41,2021.2.3,Win32,90.09009009,1.2548,,,67,0,67,0,1,,,,,,,,
,,"[""circle"",""no_dis"",""hori"",""left"",[99999,99999],[0,150]]",circle,no_dis,hori,left,"[99999,99999]","[0,150]",left,1,,,,,,001,2025-03-10_16h53.20.049,SL_base_41,2021.2.3,Win32,90.09009009,1.7289,,,68,0,68,0,1,,,,,,,,
,,"[""diamond"",""red"",""hori"",""left"",[-150,0],[150,0]]",diamond,red,hori,left,"[-150,0]","[150,0]",left,1,,,,,,001,2025-03-10_16h53.20.049,SL_base_41,2021.2.3,Win32,90.09009009,1.5265,,,69,0,69,0,1,,,,,,,,
,,"[""diamond"",""red"",""hori"",""left"",[0,150],[150,0]]",diamond,red,hori,left,"[0,150]","[150,0]",left,1,,,,,,001,2025-03-10_16h53.20.049,SL_base_41,2021.2.3,Win32,90.09009009,1.1002,,,70,0,70,0,1,,,,,,,,
,,"[""diamond"",""red"",""hori"",""left"",[106,106],[0,150]]",diamond,red,hori,left,"[106,106]","[0,150]",left,1,,,,,,001,2025-03-10_16h53.20.049,SL_base_41,2021.2.3,Win32,90.09009009,1.569,,,71,0,71,0,1,,,,,,,,
,,"[""circle"",""no_dis"",""vert"",""up"",[99999,99999],[0,-150]]",circle,no_dis,vert,up,"[99999,99999]","[0,-150]",up,1,,,,,,001,2025-03-10_16h53.20.049,SL_base_41,2021.2.3,Win32,90.09009009,1.2689,,,72,0,72,0,1,,,,,,,,
,,"[""diamond"",""red"",""vert"",""up"",[106,106],[106,-106]]",diamond,red,vert,up,"[106,106]","[106,-106]",up,1,,,,,,001,2025-03-10_16h53.20.049,SL_base_41,2021.2.3,Win32,90.09009009,1.7711,,,73,0,73,0,1,,,,,,,,
,,"[""circle"",""red"",""vert"",""up"",[-106,106],[-106,-106]]",circle,red,vert,up,"[-106,106]","[-106,-106]",up,1,,,,,,001,2025-03-10_16h53.20.049,SL_base_41,2021.2.3,Win32,90.09009009,1.413,,,74,0,74,0,1,,,,,,,,
,,"[""circle"",""red"",""hori"",""left"",[106,106],[106,-106]]",circle,red,hori,left,"[106,106]","[106,-106]",left,1,,,,,,001,2025-03-10_16h53.20.049,SL_base_41,2021.2.3,Win32,90.09009009,1.277,,,75,0,75,0,1,,,,,,,,
,,"[""diamond"",""red"",""hori"",""left"",[106,-106],[0,150]]",diamond,red,hori,left,"[106,-106]","[0,150]",left,1,,,,,,001,2025-03-10_16h53.20.049,SL_base_41,2021.2.3,Win32,90.09009009,2.0037,,,76,0,76,0,1,,,,,,,,
,,"[""diamond"",""no_dis"",""hori"",""left"",[99999,99999],[-106,106]]",diamond,no_dis,hori,left,"[99999,99999]","[-106,106]",left,1,,,,,,001,2025-03-10_16h53.20.049,SL_base_41,2021.2.3,Win32,90.09009009,1.4891,,,77,0,77,0,1,,,,,,,,
,,"[""diamond"",""no_dis"",""vert"",""up"",[99999,99999],[0,150]]",diamond,no_dis,vert,up,"[99999,99999]","[0,150]",up,1,,,,,,001,2025-03-10_16h53.20.049,SL_base_41,2021.2.3,Win32,90.09009009,1.5778,,,78,0,78,0,1,,,,,,,,
,,"[""diamond"",""red"",""vert"",""up"",[150,0],[0,-150]]",diamond,red,vert,up,"[150,0]","[0,-150]",up,1,,,,,,001,2025-03-10_16h53.20.049,SL_base_41,2021.2.3,Win32,90.09009009,1.6102,,,79,0,79,0,1,,,,,,,,
,,"[""diamond"",""no_dis"",""hori"",""left"",[99999,99999],[-150,0]]",diamond,no_dis,hori,left,"[99999,99999]","[-150,0]",left,1,,,,,,001,2025-03-10_16h53.20.049,SL_base_41,2021.2.3,Win32,90.09009009,1.2335,,,80,0,80,0,1,,,,,,,,
,,"[""circle"",""green"",""vert"",""up"",[-106,-106],[106,106]]",circle,green,vert,up,"[-106,-106]","[106,106]",up,1,,,,,,001,2025-03-10_16h53.20.049,SL_base_41,2021.2.3,Win32,90.09009009,1.9335,,,81,0,81,0,1,,,,,,,,
,,"[""diamond"",""red"",""hori"",""left"",[150,0],[-106,106]]",diamond,red,hori,left,"[150,0]","[-106,106]",left,1,,,,,,001,2025-03-10_16h53.20.049,SL_base_41,2021.2.3,Win32,90.09009009,1.367,,,82,0,82,0,1,,,,,,,,
,,"[""diamond"",""green"",""hori"",""left"",[-106,106],[0,-150]]",diamond,green,hori,left,"[-106,106]","[0,-150]",left,1,,,,,,001,2025-03-10_16h53.20.049,SL_base_41,2021.2.3,Win32,90.09009009,1.7224,,,83,0,83,0,1,,,,,,,,
,,"[""diamond"",""red"",""vert"",""up"",[106,-106],[-106,106]]",diamond,red,vert,up,"[106,-106]","[-106,106]",up,1,,,,,,001,2025-03-10_16h53.20.049,SL_base_41,2021.2.3,Win32,90.09009009,1.8035,,,84,0,84,0,1,,,,,,,,
,,"[""diamond"",""green"",""vert"",""up"",[-106,-106],[106,106]]",diamond,green,vert,up,"[-106,-106]","[106,106]",up,1,,,,,,001,2025-03-10_16h53.20.049,SL_base_41,2021.2.3,Win32,90.09009009,1.703,,,85,0,85,0,1,,,,,,,,
,,"[""circle"",""no_dis"",""hori"",""left"",[99999,99999],[106,106]]",circle,no_dis,hori,left,"[99999,99999]","[106,106]",left,1,,,,,,001,2025-03-10_16h53.20.049,SL_base_41,2021.2.3,Win32,90.09009009,1.3928,,,86,0,86,0,1,,,,,,,,
,,"[""circle"",""red"",""hori"",""left"",[106,106],[150,0]]",circle,red,hori,left,"[106,106]","[150,0]",up,0,,,,,,001,2025-03-10_16h53.20.049,SL_base_41,2021.2.3,Win32,90.09009009,1.989,,,87,0,87,0,1,,,,,,,,
,,"[""circle"",""red"",""vert"",""up"",[106,106],[-106,-106]]",circle,red,vert,up,"[106,106]","[-106,-106]",up,1,,,,,,001,2025-03-10_16h53.20.049,SL_base_41,2021.2.3,Win32,90.09009009,2.1163,,,88,0,88,0,1,,,,,,,,
,,"[""diamond"",""red"",""hori"",""left"",[106,106],[-150,0]]",diamond,red,hori,left,"[106,106]","[-150,0]",left,1,,,,,,001,2025-03-10_16h53.20.049,SL_base_41,2021.2.3,Win32,90.09009009,1.4436,,,89,0,89,0,1,,,,,,,,
,,"[""diamond"",""green"",""hori"",""left"",[-150,0],[0,150]]",diamond,green,hori,left,"[-150,0]","[0,150]",left,1,,,,,,001,2025-03-10_16h53.20.049,SL_base_41,2021.2.3,Win32,90.09009009,1.9512,,,90,0,90,0,1,,,,,,,,
,,"[""diamond"",""green"",""vert"",""up"",[106,-106],[106,106]]",diamond,green,vert,up,"[106,-106]","[106,106]",up,1,,,,,,001,2025-03-10_16h53.20.049,SL_base_41,2021.2.3,Win32,90.09009009,1.3818,,,91,0,91,0,1,,,,,,,,
,,"[""circle"",""no_dis"",""vert"",""up"",[99999,99999],[-106,106]]",circle,no_dis,vert,up,"[99999,99999]","[-106,106]",up,1,,,,,,001,2025-03-10_16h53.20.049,SL_base_41,2021.2.3,Win32,90.09009009,2.071,,,92,0,92,0,1,,,,,,,,
,,"[""diamond"",""red"",""vert"",""up"",[106,106],[0,-150]]",diamond,red,vert,up,"[106,106]","[0,-150]",up,1,,,,,,001,2025-03-10_16h53.20.049,SL_base_41,2021.2.3,Win32,90.09009009,2.094,,,93,0,93,0,1,,,,,,,,
,,"[""circle"",""no_dis"",""hori"",""left"",[99999,99999],[0,-150]]",circle,no_dis,hori,left,"[99999,99999]","[0,-150]",left,1,,,,,,001,2025-03-10_16h53.20.049,SL_base_41,2021.2.3,Win32,90.09009009,1.4729,,,94,0,94,0,1,,,,,,,,
,,"[""diamond"",""green"",""vert"",""up"",[0,-150],[-106,-106]]",diamond,green,vert,up,"[0,-150]","[-106,-106]",up,1,,,,,,001,2025-03-10_16h53.20.049,SL_base_41,2021.2.3,Win32,90.09009009,1.4661,,,95,0,95,0,1,,,,,,,,
,,"[""diamond"",""no_dis"",""vert"",""up"",[99999,99999],[106,-106]]",diamond,no_dis,vert,up,"[99999,99999]","[106,-106]",up,1,,,,,,001,2025-03-10_16h53.20.049,SL_base_41,2021.2.3,Win32,90.09009009,1.4955,,,96,0,96,0,1,,,,,,,,
,,"[""diamond"",""red"",""hori"",""left"",[0,-150],[106,106]]",diamond,red,hori,left,"[0,-150]","[106,106]",left,1,,,,,,001,2025-03-10_16h53.20.049,SL_base_41,2021.2.3,Win32,90.09009009,1.3224,,,97,0,97,0,1,,,,,,,,
,,"[""diamond"",""green"",""hori"",""left"",[150,0],[106,106]]",diamond,green,hori,left,"[150,0]","[106,106]",left,1,,,,,,001,2025-03-10_16h53.20.049,SL_base_41,2021.2.3,Win32,90.09009009,1.7336,,,98,0,98,0,1,,,,,,,,
,,"[""diamond"",""no_dis"",""hori"",""left"",[99999,99999],[0,150]]",diamond,no_dis,hori,left,"[99999,99999]","[0,150]",left,1,,,,,,001,2025-03-10_16h53.20.049,SL_base_41,2021.2.3,Win32,90.09009009,1.4548,,,99,0,99,0,1,,,,,,,,
,,"[""diamond"",""green"",""hori"",""left"",[0,150],[106,-106]]",diamond,green,hori,left,"[0,150]","[106,-106]",left,1,,,,,,001,2025-03-10_16h53.20.049,SL_base_41,2021.2.3,Win32,90.09009009,1.1112,,,100,0,100,0,1,,,,,,,,
,,"[""circle"",""red"",""hori"",""left"",[-106,106],[150,0]]",circle,red,hori,left,"[-106,106]","[150,0]",left,1,,,,,,001,2025-03-10_16h53.20.049,SL_base_41,2021.2.3,Win32,90.09009009,1.9558,,,101,0,101,0,1,,,,,,,,
,,"[""circle"",""red"",""hori"",""left"",[0,150],[150,0]]",circle,red,hori,left,"[0,150]","[150,0]",left,1,,,,,,001,2025-03-10_16h53.20.049,SL_base_41,2021.2.3,Win32,90.09009009,1.1437,,,102,0,102,0,1,,,,,,,,
,,"[""diamond"",""green"",""hori"",""left"",[106,106],[0,150]]",diamond,green,hori,left,"[106,106]","[0,150]",left,1,,,,,,001,2025-03-10_16h53.20.049,SL_base_41,2021.2.3,Win32,90.09009009,1.4003,,,103,0,103,0,1,,,,,,,,
,,"[""circle"",""no_dis"",""vert"",""up"",[99999,99999],[-150,0]]",circle,no_dis,vert,up,"[99999,99999]","[-150,0]",up,1,,,,,,001,2025-03-10_16h53.20.049,SL_base_41,2021.2.3,Win32,90.09009009,1.6609,,,104,0,104,0,1,,,,,,,,
,,"[""diamond"",""red"",""vert"",""up"",[106,-106],[-106,-106]]",diamond,red,vert,up,"[106,-106]","[-106,-106]",up,1,,,,,,001,2025-03-10_16h53.20.049,SL_base_41,2021.2.3,Win32,90.09009009,1.2597,,,105,0,105,0,1,,,,,,,,
,,"[""diamond"",""red"",""vert"",""up"",[106,106],[150,0]]",diamond,red,vert,up,"[106,106]","[150,0]",up,1,,,,,,001,2025-03-10_16h53.20.049,SL_base_41,2021.2.3,Win32,90.09009009,1.7102,,,106,0,106,0,1,,,,,,,,
,,"[""circle"",""no_dis"",""vert"",""up"",[99999,99999],[0,-150]]",circle,no_dis,vert,up,"[99999,99999]","[0,-150]",up,1,,,,,,001,2025-03-10_16h53.20.049,SL_base_41,2021.2.3,Win32,90.09009009,1.6027,,,107,0,107,0,1,,,,,,,,
,,"[""diamond"",""no_dis"",""hori"",""left"",[99999,99999],[-106,-106]]",diamond,no_dis,hori,left,"[99999,99999]","[-106,-106]",left,1,,,,,,001,2025-03-10_16h53.20.049,SL_base_41,2021.2.3,Win32,90.09009009,1.0372,,,108,0,108,0,1,,,,,,,,
,,"[""circle"",""green"",""hori"",""left"",[0,-150],[-106,106]]",circle,green,hori,left,"[0,-150]","[-106,106]",left,1,,,,,,001,2025-03-10_16h53.20.049,SL_base_41,2021.2.3,Win32,90.09009009,1.056,,,109,0,109,0,1,,,,,,,,
,,"[""diamond"",""green"",""vert"",""up"",[-106,-106],[150,0]]",diamond,green,vert,up,"[-106,-106]","[150,0]",up,1,,,,,,001,2025-03-10_16h53.20.049,SL_base_41,2021.2.3,Win32,90.09009009,0.8666,,,110,0,110,0,1,,,,,,,,
,,"[""circle"",""green"",""hori"",""left"",[106,106],[150,0]]",circle,green,hori,left,"[106,106]","[150,0]",up,0,,,,,,001,2025-03-10_16h53.20.049,SL_base_41,2021.2.3,Win32,90.09009009,1.5659,,,111,0,111,0,1,,,,,,,,
,,"[""diamond"",""green"",""vert"",""up"",[150,0],[0,150]]",diamond,green,vert,up,"[150,0]","[0,150]",up,1,,,,,,001,2025-03-10_16h53.20.049,SL_base_41,2021.2.3,Win32,90.09009009,1.5337,,,112,0,112,0,1,,,,,,,,
,,"[""diamond"",""green"",""vert"",""up"",[-106,-106],[-106,106]]",diamond,green,vert,up,"[-106,-106]","[-106,106]",up,1,,,,,,001,2025-03-10_16h53.20.049,SL_base_41,2021.2.3,Win32,90.09009009,1.0336,,,113,0,113,0,1,,,,,,,,
,,"[""diamond"",""green"",""vert"",""up"",[0,-150],[-106,-106]]",diamond,green,vert,up,"[0,-150]","[-106,-106]",up,1,,,,,,001,2025-03-10_16h53.20.049,SL_base_41,2021.2.3,Win32,90.09009009,1.107,,,114,0,114,0,1,,,,,,,,
,,"[""diamond"",""red"",""vert"",""up"",[0,-150],[106,-106]]",diamond,red,vert,up,"[0,-150]","[106,-106]",up,1,,,,,,001,2025-03-10_16h53.20.049,SL_base_41,2021.2.3,Win32,90.09009009,1.1335,,,115,0,115,0,1,,,,,,,,
,,"[""circle"",""green"",""vert"",""up"",[-106,-106],[0,-150]]",circle,green,vert,up,"[-106,-106]","[0,-150]",up,1,,,,,,001,2025-03-10_16h53.20.049,SL_base_41,2021.2.3,Win32,90.09009009,1.8225,,,116,0,116,0,1,,,,,,,,
,,"[""circle"",""green"",""vert"",""up"",[0,150],[-106,106]]",circle,green,vert,up,"[0,150]","[-106,106]",up,1,,,,,,001,2025-03-10_16h53.20.049,SL_base_41,2021.2.3,Win32,90.09009009,1.4906,,,117,0,117,0,1,,,,,,,,
,,"[""circle"",""no_dis"",""vert"",""up"",[99999,99999],[-150,0]]",circle,no_dis,vert,up,"[99999,99999]","[-150,0]",up,1,,,,,,001,2025-03-10_16h53.20.049,SL_base_41,2021.2.3,Win32,90.09009009,2.0668,,,118,0,118,0,1,,,,,,,,
,,"[""circle"",""green"",""hori"",""left"",[106,106],[0,150]]",circle,green,hori,left,"[106,106]","[0,150]",left,1,,,,,,001,2025-03-10_16h53.20.049,SL_base_41,2021.2.3,Win32,90.09009009,1.3891,,,119,0,119,0,1,,,,,,,,
,,"[""circle"",""red"",""hori"",""left"",[106,106],[0,150]]",circle,red,hori,left,"[106,106]","[0,150]",left,1,,,,,,001,2025-03-10_16h53.20.049,SL_base_41,2021.2.3,Win32,90.09009009,1.014,,,120,0,120,0,1,,,,,,,,
,,"[""diamond"",""green"",""hori"",""left"",[106,106],[-106,106]]",diamond,green,hori,left,"[106,106]","[-106,106]",left,1,,,,,,001,2025-03-10_16h53.20.049,SL_base_41,2021.2.3,Win32,90.09009009,2.4218,,,121,0,121,0,1,,,,,,,,
,,"[""circle"",""no_dis"",""vert"",""up"",[99999,99999],[106,106]]",circle,no_dis,vert,up,"[99999,99999]","[106,106]",up,1,,,,,,001,2025-03-10_16h53.20.049,SL_base_41,2021.2.3,Win32,90.09009009,1.0224,,,122,0,122,0,1,,,,,,,,
,,"[""circle"",""red"",""vert"",""up"",[106,-106],[150,0]]",circle,red,vert,up,"[106,-106]","[150,0]",left,0,,,,,,001,2025-03-10_16h53.20.049,SL_base_41,2021.2.3,Win32,90.09009009,2.3225,,,123,0,123,0,1,,,,,,,,
,,"[""circle"",""red"",""vert"",""up"",[-106,-106],[106,-106]]",circle,red,vert,up,"[-106,-106]","[106,-106]",up,1,,,,,,001,2025-03-10_16h53.20.049,SL_base_41,2021.2.3,Win32,90.09009009,1.878,,,124,0,124,0,1,,,,,,,,
,,"[""diamond"",""red"",""hori"",""left"",[0,-150],[-106,106]]",diamond,red,hori,left,"[0,-150]","[-106,106]",left,1,,,,,,001,2025-03-10_16h53.20.049,SL_base_41,2021.2.3,Win32,90.09009009,1.0437,,,125,0,125,0,1,,,,,,,,
,,"[""circle"",""red"",""vert"",""up"",[0,150],[0,-150]]",circle,red,vert,up,"[0,150]","[0,-150]",up,1,,,,,,001,2025-03-10_16h53.20.049,SL_base_41,2021.2.3,Win32,90.09009009,1.5114,,,126,0,126,0,1,,,,,,,,
,,"[""diamond"",""red"",""vert"",""up"",[150,0],[106,-106]]",diamond,red,vert,up,"[150,0]","[106,-106]",up,1,,,,,,001,2025-03-10_16h53.20.049,SL_base_41,2021.2.3,Win32,90.09009009,1.1947,,,127,0,127,0,1,,,,,,,,
,,,,,,,,,,,,,,,,001,2025-03-10_16h53.20.049,SL_base_41,2021.2.3,Win32,90.09009009,,,,,,,,,2,space,35.7676,1,0,1,0,1
,,"[""diamond"",""green"",""hori"",""left"",[106,106],[-106,106]]",diamond,green,hori,left,"[106,106]","[-106,106]",,0,,,,,,001,2025-03-10_16h53.20.049,SL_base_41,2021.2.3,Win32,90.09009009,,,,0,0,0,0,1,,,,,,,,
,,"[""diamond"",""no_dis"",""hori"",""left"",[99999,99999],[-106,-106]]",diamond,no_dis,hori,left,"[99999,99999]","[-106,-106]",left,1,,,,,,001,2025-03-10_16h53.20.049,SL_base_41,2021.2.3,Win32,90.09009009,1.2688,,,1,0,1,0,1,,,,,,,,
,,"[""circle"",""green"",""hori"",""left"",[106,106],[150,0]]",circle,green,hori,left,"[106,106]","[150,0]",left,1,,,,,,001,2025-03-10_16h53.20.049,SL_base_41,2021.2.3,Win32,90.09009009,1.8106,,,2,0,2,0,1,,,,,,,,
,,"[""diamond"",""no_dis"",""vert"",""up"",[99999,99999],[106,-106]]",diamond,no_dis,vert,up,"[99999,99999]","[106,-106]",up,1,,,,,,001,2025-03-10_16h53.20.049,SL_base_41,2021.2.3,Win32,90.09009009,1.0661,,,3,0,3,0,1,,,,,,,,
,,"[""circle"",""red"",""vert"",""up"",[106,-106],[-150,0]]",circle,red,vert,up,"[106,-106]","[-150,0]",up,1,,,,,,001,2025-03-10_16h53.20.049,SL_base_41,2021.2.3,Win32,90.09009009,1.3776,,,4,0,4,0,1,,,,,,,,
,,"[""circle"",""green"",""vert"",""up"",[106,106],[-106,-106]]",circle,green,vert,up,"[106,106]","[-106,-106]",up,1,,,,,,001,2025-03-10_16h53.20.049,SL_base_41,2021.2.3,Win32,90.09009009,1.0223,,,5,0,5,0,1,,,,,,,,
,,"[""circle"",""no_dis"",""hori"",""left"",[99999,99999],[106,-106]]",circle,no_dis,hori,left,"[99999,99999]","[106,-106]",left,1,,,,,,001,2025-03-10_16h53.20.049,SL_base_41,2021.2.3,Win32,90.09009009,1.2022,,,6,0,6,0,1,,,,,,,,
,,"[""circle"",""no_dis"",""vert"",""up"",[99999,99999],[-150,0]]",circle,no_dis,vert,up,"[99999,99999]","[-150,0]",up,1,,,,,,001,2025-03-10_16h53.20.049,SL_base_41,2021.2.3,Win32,90.09009009,0.9049,,,7,0,7,0,1,,,,,,,,
,,"[""circle"",""no_dis"",""hori"",""left"",[99999,99999],[106,106]]",circle,no_dis,hori,left,"[99999,99999]","[106,106]",left,1,,,,,,001,2025-03-10_16h53.20.049,SL_base_41,2021.2.3,Win32,90.09009009,1.2604,,,8,0,8,0,1,,,,,,,,
,,"[""diamond"",""green"",""vert"",""up"",[106,106],[106,-106]]",diamond,green,vert,up,"[106,106]","[106,-106]",left,0,,,,,,001,2025-03-10_16h53.20.049,SL_base_41,2021.2.3,Win32,90.09009009,1.461,,,9,0,9,0,1,,,,,,,,
,,"[""diamond"",""green"",""vert"",""up"",[0,-150],[-106,-106]]",diamond,green,vert,up,"[0,-150]","[-106,-106]",up,1,,,,,,001,2025-03-10_16h53.20.049,SL_base_41,2021.2.3,Win32,90.09009009,1.3726,,,10,0,10,0,1,,,,,,,,
,,"[""diamond"",""red"",""vert"",""up"",[106,106],[0,150]]",diamond,red,vert,up,"[106,106]","[0,150]",up,1,,,,,,001,2025-03-10_16h53.20.049,SL_base_41,2021.2.3,Win32,90.09009009,2.7167,,,11,0,11,0,1,,,,,,,,
,,"[""circle"",""green"",""hori"",""left"",[0,150],[0,-150]]",circle,green,hori,left,"[0,150]","[0,-150]",left,1,,,,,,001,2025-03-10_16h53.20.049,SL_base_41,2021.2.3,Win32,90.09009009,1.867,,,12,0,12,0,1,,,,,,,,
,,"[""circle"",""no_dis"",""hori"",""left"",[99999,99999],[150,0]]",circle,no_dis,hori,left,"[99999,99999]","[150,0]",left,1,,,,,,001,2025-03-10_16h53.20.049,SL_base_41,2021.2.3,Win32,90.09009009,1.8578,,,13,0,13,0,1,,,,,,,,
,,"[""diamond"",""red"",""vert"",""up"",[106,-106],[-106,-106]]",diamond,red,vert,up,"[106,-106]","[-106,-106]",up,1,,,,,,001,2025-03-10_16h53.20.049,SL_base_41,2021.2.3,Win32,90.09009009,1.7803,,,14,0,14,0,1,,,,,,,,
,,"[""circle"",""green"",""vert"",""up"",[-106,-106],[0,-150]]",circle,green,vert,up,"[-106,-106]","[0,-150]",up,1,,,,,,001,2025-03-10_16h53.20.049,SL_base_41,2021.2.3,Win32,90.09009009,1.867,,,15,0,15,0,1,,,,,,,,
,,"[""circle"",""green"",""vert"",""up"",[106,106],[0,-150]]",circle,green,vert,up,"[106,106]","[0,-150]",up,1,,,,,,001,2025-03-10_16h53.20.049,SL_base_41,2021.2.3,Win32,90.09009009,1.8769,,,16,0,16,0,1,,,,,,,,
,,"[""circle"",""red"",""vert"",""up"",[-106,106],[-106,-106]]",circle,red,vert,up,"[-106,106]","[-106,-106]",up,1,,,,,,001,2025-03-10_16h53.20.049,SL_base_41,2021.2.3,Win32,90.09009009,1.7024,,,17,0,17,0,1,,,,,,,,
,,"[""diamond"",""red"",""hori"",""left"",[0,-150],[106,106]]",diamond,red,hori,left,"[0,-150]","[106,106]",left,1,,,,,,001,2025-03-10_16h53.20.049,SL_base_41,2021.2.3,Win32,90.09009009,2.1437,,,18,0,18,0,1,,,,,,,,
,,"[""circle"",""red"",""hori"",""left"",[106,106],[-150,0]]",circle,red,hori,left,"[106,106]","[-150,0]",left,1,,,,,,001,2025-03-10_16h53.20.049,SL_base_41,2021.2.3,Win32,90.09009009,1.6216,,,19,0,19,0,1,,,,,,,,
,,"[""diamond"",""red"",""hori"",""left"",[-150,0],[106,-106]]",diamond,red,hori,left,"[-150,0]","[106,-106]",left,1,,,,,,001,2025-03-10_16h53.20.049,SL_base_41,2021.2.3,Win32,90.09009009,1.3223,,,20,0,20,0,1,,,,,,,,
,,"[""circle"",""green"",""hori"",""left"",[106,106],[150,0]]",circle,green,hori,left,"[106,106]","[150,0]",left,1,,,,,,001,2025-03-10_16h53.20.049,SL_base_41,2021.2.3,Win32,90.09009009,1.769,,,21,0,21,0,1,,,,,,,,
,,"[""circle"",""red"",""hori"",""left"",[-106,106],[106,106]]",circle,red,hori,left,"[-106,106]","[106,106]",left,1,,,,,,001,2025-03-10_16h53.20.049,SL_base_41,2021.2.3,Win32,90.09009009,1.7663,,,22,0,22,0,1,,,,,,,,
,,"[""circle"",""green"",""hori"",""left"",[-150,0],[150,0]]",circle,green,hori,left,"[-150,0]","[150,0]",left,1,,,,,,001,2025-03-10_16h53.20.049,SL_base_41,2021.2.3,Win32,90.09009009,1.1781,,,23,0,23,0,1,,,,,,,,
,,"[""diamond"",""green"",""vert"",""up"",[-150,0],[106,106]]",diamond,green,vert,up,"[-150,0]","[106,106]",,0,,,,,,001,2025-03-10_16h53.20.049,SL_base_41,2021.2.3,Win32,90.09009009,,,,24,0,24,0,1,,,,,,,,
,,"[""diamond"",""no_dis"",""hori"",""left"",[99999,99999],[-106,-106]]",diamond,no_dis,hori,left,"[99999,99999]","[-106,-106]",left,1,,,,,,001,2025-03-10_16h53.20.049,SL_base_41,2021.2.3,Win32,90.09009009,1.6409,,,25,0,25,0,1,,,,,,,,
,,"[""circle"",""red"",""vert"",""up"",[-106,-106],[-150,0]]",circle,red,vert,up,"[-106,-106]","[-150,0]",up,1,,,,,,001,2025-03-10_16h53.20.049,SL_base_41,2021.2.3,Win32,90.09009009,2.2113,,,26,0,26,0,1,,,,,,,,
,,"[""diamond"",""no_dis"",""hori"",""left"",[99999,99999],[-106,106]]",diamond,no_dis,hori,left,"[99999,99999]","[-106,106]",left,1,,,,,,001,2025-03-10_16h53.20.049,SL_base_41,2021.2.3,Win32,90.09009009,1.9223,,,27,0,27,0,1,,,,,,,,
,,"[""circle"",""green"",""vert"",""up"",[106,106],[-150,0]]",circle,green,vert,up,"[106,106]","[-150,0]",up,1,,,,,,001,2025-03-10_16h53.20.049,SL_base_41,2021.2.3,Win32,90.09009009,1.5175,,,28,0,28,0,1,,,,,,,,
,,"[""circle"",""no_dis"",""vert"",""up"",[99999,99999],[-106,106]]",circle,no_dis,vert,up,"[99999,99999]","[-106,106]",up,1,,,,,,001,2025-03-10_16h53.20.049,SL_base_41,2021.2.3,Win32,90.09009009,1.6557,,,29,0,29,0,1,,,,,,,,
,,"[""diamond"",""green"",""vert"",""up"",[106,106],[-106,106]]",diamond,green,vert,up,"[106,106]","[-106,106]",up,1,,,,,,001,2025-03-10_16h53.20.049,SL_base_41,2021.2.3,Win32,90.09009009,1.9557,,,30,0,30,0,1,,,,,,,,
,,"[""circle"",""no_dis"",""vert"",""up"",[99999,99999],[0,-150]]",circle,no_dis,vert,up,"[99999,99999]","[0,-150]",up,1,,,,,,001,2025-03-10_16h53.20.049,SL_base_41,2021.2.3,Win32,90.09009009,2.6558,,,31,0,31,0,1,,,,,,,,
,,"[""circle"",""red"",""vert"",""up"",[-106,106],[0,150]]",circle,red,vert,up,"[-106,106]","[0,150]",up,1,,,,,,001,2025-03-10_16h53.20.049,SL_base_41,2021.2.3,Win32,90.09009009,1.7578,,,32,0,32,0,1,,,,,,,,
,,"[""circle"",""no_dis"",""vert"",""up"",[99999,99999],[106,106]]",circle,no_dis,vert,up,"[99999,99999]","[106,106]",up,1,,,,,,001,2025-03-10_16h53.20.049,SL_base_41,2021.2.3,Win32,90.09009009,1.6803,,,33,0,33,0,1,,,,,,,,
,,"[""circle"",""no_dis"",""vert"",""up"",[99999,99999],[106,-106]]",circle,no_dis,vert,up,"[99999,99999]","[106,-106]",up,1,,,,,,001,2025-03-10_16h53.20.049,SL_base_41,2021.2.3,Win32,90.09009009,1.3324,,,34,0,34,0,1,,,,,,,,
,,"[""circle"",""green"",""hori"",""left"",[0,-150],[-106,106]]",circle,green,hori,left,"[0,-150]","[-106,106]",left,1,,,,,,001,2025-03-10_16h53.20.049,SL_base_41,2021.2.3,Win32,90.09009009,2.0782,,,35,0,35,0,1,,,,,,,,
,,"[""diamond"",""green"",""hori"",""left"",[150,0],[106,-106]]",diamond,green,hori,left,"[150,0]","[106,-106]",left,1,,,,,,001,2025-03-10_16h53.20.049,SL_base_41,2021.2.3,Win32,90.09009009,2.7359,,,36,0,36,0,1,,,,,,,,
,,"[""diamond"",""green"",""hori"",""left"",[106,106],[0,150]]",diamond,green,hori,left,"[106,106]","[0,150]",left,1,,,,,,001,2025-03-10_16h53.20.049,SL_base_41,2021.2.3,Win32,90.09009009,1.8954,,,37,0,37,0,1,,,,,,,,
,,"[""diamond"",""green"",""vert"",""up"",[-106,-106],[106,106]]",diamond,green,vert,up,"[-106,-106]","[106,106]",up,1,,,,,,001,2025-03-10_16h53.20.049,SL_base_41,2021.2.3,Win32,90.09009009,1.3114,,,38,0,38,0,1,,,,,,,,
,,"[""diamond"",""green"",""vert"",""up"",[-106,-106],[-106,106]]",diamond,green,vert,up,"[-106,-106]","[-106,106]",up,1,,,,,,001,2025-03-10_16h53.20.049,SL_base_41,2021.2.3,Win32,90.09009009,1.2375,,,39,0,39,0,1,,,,,,,,
,,"[""circle"",""red"",""hori"",""left"",[106,106],[150,0]]",circle,red,hori,left,"[106,106]","[150,0]",left,1,,,,,,001,2025-03-10_16h53.20.049,SL_base_41,2021.2.3,Win32,90.09009009,1.488,,,40,0,40,0,1,,,,,,,,
,,"[""diamond"",""no_dis"",""hori"",""left"",[99999,99999],[-106,-106]]",diamond,no_dis,hori,left,"[99999,99999]","[-106,-106]",left,1,,,,,,001,2025-03-10_16h53.20.049,SL_base_41,2021.2.3,Win32,90.09009009,1.2804,,,41,0,41,0,1,,,,,,,,
,,"[""circle"",""red"",""hori"",""left"",[106,106],[0,150]]",circle,red,hori,left,"[106,106]","[0,150]",left,1,,,,,,001,2025-03-10_16h53.20.049,SL_base_41,2021.2.3,Win32,90.09009009,1.8253,,,42,0,42,0,1,,,,,,,,
,,"[""diamond"",""red"",""vert"",""up"",[106,106],[-150,0]]",diamond,red,vert,up,"[106,106]","[-150,0]",up,1,,,,,,001,2025-03-10_16h53.20.049,SL_base_41,2021.2.3,Win32,90.09009009,1.0685,,,43,0,43,0,1,,,,,,,,
,,"[""circle"",""green"",""vert"",""up"",[-106,-106],[0,-150]]",circle,green,vert,up,"[-106,-106]","[0,-150]",up,1,,,,,,001,2025-03-10_16h53.20.049,SL_base_41,2021.2.3,Win32,90.09009009,1.5324,,,44,0,44,0,1,,,,,,,,
,,"[""diamond"",""red"",""hori"",""left"",[0,-150],[-106,106]]",diamond,red,hori,left,"[0,-150]","[-106,106]",left,1,,,,,,001,2025-03-10_16h53.20.049,SL_base_41,2021.2.3,Win32,90.09009009,1.9115,,,45,0,45,0,1,,,,,,,,
,,"[""diamond"",""no_dis"",""vert"",""up"",[99999,99999],[106,-106]]",diamond,no_dis,vert,up,"[99999,99999]","[106,-106]",up,1,,,,,,001,2025-03-10_16h53.20.049,SL_base_41,2021.2.3,Win32,90.09009009,1.3714,,,46,0,46,0,1,,,,,,,,
,,"[""diamond"",""green"",""hori"",""left"",[-150,0],[0,150]]",diamond,green,hori,left,"[-150,0]","[0,150]",left,1,,,,,,001,2025-03-10_16h53.20.049,SL_base_41,2021.2.3,Win32,90.09009009,1.5661,,,47,0,47,0,1,,,,,,,,
,,"[""circle"",""red"",""hori"",""left"",[150,0],[-106,106]]",circle,red,hori,left,"[150,0]","[-106,106]",left,1,,,,,,001,2025-03-10_16h53.20.049,SL_base_41,2021.2.3,Win32,90.09009009,2.9115,,,48,0,48,0,1,,,,,,,,
,,"[""diamond"",""no_dis"",""hori"",""left"",[99999,99999],[0,150]]",diamond,no_dis,hori,left,"[99999,99999]","[0,150]",left,1,,,,,,001,2025-03-10_16h53.20.049,SL_base_41,2021.2.3,Win32,90.09009009,1.8002,,,49,0,49,0,1,,,,,,,,
,,"[""diamond"",""red"",""hori"",""left"",[150,0],[-106,106]]",diamond,red,hori,left,"[150,0]","[-106,106]",left,1,,,,,,001,2025-03-10_16h53.20.049,SL_base_41,2021.2.3,Win32,90.09009009,1.8681,,,50,0,50,0,1,,,,,,,,
,,"[""diamond"",""green"",""vert"",""up"",[106,-106],[106,106]]",diamond,green,vert,up,"[106,-106]","[106,106]",up,1,,,,,,001,2025-03-10_16h53.20.049,SL_base_41,2021.2.3,Win32,90.09009009,0.9114,,,51,0,51,0,1,,,,,,,,
,,"[""diamond"",""green"",""hori"",""left"",[0,150],[106,-106]]",diamond,green,hori,left,"[0,150]","[106,-106]",left,1,,,,,,001,2025-03-10_16h53.20.049,SL_base_41,2021.2.3,Win32,90.09009009,1.2994,,,52,0,52,0,1,,,,,,,,
,,"[""circle"",""no_dis"",""hori"",""left"",[99999,99999],[150,0]]",circle,no_dis,hori,left,"[99999,99999]","[150,0]",left,1,,,,,,001,2025-03-10_16h53.20.049,SL_base_41,2021.2.3,Win32,90.09009009,1.4113,,,53,0,53,0,1,,,,,,,,
,,"[""diamond"",""no_dis"",""vert"",""up"",[99999,99999],[106,106]]",diamond,no_dis,vert,up,"[99999,99999]","[106,106]",up,1,,,,,,001,2025-03-10_16h53.20.049,SL_base_41,2021.2.3,Win32,90.09009009,0.7838,,,54,0,54,0,1,,,,,,,,
,,"[""diamond"",""green"",""vert"",""up"",[0,-150],[-106,-106]]",diamond,green,vert,up,"[0,-150]","[-106,-106]",left,0,,,,,,001,2025-03-10_16h53.20.049,SL_base_41,2021.2.3,Win32,90.09009009,1.2779,,,55,0,55,0,1,,,,,,,,
,,"[""circle"",""red"",""hori"",""left"",[-106,106],[150,0]]",circle,red,hori,left,"[-106,106]","[150,0]",left,1,,,,,,001,2025-03-10_16h53.20.049,SL_base_41,2021.2.3,Win32,90.09009009,1.6556,,,56,0,56,0,1,,,,,,,,
,,"[""diamond"",""red"",""hori"",""left"",[0,150],[150,0]]",diamond,red,hori,left,"[0,150]","[150,0]",left,1,,,,,,001,2025-03-10_16h53.20.049,SL_base_41,2021.2.3,Win32,90.09009009,1.6548,,,57,0,57,0,1,,,,,,,,
,,"[""diamond"",""red"",""vert"",""up"",[0,-150],[106,-106]]",diamond,red,vert,up,"[0,-150]","[106,-106]",up,1,,,,,,001,2025-03-10_16h53.20.049,SL_base_41,2021.2.3,Win32,90.09009009,1.0781,,,58,0,58,0,1,,,,,,,,
,,"[""circle"",""green"",""hori"",""left"",[106,106],[0,150]]",circle,green,hori,left,"[106,106]","[0,150]",left,1,,,,,,001,2025-03-10_16h53.20.049,SL_base_41,2021.2.3,Win32,90.09009009,2.0125,,,59,0,59,0,1,,,,,,,,
,,"[""circle"",""no_dis"",""hori"",""left"",[99999,99999],[0,-150]]",circle,no_dis,hori,left,"[99999,99999]","[0,-150]",up,0,,,,,,001,2025-03-10_16h53.20.049,SL_base_41,2021.2.3,Win32,90.09009009,1.5557,,,60,0,60,0,1,,,,,,,,
,,"[""diamond"",""no_dis"",""vert"",""up"",[99999,99999],[0,150]]",diamond,no_dis,vert,up,"[99999,99999]","[0,150]",up,1,,,,,,001,2025-03-10_16h53.20.049,SL_base_41,2021.2.3,Win32,90.09009009,1.5586,,,61,0,61,0,1,,,,,,,,
,,"[""diamond"",""red"",""vert"",""up"",[0,-150],[0,150]]",diamond,red,vert,up,"[0,-150]","[0,150]",up,1,,,,,,001,2025-03-10_16h53.20.049,SL_base_41,2021.2.3,Win32,90.09009009,1.9042,,,62,0,62,0,1,,,,,,,,
,,"[""circle"",""red"",""hori"",""left"",[106,106],[150,0]]",circle,red,hori,left,"[106,106]","[150,0]",left,1,,,,,,001,2025-03-10_16h53.20.049,SL_base_41,2021.2.3,Win32,90.09009009,1.6335,,,63,0,63,0,1,,,,,,,,
,,"[""circle"",""red"",""vert"",""up"",[-150,0],[0,-150]]",circle,red,vert,up,"[-150,0]","[0,-150]",up,1,,,,,,001,2025-03-10_16h53.20.049,SL_base_41,2021.2.3,Win32,90.09009009,1.2465,,,64,0,64,0,1,,,,,,,,
,,"[""circle"",""green"",""vert"",""up"",[106,106],[-106,106]]",circle,green,vert,up,"[106,106]","[-106,106]",up,1,,,,,,001,2025-03-10_16h53.20.049,SL_base_41,2021.2.3,Win32,90.09009009,0.8558,,,65,0,65,0,1,,,,,,,,
,,"[""circle"",""red"",""hori"",""left"",[0,150],[150,0]]",circle,red,hori,left,"[0,150]","[150,0]",left,1,,,,,,001,2025-03-10_16h53.20.049,SL_base_41,2021.2.3,Win32,90.09009009,1.0214,,,66,0,66,0,1,,,,,,,,
,,"[""diamond"",""red"",""hori"",""left"",[-150,0],[106,106]]",diamond,red,hori,left,"[-150,0]","[106,106]",left,1,,,,,,001,2025-03-10_16h53.20.049,SL_base_41,2021.2.3,Win32,90.09009009,1.3337,,,67,0,67,0,1,,,,,,,,
,,"[""circle"",""no_dis"",""vert"",""up"",[99999,99999],[106,106]]",circle,no_dis,vert,up,"[99999,99999]","[106,106]",up,1,,,,,,001,2025-03-10_16h53.20.049,SL_base_41,2021.2.3,Win32,90.09009009,1.1379,,,68,0,68,0,1,,,,,,,,
,,"[""diamond"",""red"",""hori"",""left"",[150,0],[106,-106]]",diamond,red,hori,left,"[150,0]","[106,-106]",left,1,,,,,,001,2025-03-10_16h53.20.049,SL_base_41,2021.2.3,Win32,90.09009009,1.3667,,,69,0,69,0,1,,,,,,,,
,,"[""diamond"",""no_dis"",""vert"",""up"",[99999,99999],[150,0]]",diamond,no_dis,vert,up,"[99999,99999]","[150,0]",up,1,,,,,,001,2025-03-10_16h53.20.049,SL_base_41,2021.2.3,Win32,90.09009009,0.9559,,,70,0,70,0,1,,,,,,,,
,,"[""diamond"",""red"",""vert"",""up"",[106,106],[0,-150]]",diamond,red,vert,up,"[106,106]","[0,-150]",up,1,,,,,,001,2025-03-10_16h53.20.049,SL_base_41,2021.2.3,Win32,90.09009009,1.1182,,,71,0,71,0,1,,,,,,,,
,,"[""circle"",""no_dis"",""hori"",""left"",[99999,99999],[-106,106]]",circle,no_dis,hori,left,"[99999,99999]","[-106,106]",left,1,,,,,,001,2025-03-10_16h53.20.049,SL_base_41,2021.2.3,Win32,90.09009009,1.4678,,,72,0,72,0,1,,,,,,,,
,,"[""circle"",""no_dis"",""vert"",""up"",[99999,99999],[0,-150]]",circle,no_dis,vert,up,"[99999,99999]","[0,-150]",up,1,,,,,,001,2025-03-10_16h53.20.049,SL_base_41,2021.2.3,Win32,90.09009009,2.0336,,,73,0,73,0,1,,,,,,,,
,,"[""diamond"",""no_dis"",""hori"",""left"",[99999,99999],[-150,0]]",diamond,no_dis,hori,left,"[99999,99999]","[-150,0]",left,1,,,,,,001,2025-03-10_16h53.20.049,SL_base_41,2021.2.3,Win32,90.09009009,1.8245,,,74,0,74,0,1,,,,,,,,
,,"[""circle"",""green"",""hori"",""left"",[106,106],[150,0]]",circle,green,hori,left,"[106,106]","[150,0]",left,1,,,,,,001,2025-03-10_16h53.20.049,SL_base_41,2021.2.3,Win32,90.09009009,1.6113,,,75,0,75,0,1,,,,,,,,
,,"[""diamond"",""no_dis"",""vert"",""up"",[99999,99999],[0,150]]",diamond,no_dis,vert,up,"[99999,99999]","[0,150]",up,1,,,,,,001,2025-03-10_16h53.20.049,SL_base_41,2021.2.3,Win32,90.09009009,1.3668,,,76,0,76,0,1,,,,,,,,
,,"[""diamond"",""green"",""hori"",""left"",[106,106],[-106,106]]",diamond,green,hori,left,"[106,106]","[-106,106]",left,1,,,,,,001,2025-03-10_16h53.20.049,SL_base_41,2021.2.3,Win32,90.09009009,1.3558,,,77,0,77,0,1,,,,,,,,
,,"[""circle"",""green"",""vert"",""up"",[0,150],[-106,106]]",circle,green,vert,up,"[0,150]","[-106,106]",up,1,,,,,,001,2025-03-10_16h53.20.049,SL_base_41,2021.2.3,Win32,90.09009009,2.4847,,,78,0,78,0,1,,,,,,,,
,,"[""circle"",""red"",""vert"",""up"",[106,-106],[0,150]]",circle,red,vert,up,"[106,-106]","[0,150]",up,1,,,,,,001,2025-03-10_16h53.20.049,SL_base_41,2021.2.3,Win32,90.09009009,2.1285,,,79,0,79,0,1,,,,,,,,
,,"[""circle"",""green"",""vert"",""up"",[0,150],[150,0]]",circle,green,vert,up,"[0,150]","[150,0]",up,1,,,,,,001,2025-03-10_16h53.20.049,SL_base_41,2021.2.3,Win32,90.09009009,1.099,,,80,0,80,0,1,,,,,,,,
,,"[""diamond"",""red"",""hori"",""left"",[106,106],[0,150]]",diamond,red,hori,left,"[106,106]","[0,150]",left,1,,,,,,001,2025-03-10_16h53.20.049,SL_base_41,2021.2.3,Win32,90.09009009,1.4557,,,81,0,81,0,1,,,,,,,,
,,"[""diamond"",""green"",""vert"",""up"",[106,106],[0,150]]",diamond,green,vert,up,"[106,106]","[0,150]",up,1,,,,,,001,2025-03-10_16h53.20.049,SL_base_41,2021.2.3,Win32,90.09009009,1.9114,,,82,0,82,0,1,,,,,,,,
,,"[""diamond"",""no_dis"",""vert"",""up"",[99999,99999],[-106,106]]",diamond,no_dis,vert,up,"[99999,99999]","[-106,106]",up,1,,,,,,001,2025-03-10_16h53.20.049,SL_base_41,2021.2.3,Win32,90.09009009,1.3362,,,83,0,83,0,1,,,,,,,,
,,"[""circle"",""green"",""hori"",""left"",[-150,0],[0,-150]]",circle,green,hori,left,"[-150,0]","[0,-150]",left,1,,,,,,001,2025-03-10_16h53.20.049,SL_base_41,2021.2.3,Win32,90.09009009,1.5557,,,84,0,84,0,1,,,,,,,,
,,"[""diamond"",""no_dis"",""vert"",""up"",[99999,99999],[0,-150]]",diamond,no_dis,vert,up,"[99999,99999]","[0,-150]",up,1,,,,,,001,2025-03-10_16h53.20.049,SL_base_41,2021.2.3,Win32,90.09009009,1.3267,,,85,0,85,0,1,,,,,,,,
,,"[""circle"",""no_dis"",""hori"",""left"",[99999,99999],[0,150]]",circle,no_dis,hori,left,"[99999,99999]","[0,150]",left,1,,,,,,001,2025-03-10_16h53.20.049,SL_base_41,2021.2.3,Win32,90.09009009,1.3226,,,86,0,86,0,1,,,,,,,,
,,"[""diamond"",""no_dis"",""hori"",""left"",[99999,99999],[150,0]]",diamond,no_dis,hori,left,"[99999,99999]","[150,0]",left,1,,,,,,001,2025-03-10_16h53.20.049,SL_base_41,2021.2.3,Win32,90.09009009,1.3597,,,87,0,87,0,1,,,,,,,,
,,"[""diamond"",""green"",""vert"",""up"",[150,0],[0,150]]",diamond,green,vert,up,"[150,0]","[0,150]",up,1,,,,,,001,2025-03-10_16h53.20.049,SL_base_41,2021.2.3,Win32,90.09009009,1.5,,,88,0,88,0,1,,,,,,,,
,,"[""circle"",""green"",""hori"",""left"",[0,-150],[106,106]]",circle,green,hori,left,"[0,-150]","[106,106]",left,1,,,,,,001,2025-03-10_16h53.20.049,SL_base_41,2021.2.3,Win32,90.09009009,2.4715,,,89,0,89,0,1,,,,,,,,
,,"[""diamond"",""green"",""hori"",""left"",[-106,106],[106,106]]",diamond,green,hori,left,"[-106,106]","[106,106]",left,1,,,,,,001,2025-03-10_16h53.20.049,SL_base_41,2021.2.3,Win32,90.09009009,2.4448,,,90,0,90,0,1,,,,,,,,
,,"[""diamond"",""red"",""vert"",""up"",[106,-106],[-106,106]]",diamond,red,vert,up,"[106,-106]","[-106,106]",up,1,,,,,,001,2025-03-10_16h53.20.049,SL_base_41,2021.2.3,Win32,90.09009009,1.8781,,,91,0,91,0,1,,,,,,,,
,,"[""circle"",""red"",""vert"",""up"",[106,106],[-106,-106]]",circle,red,vert,up,"[106,106]","[-106,-106]",up,1,,,,,,001,2025-03-10_16h53.20.049,SL_base_41,2021.2.3,Win32,90.09009009,1.6781,,,92,0,92,0,1,,,,,,,,
,,"[""diamond"",""red"",""vert"",""up"",[106,106],[106,-106]]",diamond,red,vert,up,"[106,106]","[106,-106]",up,1,,,,,,001,2025-03-10_16h53.20.049,SL_base_41,2021.2.3,Win32,90.09009009,1.9446,,,93,0,93,0,1,,,,,,,,
,,"[""circle"",""green"",""hori"",""left"",[106,106],[-106,-106]]",circle,green,hori,left,"[106,106]","[-106,-106]",left,1,,,,,,001,2025-03-10_16h53.20.049,SL_base_41,2021.2.3,Win32,90.09009009,2.0061,,,94,0,94,0,1,,,,,,,,
,,"[""diamond"",""no_dis"",""hori"",""left"",[99999,99999],[-106,-106]]",diamond,no_dis,hori,left,"[99999,99999]","[-106,-106]",left,1,,,,,,001,2025-03-10_16h53.20.049,SL_base_41,2021.2.3,Win32,90.09009009,1.5579,,,95,0,95,0,1,,,,,,,,
,,"[""circle"",""red"",""vert"",""up"",[106,106],[-106,-106]]",circle,red,vert,up,"[106,106]","[-106,-106]",up,1,,,,,,001,2025-03-10_16h53.20.049,SL_base_41,2021.2.3,Win32,90.09009009,1.4324,,,96,0,96,0,1,,,,,,,,
,,"[""diamond"",""green"",""hori"",""left"",[-106,106],[0,-150]]",diamond,green,hori,left,"[-106,106]","[0,-150]",left,1,,,,,,001,2025-03-10_16h53.20.049,SL_base_41,2021.2.3,Win32,90.09009009,1.4589,,,97,0,97,0,1,,,,,,,,
,,"[""diamond"",""green"",""vert"",""up"",[-106,-106],[150,0]]",diamond,green,vert,up,"[-106,-106]","[150,0]",up,1,,,,,,001,2025-03-10_16h53.20.049,SL_base_41,2021.2.3,Win32,90.09009009,1.6668,,,98,0,98,0,1,,,,,,,,
,,"[""circle"",""no_dis"",""hori"",""left"",[99999,99999],[-150,0]]",circle,no_dis,hori,left,"[99999,99999]","[-150,0]",left,1,,,,,,001,2025-03-10_16h53.20.049,SL_base_41,2021.2.3,Win32,90.09009009,1.5283,,,99,0,99,0,1,,,,,,,,
,,"[""diamond"",""green"",""hori"",""left"",[106,106],[0,150]]",diamond,green,hori,left,"[106,106]","[0,150]",left,1,,,,,,001,2025-03-10_16h53.20.049,SL_base_41,2021.2.3,Win32,90.09009009,1.2225,,,100,0,100,0,1,,,,,,,,
,,"[""diamond"",""green"",""hori"",""left"",[106,106],[106,-106]]",diamond,green,hori,left,"[106,106]","[106,-106]",left,1,,,,,,001,2025-03-10_16h53.20.049,SL_base_41,2021.2.3,Win32,90.09009009,1.3004,,,101,0,101,0,1,,,,,,,,
,,"[""circle"",""no_dis"",""hori"",""left"",[99999,99999],[106,-106]]",circle,no_dis,hori,left,"[99999,99999]","[106,-106]",left,1,,,,,,001,2025-03-10_16h53.20.049,SL_base_41,2021.2.3,Win32,90.09009009,1.5222,,,102,0,102,0,1,,,,,,,,
,,"[""circle"",""red"",""vert"",""up"",[0,150],[0,-150]]",circle,red,vert,up,"[0,150]","[0,-150]",up,1,,,,,,001,2025-03-10_16h53.20.049,SL_base_41,2021.2.3,Win32,90.09009009,1.2335,,,103,0,103,0,1,,,,,,,,
,,"[""diamond"",""red"",""hori"",""left"",[-150,0],[150,0]]",diamond,red,hori,left,"[-150,0]","[150,0]",left,1,,,,,,001,2025-03-10_16h53.20.049,SL_base_41,2021.2.3,Win32,90.09009009,0.8153,,,104,0,104,0,1,,,,,,,,
,,"[""diamond"",""no_dis"",""hori"",""left"",[99999,99999],[150,0]]",diamond,no_dis,hori,left,"[99999,99999]","[150,0]",left,1,,,,,,001,2025-03-10_16h53.20.049,SL_base_41,2021.2.3,Win32,90.09009009,1.5889,,,105,0,105,0,1,,,,,,,,
,,"[""diamond"",""red"",""hori"",""left"",[106,-106],[0,150]]",diamond,red,hori,left,"[106,-106]","[0,150]",left,1,,,,,,001,2025-03-10_16h53.20.049,SL_base_41,2021.2.3,Win32,90.09009009,1.2113,,,106,0,106,0,1,,,,,,,,
,,"[""diamond"",""no_dis"",""vert"",""up"",[99999,99999],[0,-150]]",diamond,no_dis,vert,up,"[99999,99999]","[0,-150]",up,1,,,,,,001,2025-03-10_16h53.20.049,SL_base_41,2021.2.3,Win32,90.09009009,0.9556,,,107,0,107,0,1,,,,,,,,
,,"[""diamond"",""red"",""hori"",""left"",[106,106],[-150,0]]",diamond,red,hori,left,"[106,106]","[-150,0]",left,1,,,,,,001,2025-03-10_16h53.20.049,SL_base_41,2021.2.3,Win32,90.09009009,1.4008,,,108,0,108,0,1,,,,,,,,
,,"[""circle"",""no_dis"",""vert"",""up"",[99999,99999],[-150,0]]",circle,no_dis,vert,up,"[99999,99999]","[-150,0]",up,1,,,,,,001,2025-03-10_16h53.20.049,SL_base_41,2021.2.3,Win32,90.09009009,1.5226,,,109,0,109,0,1,,,,,,,,
,,"[""diamond"",""no_dis"",""hori"",""left"",[99999,99999],[0,150]]",diamond,no_dis,hori,left,"[99999,99999]","[0,150]",left,1,,,,,,001,2025-03-10_16h53.20.049,SL_base_41,2021.2.3,Win32,90.09009009,1.0022,,,110,0,110,0,1,,,,,,,,
,,"[""circle"",""no_dis"",""vert"",""up"",[99999,99999],[-150,0]]",circle,no_dis,vert,up,"[99999,99999]","[-150,0]",up,1,,,,,,001,2025-03-10_16h53.20.049,SL_base_41,2021.2.3,Win32,90.09009009,1.4222,,,111,0,111,0,1,,,,,,,,
,,"[""circle"",""green"",""vert"",""up"",[-106,106],[150,0]]",circle,green,vert,up,"[-106,106]","[150,0]",up,1,,,,,,001,2025-03-10_16h53.20.049,SL_base_41,2021.2.3,Win32,90.09009009,1.2113,,,112,0,112,0,1,,,,,,,,
,,"[""diamond"",""green"",""hori"",""left"",[150,0],[106,106]]",diamond,green,hori,left,"[150,0]","[106,106]",left,1,,,,,,001,2025-03-10_16h53.20.049,SL_base_41,2021.2.3,Win32,90.09009009,1.0271,,,113,0,113,0,1,,,,,,,,
,,"[""circle"",""green"",""vert"",""up"",[-106,-106],[106,106]]",circle,green,vert,up,"[-106,-106]","[106,106]",up,1,,,,,,001,2025-03-10_16h53.20.049,SL_base_41,2021.2.3,Win32,90.09009009,1.3942,,,114,0,114,0,1,,,,,,,,
,,"[""diamond"",""red"",""vert"",""up"",[106,106],[150,0]]",diamond,red,vert,up,"[106,106]","[150,0]",up,1,,,,,,001,2025-03-10_16h53.20.049,SL_base_41,2021.2.3,Win32,90.09009009,1.0438,,,115,0,115,0,1,,,,,,,,
,,"[""circle"",""red"",""hori"",""left"",[106,106],[106,-106]]",circle,red,hori,left,"[106,106]","[106,-106]",left,1,,,,,,001,2025-03-10_16h53.20.049,SL_base_41,2021.2.3,Win32,90.09009009,1.5578,,,116,0,116,0,1,,,,,,,,
,,"[""circle"",""no_dis"",""hori"",""left"",[99999,99999],[-106,-106]]",circle,no_dis,hori,left,"[99999,99999]","[-106,-106]",left,1,,,,,,001,2025-03-10_16h53.20.049,SL_base_41,2021.2.3,Win32,90.09009009,1.4447,,,117,0,117,0,1,,,,,,,,
,,"[""circle"",""red"",""hori"",""left"",[106,-106],[0,150]]",circle,red,hori,left,"[106,-106]","[0,150]",left,1,,,,,,001,2025-03-10_16h53.20.049,SL_base_41,2021.2.3,Win32,90.09009009,1.5558,,,118,0,118,0,1,,,,,,,,
,,"[""circle"",""red"",""hori"",""left"",[0,150],[-106,106]]",circle,red,hori,left,"[0,150]","[-106,106]",left,1,,,,,,001,2025-03-10_16h53.20.049,SL_base_41,2021.2.3,Win32,90.09009009,1.4132,,,119,0,119,0,1,,,,,,,,
,,"[""circle"",""green"",""vert"",""up"",[-106,106],[-150,0]]",circle,green,vert,up,"[-106,106]","[-150,0]",up,1,,,,,,001,2025-03-10_16h53.20.049,SL_base_41,2021.2.3,Win32,90.09009009,2.1355,,,120,0,120,0,1,,,,,,,,
,,"[""circle"",""no_dis"",""vert"",""up"",[99999,99999],[106,106]]",circle,no_dis,vert,up,"[99999,99999]","[106,106]",up,1,,,,,,001,2025-03-10_16h53.20.049,SL_base_41,2021.2.3,Win32,90.09009009,1.1447,,,121,0,121,0,1,,,,,,,,
,,"[""circle"",""red"",""vert"",""up"",[-106,-106],[106,-106]]",circle,red,vert,up,"[-106,-106]","[106,-106]",up,1,,,,,,001,2025-03-10_16h53.20.049,SL_base_41,2021.2.3,Win32,90.09009009,1.0065,,,122,0,122,0,1,,,,,,,,
,,"[""diamond"",""no_dis"",""vert"",""up"",[99999,99999],[-106,106]]",diamond,no_dis,vert,up,"[99999,99999]","[-106,106]",up,1,,,,,,001,2025-03-10_16h53.20.049,SL_base_41,2021.2.3,Win32,90.09009009,1.5799,,,123,0,123,0,1,,,,,,,,
,,"[""circle"",""red"",""vert"",""up"",[106,-106],[150,0]]",circle,red,vert,up,"[106,-106]","[150,0]",up,1,,,,,,001,2025-03-10_16h53.20.049,SL_base_41,2021.2.3,Win32,90.09009009,2.2449,,,124,0,124,0,1,,,,,,,,
,,"[""diamond"",""red"",""vert"",""up"",[150,0],[106,-106]]",diamond,red,vert,up,"[150,0]","[106,-106]",up,1,,,,,,001,2025-03-10_16h53.20.049,SL_base_41,2021.2.3,Win32,90.09009009,1.4226,,,125,0,125,0,1,,,,,,,,
,,"[""circle"",""green"",""hori"",""left"",[106,106],[106,-106]]",circle,green,hori,left,"[106,106]","[106,-106]",left,1,,,,,,001,2025-03-10_16h53.20.049,SL_base_41,2021.2.3,Win32,90.09009009,1.3781,,,126,0,126,0,1,,,,,,,,
,,"[""diamond"",""red"",""vert"",""up"",[150,0],[0,-150]]",diamond,red,vert,up,"[150,0]","[0,-150]",up,1,,,,,,001,2025-03-10_16h53.20.049,SL_base_41,2021.2.3,Win32,90.09009009,1.5446,,,127,0,127,0,1,,,,,,,,
,,,,,,,,,,,,,,,,001,2025-03-10_16h53.20.049,SL_base_41,2021.2.3,Win32,90.09009009,,,,,,,,,3,space,56.3668,2,0,2,0,1
,,"[""diamond"",""red"",""hori"",""left"",[0,-150],[106,106]]",diamond,red,hori,left,"[0,-150]","[106,106]",left,1,,,,,,001,2025-03-10_16h53.20.049,SL_base_41,2021.2.3,Win32,90.09009009,2.7183,,,0,0,0,0,1,,,,,,,,
,,"[""diamond"",""no_dis"",""vert"",""up"",[99999,99999],[0,150]]",diamond,no_dis,vert,up,"[99999,99999]","[0,150]",up,1,,,,,,001,2025-03-10_16h53.20.049,SL_base_41,2021.2.3,Win32,90.09009009,2.5244,,,1,0,1,0,1,,,,,,,,
,,"[""circle"",""red"",""hori"",""left"",[-106,106],[106,106]]",circle,red,hori,left,"[-106,106]","[106,106]",left,1,,,,,,001,2025-03-10_16h53.20.049,SL_base_41,2021.2.3,Win32,90.09009009,2.4576,,,2,0,2,0,1,,,,,,,,
,,"[""diamond"",""green"",""vert"",""up"",[-106,-106],[106,106]]",diamond,green,vert,up,"[-106,-106]","[106,106]",up,1,,,,,,001,2025-03-10_16h53.20.049,SL_base_41,2021.2.3,Win32,90.09009009,2.478,,,3,0,3,0,1,,,,,,,,
,,"[""diamond"",""green"",""vert"",""up"",[150,0],[0,150]]",diamond,green,vert,up,"[150,0]","[0,150]",up,1,,,,,,001,2025-03-10_16h53.20.049,SL_base_41,2021.2.3,Win32,90.09009009,1.8002,,,4,0,4,0,1,,,,,,,,
,,"[""diamond"",""red"",""hori"",""left"",[-150,0],[106,-106]]",diamond,red,hori,left,"[-150,0]","[106,-106]",left,1,,,,,,001,2025-03-10_16h53.20.049,SL_base_41,2021.2.3,Win32,90.09009009,1.1992,,,5,0,5,0,1,,,,,,,,
,,"[""diamond"",""no_dis"",""hori"",""left"",[99999,99999],[0,150]]",diamond,no_dis,hori,left,"[99999,99999]","[0,150]",left,1,,,,,,001,2025-03-10_16h53.20.049,SL_base_41,2021.2.3,Win32,90.09009009,1.7335,,,6,0,6,0,1,,,,,,,,
,,"[""diamond"",""green"",""hori"",""left"",[106,106],[106,-106]]",diamond,green,hori,left,"[106,106]","[106,-106]",left,1,,,,,,001,2025-03-10_16h53.20.049,SL_base_41,2021.2.3,Win32,90.09009009,1.2518,,,7,0,7,0,1,,,,,,,,
,,"[""circle"",""no_dis"",""hori"",""left"",[99999,99999],[106,-106]]",circle,no_dis,hori,left,"[99999,99999]","[106,-106]",left,1,,,,,,001,2025-03-10_16h53.20.049,SL_base_41,2021.2.3,Win32,90.09009009,1.9469,,,8,0,8,0,1,,,,,,,,
,,"[""diamond"",""red"",""vert"",""up"",[106,106],[106,-106]]",diamond,red,vert,up,"[106,106]","[106,-106]",up,1,,,,,,001,2025-03-10_16h53.20.049,SL_base_41,2021.2.3,Win32,90.09009009,1.8911,,,9,0,9,0,1,,,,,,,,
,,"[""circle"",""red"",""vert"",""up"",[106,106],[-106,-106]]",circle,red,vert,up,"[106,106]","[-106,-106]",up,1,,,,,,001,2025-03-10_16h53.20.049,SL_base_41,2021.2.3,Win32,90.09009009,1.3166,,,10,0,10,0,1,,,,,,,,
,,"[""circle"",""red"",""vert"",""up"",[-106,106],[0,150]]",circle,red,vert,up,"[-106,106]","[0,150]",up,1,,,,,,001,2025-03-10_16h53.20.049,SL_base_41,2021.2.3,Win32,90.09009009,1.6133,,,11,0,11,0,1,,,,,,,,
,,"[""diamond"",""no_dis"",""vert"",""up"",[99999,99999],[0,-150]]",diamond,no_dis,vert,up,"[99999,99999]","[0,-150]",up,1,,,,,,001,2025-03-10_16h53.20.049,SL_base_41,2021.2.3,Win32,90.09009009,1.2225,,,12,0,12,0,1,,,,,,,,
,,"[""diamond"",""green"",""hori"",""left"",[150,0],[106,106]]",diamond,green,hori,left,"[150,0]","[106,106]",left,1,,,,,,001,2025-03-10_16h53.20.049,SL_base_41,2021.2.3,Win32,90.09009009,1.2437,,,13,0,13,0,1,,,,,,,,
,,"[""circle"",""red"",""vert"",""up"",[0,150],[0,-150]]",circle,red,vert,up,"[0,150]","[0,-150]",up,1,,,,,,001,2025-03-10_16h53.20.049,SL_base_41,2021.2.3,Win32,90.09009009,1.0001,,,14,0,14,0,1,,,,,,,,
,,"[""diamond"",""no_dis"",""vert"",""up"",[99999,99999],[106,-106]]",diamond,no_dis,vert,up,"[99999,99999]","[106,-106]",up,1,,,,,,001,2025-03-10_16h53.20.049,SL_base_41,2021.2.3,Win32,90.09009009,1.461,,,15,0,15,0,1,,,,,,,,
,,"[""circle"",""no_dis"",""vert"",""up"",[99999,99999],[0,-150]]",circle,no_dis,vert,up,"[99999,99999]","[0,-150]",up,1,,,,,,001,2025-03-10_16h53.20.049,SL_base_41,2021.2.3,Win32,90.09009009,1.2435,,,16,0,16,0,1,,,,,,,,
,,"[""diamond"",""red"",""vert"",""up"",[0,-150],[106,-106]]",diamond,red,vert,up,"[0,-150]","[106,-106]",up,1,,,,,,001,2025-03-10_16h53.20.049,SL_base_41,2021.2.3,Win32,90.09009009,2.1113,,,17,0,17,0,1,,,,,,,,
,,"[""diamond"",""no_dis"",""hori"",""left"",[99999,99999],[150,0]]",diamond,no_dis,hori,left,"[99999,99999]","[150,0]",left,1,,,,,,001,2025-03-10_16h53.20.049,SL_base_41,2021.2.3,Win32,90.09009009,1.4779,,,18,0,18,0,1,,,,,,,,
,,"[""circle"",""red"",""hori"",""left"",[0,150],[-106,106]]",circle,red,hori,left,"[0,150]","[-106,106]",left,1,,,,,,001,2025-03-10_16h53.20.049,SL_base_41,2021.2.3,Win32,90.09009009,1.567,,,19,0,19,0,1,,,,,,,,
,,"[""circle"",""red"",""hori"",""left"",[150,0],[-106,106]]",circle,red,hori,left,"[150,0]","[-106,106]",left,1,,,,,,001,2025-03-10_16h53.20.049,SL_base_41,2021.2.3,Win32,90.09009009,1.3631,,,20,0,20,0,1,,,,,,,,
,,"[""circle"",""no_dis"",""vert"",""up"",[99999,99999],[106,106]]",circle,no_dis,vert,up,"[99999,99999]","[106,106]",up,1,,,,,,001,2025-03-10_16h53.20.049,SL_base_41,2021.2.3,Win32,90.09009009,1.402,,,21,0,21,0,1,,,,,,,,
,,"[""circle"",""green"",""hori"",""left"",[0,150],[0,-150]]",circle,green,hori,left,"[0,150]","[0,-150]",left,1,,,,,,001,2025-03-10_16h53.20.049,SL_base_41,2021.2.3,Win32,90.09009009,1.6558,,,22,0,22,0,1,,,,,,,,
,,"[""diamond"",""red"",""vert"",""up"",[106,-106],[-106,-106]]",diamond,red,vert,up,"[106,-106]","[-106,-106]",up,1,,,,,,001,2025-03-10_16h53.20.049,SL_base_41,2021.2.3,Win32,90.09009009,1.689,,,23,0,23,0,1,,,,,,,,
,,"[""diamond"",""red"",""vert"",""up"",[106,106],[150,0]]",diamond,red,vert,up,"[106,106]","[150,0]",up,1,,,,,,001,2025-03-10_16h53.20.049,SL_base_41,2021.2.3,Win32,90.09009009,1.9558,,,24,0,24,0,1,,,,,,,,
,,"[""diamond"",""no_dis"",""vert"",""up"",[99999,99999],[-106,106]]",diamond,no_dis,vert,up,"[99999,99999]","[-106,106]",up,1,,,,,,001,2025-03-10_16h53.20.049,SL_base_41,2021.2.3,Win32,90.09009009,1.1659,,,25,0,25,0,1,,,,,,,,
,,"[""circle"",""red"",""vert"",""up"",[-150,0],[0,-150]]",circle,red,vert,up,"[-150,0]","[0,-150]",up,1,,,,,,001,2025-03-10_16h53.20.049,SL_base_41,2021.2.3,Win32,90.09009009,1.9398,,,26,0,26,0,1,,,,,,,,
,,"[""circle"",""no_dis"",""hori"",""left"",[99999,99999],[150,0]]",circle,no_dis,hori,left,"[99999,99999]","[150,0]",left,1,,,,,,001,2025-03-10_16h53.20.049,SL_base_41,2021.2.3,Win32,90.09009009,1.2521,,,27,0,27,0,1,,,,,,,,
,,"[""diamond"",""no_dis"",""hori"",""left"",[99999,99999],[0,150]]",diamond,no_dis,hori,left,"[99999,99999]","[0,150]",left,1,,,,,,001,2025-03-10_16h53.20.049,SL_base_41,2021.2.3,Win32,90.09009009,1.4221,,,28,0,28,0,1,,,,,,,,
,,"[""circle"",""green"",""vert"",""up"",[-106,-106],[106,106]]",circle,green,vert,up,"[-106,-106]","[106,106]",up,1,,,,,,001,2025-03-10_16h53.20.049,SL_base_41,2021.2.3,Win32,90.09009009,1.2622,,,29,0,29,0,1,,,,,,,,
,,"[""circle"",""red"",""vert"",""up"",[-106,-106],[106,-106]]",circle,red,vert,up,"[-106,-106]","[106,-106]",up,1,,,,,,001,2025-03-10_16h53.20.049,SL_base_41,2021.2.3,Win32,90.09009009,1.5114,,,30,0,30,0,1,,,,,,,,
,,"[""diamond"",""green"",""vert"",""up"",[106,-106],[106,106]]",diamond,green,vert,up,"[106,-106]","[106,106]",up,1,,,,,,001,2025-03-10_16h53.20.049,SL_base_41,2021.2.3,Win32,90.09009009,1.6334,,,31,0,31,0,1,,,,,,,,
,,"[""diamond"",""green"",""hori"",""left"",[106,106],[0,150]]",diamond,green,hori,left,"[106,106]","[0,150]",left,1,,,,,,001,2025-03-10_16h53.20.049,SL_base_41,2021.2.3,Win32,90.09009009,2.1711,,,32,0,32,0,1,,,,,,,,
,,"[""diamond"",""green"",""hori"",""left"",[150,0],[106,-106]]",diamond,green,hori,left,"[150,0]","[106,-106]",left,1,,,,,,001,2025-03-10_16h53.20.049,SL_base_41,2021.2.3,Win32,90.09009009,1.6336,,,33,0,33,0,1,,,,,,,,
,,"[""diamond"",""green"",""vert"",""up"",[-106,-106],[150,0]]",diamond,green,vert,up,"[-106,-106]","[150,0]",up,1,,,,,,001,2025-03-10_16h53.20.049,SL_base_41,2021.2.3,Win32,90.09009009,1.0222,,,34,0,34,0,1,,,,,,,,
,,"[""diamond"",""green"",""hori"",""left"",[-106,106],[0,-150]]",diamond,green,hori,left,"[-106,106]","[0,-150]",left,1,,,,,,001,2025-03-10_16h53.20.049,SL_base_41,2021.2.3,Win32,90.09009009,1.7113,,,35,0,35,0,1,,,,,,,,
,,"[""diamond"",""no_dis"",""hori"",""left"",[99999,99999],[-106,-106]]",diamond,no_dis,hori,left,"[99999,99999]","[-106,-106]",left,1,,,,,,001,2025-03-10_16h53.20.049,SL_base_41,2021.2.3,Win32,90.09009009,1.5327,,,36,0,36,0,1,,,,,,,,
,,"[""circle"",""green"",""hori"",""left"",[106,106],[150,0]]",circle,green,hori,left,"[106,106]","[150,0]",left,1,,,,,,001,2025-03-10_16h53.20.049,SL_base_41,2021.2.3,Win32,90.09009009,1.6002,,,37,0,37,0,1,,,,,,,,
,,"[""diamond"",""red"",""vert"",""up"",[150,0],[106,-106]]",diamond,red,vert,up,"[150,0]","[106,-106]",up,1,,,,,,001,2025-03-10_16h53.20.049,SL_base_41,2021.2.3,Win32,90.09009009,1.3034,,,38,0,38,0,1,,,,,,,,
,,"[""circle"",""red"",""hori"",""left"",[-106,106],[150,0]]",circle,red,hori,left,"[-106,106]","[150,0]",left,1,,,,,,001,2025-03-10_16h53.20.049,SL_base_41,2021.2.3,Win32,90.09009009,1.4012,,,39,0,39,0,1,,,,,,,,
,,"[""circle"",""red"",""vert"",""up"",[-106,106],[-106,-106]]",circle,red,vert,up,"[-106,106]","[-106,-106]",up,1,,,,,,001,2025-03-10_16h53.20.049,SL_base_41,2021.2.3,Win32,90.09009009,1.4781,,,40,0,40,0,1,,,,,,,,
,,"[""circle"",""green"",""hori"",""left"",[106,106],[106,-106]]",circle,green,hori,left,"[106,106]","[106,-106]",left,1,,,,,,001,2025-03-10_16h53.20.049,SL_base_41,2021.2.3,Win32,90.09009009,0.9788,,,41,0,41,0,1,,,,,,,,
,,"[""diamond"",""green"",""hori"",""left"",[106,106],[-106,106]]",diamond,green,hori,left,"[106,106]","[-106,106]",left,1,,,,,,001,2025-03-10_16h53.20.049,SL_base_41,2021.2.3,Win32,90.09009009,1.7668,,,42,0,42,0,1,,,,,,,,
,,"[""circle"",""green"",""hori"",""left"",[106,106],[150,0]]",circle,green,hori,left,"[106,106]","[150,0]",left,1,,,,,,001,2025-03-10_16h53.20.049,SL_base_41,2021.2.3,Win32,90.09009009,1.2941,,,43,0,43,0,1,,,,,,,,
,,"[""diamond"",""red"",""vert"",""up"",[0,-150],[0,150]]",diamond,red,vert,up,"[0,-150]","[0,150]",up,1,,,,,,001,2025-03-10_16h53.20.049,SL_base_41,2021.2.3,Win32,90.09009009,1.189,,,44,0,44,0,1,,,,,,,,
,,"[""circle"",""red"",""hori"",""left"",[0,150],[150,0]]",circle,red,hori,left,"[0,150]","[150,0]",left,1,,,,,,001,2025-03-10_16h53.20.049,SL_base_41,2021.2.3,Win32,90.09009009,1.3558,,,45,0,45,0,1,,,,,,,,
,,"[""diamond"",""green"",""hori"",""left"",[106,106],[0,150]]",diamond,green,hori,left,"[106,106]","[0,150]",left,1,,,,,,001,2025-03-10_16h53.20.049,SL_base_41,2021.2.3,Win32,90.09009009,1.444,,,46,0,46,0,1,,,,,,,,
,,"[""diamond"",""red"",""hori"",""left"",[150,0],[-106,106]]",diamond,red,hori,left,"[150,0]","[-106,106]",left,1,,,,,,001,2025-03-10_16h53.20.049,SL_base_41,2021.2.3,Win32,90.09009009,1.6113,,,47,0,47,0,1,,,,,,,,
,,"[""circle"",""green"",""vert"",""up"",[106,106],[-106,-106]]",circle,green,vert,up,"[106,106]","[-106,-106]",up,1,,,,,,001,2025-03-10_16h53.20.049,SL_base_41,2021.2.3,Win32,90.09009009,1.1256,,,48,0,48,0,1,,,,,,,,
,,"[""circle"",""no_dis"",""vert"",""up"",[99999,99999],[106,-106]]",circle,no_dis,vert,up,"[99999,99999]","[106,-106]",up,1,,,,,,001,2025-03-10_16h53.20.049,SL_base_41,2021.2.3,Win32,90.09009009,1.5669,,,49,0,49,0,1,,,,,,,,
,,"[""circle"",""no_dis"",""hori"",""left"",[99999,99999],[0,150]]",circle,no_dis,hori,left,"[99999,99999]","[0,150]",left,1,,,,,,001,2025-03-10_16h53.20.049,SL_base_41,2021.2.3,Win32,90.09009009,1.5012,,,50,0,50,0,1,,,,,,,,
,,"[""diamond"",""no_dis"",""vert"",""up"",[99999,99999],[106,-106]]",diamond,no_dis,vert,up,"[99999,99999]","[106,-106]",up,1,,,,,,001,2025-03-10_16h53.20.049,SL_base_41,2021.2.3,Win32,90.09009009,1.2481,,,51,0,51,0,1,,,,,,,,
,,"[""diamond"",""red"",""vert"",""up"",[106,106],[0,-150]]",diamond,red,vert,up,"[106,106]","[0,-150]",up,1,,,,,,001,2025-03-10_16h53.20.049,SL_base_41,2021.2.3,Win32,90.09009009,1.6446,,,52,0,52,0,1,,,,,,,,
,,"[""diamond"",""red"",""hori"",""left"",[106,-106],[0,150]]",diamond,red,hori,left,"[106,-106]","[0,150]",left,1,,,,,,001,2025-03-10_16h53.20.049,SL_base_41,2021.2.3,Win32,90.09009009,1.6224,,,53,0,53,0,1,,,,,,,,
,,"[""diamond"",""green"",""vert"",""up"",[-150,0],[106,106]]",diamond,green,vert,up,"[-150,0]","[106,106]",up,1,,,,,,001,2025-03-10_16h53.20.049,SL_base_41,2021.2.3,Win32,90.09009009,1.4891,,,54,0,54,0,1,,,,,,,,
,,"[""diamond"",""green"",""vert"",""up"",[0,-150],[-106,-106]]",diamond,green,vert,up,"[0,-150]","[-106,-106]",up,1,,,,,,001,2025-03-10_16h53.20.049,SL_base_41,2021.2.3,Win32,90.09009009,1.3001,,,55,0,55,0,1,,,,,,,,
,,"[""diamond"",""green"",""vert"",""up"",[-106,-106],[-106,106]]",diamond,green,vert,up,"[-106,-106]","[-106,106]",up,1,,,,,,001,2025-03-10_16h53.20.049,SL_base_41,2021.2.3,Win32,90.09009009,1.2134,,,56,0,56,0,1,,,,,,,,
,,"[""circle"",""green"",""hori"",""left"",[106,106],[-106,-106]]",circle,green,hori,left,"[106,106]","[-106,-106]",left,1,,,,,,001,2025-03-10_16h53.20.049,SL_base_41,2021.2.3,Win32,90.09009009,1.4112,,,57,0,57,0,1,,,,,,,,
,,"[""circle"",""green"",""vert"",""up"",[0,150],[150,0]]",circle,green,vert,up,"[0,150]","[150,0]",up,1,,,,,,001,2025-03-10_16h53.20.049,SL_base_41,2021.2.3,Win32,90.09009009,1.2111,,,58,0,58,0,1,,,,,,,,
,,"[""circle"",""red"",""vert"",""up"",[106,-106],[0,150]]",circle,red,vert,up,"[106,-106]","[0,150]",up,1,,,,,,001,2025-03-10_16h53.20.049,SL_base_41,2021.2.3,Win32,90.09009009,1.1955,,,59,0,59,0,1,,,,,,,,
,,"[""diamond"",""green"",""hori"",""left"",[-106,106],[106,106]]",diamond,green,hori,left,"[-106,106]","[106,106]",left,1,,,,,,001,2025-03-10_16h53.20.049,SL_base_41,2021.2.3,Win32,90.09009009,2.3667,,,60,0,60,0,1,,,,,,,,
,,"[""circle"",""red"",""hori"",""left"",[106,106],[0,150]]",circle,red,hori,left,"[106,106]","[0,150]",up,0,,,,,,001,2025-03-10_16h53.20.049,SL_base_41,2021.2.3,Win32,90.09009009,1.156,,,61,0,61,0,1,,,,,,,,
