﻿key_resp.keys,key_resp.rt,trial_para,tar_shape,dis_color_condi,tar_line,cor_resp,dis_loc,tar_loc,resp.keys,resp.corr,resp.rt,trials.thisRepN,trials.thisTrialN,trials.thisN,trials.thisIndex,trials.ran,participant,date,expName,psychopyVersion,OS,frameRate,key_resp_2.keys,key_resp_2.rt,trials_2.thisRepN,trials_2.thisTrialN,trials_2.thisN,trials_2.thisIndex,trials_2.ran,block_num,key_resp_3.keys,key_resp_3.rt,trials_3.thisRepN,trials_3.thisTrialN,trials_3.thisN,trials_3.thisIndex,trials_3.ran
space,24.7361,"[""circle"",""red"",""vert"",""up"",[106,-106],[-106,-106]]",circle,red,vert,up,"[106,-106]","[-106,-106]",up,1,2.6836,0,0,0,0,1,001,2025-03-10_16h53.01.025,SL_base_41,2021.2.3,Win32,60.24096386,,,,,,,,,,,,,,,
,,"[""circle"",""no_dis"",""hori"",""left"",[99999,99999],[150,0]]",circle,no_dis,hori,left,"[99999,99999]","[150,0]",,0,,1,0,1,0,1,001,2025-03-10_16h53.01.025,SL_base_41,2021.2.3,Win32,60.24096386,,,,,,,,,,,,,,,
,,"[""circle"",""no_dis"",""hori"",""left"",[99999,99999],[-150,0]]",circle,no_dis,hori,left,"[99999,99999]","[-150,0]",left,1,1.0883,2,0,2,0,1,001,2025-03-10_16h53.01.025,SL_base_41,2021.2.3,Win32,60.24096386,,,,,,,,,,,,,,,
,,"[""circle"",""green"",""hori"",""left"",[0,-150],[150,0]]",circle,green,hori,left,"[0,-150]","[150,0]",up,0,2.9655,3,0,3,0,1,001,2025-03-10_16h53.01.025,SL_base_41,2021.2.3,Win32,60.24096386,,,,,,,,,,,,,,,
,,"[""circle"",""green"",""vert"",""up"",[150,0],[-150,0]]",circle,green,vert,up,"[150,0]","[-150,0]",up,1,2.4701,4,0,4,0,1,001,2025-03-10_16h53.01.025,SL_base_41,2021.2.3,Win32,60.24096386,,,,,,,,,,,,,,,
,,"[""diamond"",""no_dis"",""hori"",""left"",[99999,99999],[150,0]]",diamond,no_dis,hori,left,"[99999,99999]","[150,0]",left,1,1.3985,5,0,5,0,1,001,2025-03-10_16h53.01.025,SL_base_41,2021.2.3,Win32,60.24096386,,,,,,,,,,,,,,,
,,"[""diamond"",""red"",""hori"",""left"",[0,-150],[0,150]]",diamond,red,hori,left,"[0,-150]","[0,150]",up,0,1.4016,6,0,6,0,1,001,2025-03-10_16h53.01.025,SL_base_41,2021.2.3,Win32,60.24096386,,,,,,,,,,,,,,,
,,"[""circle"",""red"",""hori"",""left"",[0,-150],[-106,-106]]",circle,red,hori,left,"[0,-150]","[-106,-106]",left,1,2.4357,7,0,7,0,1,001,2025-03-10_16h53.01.025,SL_base_41,2021.2.3,Win32,60.24096386,,,,,,,,,,,,,,,
,,"[""diamond"",""green"",""hori"",""left"",[0,-150],[106,106]]",diamond,green,hori,left,"[0,-150]","[106,106]",left,1,1.911,8,0,8,0,1,001,2025-03-10_16h53.01.025,SL_base_41,2021.2.3,Win32,60.24096386,,,,,,,,,,,,,,,
,,"[""diamond"",""no_dis"",""vert"",""up"",[99999,99999],[-106,106]]",diamond,no_dis,vert,up,"[99999,99999]","[-106,106]",,0,,9,0,9,0,1,001,2025-03-10_16h53.01.025,SL_base_41,2021.2.3,Win32,60.24096386,,,,,,,,,,,,,,,
,,"[""circle"",""red"",""vert"",""up"",[106,-106],[-106,-106]]",circle,red,vert,up,"[106,-106]","[-106,-106]",left,0,2.4739,,,,,,001,2025-03-10_16h53.01.025,SL_base_41,2021.2.3,Win32,60.24096386,space,8.2774,0,0,0,0,1,,,,,,,,
,,"[""circle"",""no_dis"",""hori"",""left"",[99999,99999],[150,0]]",circle,no_dis,hori,left,"[99999,99999]","[150,0]",left,1,2.4533,,,,,,001,2025-03-10_16h53.01.025,SL_base_41,2021.2.3,Win32,60.24096386,,,1,0,1,0,1,,,,,,,,
,,"[""circle"",""no_dis"",""hori"",""left"",[99999,99999],[-150,0]]",circle,no_dis,hori,left,"[99999,99999]","[-150,0]",left,1,2.94,,,,,,001,2025-03-10_16h53.01.025,SL_base_41,2021.2.3,Win32,60.24096386,,,2,0,2,0,1,,,,,,,,
,,"[""circle"",""green"",""hori"",""left"",[0,-150],[150,0]]",circle,green,hori,left,"[0,-150]","[150,0]",up,0,1.6276,,,,,,001,2025-03-10_16h53.01.025,SL_base_41,2021.2.3,Win32,60.24096386,,,3,0,3,0,1,,,,,,,,
,,"[""circle"",""green"",""vert"",""up"",[150,0],[-150,0]]",circle,green,vert,up,"[150,0]","[-150,0]",up,1,1.8229,,,,,,001,2025-03-10_16h53.01.025,SL_base_41,2021.2.3,Win32,60.24096386,,,4,0,4,0,1,,,,,,,,
,,"[""diamond"",""no_dis"",""hori"",""left"",[99999,99999],[150,0]]",diamond,no_dis,hori,left,"[99999,99999]","[150,0]",,0,,,,,,,001,2025-03-10_16h53.01.025,SL_base_41,2021.2.3,Win32,60.24096386,,,5,0,5,0,1,,,,,,,,
,,"[""diamond"",""red"",""hori"",""left"",[0,-150],[0,150]]",diamond,red,hori,left,"[0,-150]","[0,150]",left,1,2.1055,,,,,,001,2025-03-10_16h53.01.025,SL_base_41,2021.2.3,Win32,60.24096386,,,6,0,6,0,1,,,,,,,,
,,"[""circle"",""red"",""hori"",""left"",[0,-150],[-106,-106]]",circle,red,hori,left,"[0,-150]","[-106,-106]",left,1,2.2173,,,,,,001,2025-03-10_16h53.01.025,SL_base_41,2021.2.3,Win32,60.24096386,,,7,0,7,0,1,,,,,,,,
,,"[""diamond"",""green"",""hori"",""left"",[0,-150],[106,106]]",diamond,green,hori,left,"[0,-150]","[106,106]",left,1,1.3777,,,,,,001,2025-03-10_16h53.01.025,SL_base_41,2021.2.3,Win32,60.24096386,,,8,0,8,0,1,,,,,,,,
,,"[""diamond"",""no_dis"",""vert"",""up"",[99999,99999],[-106,106]]",diamond,no_dis,vert,up,"[99999,99999]","[-106,106]",up,1,2.7157,,,,,,001,2025-03-10_16h53.01.025,SL_base_41,2021.2.3,Win32,60.24096386,,,9,0,9,0,1,,,,,,,,
,,"[""diamond"",""no_dis"",""hori"",""left"",[99999,99999],[0,150]]",diamond,no_dis,hori,left,"[99999,99999]","[0,150]",left,1,1.4694,,,,,,001,2025-03-10_16h53.01.025,SL_base_41,2021.2.3,Win32,60.24096386,,,10,0,10,0,1,,,,,,,,
,,"[""diamond"",""green"",""vert"",""up"",[0,-150],[-106,106]]",diamond,green,vert,up,"[0,-150]","[-106,106]",,0,,,,,,,001,2025-03-10_16h53.01.025,SL_base_41,2021.2.3,Win32,60.24096386,,,11,0,11,0,1,,,,,,,,
,,"[""circle"",""red"",""hori"",""left"",[150,0],[0,150]]",circle,red,hori,left,"[150,0]","[0,150]",left,1,1.7649,,,,,,001,2025-03-10_16h53.01.025,SL_base_41,2021.2.3,Win32,60.24096386,,,12,0,12,0,1,,,,,,,,
,,"[""diamond"",""green"",""hori"",""left"",[106,106],[-106,106]]",diamond,green,hori,left,"[106,106]","[-106,106]",left,1,1.9043,,,,,,001,2025-03-10_16h53.01.025,SL_base_41,2021.2.3,Win32,60.24096386,,,13,0,13,0,1,,,,,,,,
,,"[""circle"",""green"",""vert"",""up"",[150,0],[-150,0]]",circle,green,vert,up,"[150,0]","[-150,0]",up,1,1.5428,,,,,,001,2025-03-10_16h53.01.025,SL_base_41,2021.2.3,Win32,60.24096386,,,14,0,14,0,1,,,,,,,,
,,"[""circle"",""red"",""vert"",""up"",[106,-106],[106,106]]",circle,red,vert,up,"[106,-106]","[106,106]",up,1,2.1065,,,,,,001,2025-03-10_16h53.01.025,SL_base_41,2021.2.3,Win32,60.24096386,,,15,0,15,0,1,,,,,,,,
,,"[""diamond"",""green"",""vert"",""up"",[0,-150],[106,106]]",diamond,green,vert,up,"[0,-150]","[106,106]",up,1,1.7451,,,,,,001,2025-03-10_16h53.01.025,SL_base_41,2021.2.3,Win32,60.24096386,,,16,0,16,0,1,,,,,,,,
,,"[""circle"",""green"",""vert"",""up"",[-150,0],[106,106]]",circle,green,vert,up,"[-150,0]","[106,106]",up,1,1.9988,,,,,,001,2025-03-10_16h53.01.025,SL_base_41,2021.2.3,Win32,60.24096386,,,17,0,17,0,1,,,,,,,,
,,"[""circle"",""green"",""hori"",""left"",[-106,-106],[150,0]]",circle,green,hori,left,"[-106,-106]","[150,0]",left,1,1.8241,,,,,,001,2025-03-10_16h53.01.025,SL_base_41,2021.2.3,Win32,60.24096386,,,18,0,18,0,1,,,,,,,,
,,"[""diamond"",""green"",""hori"",""left"",[-106,-106],[0,150]]",diamond,green,hori,left,"[-106,-106]","[0,150]",left,1,1.402,,,,,,001,2025-03-10_16h53.01.025,SL_base_41,2021.2.3,Win32,60.24096386,,,19,0,19,0,1,,,,,,,,
,,"[""diamond"",""no_dis"",""vert"",""up"",[99999,99999],[-150,0]]",diamond,no_dis,vert,up,"[99999,99999]","[-150,0]",up,1,1.5518,,,,,,001,2025-03-10_16h53.01.025,SL_base_41,2021.2.3,Win32,60.24096386,,,20,0,20,0,1,,,,,,,,
,,"[""circle"",""no_dis"",""hori"",""left"",[99999,99999],[-106,106]]",circle,no_dis,hori,left,"[99999,99999]","[-106,106]",left,1,1.5994,,,,,,001,2025-03-10_16h53.01.025,SL_base_41,2021.2.3,Win32,60.24096386,,,21,0,21,0,1,,,,,,,,
,,"[""diamond"",""red"",""hori"",""left"",[0,-150],[150,0]]",diamond,red,hori,left,"[0,-150]","[150,0]",left,1,1.5702,,,,,,001,2025-03-10_16h53.01.025,SL_base_41,2021.2.3,Win32,60.24096386,,,22,0,22,0,1,,,,,,,,
,,"[""diamond"",""no_dis"",""vert"",""up"",[99999,99999],[-106,106]]",diamond,no_dis,vert,up,"[99999,99999]","[-106,106]",up,1,1.7474,,,,,,001,2025-03-10_16h53.01.025,SL_base_41,2021.2.3,Win32,60.24096386,,,23,0,23,0,1,,,,,,,,
,,"[""diamond"",""green"",""vert"",""up"",[106,106],[-106,106]]",diamond,green,vert,up,"[106,106]","[-106,106]",up,1,2.2326,,,,,,001,2025-03-10_16h53.01.025,SL_base_41,2021.2.3,Win32,60.24096386,,,24,0,24,0,1,,,,,,,,
,,"[""circle"",""red"",""vert"",""up"",[106,106],[0,-150]]",circle,red,vert,up,"[106,106]","[0,-150]",up,1,2.1001,,,,,,001,2025-03-10_16h53.01.025,SL_base_41,2021.2.3,Win32,60.24096386,,,25,0,25,0,1,,,,,,,,
,,"[""circle"",""red"",""hori"",""left"",[150,0],[106,-106]]",circle,red,hori,left,"[150,0]","[106,-106]",left,1,2.0334,,,,,,001,2025-03-10_16h53.01.025,SL_base_41,2021.2.3,Win32,60.24096386,,,26,0,26,0,1,,,,,,,,
,,"[""diamond"",""green"",""hori"",""left"",[106,-106],[-106,-106]]",diamond,green,hori,left,"[106,-106]","[-106,-106]",left,1,1.6857,,,,,,001,2025-03-10_16h53.01.025,SL_base_41,2021.2.3,Win32,60.24096386,,,27,0,27,0,1,,,,,,,,
,,"[""diamond"",""red"",""hori"",""left"",[-106,-106],[-150,0]]",diamond,red,hori,left,"[-106,-106]","[-150,0]",left,1,1.856,,,,,,001,2025-03-10_16h53.01.025,SL_base_41,2021.2.3,Win32,60.24096386,,,28,0,28,0,1,,,,,,,,
,,"[""circle"",""no_dis"",""vert"",""up"",[99999,99999],[106,106]]",circle,no_dis,vert,up,"[99999,99999]","[106,106]",up,1,1.4989,,,,,,001,2025-03-10_16h53.01.025,SL_base_41,2021.2.3,Win32,60.24096386,,,29,0,29,0,1,,,,,,,,
,,"[""circle"",""no_dis"",""vert"",""up"",[99999,99999],[106,106]]",circle,no_dis,vert,up,"[99999,99999]","[106,106]",up,1,1.4666,,,,,,001,2025-03-10_16h53.01.025,SL_base_41,2021.2.3,Win32,60.24096386,,,30,0,30,0,1,,,,,,,,
,,"[""diamond"",""green"",""vert"",""up"",[106,106],[106,-106]]",diamond,green,vert,up,"[106,106]","[106,-106]",up,1,1.6222,,,,,,001,2025-03-10_16h53.01.025,SL_base_41,2021.2.3,Win32,60.24096386,,,31,0,31,0,1,,,,,,,,
,,"[""diamond"",""no_dis"",""vert"",""up"",[99999,99999],[-150,0]]",diamond,no_dis,vert,up,"[99999,99999]","[-150,0]",up,1,1.495,,,,,,001,2025-03-10_16h53.01.025,SL_base_41,2021.2.3,Win32,60.24096386,,,32,0,32,0,1,,,,,,,,
,,"[""circle"",""red"",""vert"",""up"",[0,-150],[-106,106]]",circle,red,vert,up,"[0,-150]","[-106,106]",up,1,1.8688,,,,,,001,2025-03-10_16h53.01.025,SL_base_41,2021.2.3,Win32,60.24096386,,,33,0,33,0,1,,,,,,,,
,,"[""diamond"",""red"",""vert"",""up"",[0,150],[0,-150]]",diamond,red,vert,up,"[0,150]","[0,-150]",up,1,1.4546,,,,,,001,2025-03-10_16h53.01.025,SL_base_41,2021.2.3,Win32,60.24096386,,,34,0,34,0,1,,,,,,,,
,,"[""circle"",""green"",""hori"",""left"",[-150,0],[150,0]]",circle,green,hori,left,"[-150,0]","[150,0]",left,1,1.4667,,,,,,001,2025-03-10_16h53.01.025,SL_base_41,2021.2.3,Win32,60.24096386,,,35,0,35,0,1,,,,,,,,
,,"[""diamond"",""red"",""vert"",""up"",[0,-150],[106,106]]",diamond,red,vert,up,"[0,-150]","[106,106]",up,1,1.4831,,,,,,001,2025-03-10_16h53.01.025,SL_base_41,2021.2.3,Win32,60.24096386,,,36,0,36,0,1,,,,,,,,
,,"[""circle"",""no_dis"",""vert"",""up"",[99999,99999],[0,-150]]",circle,no_dis,vert,up,"[99999,99999]","[0,-150]",up,1,1.6748,,,,,,001,2025-03-10_16h53.01.025,SL_base_41,2021.2.3,Win32,60.24096386,,,37,0,37,0,1,,,,,,,,
,,"[""circle"",""red"",""hori"",""left"",[106,-106],[-106,-106]]",circle,red,hori,left,"[106,-106]","[-106,-106]",left,1,1.4076,,,,,,001,2025-03-10_16h53.01.025,SL_base_41,2021.2.3,Win32,60.24096386,,,38,0,38,0,1,,,,,,,,
,,"[""circle"",""green"",""hori"",""left"",[0,150],[-106,106]]",circle,green,hori,left,"[0,150]","[-106,106]",left,1,2.1905,,,,,,001,2025-03-10_16h53.01.025,SL_base_41,2021.2.3,Win32,60.24096386,,,39,0,39,0,1,,,,,,,,
,,"[""circle"",""no_dis"",""vert"",""up"",[99999,99999],[150,0]]",circle,no_dis,vert,up,"[99999,99999]","[150,0]",up,1,1.3918,,,,,,001,2025-03-10_16h53.01.025,SL_base_41,2021.2.3,Win32,60.24096386,,,40,0,40,0,1,,,,,,,,
,,"[""diamond"",""red"",""vert"",""up"",[-106,-106],[150,0]]",diamond,red,vert,up,"[-106,-106]","[150,0]",up,1,1.6815,,,,,,001,2025-03-10_16h53.01.025,SL_base_41,2021.2.3,Win32,60.24096386,,,41,0,41,0,1,,,,,,,,
,,"[""circle"",""red"",""vert"",""up"",[-150,0],[0,-150]]",circle,red,vert,up,"[-150,0]","[0,-150]",up,1,1.5828,,,,,,001,2025-03-10_16h53.01.025,SL_base_41,2021.2.3,Win32,60.24096386,,,42,0,42,0,1,,,,,,,,
,,"[""diamond"",""red"",""hori"",""left"",[0,-150],[150,0]]",diamond,red,hori,left,"[0,-150]","[150,0]",left,1,1.3529,,,,,,001,2025-03-10_16h53.01.025,SL_base_41,2021.2.3,Win32,60.24096386,,,43,0,43,0,1,,,,,,,,
,,"[""circle"",""no_dis"",""hori"",""left"",[99999,99999],[-106,-106]]",circle,no_dis,hori,left,"[99999,99999]","[-106,-106]",left,1,1.649,,,,,,001,2025-03-10_16h53.01.025,SL_base_41,2021.2.3,Win32,60.24096386,,,44,0,44,0,1,,,,,,,,
,,"[""diamond"",""no_dis"",""vert"",""up"",[99999,99999],[150,0]]",diamond,no_dis,vert,up,"[99999,99999]","[150,0]",up,1,1.4816,,,,,,001,2025-03-10_16h53.01.025,SL_base_41,2021.2.3,Win32,60.24096386,,,45,0,45,0,1,,,,,,,,
,,"[""circle"",""no_dis"",""vert"",""up"",[99999,99999],[150,0]]",circle,no_dis,vert,up,"[99999,99999]","[150,0]",up,1,1.7695,,,,,,001,2025-03-10_16h53.01.025,SL_base_41,2021.2.3,Win32,60.24096386,,,46,0,46,0,1,,,,,,,,
,,"[""circle"",""green"",""vert"",""up"",[150,0],[-106,-106]]",circle,green,vert,up,"[150,0]","[-106,-106]",up,1,1.6536,,,,,,001,2025-03-10_16h53.01.025,SL_base_41,2021.2.3,Win32,60.24096386,,,47,0,47,0,1,,,,,,,,
,,"[""circle"",""green"",""hori"",""left"",[-106,106],[0,150]]",circle,green,hori,left,"[-106,106]","[0,150]",left,1,1.7344,,,,,,001,2025-03-10_16h53.01.025,SL_base_41,2021.2.3,Win32,60.24096386,,,48,0,48,0,1,,,,,,,,
,,"[""diamond"",""no_dis"",""hori"",""left"",[99999,99999],[-150,0]]",diamond,no_dis,hori,left,"[99999,99999]","[-150,0]",left,1,1.3201,,,,,,001,2025-03-10_16h53.01.025,SL_base_41,2021.2.3,Win32,60.24096386,,,49,0,49,0,1,,,,,,,,
,,"[""circle"",""no_dis"",""vert"",""up"",[99999,99999],[0,150]]",circle,no_dis,vert,up,"[99999,99999]","[0,150]",up,1,1.2364,,,,,,001,2025-03-10_16h53.01.025,SL_base_41,2021.2.3,Win32,60.24096386,,,50,0,50,0,1,,,,,,,,
,,"[""diamond"",""green"",""hori"",""left"",[0,-150],[-150,0]]",diamond,green,hori,left,"[0,-150]","[-150,0]",left,1,1.7405,,,,,,001,2025-03-10_16h53.01.025,SL_base_41,2021.2.3,Win32,60.24096386,,,51,0,51,0,1,,,,,,,,
,,"[""diamond"",""green"",""hori"",""left"",[0,150],[-106,-106]]",diamond,green,hori,left,"[0,150]","[-106,-106]",left,1,2.1114,,,,,,001,2025-03-10_16h53.01.025,SL_base_41,2021.2.3,Win32,60.24096386,,,52,0,52,0,1,,,,,,,,
,,"[""circle"",""green"",""hori"",""left"",[0,-150],[150,0]]",circle,green,hori,left,"[0,-150]","[150,0]",left,1,2.1328,,,,,,001,2025-03-10_16h53.01.025,SL_base_41,2021.2.3,Win32,60.24096386,,,53,0,53,0,1,,,,,,,,
,,"[""diamond"",""red"",""vert"",""up"",[0,-150],[-106,-106]]",diamond,red,vert,up,"[0,-150]","[-106,-106]",up,1,1.3163,,,,,,001,2025-03-10_16h53.01.025,SL_base_41,2021.2.3,Win32,60.24096386,,,54,0,54,0,1,,,,,,,,
,,"[""diamond"",""red"",""vert"",""up"",[-106,106],[0,-150]]",diamond,red,vert,up,"[-106,106]","[0,-150]",up,1,1.7143,,,,,,001,2025-03-10_16h53.01.025,SL_base_41,2021.2.3,Win32,60.24096386,,,55,0,55,0,1,,,,,,,,
,,"[""circle"",""green"",""hori"",""left"",[-150,0],[0,150]]",circle,green,hori,left,"[-150,0]","[0,150]",left,1,1.9655,,,,,,001,2025-03-10_16h53.01.025,SL_base_41,2021.2.3,Win32,60.24096386,,,56,0,56,0,1,,,,,,,,
,,"[""circle"",""no_dis"",""hori"",""left"",[99999,99999],[-106,-106]]",circle,no_dis,hori,left,"[99999,99999]","[-106,-106]",left,1,1.5205,,,,,,001,2025-03-10_16h53.01.025,SL_base_41,2021.2.3,Win32,60.24096386,,,57,0,57,0,1,,,,,,,,
,,"[""diamond"",""red"",""vert"",""up"",[-106,-106],[106,106]]",diamond,red,vert,up,"[-106,-106]","[106,106]",up,1,2.3761,,,,,,001,2025-03-10_16h53.01.025,SL_base_41,2021.2.3,Win32,60.24096386,,,58,0,58,0,1,,,,,,,,
,,"[""diamond"",""green"",""vert"",""up"",[0,-150],[150,0]]",diamond,green,vert,up,"[0,-150]","[150,0]",up,1,1.6972,,,,,,001,2025-03-10_16h53.01.025,SL_base_41,2021.2.3,Win32,60.24096386,,,59,0,59,0,1,,,,,,,,
,,"[""circle"",""green"",""hori"",""left"",[0,150],[0,-150]]",circle,green,hori,left,"[0,150]","[0,-150]",left,1,1.723,,,,,,001,2025-03-10_16h53.01.025,SL_base_41,2021.2.3,Win32,60.24096386,,,60,0,60,0,1,,,,,,,,
,,"[""circle"",""no_dis"",""vert"",""up"",[99999,99999],[106,106]]",circle,no_dis,vert,up,"[99999,99999]","[106,106]",up,1,1.5106,,,,,,001,2025-03-10_16h53.01.025,SL_base_41,2021.2.3,Win32,60.24096386,,,61,0,61,0,1,,,,,,,,
,,"[""circle"",""red"",""vert"",""up"",[-150,0],[106,106]]",circle,red,vert,up,"[-150,0]","[106,106]",up,1,2.0409,,,,,,001,2025-03-10_16h53.01.025,SL_base_41,2021.2.3,Win32,60.24096386,,,62,0,62,0,1,,,,,,,,
,,"[""circle"",""green"",""vert"",""up"",[106,-106],[-106,-106]]",circle,green,vert,up,"[106,-106]","[-106,-106]",up,1,1.6534,,,,,,001,2025-03-10_16h53.01.025,SL_base_41,2021.2.3,Win32,60.24096386,,,63,0,63,0,1,,,,,,,,
,,"[""circle"",""red"",""vert"",""up"",[0,-150],[106,-106]]",circle,red,vert,up,"[0,-150]","[106,-106]",left,0,1.6936,,,,,,001,2025-03-10_16h53.01.025,SL_base_41,2021.2.3,Win32,60.24096386,,,64,0,64,0,1,,,,,,,,
,,"[""diamond"",""no_dis"",""vert"",""up"",[99999,99999],[106,106]]",diamond,no_dis,vert,up,"[99999,99999]","[106,106]",up,1,1.4305,,,,,,001,2025-03-10_16h53.01.025,SL_base_41,2021.2.3,Win32,60.24096386,,,65,0,65,0,1,,,,,,,,
,,"[""circle"",""no_dis"",""hori"",""left"",[99999,99999],[106,-106]]",circle,no_dis,hori,left,"[99999,99999]","[106,-106]",left,1,1.5924,,,,,,001,2025-03-10_16h53.01.025,SL_base_41,2021.2.3,Win32,60.24096386,,,66,0,66,0,1,,,,,,,,
,,"[""circle"",""green"",""vert"",""up"",[150,0],[-106,-106]]",circle,green,vert,up,"[150,0]","[-106,-106]",up,1,1.3715,,,,,,001,2025-03-10_16h53.01.025,SL_base_41,2021.2.3,Win32,60.24096386,,,67,0,67,0,1,,,,,,,,
,,"[""circle"",""red"",""vert"",""up"",[-150,0],[150,0]]",circle,red,vert,up,"[-150,0]","[150,0]",up,1,2.174,,,,,,001,2025-03-10_16h53.01.025,SL_base_41,2021.2.3,Win32,60.24096386,,,68,0,68,0,1,,,,,,,,
,,"[""circle"",""no_dis"",""hori"",""left"",[99999,99999],[0,150]]",circle,no_dis,hori,left,"[99999,99999]","[0,150]",left,1,1.3997,,,,,,001,2025-03-10_16h53.01.025,SL_base_41,2021.2.3,Win32,60.24096386,,,69,0,69,0,1,,,,,,,,
,,"[""diamond"",""green"",""hori"",""left"",[106,-106],[0,-150]]",diamond,green,hori,left,"[106,-106]","[0,-150]",up,0,2.8151,,,,,,001,2025-03-10_16h53.01.025,SL_base_41,2021.2.3,Win32,60.24096386,,,70,0,70,0,1,,,,,,,,
,,"[""diamond"",""no_dis"",""vert"",""up"",[99999,99999],[-106,-106]]",diamond,no_dis,vert,up,"[99999,99999]","[-106,-106]",up,1,2.6743,,,,,,001,2025-03-10_16h53.01.025,SL_base_41,2021.2.3,Win32,60.24096386,,,71,0,71,0,1,,,,,,,,
,,"[""diamond"",""green"",""vert"",""up"",[0,150],[106,106]]",diamond,green,vert,up,"[0,150]","[106,106]",up,1,2.1888,,,,,,001,2025-03-10_16h53.01.025,SL_base_41,2021.2.3,Win32,60.24096386,,,72,0,72,0,1,,,,,,,,
,,"[""diamond"",""no_dis"",""hori"",""left"",[99999,99999],[0,-150]]",diamond,no_dis,hori,left,"[99999,99999]","[0,-150]",left,1,1.7751,,,,,,001,2025-03-10_16h53.01.025,SL_base_41,2021.2.3,Win32,60.24096386,,,73,0,73,0,1,,,,,,,,
,,"[""diamond"",""red"",""vert"",""up"",[0,-150],[0,150]]",diamond,red,vert,up,"[0,-150]","[0,150]",up,1,1.6836,,,,,,001,2025-03-10_16h53.01.025,SL_base_41,2021.2.3,Win32,60.24096386,,,74,0,74,0,1,,,,,,,,
,,"[""diamond"",""red"",""hori"",""left"",[106,106],[-150,0]]",diamond,red,hori,left,"[106,106]","[-150,0]",left,1,1.3761,,,,,,001,2025-03-10_16h53.01.025,SL_base_41,2021.2.3,Win32,60.24096386,,,75,0,75,0,1,,,,,,,,
,,"[""circle"",""green"",""vert"",""up"",[0,-150],[0,150]]",circle,green,vert,up,"[0,-150]","[0,150]",up,1,1.866,,,,,,001,2025-03-10_16h53.01.025,SL_base_41,2021.2.3,Win32,60.24096386,,,76,0,76,0,1,,,,,,,,
,,"[""diamond"",""no_dis"",""vert"",""up"",[99999,99999],[-106,106]]",diamond,no_dis,vert,up,"[99999,99999]","[-106,106]",up,1,2.2201,,,,,,001,2025-03-10_16h53.01.025,SL_base_41,2021.2.3,Win32,60.24096386,,,77,0,77,0,1,,,,,,,,
,,"[""diamond"",""green"",""vert"",""up"",[-106,106],[106,-106]]",diamond,green,vert,up,"[-106,106]","[106,-106]",up,1,1.883,,,,,,001,2025-03-10_16h53.01.025,SL_base_41,2021.2.3,Win32,60.24096386,,,78,0,78,0,1,,,,,,,,
,,"[""diamond"",""no_dis"",""hori"",""left"",[99999,99999],[-106,-106]]",diamond,no_dis,hori,left,"[99999,99999]","[-106,-106]",left,1,1.8134,,,,,,001,2025-03-10_16h53.01.025,SL_base_41,2021.2.3,Win32,60.24096386,,,79,0,79,0,1,,,,,,,,
,,"[""diamond"",""green"",""hori"",""left"",[-106,106],[0,-150]]",diamond,green,hori,left,"[-106,106]","[0,-150]",left,1,1.4802,,,,,,001,2025-03-10_16h53.01.025,SL_base_41,2021.2.3,Win32,60.24096386,,,80,0,80,0,1,,,,,,,,
,,"[""circle"",""no_dis"",""vert"",""up"",[99999,99999],[106,106]]",circle,no_dis,vert,up,"[99999,99999]","[106,106]",up,1,2.0657,,,,,,001,2025-03-10_16h53.01.025,SL_base_41,2021.2.3,Win32,60.24096386,,,81,0,81,0,1,,,,,,,,
,,"[""diamond"",""green"",""hori"",""left"",[0,150],[-106,-106]]",diamond,green,hori,left,"[0,150]","[-106,-106]",left,1,1.8813,,,,,,001,2025-03-10_16h53.01.025,SL_base_41,2021.2.3,Win32,60.24096386,,,82,0,82,0,1,,,,,,,,
,,"[""diamond"",""green"",""vert"",""up"",[106,-106],[0,-150]]",diamond,green,vert,up,"[106,-106]","[0,-150]",up,1,1.6339,,,,,,001,2025-03-10_16h53.01.025,SL_base_41,2021.2.3,Win32,60.24096386,,,83,0,83,0,1,,,,,,,,
,,"[""circle"",""red"",""hori"",""left"",[0,-150],[106,-106]]",circle,red,hori,left,"[0,-150]","[106,-106]",left,1,1.9029,,,,,,001,2025-03-10_16h53.01.025,SL_base_41,2021.2.3,Win32,60.24096386,,,84,0,84,0,1,,,,,,,,
,,"[""diamond"",""red"",""hori"",""left"",[-106,-106],[-106,106]]",diamond,red,hori,left,"[-106,-106]","[-106,106]",left,1,1.9821,,,,,,001,2025-03-10_16h53.01.025,SL_base_41,2021.2.3,Win32,60.24096386,,,85,0,85,0,1,,,,,,,,
,,"[""diamond"",""no_dis"",""hori"",""left"",[99999,99999],[0,150]]",diamond,no_dis,hori,left,"[99999,99999]","[0,150]",left,1,1.4151,,,,,,001,2025-03-10_16h53.01.025,SL_base_41,2021.2.3,Win32,60.24096386,,,86,0,86,0,1,,,,,,,,
,,"[""diamond"",""red"",""vert"",""up"",[0,-150],[150,0]]",diamond,red,vert,up,"[0,-150]","[150,0]",up,1,1.6248,,,,,,001,2025-03-10_16h53.01.025,SL_base_41,2021.2.3,Win32,60.24096386,,,87,0,87,0,1,,,,,,,,
,,"[""circle"",""red"",""hori"",""left"",[0,-150],[-106,-106]]",circle,red,hori,left,"[0,-150]","[-106,-106]",left,1,1.6754,,,,,,001,2025-03-10_16h53.01.025,SL_base_41,2021.2.3,Win32,60.24096386,,,88,0,88,0,1,,,,,,,,
,,"[""diamond"",""green"",""hori"",""left"",[0,-150],[106,-106]]",diamond,green,hori,left,"[0,-150]","[106,-106]",left,1,1.9915,,,,,,001,2025-03-10_16h53.01.025,SL_base_41,2021.2.3,Win32,60.24096386,,,89,0,89,0,1,,,,,,,,
,,"[""circle"",""red"",""hori"",""left"",[106,106],[0,-150]]",circle,red,hori,left,"[106,106]","[0,-150]",left,1,1.8781,,,,,,001,2025-03-10_16h53.01.025,SL_base_41,2021.2.3,Win32,60.24096386,,,90,0,90,0,1,,,,,,,,
,,"[""diamond"",""red"",""vert"",""up"",[-106,-106],[-106,106]]",diamond,red,vert,up,"[-106,-106]","[-106,106]",up,1,2.0529,,,,,,001,2025-03-10_16h53.01.025,SL_base_41,2021.2.3,Win32,60.24096386,,,91,0,91,0,1,,,,,,,,
,,"[""diamond"",""no_dis"",""hori"",""left"",[99999,99999],[0,-150]]",diamond,no_dis,hori,left,"[99999,99999]","[0,-150]",left,1,1.6724,,,,,,001,2025-03-10_16h53.01.025,SL_base_41,2021.2.3,Win32,60.24096386,,,92,0,92,0,1,,,,,,,,
,,"[""circle"",""red"",""vert"",""up"",[106,106],[0,150]]",circle,red,vert,up,"[106,106]","[0,150]",up,1,1.877,,,,,,001,2025-03-10_16h53.01.025,SL_base_41,2021.2.3,Win32,60.24096386,,,93,0,93,0,1,,,,,,,,
,,"[""diamond"",""no_dis"",""vert"",""up"",[99999,99999],[106,-106]]",diamond,no_dis,vert,up,"[99999,99999]","[106,-106]",up,1,1.5599,,,,,,001,2025-03-10_16h53.01.025,SL_base_41,2021.2.3,Win32,60.24096386,,,94,0,94,0,1,,,,,,,,
,,"[""circle"",""green"",""hori"",""left"",[0,-150],[-150,0]]",circle,green,hori,left,"[0,-150]","[-150,0]",left,1,1.5687,,,,,,001,2025-03-10_16h53.01.025,SL_base_41,2021.2.3,Win32,60.24096386,,,95,0,95,0,1,,,,,,,,
,,"[""diamond"",""red"",""hori"",""left"",[0,-150],[106,-106]]",diamond,red,hori,left,"[0,-150]","[106,-106]",left,1,2.6032,,,,,,001,2025-03-10_16h53.01.025,SL_base_41,2021.2.3,Win32,60.24096386,,,96,0,96,0,1,,,,,,,,
,,"[""circle"",""green"",""vert"",""up"",[-150,0],[-106,-106]]",circle,green,vert,up,"[-150,0]","[-106,-106]",up,1,2.1488,,,,,,001,2025-03-10_16h53.01.025,SL_base_41,2021.2.3,Win32,60.24096386,,,97,0,97,0,1,,,,,,,,
,,"[""circle"",""no_dis"",""hori"",""left"",[99999,99999],[0,-150]]",circle,no_dis,hori,left,"[99999,99999]","[0,-150]",left,1,1.6991,,,,,,001,2025-03-10_16h53.01.025,SL_base_41,2021.2.3,Win32,60.24096386,,,98,0,98,0,1,,,,,,,,
,,"[""circle"",""red"",""vert"",""up"",[-106,-106],[-106,106]]",circle,red,vert,up,"[-106,-106]","[-106,106]",up,1,1.8677,,,,,,001,2025-03-10_16h53.01.025,SL_base_41,2021.2.3,Win32,60.24096386,,,99,0,99,0,1,,,,,,,,
,,"[""circle"",""green"",""vert"",""up"",[0,150],[0,-150]]",circle,green,vert,up,"[0,150]","[0,-150]",up,1,2.1853,,,,,,001,2025-03-10_16h53.01.025,SL_base_41,2021.2.3,Win32,60.24096386,,,100,0,100,0,1,,,,,,,,
,,"[""diamond"",""red"",""vert"",""up"",[0,-150],[150,0]]",diamond,red,vert,up,"[0,-150]","[150,0]",up,1,1.9647,,,,,,001,2025-03-10_16h53.01.025,SL_base_41,2021.2.3,Win32,60.24096386,,,101,0,101,0,1,,,,,,,,
,,"[""diamond"",""no_dis"",""hori"",""left"",[99999,99999],[106,-106]]",diamond,no_dis,hori,left,"[99999,99999]","[106,-106]",left,1,1.3848,,,,,,001,2025-03-10_16h53.01.025,SL_base_41,2021.2.3,Win32,60.24096386,,,102,0,102,0,1,,,,,,,,
,,"[""circle"",""red"",""hori"",""left"",[0,150],[106,106]]",circle,red,hori,left,"[0,150]","[106,106]",left,1,1.6607,,,,,,001,2025-03-10_16h53.01.025,SL_base_41,2021.2.3,Win32,60.24096386,,,103,0,103,0,1,,,,,,,,
,,"[""circle"",""red"",""hori"",""left"",[-106,106],[-106,-106]]",circle,red,hori,left,"[-106,106]","[-106,-106]",left,1,1.4014,,,,,,001,2025-03-10_16h53.01.025,SL_base_41,2021.2.3,Win32,60.24096386,,,104,0,104,0,1,,,,,,,,
,,"[""diamond"",""green"",""vert"",""up"",[-106,106],[150,0]]",diamond,green,vert,up,"[-106,106]","[150,0]",up,1,1.5812,,,,,,001,2025-03-10_16h53.01.025,SL_base_41,2021.2.3,Win32,60.24096386,,,105,0,105,0,1,,,,,,,,
,,"[""circle"",""green"",""hori"",""left"",[150,0],[106,-106]]",circle,green,hori,left,"[150,0]","[106,-106]",left,1,1.9228,,,,,,001,2025-03-10_16h53.01.025,SL_base_41,2021.2.3,Win32,60.24096386,,,106,0,106,0,1,,,,,,,,
,,"[""circle"",""red"",""hori"",""left"",[-106,106],[-106,-106]]",circle,red,hori,left,"[-106,106]","[-106,-106]",left,1,1.9895,,,,,,001,2025-03-10_16h53.01.025,SL_base_41,2021.2.3,Win32,60.24096386,,,107,0,107,0,1,,,,,,,,
,,"[""diamond"",""no_dis"",""hori"",""left"",[99999,99999],[106,-106]]",diamond,no_dis,hori,left,"[99999,99999]","[106,-106]",left,1,1.3945,,,,,,001,2025-03-10_16h53.01.025,SL_base_41,2021.2.3,Win32,60.24096386,,,108,0,108,0,1,,,,,,,,
,,"[""circle"",""no_dis"",""hori"",""left"",[99999,99999],[-150,0]]",circle,no_dis,hori,left,"[99999,99999]","[-150,0]",left,1,1.0936,,,,,,001,2025-03-10_16h53.01.025,SL_base_41,2021.2.3,Win32,60.24096386,,,109,0,109,0,1,,,,,,,,
,,"[""diamond"",""green"",""vert"",""up"",[0,-150],[106,106]]",diamond,green,vert,up,"[0,-150]","[106,106]",up,1,1.9408,,,,,,001,2025-03-10_16h53.01.025,SL_base_41,2021.2.3,Win32,60.24096386,,,110,0,110,0,1,,,,,,,,
,,"[""diamond"",""red"",""hori"",""left"",[0,-150],[106,-106]]",diamond,red,hori,left,"[0,-150]","[106,-106]",left,1,1.4145,,,,,,001,2025-03-10_16h53.01.025,SL_base_41,2021.2.3,Win32,60.24096386,,,111,0,111,0,1,,,,,,,,
,,"[""circle"",""green"",""vert"",""up"",[106,106],[106,-106]]",circle,green,vert,up,"[106,106]","[106,-106]",up,1,2.1727,,,,,,001,2025-03-10_16h53.01.025,SL_base_41,2021.2.3,Win32,60.24096386,,,112,0,112,0,1,,,,,,,,
,,"[""diamond"",""red"",""hori"",""left"",[-150,0],[0,150]]",diamond,red,hori,left,"[-150,0]","[0,150]",left,1,1.5532,,,,,,001,2025-03-10_16h53.01.025,SL_base_41,2021.2.3,Win32,60.24096386,,,113,0,113,0,1,,,,,,,,
,,"[""circle"",""no_dis"",""vert"",""up"",[99999,99999],[106,-106]]",circle,no_dis,vert,up,"[99999,99999]","[106,-106]",up,1,1.4319,,,,,,001,2025-03-10_16h53.01.025,SL_base_41,2021.2.3,Win32,60.24096386,,,114,0,114,0,1,,,,,,,,
,,"[""diamond"",""red"",""vert"",""up"",[150,0],[-106,106]]",diamond,red,vert,up,"[150,0]","[-106,106]",up,1,1.8844,,,,,,001,2025-03-10_16h53.01.025,SL_base_41,2021.2.3,Win32,60.24096386,,,115,0,115,0,1,,,,,,,,
,,"[""diamond"",""green"",""vert"",""up"",[0,-150],[-150,0]]",diamond,green,vert,up,"[0,-150]","[-150,0]",up,1,2.4017,,,,,,001,2025-03-10_16h53.01.025,SL_base_41,2021.2.3,Win32,60.24096386,,,116,0,116,0,1,,,,,,,,
,,"[""diamond"",""red"",""hori"",""left"",[106,-106],[-106,-106]]",diamond,red,hori,left,"[106,-106]","[-106,-106]",left,1,1.4001,,,,,,001,2025-03-10_16h53.01.025,SL_base_41,2021.2.3,Win32,60.24096386,,,117,0,117,0,1,,,,,,,,
,,"[""diamond"",""no_dis"",""hori"",""left"",[99999,99999],[0,-150]]",diamond,no_dis,hori,left,"[99999,99999]","[0,-150]",left,1,1.7016,,,,,,001,2025-03-10_16h53.01.025,SL_base_41,2021.2.3,Win32,60.24096386,,,118,0,118,0,1,,,,,,,,
,,"[""circle"",""no_dis"",""hori"",""left"",[99999,99999],[-106,106]]",circle,no_dis,hori,left,"[99999,99999]","[-106,106]",left,1,1.94,,,,,,001,2025-03-10_16h53.01.025,SL_base_41,2021.2.3,Win32,60.24096386,,,119,0,119,0,1,,,,,,,,
,,"[""circle"",""red"",""vert"",""up"",[0,-150],[150,0]]",circle,red,vert,up,"[0,-150]","[150,0]",up,1,2.075,,,,,,001,2025-03-10_16h53.01.025,SL_base_41,2021.2.3,Win32,60.24096386,,,120,0,120,0,1,,,,,,,,
,,"[""circle"",""green"",""vert"",""up"",[-106,106],[106,106]]",circle,green,vert,up,"[-106,106]","[106,106]",,0,,,,,,,001,2025-03-10_16h53.01.025,SL_base_41,2021.2.3,Win32,60.24096386,,,121,0,121,0,1,,,,,,,,
,,"[""circle"",""green"",""hori"",""left"",[0,-150],[106,106]]",circle,green,hori,left,"[0,-150]","[106,106]",left,1,1.5728,,,,,,001,2025-03-10_16h53.01.025,SL_base_41,2021.2.3,Win32,60.24096386,,,122,0,122,0,1,,,,,,,,
,,"[""diamond"",""no_dis"",""vert"",""up"",[99999,99999],[0,150]]",diamond,no_dis,vert,up,"[99999,99999]","[0,150]",up,1,1.834,,,,,,001,2025-03-10_16h53.01.025,SL_base_41,2021.2.3,Win32,60.24096386,,,123,0,123,0,1,,,,,,,,
,,"[""diamond"",""green"",""hori"",""left"",[0,-150],[0,150]]",diamond,green,hori,left,"[0,-150]","[0,150]",up,0,2.2592,,,,,,001,2025-03-10_16h53.01.025,SL_base_41,2021.2.3,Win32,60.24096386,,,124,0,124,0,1,,,,,,,,
,,"[""circle"",""no_dis"",""vert"",""up"",[99999,99999],[-106,-106]]",circle,no_dis,vert,up,"[99999,99999]","[-106,-106]",up,1,1.7931,,,,,,001,2025-03-10_16h53.01.025,SL_base_41,2021.2.3,Win32,60.24096386,,,125,0,125,0,1,,,,,,,,
,,"[""diamond"",""red"",""hori"",""left"",[0,-150],[106,106]]",diamond,red,hori,left,"[0,-150]","[106,106]",left,1,1.7898,,,,,,001,2025-03-10_16h53.01.025,SL_base_41,2021.2.3,Win32,60.24096386,,,126,0,126,0,1,,,,,,,,
,,"[""circle"",""red"",""hori"",""left"",[0,-150],[0,150]]",circle,red,hori,left,"[0,-150]","[0,150]",left,1,1.5096,,,,,,001,2025-03-10_16h53.01.025,SL_base_41,2021.2.3,Win32,60.24096386,,,127,0,127,0,1,,,,,,,,
,,,,,,,,,,,,,,,,,001,2025-03-10_16h53.01.025,SL_base_41,2021.2.3,Win32,60.24096386,,,,,,,,1,space,10.0074,0,0,0,0,1
,,"[""diamond"",""no_dis"",""vert"",""up"",[99999,99999],[0,150]]",diamond,no_dis,vert,up,"[99999,99999]","[0,150]",up,1,1.848,,,,,,001,2025-03-10_16h53.01.025,SL_base_41,2021.2.3,Win32,60.24096386,,,0,0,0,0,1,,,,,,,,
,,"[""circle"",""no_dis"",""hori"",""left"",[99999,99999],[-106,106]]",circle,no_dis,hori,left,"[99999,99999]","[-106,106]",left,1,1.4833,,,,,,001,2025-03-10_16h53.01.025,SL_base_41,2021.2.3,Win32,60.24096386,,,1,0,1,0,1,,,,,,,,
,,"[""circle"",""no_dis"",""vert"",""up"",[99999,99999],[106,106]]",circle,no_dis,vert,up,"[99999,99999]","[106,106]",up,1,1.6863,,,,,,001,2025-03-10_16h53.01.025,SL_base_41,2021.2.3,Win32,60.24096386,,,2,0,2,0,1,,,,,,,,
,,"[""diamond"",""red"",""hori"",""left"",[-106,-106],[-106,106]]",diamond,red,hori,left,"[-106,-106]","[-106,106]",left,1,1.821,,,,,,001,2025-03-10_16h53.01.025,SL_base_41,2021.2.3,Win32,60.24096386,,,3,0,3,0,1,,,,,,,,
,,"[""diamond"",""no_dis"",""hori"",""left"",[99999,99999],[0,-150]]",diamond,no_dis,hori,left,"[99999,99999]","[0,-150]",left,1,1.5809,,,,,,001,2025-03-10_16h53.01.025,SL_base_41,2021.2.3,Win32,60.24096386,,,4,0,4,0,1,,,,,,,,
,,"[""circle"",""green"",""hori"",""left"",[-106,106],[0,150]]",circle,green,hori,left,"[-106,106]","[0,150]",left,1,1.8559,,,,,,001,2025-03-10_16h53.01.025,SL_base_41,2021.2.3,Win32,60.24096386,,,5,0,5,0,1,,,,,,,,
,,"[""circle"",""green"",""hori"",""left"",[-150,0],[0,150]]",circle,green,hori,left,"[-150,0]","[0,150]",left,1,2.1848,,,,,,001,2025-03-10_16h53.01.025,SL_base_41,2021.2.3,Win32,60.24096386,,,6,0,6,0,1,,,,,,,,
,,"[""circle"",""red"",""vert"",""up"",[0,-150],[106,-106]]",circle,red,vert,up,"[0,-150]","[106,-106]",up,1,1.9394,,,,,,001,2025-03-10_16h53.01.025,SL_base_41,2021.2.3,Win32,60.24096386,,,7,0,7,0,1,,,,,,,,
,,"[""circle"",""red"",""vert"",""up"",[-150,0],[150,0]]",circle,red,vert,up,"[-150,0]","[150,0]",up,1,1.7284,,,,,,001,2025-03-10_16h53.01.025,SL_base_41,2021.2.3,Win32,60.24096386,,,8,0,8,0,1,,,,,,,,
,,"[""diamond"",""no_dis"",""vert"",""up"",[99999,99999],[150,0]]",diamond,no_dis,vert,up,"[99999,99999]","[150,0]",up,1,2.5927,,,,,,001,2025-03-10_16h53.01.025,SL_base_41,2021.2.3,Win32,60.24096386,,,9,0,9,0,1,,,,,,,,
,,"[""diamond"",""no_dis"",""hori"",""left"",[99999,99999],[106,-106]]",diamond,no_dis,hori,left,"[99999,99999]","[106,-106]",left,1,1.7402,,,,,,001,2025-03-10_16h53.01.025,SL_base_41,2021.2.3,Win32,60.24096386,,,10,0,10,0,1,,,,,,,,
,,"[""diamond"",""green"",""hori"",""left"",[0,-150],[106,-106]]",diamond,green,hori,left,"[0,-150]","[106,-106]",left,1,1.7973,,,,,,001,2025-03-10_16h53.01.025,SL_base_41,2021.2.3,Win32,60.24096386,,,11,0,11,0,1,,,,,,,,
,,"[""diamond"",""red"",""vert"",""up"",[-106,106],[0,-150]]",diamond,red,vert,up,"[-106,106]","[0,-150]",up,1,2.399,,,,,,001,2025-03-10_16h53.01.025,SL_base_41,2021.2.3,Win32,60.24096386,,,12,0,12,0,1,,,,,,,,
,,"[""diamond"",""red"",""vert"",""up"",[0,-150],[150,0]]",diamond,red,vert,up,"[0,-150]","[150,0]",up,1,1.3484,,,,,,001,2025-03-10_16h53.01.025,SL_base_41,2021.2.3,Win32,60.24096386,,,13,0,13,0,1,,,,,,,,
,,"[""circle"",""red"",""hori"",""left"",[150,0],[106,-106]]",circle,red,hori,left,"[150,0]","[106,-106]",left,1,2.9431,,,,,,001,2025-03-10_16h53.01.025,SL_base_41,2021.2.3,Win32,60.24096386,,,14,0,14,0,1,,,,,,,,
,,"[""circle"",""green"",""hori"",""left"",[-106,-106],[150,0]]",circle,green,hori,left,"[-106,-106]","[150,0]",left,1,1.6935,,,,,,001,2025-03-10_16h53.01.025,SL_base_41,2021.2.3,Win32,60.24096386,,,15,0,15,0,1,,,,,,,,
,,"[""circle"",""no_dis"",""vert"",""up"",[99999,99999],[150,0]]",circle,no_dis,vert,up,"[99999,99999]","[150,0]",up,1,2.1849,,,,,,001,2025-03-10_16h53.01.025,SL_base_41,2021.2.3,Win32,60.24096386,,,16,0,16,0,1,,,,,,,,
,,"[""circle"",""no_dis"",""vert"",""up"",[99999,99999],[106,106]]",circle,no_dis,vert,up,"[99999,99999]","[106,106]",up,1,2.1001,,,,,,001,2025-03-10_16h53.01.025,SL_base_41,2021.2.3,Win32,60.24096386,,,17,0,17,0,1,,,,,,,,
,,"[""diamond"",""red"",""hori"",""left"",[-106,-106],[-150,0]]",diamond,red,hori,left,"[-106,-106]","[-150,0]",left,1,1.7165,,,,,,001,2025-03-10_16h53.01.025,SL_base_41,2021.2.3,Win32,60.24096386,,,18,0,18,0,1,,,,,,,,
,,"[""circle"",""no_dis"",""hori"",""left"",[99999,99999],[0,150]]",circle,no_dis,hori,left,"[99999,99999]","[0,150]",left,1,2.2169,,,,,,001,2025-03-10_16h53.01.025,SL_base_41,2021.2.3,Win32,60.24096386,,,19,0,19,0,1,,,,,,,,
,,"[""circle"",""red"",""vert"",""up"",[-106,-106],[-106,106]]",circle,red,vert,up,"[-106,-106]","[-106,106]",left,0,2.239,,,,,,001,2025-03-10_16h53.01.025,SL_base_41,2021.2.3,Win32,60.24096386,,,20,0,20,0,1,,,,,,,,
,,"[""diamond"",""no_dis"",""hori"",""left"",[99999,99999],[0,-150]]",diamond,no_dis,hori,left,"[99999,99999]","[0,-150]",left,1,2.1536,,,,,,001,2025-03-10_16h53.01.025,SL_base_41,2021.2.3,Win32,60.24096386,,,21,0,21,0,1,,,,,,,,
,,"[""circle"",""green"",""vert"",""up"",[-150,0],[-106,-106]]",circle,green,vert,up,"[-150,0]","[-106,-106]",up,1,2.2946,,,,,,001,2025-03-10_16h53.01.025,SL_base_41,2021.2.3,Win32,60.24096386,,,22,0,22,0,1,,,,,,,,
,,"[""diamond"",""green"",""hori"",""left"",[0,150],[-106,-106]]",diamond,green,hori,left,"[0,150]","[-106,-106]",left,1,2.739,,,,,,001,2025-03-10_16h53.01.025,SL_base_41,2021.2.3,Win32,60.24096386,,,23,0,23,0,1,,,,,,,,
,,"[""diamond"",""no_dis"",""hori"",""left"",[99999,99999],[150,0]]",diamond,no_dis,hori,left,"[99999,99999]","[150,0]",left,1,2.1836,,,,,,001,2025-03-10_16h53.01.025,SL_base_41,2021.2.3,Win32,60.24096386,,,24,0,24,0,1,,,,,,,,
,,"[""circle"",""red"",""hori"",""left"",[0,-150],[106,-106]]",circle,red,hori,left,"[0,-150]","[106,-106]",left,1,1.6218,,,,,,001,2025-03-10_16h53.01.025,SL_base_41,2021.2.3,Win32,60.24096386,,,25,0,25,0,1,,,,,,,,
,,"[""diamond"",""no_dis"",""hori"",""left"",[99999,99999],[-106,-106]]",diamond,no_dis,hori,left,"[99999,99999]","[-106,-106]",left,1,1.3482,,,,,,001,2025-03-10_16h53.01.025,SL_base_41,2021.2.3,Win32,60.24096386,,,26,0,26,0,1,,,,,,,,
,,"[""circle"",""red"",""hori"",""left"",[150,0],[0,150]]",circle,red,hori,left,"[150,0]","[0,150]",left,1,2.2939,,,,,,001,2025-03-10_16h53.01.025,SL_base_41,2021.2.3,Win32,60.24096386,,,27,0,27,0,1,,,,,,,,
,,"[""diamond"",""no_dis"",""vert"",""up"",[99999,99999],[-150,0]]",diamond,no_dis,vert,up,"[99999,99999]","[-150,0]",up,1,1.3983,,,,,,001,2025-03-10_16h53.01.025,SL_base_41,2021.2.3,Win32,60.24096386,,,28,0,28,0,1,,,,,,,,
,,"[""circle"",""no_dis"",""vert"",""up"",[99999,99999],[106,106]]",circle,no_dis,vert,up,"[99999,99999]","[106,106]",,0,,,,,,,001,2025-03-10_16h53.01.025,SL_base_41,2021.2.3,Win32,60.24096386,,,29,0,29,0,1,,,,,,,,
,,"[""diamond"",""green"",""vert"",""up"",[0,-150],[-150,0]]",diamond,green,vert,up,"[0,-150]","[-150,0]",left,0,1.5392,,,,,,001,2025-03-10_16h53.01.025,SL_base_41,2021.2.3,Win32,60.24096386,,,30,0,30,0,1,,,,,,,,
,,"[""diamond"",""red"",""vert"",""up"",[-106,-106],[150,0]]",diamond,red,vert,up,"[-106,-106]","[150,0]",up,1,1.3977,,,,,,001,2025-03-10_16h53.01.025,SL_base_41,2021.2.3,Win32,60.24096386,,,31,0,31,0,1,,,,,,,,
,,"[""diamond"",""green"",""vert"",""up"",[106,106],[106,-106]]",diamond,green,vert,up,"[106,106]","[106,-106]",left,0,2.1379,,,,,,001,2025-03-10_16h53.01.025,SL_base_41,2021.2.3,Win32,60.24096386,,,32,0,32,0,1,,,,,,,,
,,"[""diamond"",""red"",""hori"",""left"",[0,-150],[0,150]]",diamond,red,hori,left,"[0,-150]","[0,150]",left,1,1.714,,,,,,001,2025-03-10_16h53.01.025,SL_base_41,2021.2.3,Win32,60.24096386,,,33,0,33,0,1,,,,,,,,
,,"[""diamond"",""red"",""vert"",""up"",[-106,-106],[106,106]]",diamond,red,vert,up,"[-106,-106]","[106,106]",up,1,1.3,,,,,,001,2025-03-10_16h53.01.025,SL_base_41,2021.2.3,Win32,60.24096386,,,34,0,34,0,1,,,,,,,,
,,"[""circle"",""green"",""hori"",""left"",[0,-150],[-150,0]]",circle,green,hori,left,"[0,-150]","[-150,0]",left,1,1.4662,,,,,,001,2025-03-10_16h53.01.025,SL_base_41,2021.2.3,Win32,60.24096386,,,35,0,35,0,1,,,,,,,,
,,"[""circle"",""green"",""vert"",""up"",[0,150],[0,-150]]",circle,green,vert,up,"[0,150]","[0,-150]",up,1,2.2675,,,,,,001,2025-03-10_16h53.01.025,SL_base_41,2021.2.3,Win32,60.24096386,,,36,0,36,0,1,,,,,,,,
,,"[""diamond"",""red"",""vert"",""up"",[150,0],[-106,106]]",diamond,red,vert,up,"[150,0]","[-106,106]",left,0,2.0548,,,,,,001,2025-03-10_16h53.01.025,SL_base_41,2021.2.3,Win32,60.24096386,,,37,0,37,0,1,,,,,,,,
,,"[""circle"",""green"",""hori"",""left"",[0,-150],[150,0]]",circle,green,hori,left,"[0,-150]","[150,0]",left,1,1.3541,,,,,,001,2025-03-10_16h53.01.025,SL_base_41,2021.2.3,Win32,60.24096386,,,38,0,38,0,1,,,,,,,,
,,"[""circle"",""red"",""hori"",""left"",[106,106],[0,-150]]",circle,red,hori,left,"[106,106]","[0,-150]",left,1,1.9352,,,,,,001,2025-03-10_16h53.01.025,SL_base_41,2021.2.3,Win32,60.24096386,,,39,0,39,0,1,,,,,,,,
,,"[""diamond"",""no_dis"",""hori"",""left"",[99999,99999],[-150,0]]",diamond,no_dis,hori,left,"[99999,99999]","[-150,0]",left,1,1.3494,,,,,,001,2025-03-10_16h53.01.025,SL_base_41,2021.2.3,Win32,60.24096386,,,40,0,40,0,1,,,,,,,,
,,"[""diamond"",""no_dis"",""hori"",""left"",[99999,99999],[0,150]]",diamond,no_dis,hori,left,"[99999,99999]","[0,150]",left,1,1.2644,,,,,,001,2025-03-10_16h53.01.025,SL_base_41,2021.2.3,Win32,60.24096386,,,41,0,41,0,1,,,,,,,,
,,"[""diamond"",""red"",""hori"",""left"",[-150,0],[0,150]]",diamond,red,hori,left,"[-150,0]","[0,150]",left,1,1.2812,,,,,,001,2025-03-10_16h53.01.025,SL_base_41,2021.2.3,Win32,60.24096386,,,42,0,42,0,1,,,,,,,,
,,"[""diamond"",""no_dis"",""hori"",""left"",[99999,99999],[0,-150]]",diamond,no_dis,hori,left,"[99999,99999]","[0,-150]",left,1,1.7977,,,,,,001,2025-03-10_16h53.01.025,SL_base_41,2021.2.3,Win32,60.24096386,,,43,0,43,0,1,,,,,,,,
,,"[""diamond"",""no_dis"",""vert"",""up"",[99999,99999],[106,106]]",diamond,no_dis,vert,up,"[99999,99999]","[106,106]",up,1,2.0719,,,,,,001,2025-03-10_16h53.01.025,SL_base_41,2021.2.3,Win32,60.24096386,,,44,0,44,0,1,,,,,,,,
,,"[""diamond"",""red"",""hori"",""left"",[0,-150],[106,-106]]",diamond,red,hori,left,"[0,-150]","[106,-106]",left,1,1.472,,,,,,001,2025-03-10_16h53.01.025,SL_base_41,2021.2.3,Win32,60.24096386,,,45,0,45,0,1,,,,,,,,
,,"[""circle"",""green"",""hori"",""left"",[0,150],[0,-150]]",circle,green,hori,left,"[0,150]","[0,-150]",left,1,1.5515,,,,,,001,2025-03-10_16h53.01.025,SL_base_41,2021.2.3,Win32,60.24096386,,,46,0,46,0,1,,,,,,,,
,,"[""circle"",""red"",""vert"",""up"",[0,-150],[150,0]]",circle,red,vert,up,"[0,-150]","[150,0]",left,0,1.4751,,,,,,001,2025-03-10_16h53.01.025,SL_base_41,2021.2.3,Win32,60.24096386,,,47,0,47,0,1,,,,,,,,
,,"[""diamond"",""red"",""vert"",""up"",[-106,-106],[-106,106]]",diamond,red,vert,up,"[-106,-106]","[-106,106]",up,1,1.7211,,,,,,001,2025-03-10_16h53.01.025,SL_base_41,2021.2.3,Win32,60.24096386,,,48,0,48,0,1,,,,,,,,
,,"[""diamond"",""green"",""vert"",""up"",[106,106],[-106,106]]",diamond,green,vert,up,"[106,106]","[-106,106]",up,1,1.804,,,,,,001,2025-03-10_16h53.01.025,SL_base_41,2021.2.3,Win32,60.24096386,,,49,0,49,0,1,,,,,,,,
,,"[""diamond"",""green"",""hori"",""left"",[-106,106],[0,-150]]",diamond,green,hori,left,"[-106,106]","[0,-150]",left,1,1.8298,,,,,,001,2025-03-10_16h53.01.025,SL_base_41,2021.2.3,Win32,60.24096386,,,50,0,50,0,1,,,,,,,,
,,"[""diamond"",""green"",""hori"",""left"",[0,-150],[-150,0]]",diamond,green,hori,left,"[0,-150]","[-150,0]",left,1,1.6032,,,,,,001,2025-03-10_16h53.01.025,SL_base_41,2021.2.3,Win32,60.24096386,,,51,0,51,0,1,,,,,,,,
,,"[""circle"",""no_dis"",""vert"",""up"",[99999,99999],[0,-150]]",circle,no_dis,vert,up,"[99999,99999]","[0,-150]",up,1,1.8997,,,,,,001,2025-03-10_16h53.01.025,SL_base_41,2021.2.3,Win32,60.24096386,,,52,0,52,0,1,,,,,,,,
,,"[""circle"",""green"",""hori"",""left"",[-150,0],[150,0]]",circle,green,hori,left,"[-150,0]","[150,0]",left,1,1.4383,,,,,,001,2025-03-10_16h53.01.025,SL_base_41,2021.2.3,Win32,60.24096386,,,53,0,53,0,1,,,,,,,,
,,"[""circle"",""no_dis"",""hori"",""left"",[99999,99999],[150,0]]",circle,no_dis,hori,left,"[99999,99999]","[150,0]",left,1,1.3572,,,,,,001,2025-03-10_16h53.01.025,SL_base_41,2021.2.3,Win32,60.24096386,,,54,0,54,0,1,,,,,,,,
,,"[""diamond"",""no_dis"",""hori"",""left"",[99999,99999],[0,150]]",diamond,no_dis,hori,left,"[99999,99999]","[0,150]",left,1,1.2565,,,,,,001,2025-03-10_16h53.01.025,SL_base_41,2021.2.3,Win32,60.24096386,,,55,0,55,0,1,,,,,,,,
,,"[""circle"",""green"",""hori"",""left"",[0,150],[-106,106]]",circle,green,hori,left,"[0,150]","[-106,106]",left,1,1.6714,,,,,,001,2025-03-10_16h53.01.025,SL_base_41,2021.2.3,Win32,60.24096386,,,56,0,56,0,1,,,,,,,,
,,"[""circle"",""green"",""hori"",""left"",[150,0],[106,-106]]",circle,green,hori,left,"[150,0]","[106,-106]",left,1,1.3155,,,,,,001,2025-03-10_16h53.01.025,SL_base_41,2021.2.3,Win32,60.24096386,,,57,0,57,0,1,,,,,,,,
,,"[""circle"",""red"",""vert"",""up"",[-150,0],[106,106]]",circle,red,vert,up,"[-150,0]","[106,106]",up,1,1.2729,,,,,,001,2025-03-10_16h53.01.025,SL_base_41,2021.2.3,Win32,60.24096386,,,58,0,58,0,1,,,,,,,,
,,"[""diamond"",""green"",""hori"",""left"",[0,150],[-106,-106]]",diamond,green,hori,left,"[0,150]","[-106,-106]",left,1,1.416,,,,,,001,2025-03-10_16h53.01.025,SL_base_41,2021.2.3,Win32,60.24096386,,,59,0,59,0,1,,,,,,,,
,,"[""circle"",""green"",""vert"",""up"",[-150,0],[106,106]]",circle,green,vert,up,"[-150,0]","[106,106]",up,1,1.7089,,,,,,001,2025-03-10_16h53.01.025,SL_base_41,2021.2.3,Win32,60.24096386,,,60,0,60,0,1,,,,,,,,
,,"[""circle"",""no_dis"",""vert"",""up"",[99999,99999],[106,-106]]",circle,no_dis,vert,up,"[99999,99999]","[106,-106]",up,1,1.3227,,,,,,001,2025-03-10_16h53.01.025,SL_base_41,2021.2.3,Win32,60.24096386,,,61,0,61,0,1,,,,,,,,
,,"[""diamond"",""no_dis"",""vert"",""up"",[99999,99999],[-106,-106]]",diamond,no_dis,vert,up,"[99999,99999]","[-106,-106]",up,1,1.5327,,,,,,001,2025-03-10_16h53.01.025,SL_base_41,2021.2.3,Win32,60.24096386,,,62,0,62,0,1,,,,,,,,
,,"[""diamond"",""green"",""hori"",""left"",[106,-106],[-106,-106]]",diamond,green,hori,left,"[106,-106]","[-106,-106]",left,1,1.2476,,,,,,001,2025-03-10_16h53.01.025,SL_base_41,2021.2.3,Win32,60.24096386,,,63,0,63,0,1,,,,,,,,
,,"[""circle"",""red"",""hori"",""left"",[0,-150],[-106,-106]]",circle,red,hori,left,"[0,-150]","[-106,-106]",left,1,1.426,,,,,,001,2025-03-10_16h53.01.025,SL_base_41,2021.2.3,Win32,60.24096386,,,64,0,64,0,1,,,,,,,,
,,"[""circle"",""green"",""vert"",""up"",[150,0],[-106,-106]]",circle,green,vert,up,"[150,0]","[-106,-106]",up,1,1.3852,,,,,,001,2025-03-10_16h53.01.025,SL_base_41,2021.2.3,Win32,60.24096386,,,65,0,65,0,1,,,,,,,,
,,"[""circle"",""green"",""vert"",""up"",[150,0],[-150,0]]",circle,green,vert,up,"[150,0]","[-150,0]",up,1,1.3921,,,,,,001,2025-03-10_16h53.01.025,SL_base_41,2021.2.3,Win32,60.24096386,,,66,0,66,0,1,,,,,,,,
,,"[""circle"",""no_dis"",""hori"",""left"",[99999,99999],[-106,106]]",circle,no_dis,hori,left,"[99999,99999]","[-106,106]",left,1,1.2834,,,,,,001,2025-03-10_16h53.01.025,SL_base_41,2021.2.3,Win32,60.24096386,,,67,0,67,0,1,,,,,,,,
,,"[""circle"",""green"",""vert"",""up"",[-106,106],[106,106]]",circle,green,vert,up,"[-106,106]","[106,106]",up,1,1.6064,,,,,,001,2025-03-10_16h53.01.025,SL_base_41,2021.2.3,Win32,60.24096386,,,68,0,68,0,1,,,,,,,,
,,"[""diamond"",""green"",""vert"",""up"",[106,-106],[0,-150]]",diamond,green,vert,up,"[106,-106]","[0,-150]",up,1,1.4307,,,,,,001,2025-03-10_16h53.01.025,SL_base_41,2021.2.3,Win32,60.24096386,,,69,0,69,0,1,,,,,,,,
,,"[""circle"",""green"",""vert"",""up"",[150,0],[-106,-106]]",circle,green,vert,up,"[150,0]","[-106,-106]",up,1,1.3699,,,,,,001,2025-03-10_16h53.01.025,SL_base_41,2021.2.3,Win32,60.24096386,,,70,0,70,0,1,,,,,,,,
,,"[""diamond"",""red"",""vert"",""up"",[0,-150],[0,150]]",diamond,red,vert,up,"[0,-150]","[0,150]",left,0,1.7545,,,,,,001,2025-03-10_16h53.01.025,SL_base_41,2021.2.3,Win32,60.24096386,,,71,0,71,0,1,,,,,,,,
,,"[""diamond"",""green"",""vert"",""up"",[0,-150],[-106,106]]",diamond,green,vert,up,"[0,-150]","[-106,106]",up,1,1.2496,,,,,,001,2025-03-10_16h53.01.025,SL_base_41,2021.2.3,Win32,60.24096386,,,72,0,72,0,1,,,,,,,,
,,"[""diamond"",""red"",""vert"",""up"",[0,150],[0,-150]]",diamond,red,vert,up,"[0,150]","[0,-150]",up,1,1.7204,,,,,,001,2025-03-10_16h53.01.025,SL_base_41,2021.2.3,Win32,60.24096386,,,73,0,73,0,1,,,,,,,,
,,"[""circle"",""no_dis"",""hori"",""left"",[99999,99999],[0,-150]]",circle,no_dis,hori,left,"[99999,99999]","[0,-150]",left,1,1.3657,,,,,,001,2025-03-10_16h53.01.025,SL_base_41,2021.2.3,Win32,60.24096386,,,74,0,74,0,1,,,,,,,,
,,"[""circle"",""no_dis"",""hori"",""left"",[99999,99999],[-106,-106]]",circle,no_dis,hori,left,"[99999,99999]","[-106,-106]",left,1,1.8901,,,,,,001,2025-03-10_16h53.01.025,SL_base_41,2021.2.3,Win32,60.24096386,,,75,0,75,0,1,,,,,,,,
,,"[""circle"",""no_dis"",""vert"",""up"",[99999,99999],[150,0]]",circle,no_dis,vert,up,"[99999,99999]","[150,0]",up,1,1.2383,,,,,,001,2025-03-10_16h53.01.025,SL_base_41,2021.2.3,Win32,60.24096386,,,76,0,76,0,1,,,,,,,,
,,"[""diamond"",""green"",""vert"",""up"",[0,-150],[106,106]]",diamond,green,vert,up,"[0,-150]","[106,106]",up,1,1.6697,,,,,,001,2025-03-10_16h53.01.025,SL_base_41,2021.2.3,Win32,60.24096386,,,77,0,77,0,1,,,,,,,,
,,"[""diamond"",""red"",""hori"",""left"",[0,-150],[150,0]]",diamond,red,hori,left,"[0,-150]","[150,0]",left,1,1.3851,,,,,,001,2025-03-10_16h53.01.025,SL_base_41,2021.2.3,Win32,60.24096386,,,78,0,78,0,1,,,,,,,,
,,"[""circle"",""red"",""hori"",""left"",[0,-150],[0,150]]",circle,red,hori,left,"[0,-150]","[0,150]",left,1,2.5223,,,,,,001,2025-03-10_16h53.01.025,SL_base_41,2021.2.3,Win32,60.24096386,,,79,0,79,0,1,,,,,,,,
,,"[""circle"",""red"",""vert"",""up"",[106,106],[0,150]]",circle,red,vert,up,"[106,106]","[0,150]",up,1,2.7659,,,,,,001,2025-03-10_16h53.01.025,SL_base_41,2021.2.3,Win32,60.24096386,,,80,0,80,0,1,,,,,,,,
,,"[""circle"",""red"",""vert"",""up"",[0,-150],[-106,106]]",circle,red,vert,up,"[0,-150]","[-106,106]",up,1,1.3521,,,,,,001,2025-03-10_16h53.01.025,SL_base_41,2021.2.3,Win32,60.24096386,,,81,0,81,0,1,,,,,,,,
,,"[""circle"",""no_dis"",""hori"",""left"",[99999,99999],[-106,-106]]",circle,no_dis,hori,left,"[99999,99999]","[-106,-106]",left,1,1.0941,,,,,,001,2025-03-10_16h53.01.025,SL_base_41,2021.2.3,Win32,60.24096386,,,82,0,82,0,1,,,,,,,,
,,"[""circle"",""red"",""vert"",""up"",[106,-106],[-106,-106]]",circle,red,vert,up,"[106,-106]","[-106,-106]",up,1,1.9498,,,,,,001,2025-03-10_16h53.01.025,SL_base_41,2021.2.3,Win32,60.24096386,,,83,0,83,0,1,,,,,,,,
,,"[""diamond"",""green"",""vert"",""up"",[0,-150],[150,0]]",diamond,green,vert,up,"[0,-150]","[150,0]",up,1,1.3894,,,,,,001,2025-03-10_16h53.01.025,SL_base_41,2021.2.3,Win32,60.24096386,,,84,0,84,0,1,,,,,,,,
,,"[""diamond"",""no_dis"",""vert"",""up"",[99999,99999],[-150,0]]",diamond,no_dis,vert,up,"[99999,99999]","[-150,0]",up,1,1.1517,,,,,,001,2025-03-10_16h53.01.025,SL_base_41,2021.2.3,Win32,60.24096386,,,85,0,85,0,1,,,,,,,,
,,"[""diamond"",""no_dis"",""vert"",""up"",[99999,99999],[-106,106]]",diamond,no_dis,vert,up,"[99999,99999]","[-106,106]",up,1,1.8411,,,,,,001,2025-03-10_16h53.01.025,SL_base_41,2021.2.3,Win32,60.24096386,,,86,0,86,0,1,,,,,,,,
,,"[""circle"",""no_dis"",""vert"",""up"",[99999,99999],[-106,-106]]",circle,no_dis,vert,up,"[99999,99999]","[-106,-106]",up,1,1.2656,,,,,,001,2025-03-10_16h53.01.025,SL_base_41,2021.2.3,Win32,60.24096386,,,87,0,87,0,1,,,,,,,,
,,"[""diamond"",""red"",""hori"",""left"",[106,106],[-150,0]]",diamond,red,hori,left,"[106,106]","[-150,0]",left,1,1.7159,,,,,,001,2025-03-10_16h53.01.025,SL_base_41,2021.2.3,Win32,60.24096386,,,88,0,88,0,1,,,,,,,,
,,"[""diamond"",""green"",""hori"",""left"",[106,106],[-106,106]]",diamond,green,hori,left,"[106,106]","[-106,106]",left,1,1.4985,,,,,,001,2025-03-10_16h53.01.025,SL_base_41,2021.2.3,Win32,60.24096386,,,89,0,89,0,1,,,,,,,,
,,"[""circle"",""red"",""hori"",""left"",[0,-150],[-106,-106]]",circle,red,hori,left,"[0,-150]","[-106,-106]",up,0,2.3583,,,,,,001,2025-03-10_16h53.01.025,SL_base_41,2021.2.3,Win32,60.24096386,,,90,0,90,0,1,,,,,,,,
,,"[""circle"",""red"",""hori"",""left"",[-106,106],[-106,-106]]",circle,red,hori,left,"[-106,106]","[-106,-106]",left,1,1.6065,,,,,,001,2025-03-10_16h53.01.025,SL_base_41,2021.2.3,Win32,60.24096386,,,91,0,91,0,1,,,,,,,,
,,"[""circle"",""red"",""vert"",""up"",[106,106],[0,-150]]",circle,red,vert,up,"[106,106]","[0,-150]",up,1,1.4357,,,,,,001,2025-03-10_16h53.01.025,SL_base_41,2021.2.3,Win32,60.24096386,,,92,0,92,0,1,,,,,,,,
,,"[""diamond"",""green"",""vert"",""up"",[-106,106],[106,-106]]",diamond,green,vert,up,"[-106,106]","[106,-106]",up,1,1.4732,,,,,,001,2025-03-10_16h53.01.025,SL_base_41,2021.2.3,Win32,60.24096386,,,93,0,93,0,1,,,,,,,,
,,"[""diamond"",""red"",""vert"",""up"",[0,-150],[-106,-106]]",diamond,red,vert,up,"[0,-150]","[-106,-106]",up,1,2.0151,,,,,,001,2025-03-10_16h53.01.025,SL_base_41,2021.2.3,Win32,60.24096386,,,94,0,94,0,1,,,,,,,,
,,"[""diamond"",""no_dis"",""vert"",""up"",[99999,99999],[-106,106]]",diamond,no_dis,vert,up,"[99999,99999]","[-106,106]",up,1,1.7528,,,,,,001,2025-03-10_16h53.01.025,SL_base_41,2021.2.3,Win32,60.24096386,,,95,0,95,0,1,,,,,,,,
,,"[""diamond"",""green"",""hori"",""left"",[106,-106],[0,-150]]",diamond,green,hori,left,"[106,-106]","[0,-150]",left,1,1.76,,,,,,001,2025-03-10_16h53.01.025,SL_base_41,2021.2.3,Win32,60.24096386,,,96,0,96,0,1,,,,,,,,
,,"[""diamond"",""green"",""hori"",""left"",[0,-150],[0,150]]",diamond,green,hori,left,"[0,-150]","[0,150]",left,1,1.4062,,,,,,001,2025-03-10_16h53.01.025,SL_base_41,2021.2.3,Win32,60.24096386,,,97,0,97,0,1,,,,,,,,
,,"[""diamond"",""no_dis"",""vert"",""up"",[99999,99999],[-106,106]]",diamond,no_dis,vert,up,"[99999,99999]","[-106,106]",up,1,1.7132,,,,,,001,2025-03-10_16h53.01.025,SL_base_41,2021.2.3,Win32,60.24096386,,,98,0,98,0,1,,,,,,,,
,,"[""diamond"",""green"",""hori"",""left"",[0,-150],[106,106]]",diamond,green,hori,left,"[0,-150]","[106,106]",left,1,1.2578,,,,,,001,2025-03-10_16h53.01.025,SL_base_41,2021.2.3,Win32,60.24096386,,,99,0,99,0,1,,,,,,,,
,,"[""diamond"",""red"",""vert"",""up"",[0,-150],[106,106]]",diamond,red,vert,up,"[0,-150]","[106,106]",up,1,1.399,,,,,,001,2025-03-10_16h53.01.025,SL_base_41,2021.2.3,Win32,60.24096386,,,100,0,100,0,1,,,,,,,,
,,"[""circle"",""red"",""hori"",""left"",[0,150],[106,106]]",circle,red,hori,left,"[0,150]","[106,106]",left,1,2.3717,,,,,,001,2025-03-10_16h53.01.025,SL_base_41,2021.2.3,Win32,60.24096386,,,101,0,101,0,1,,,,,,,,
,,"[""diamond"",""green"",""hori"",""left"",[-106,-106],[0,150]]",diamond,green,hori,left,"[-106,-106]","[0,150]",left,1,1.4397,,,,,,001,2025-03-10_16h53.01.025,SL_base_41,2021.2.3,Win32,60.24096386,,,102,0,102,0,1,,,,,,,,
,,"[""diamond"",""red"",""hori"",""left"",[0,-150],[106,106]]",diamond,red,hori,left,"[0,-150]","[106,106]",left,1,1.7586,,,,,,001,2025-03-10_16h53.01.025,SL_base_41,2021.2.3,Win32,60.24096386,,,103,0,103,0,1,,,,,,,,
,,"[""diamond"",""no_dis"",""hori"",""left"",[99999,99999],[106,-106]]",diamond,no_dis,hori,left,"[99999,99999]","[106,-106]",left,1,1.2834,,,,,,001,2025-03-10_16h53.01.025,SL_base_41,2021.2.3,Win32,60.24096386,,,104,0,104,0,1,,,,,,,,
,,"[""circle"",""red"",""hori"",""left"",[-106,106],[-106,-106]]",circle,red,hori,left,"[-106,106]","[-106,-106]",left,1,2.1486,,,,,,001,2025-03-10_16h53.01.025,SL_base_41,2021.2.3,Win32,60.24096386,,,105,0,105,0,1,,,,,,,,
,,"[""circle"",""red"",""hori"",""left"",[106,-106],[-106,-106]]",circle,red,hori,left,"[106,-106]","[-106,-106]",left,1,2.2418,,,,,,001,2025-03-10_16h53.01.025,SL_base_41,2021.2.3,Win32,60.24096386,,,106,0,106,0,1,,,,,,,,
,,"[""circle"",""green"",""vert"",""up"",[106,106],[106,-106]]",circle,green,vert,up,"[106,106]","[106,-106]",up,1,2.2004,,,,,,001,2025-03-10_16h53.01.025,SL_base_41,2021.2.3,Win32,60.24096386,,,107,0,107,0,1,,,,,,,,
,,"[""diamond"",""green"",""vert"",""up"",[0,-150],[106,106]]",diamond,green,vert,up,"[0,-150]","[106,106]",up,1,1.9792,,,,,,001,2025-03-10_16h53.01.025,SL_base_41,2021.2.3,Win32,60.24096386,,,108,0,108,0,1,,,,,,,,
,,"[""diamond"",""red"",""vert"",""up"",[0,-150],[150,0]]",diamond,red,vert,up,"[0,-150]","[150,0]",up,1,1.7355,,,,,,001,2025-03-10_16h53.01.025,SL_base_41,2021.2.3,Win32,60.24096386,,,109,0,109,0,1,,,,,,,,
,,"[""diamond"",""red"",""hori"",""left"",[0,-150],[106,-106]]",diamond,red,hori,left,"[0,-150]","[106,-106]",left,1,1.4778,,,,,,001,2025-03-10_16h53.01.025,SL_base_41,2021.2.3,Win32,60.24096386,,,110,0,110,0,1,,,,,,,,
,,"[""circle"",""green"",""vert"",""up"",[106,-106],[-106,-106]]",circle,green,vert,up,"[106,-106]","[-106,-106]",,0,,,,,,,001,2025-03-10_16h53.01.025,SL_base_41,2021.2.3,Win32,60.24096386,,,111,0,111,0,1,,,,,,,,
,,"[""diamond"",""red"",""hori"",""left"",[0,-150],[150,0]]",diamond,red,hori,left,"[0,-150]","[150,0]",left,1,1.1818,,,,,,001,2025-03-10_16h53.01.025,SL_base_41,2021.2.3,Win32,60.24096386,,,112,0,112,0,1,,,,,,,,
,,"[""diamond"",""green"",""vert"",""up"",[-106,106],[150,0]]",diamond,green,vert,up,"[-106,106]","[150,0]",up,1,1.5465,,,,,,001,2025-03-10_16h53.01.025,SL_base_41,2021.2.3,Win32,60.24096386,,,113,0,113,0,1,,,,,,,,
,,"[""circle"",""no_dis"",""vert"",""up"",[99999,99999],[106,106]]",circle,no_dis,vert,up,"[99999,99999]","[106,106]",up,1,1.9486,,,,,,001,2025-03-10_16h53.01.025,SL_base_41,2021.2.3,Win32,60.24096386,,,114,0,114,0,1,,,,,,,,
,,"[""circle"",""green"",""vert"",""up"",[0,-150],[0,150]]",circle,green,vert,up,"[0,-150]","[0,150]",up,1,2.1402,,,,,,001,2025-03-10_16h53.01.025,SL_base_41,2021.2.3,Win32,60.24096386,,,115,0,115,0,1,,,,,,,,
,,"[""circle"",""no_dis"",""hori"",""left"",[99999,99999],[106,-106]]",circle,no_dis,hori,left,"[99999,99999]","[106,-106]",left,1,1.4675,,,,,,001,2025-03-10_16h53.01.025,SL_base_41,2021.2.3,Win32,60.24096386,,,116,0,116,0,1,,,,,,,,
,,"[""circle"",""no_dis"",""vert"",""up"",[99999,99999],[0,150]]",circle,no_dis,vert,up,"[99999,99999]","[0,150]",up,1,1.5106,,,,,,001,2025-03-10_16h53.01.025,SL_base_41,2021.2.3,Win32,60.24096386,,,117,0,117,0,1,,,,,,,,
,,"[""circle"",""red"",""vert"",""up"",[106,-106],[106,106]]",circle,red,vert,up,"[106,-106]","[106,106]",up,1,1.6222,,,,,,001,2025-03-10_16h53.01.025,SL_base_41,2021.2.3,Win32,60.24096386,,,118,0,118,0,1,,,,,,,,
,,"[""circle"",""green"",""hori"",""left"",[0,-150],[106,106]]",circle,green,hori,left,"[0,-150]","[106,106]",left,1,1.5325,,,,,,001,2025-03-10_16h53.01.025,SL_base_41,2021.2.3,Win32,60.24096386,,,119,0,119,0,1,,,,,,,,
,,"[""circle"",""no_dis"",""hori"",""left"",[99999,99999],[-150,0]]",circle,no_dis,hori,left,"[99999,99999]","[-150,0]",left,1,1.2489,,,,,,001,2025-03-10_16h53.01.025,SL_base_41,2021.2.3,Win32,60.24096386,,,120,0,120,0,1,,,,,,,,
,,"[""circle"",""green"",""vert"",""up"",[150,0],[-150,0]]",circle,green,vert,up,"[150,0]","[-150,0]",up,1,1.5585,,,,,,001,2025-03-10_16h53.01.025,SL_base_41,2021.2.3,Win32,60.24096386,,,121,0,121,0,1,,,,,,,,
,,"[""diamond"",""green"",""vert"",""up"",[0,150],[106,106]]",diamond,green,vert,up,"[0,150]","[106,106]",up,1,2.7855,,,,,,001,2025-03-10_16h53.01.025,SL_base_41,2021.2.3,Win32,60.24096386,,,122,0,122,0,1,,,,,,,,
,,"[""circle"",""no_dis"",""hori"",""left"",[99999,99999],[-150,0]]",circle,no_dis,hori,left,"[99999,99999]","[-150,0]",left,1,1.5872,,,,,,001,2025-03-10_16h53.01.025,SL_base_41,2021.2.3,Win32,60.24096386,,,123,0,123,0,1,,,,,,,,
,,"[""diamond"",""red"",""hori"",""left"",[106,-106],[-106,-106]]",diamond,red,hori,left,"[106,-106]","[-106,-106]",left,1,1.9322,,,,,,001,2025-03-10_16h53.01.025,SL_base_41,2021.2.3,Win32,60.24096386,,,124,0,124,0,1,,,,,,,,
,,"[""circle"",""green"",""hori"",""left"",[0,-150],[150,0]]",circle,green,hori,left,"[0,-150]","[150,0]",left,1,1.559,,,,,,001,2025-03-10_16h53.01.025,SL_base_41,2021.2.3,Win32,60.24096386,,,125,0,125,0,1,,,,,,,,
,,"[""circle"",""red"",""vert"",""up"",[-150,0],[0,-150]]",circle,red,vert,up,"[-150,0]","[0,-150]",up,1,1.4385,,,,,,001,2025-03-10_16h53.01.025,SL_base_41,2021.2.3,Win32,60.24096386,,,126,0,126,0,1,,,,,,,,
,,"[""diamond"",""no_dis"",""vert"",""up"",[99999,99999],[106,-106]]",diamond,no_dis,vert,up,"[99999,99999]","[106,-106]",up,1,1.7333,,,,,,001,2025-03-10_16h53.01.025,SL_base_41,2021.2.3,Win32,60.24096386,,,127,0,127,0,1,,,,,,,,
,,,,,,,,,,,,,,,,,001,2025-03-10_16h53.01.025,SL_base_41,2021.2.3,Win32,60.24096386,,,,,,,,2,space,13.733,1,0,1,0,1
,,"[""diamond"",""green"",""vert"",""up"",[0,150],[106,106]]",diamond,green,vert,up,"[0,150]","[106,106]",left,0,2.6059,,,,,,001,2025-03-10_16h53.01.025,SL_base_41,2021.2.3,Win32,60.24096386,,,0,0,0,0,1,,,,,,,,
,,"[""diamond"",""red"",""vert"",""up"",[0,-150],[-106,-106]]",diamond,red,vert,up,"[0,-150]","[-106,-106]",up,1,2.2742,,,,,,001,2025-03-10_16h53.01.025,SL_base_41,2021.2.3,Win32,60.24096386,,,1,0,1,0,1,,,,,,,,
,,"[""diamond"",""no_dis"",""vert"",""up"",[99999,99999],[150,0]]",diamond,no_dis,vert,up,"[99999,99999]","[150,0]",up,1,1.7659,,,,,,001,2025-03-10_16h53.01.025,SL_base_41,2021.2.3,Win32,60.24096386,,,2,0,2,0,1,,,,,,,,
,,"[""circle"",""no_dis"",""hori"",""left"",[99999,99999],[-150,0]]",circle,no_dis,hori,left,"[99999,99999]","[-150,0]",left,1,1.8357,,,,,,001,2025-03-10_16h53.01.025,SL_base_41,2021.2.3,Win32,60.24096386,,,3,0,3,0,1,,,,,,,,
,,"[""circle"",""green"",""vert"",""up"",[150,0],[-150,0]]",circle,green,vert,up,"[150,0]","[-150,0]",up,1,2.2437,,,,,,001,2025-03-10_16h53.01.025,SL_base_41,2021.2.3,Win32,60.24096386,,,4,0,4,0,1,,,,,,,,
,,"[""diamond"",""green"",""vert"",""up"",[0,-150],[106,106]]",diamond,green,vert,up,"[0,-150]","[106,106]",up,1,1.4735,,,,,,001,2025-03-10_16h53.01.025,SL_base_41,2021.2.3,Win32,60.24096386,,,5,0,5,0,1,,,,,,,,
,,"[""diamond"",""green"",""hori"",""left"",[0,-150],[106,106]]",diamond,green,hori,left,"[0,-150]","[106,106]",left,1,1.4662,,,,,,001,2025-03-10_16h53.01.025,SL_base_41,2021.2.3,Win32,60.24096386,,,6,0,6,0,1,,,,,,,,
,,"[""circle"",""green"",""hori"",""left"",[-106,-106],[150,0]]",circle,green,hori,left,"[-106,-106]","[150,0]",left,1,1.4151,,,,,,001,2025-03-10_16h53.01.025,SL_base_41,2021.2.3,Win32,60.24096386,,,7,0,7,0,1,,,,,,,,
,,"[""circle"",""green"",""hori"",""left"",[0,-150],[150,0]]",circle,green,hori,left,"[0,-150]","[150,0]",left,1,1.5034,,,,,,001,2025-03-10_16h53.01.025,SL_base_41,2021.2.3,Win32,60.24096386,,,8,0,8,0,1,,,,,,,,
,,"[""circle"",""green"",""hori"",""left"",[-106,106],[0,150]]",circle,green,hori,left,"[-106,106]","[0,150]",left,1,2.3045,,,,,,001,2025-03-10_16h53.01.025,SL_base_41,2021.2.3,Win32,60.24096386,,,9,0,9,0,1,,,,,,,,
,,"[""circle"",""no_dis"",""hori"",""left"",[99999,99999],[0,-150]]",circle,no_dis,hori,left,"[99999,99999]","[0,-150]",left,1,1.2498,,,,,,001,2025-03-10_16h53.01.025,SL_base_41,2021.2.3,Win32,60.24096386,,,10,0,10,0,1,,,,,,,,
,,"[""circle"",""red"",""vert"",""up"",[0,-150],[106,-106]]",circle,red,vert,up,"[0,-150]","[106,-106]",up,1,2.5259,,,,,,001,2025-03-10_16h53.01.025,SL_base_41,2021.2.3,Win32,60.24096386,,,11,0,11,0,1,,,,,,,,
,,"[""circle"",""red"",""hori"",""left"",[-106,106],[-106,-106]]",circle,red,hori,left,"[-106,106]","[-106,-106]",left,1,1.6505,,,,,,001,2025-03-10_16h53.01.025,SL_base_41,2021.2.3,Win32,60.24096386,,,12,0,12,0,1,,,,,,,,
,,"[""circle"",""red"",""hori"",""left"",[-106,106],[-106,-106]]",circle,red,hori,left,"[-106,106]","[-106,-106]",left,1,1.3154,,,,,,001,2025-03-10_16h53.01.025,SL_base_41,2021.2.3,Win32,60.24096386,,,13,0,13,0,1,,,,,,,,
,,"[""diamond"",""green"",""hori"",""left"",[0,-150],[-150,0]]",diamond,green,hori,left,"[0,-150]","[-150,0]",left,1,2.3889,,,,,,001,2025-03-10_16h53.01.025,SL_base_41,2021.2.3,Win32,60.24096386,,,14,0,14,0,1,,,,,,,,
,,"[""circle"",""no_dis"",""hori"",""left"",[99999,99999],[106,-106]]",circle,no_dis,hori,left,"[99999,99999]","[106,-106]",left,1,1.9001,,,,,,001,2025-03-10_16h53.01.025,SL_base_41,2021.2.3,Win32,60.24096386,,,15,0,15,0,1,,,,,,,,
,,"[""circle"",""no_dis"",""vert"",""up"",[99999,99999],[0,-150]]",circle,no_dis,vert,up,"[99999,99999]","[0,-150]",up,1,1.8328,,,,,,001,2025-03-10_16h53.01.025,SL_base_41,2021.2.3,Win32,60.24096386,,,16,0,16,0,1,,,,,,,,
,,"[""circle"",""green"",""hori"",""left"",[0,-150],[150,0]]",circle,green,hori,left,"[0,-150]","[150,0]",left,1,2.2995,,,,,,001,2025-03-10_16h53.01.025,SL_base_41,2021.2.3,Win32,60.24096386,,,17,0,17,0,1,,,,,,,,
,,"[""circle"",""green"",""vert"",""up"",[-106,106],[106,106]]",circle,green,vert,up,"[-106,106]","[106,106]",up,1,2.0876,,,,,,001,2025-03-10_16h53.01.025,SL_base_41,2021.2.3,Win32,60.24096386,,,18,0,18,0,1,,,,,,,,
,,"[""circle"",""red"",""hori"",""left"",[0,-150],[106,-106]]",circle,red,hori,left,"[0,-150]","[106,-106]",left,1,2.3014,,,,,,001,2025-03-10_16h53.01.025,SL_base_41,2021.2.3,Win32,60.24096386,,,19,0,19,0,1,,,,,,,,
,,"[""diamond"",""red"",""vert"",""up"",[150,0],[-106,106]]",diamond,red,vert,up,"[150,0]","[-106,106]",up,1,2.186,,,,,,001,2025-03-10_16h53.01.025,SL_base_41,2021.2.3,Win32,60.24096386,,,20,0,20,0,1,,,,,,,,
,,"[""diamond"",""no_dis"",""hori"",""left"",[99999,99999],[-150,0]]",diamond,no_dis,hori,left,"[99999,99999]","[-150,0]",left,1,1.9857,,,,,,001,2025-03-10_16h53.01.025,SL_base_41,2021.2.3,Win32,60.24096386,,,21,0,21,0,1,,,,,,,,
,,"[""diamond"",""red"",""vert"",""up"",[-106,-106],[-106,106]]",diamond,red,vert,up,"[-106,-106]","[-106,106]",up,1,1.8835,,,,,,001,2025-03-10_16h53.01.025,SL_base_41,2021.2.3,Win32,60.24096386,,,22,0,22,0,1,,,,,,,,
,,"[""circle"",""no_dis"",""hori"",""left"",[99999,99999],[150,0]]",circle,no_dis,hori,left,"[99999,99999]","[150,0]",left,1,1.3382,,,,,,001,2025-03-10_16h53.01.025,SL_base_41,2021.2.3,Win32,60.24096386,,,23,0,23,0,1,,,,,,,,
,,"[""diamond"",""green"",""vert"",""up"",[106,-106],[0,-150]]",diamond,green,vert,up,"[106,-106]","[0,-150]",up,1,1.5886,,,,,,001,2025-03-10_16h53.01.025,SL_base_41,2021.2.3,Win32,60.24096386,,,24,0,24,0,1,,,,,,,,
,,"[""circle"",""red"",""hori"",""left"",[0,-150],[-106,-106]]",circle,red,hori,left,"[0,-150]","[-106,-106]",left,1,2.3677,,,,,,001,2025-03-10_16h53.01.025,SL_base_41,2021.2.3,Win32,60.24096386,,,25,0,25,0,1,,,,,,,,
,,"[""diamond"",""no_dis"",""vert"",""up"",[99999,99999],[-150,0]]",diamond,no_dis,vert,up,"[99999,99999]","[-150,0]",up,1,1.9192,,,,,,001,2025-03-10_16h53.01.025,SL_base_41,2021.2.3,Win32,60.24096386,,,26,0,26,0,1,,,,,,,,
,,"[""circle"",""green"",""vert"",""up"",[150,0],[-106,-106]]",circle,green,vert,up,"[150,0]","[-106,-106]",up,1,2.0567,,,,,,001,2025-03-10_16h53.01.025,SL_base_41,2021.2.3,Win32,60.24096386,,,27,0,27,0,1,,,,,,,,
,,"[""circle"",""green"",""vert"",""up"",[150,0],[-106,-106]]",circle,green,vert,up,"[150,0]","[-106,-106]",up,1,1.4485,,,,,,001,2025-03-10_16h53.01.025,SL_base_41,2021.2.3,Win32,60.24096386,,,28,0,28,0,1,,,,,,,,
,,"[""diamond"",""green"",""vert"",""up"",[0,-150],[-150,0]]",diamond,green,vert,up,"[0,-150]","[-150,0]",up,1,1.5323,,,,,,001,2025-03-10_16h53.01.025,SL_base_41,2021.2.3,Win32,60.24096386,,,29,0,29,0,1,,,,,,,,
,,"[""diamond"",""no_dis"",""vert"",""up"",[99999,99999],[-106,-106]]",diamond,no_dis,vert,up,"[99999,99999]","[-106,-106]",up,1,1.3994,,,,,,001,2025-03-10_16h53.01.025,SL_base_41,2021.2.3,Win32,60.24096386,,,30,0,30,0,1,,,,,,,,
,,"[""diamond"",""no_dis"",""vert"",""up"",[99999,99999],[-150,0]]",diamond,no_dis,vert,up,"[99999,99999]","[-150,0]",up,1,2.2188,,,,,,001,2025-03-10_16h53.01.025,SL_base_41,2021.2.3,Win32,60.24096386,,,31,0,31,0,1,,,,,,,,
,,"[""circle"",""red"",""vert"",""up"",[-150,0],[150,0]]",circle,red,vert,up,"[-150,0]","[150,0]",up,1,2.04,,,,,,001,2025-03-10_16h53.01.025,SL_base_41,2021.2.3,Win32,60.24096386,,,32,0,32,0,1,,,,,,,,
,,"[""circle"",""red"",""hori"",""left"",[106,-106],[-106,-106]]",circle,red,hori,left,"[106,-106]","[-106,-106]",left,1,1.704,,,,,,001,2025-03-10_16h53.01.025,SL_base_41,2021.2.3,Win32,60.24096386,,,33,0,33,0,1,,,,,,,,
,,"[""circle"",""no_dis"",""hori"",""left"",[99999,99999],[0,150]]",circle,no_dis,hori,left,"[99999,99999]","[0,150]",up,0,2.101,,,,,,001,2025-03-10_16h53.01.025,SL_base_41,2021.2.3,Win32,60.24096386,,,34,0,34,0,1,,,,,,,,
,,"[""circle"",""no_dis"",""hori"",""left"",[99999,99999],[-106,-106]]",circle,no_dis,hori,left,"[99999,99999]","[-106,-106]",left,1,1.6014,,,,,,001,2025-03-10_16h53.01.025,SL_base_41,2021.2.3,Win32,60.24096386,,,35,0,35,0,1,,,,,,,,
,,"[""circle"",""green"",""vert"",""up"",[-150,0],[-106,-106]]",circle,green,vert,up,"[-150,0]","[-106,-106]",left,0,2.8521,,,,,,001,2025-03-10_16h53.01.025,SL_base_41,2021.2.3,Win32,60.24096386,,,36,0,36,0,1,,,,,,,,
,,"[""circle"",""no_dis"",""hori"",""left"",[99999,99999],[-106,106]]",circle,no_dis,hori,left,"[99999,99999]","[-106,106]",left,1,1.4704,,,,,,001,2025-03-10_16h53.01.025,SL_base_41,2021.2.3,Win32,60.24096386,,,37,0,37,0,1,,,,,,,,
,,"[""circle"",""green"",""vert"",""up"",[0,-150],[0,150]]",circle,green,vert,up,"[0,-150]","[0,150]",up,1,1.9765,,,,,,001,2025-03-10_16h53.01.025,SL_base_41,2021.2.3,Win32,60.24096386,,,38,0,38,0,1,,,,,,,,
,,"[""diamond"",""red"",""hori"",""left"",[0,-150],[106,-106]]",diamond,red,hori,left,"[0,-150]","[106,-106]",left,1,1.6509,,,,,,001,2025-03-10_16h53.01.025,SL_base_41,2021.2.3,Win32,60.24096386,,,39,0,39,0,1,,,,,,,,
,,"[""circle"",""red"",""vert"",""up"",[0,-150],[-106,106]]",circle,red,vert,up,"[0,-150]","[-106,106]",up,1,1.8396,,,,,,001,2025-03-10_16h53.01.025,SL_base_41,2021.2.3,Win32,60.24096386,,,40,0,40,0,1,,,,,,,,
,,"[""diamond"",""no_dis"",""hori"",""left"",[99999,99999],[106,-106]]",diamond,no_dis,hori,left,"[99999,99999]","[106,-106]",left,1,1.6166,,,,,,001,2025-03-10_16h53.01.025,SL_base_41,2021.2.3,Win32,60.24096386,,,41,0,41,0,1,,,,,,,,
,,"[""circle"",""red"",""vert"",""up"",[106,-106],[-106,-106]]",circle,red,vert,up,"[106,-106]","[-106,-106]",up,1,2.0661,,,,,,001,2025-03-10_16h53.01.025,SL_base_41,2021.2.3,Win32,60.24096386,,,42,0,42,0,1,,,,,,,,
,,"[""circle"",""red"",""vert"",""up"",[0,-150],[150,0]]",circle,red,vert,up,"[0,-150]","[150,0]",up,1,1.5663,,,,,,001,2025-03-10_16h53.01.025,SL_base_41,2021.2.3,Win32,60.24096386,,,43,0,43,0,1,,,,,,,,
,,"[""diamond"",""green"",""hori"",""left"",[106,-106],[0,-150]]",diamond,green,hori,left,"[106,-106]","[0,-150]",left,1,1.4817,,,,,,001,2025-03-10_16h53.01.025,SL_base_41,2021.2.3,Win32,60.24096386,,,44,0,44,0,1,,,,,,,,
,,"[""diamond"",""no_dis"",""hori"",""left"",[99999,99999],[0,-150]]",diamond,no_dis,hori,left,"[99999,99999]","[0,-150]",up,0,1.8407,,,,,,001,2025-03-10_16h53.01.025,SL_base_41,2021.2.3,Win32,60.24096386,,,45,0,45,0,1,,,,,,,,
,,"[""circle"",""no_dis"",""hori"",""left"",[99999,99999],[-150,0]]",circle,no_dis,hori,left,"[99999,99999]","[-150,0]",left,1,1.3842,,,,,,001,2025-03-10_16h53.01.025,SL_base_41,2021.2.3,Win32,60.24096386,,,46,0,46,0,1,,,,,,,,
,,"[""circle"",""no_dis"",""hori"",""left"",[99999,99999],[-106,106]]",circle,no_dis,hori,left,"[99999,99999]","[-106,106]",left,1,1.2016,,,,,,001,2025-03-10_16h53.01.025,SL_base_41,2021.2.3,Win32,60.24096386,,,47,0,47,0,1,,,,,,,,
,,"[""circle"",""red"",""vert"",""up"",[106,-106],[106,106]]",circle,red,vert,up,"[106,-106]","[106,106]",up,1,1.5892,,,,,,001,2025-03-10_16h53.01.025,SL_base_41,2021.2.3,Win32,60.24096386,,,48,0,48,0,1,,,,,,,,
,,"[""circle"",""green"",""hori"",""left"",[0,-150],[-150,0]]",circle,green,hori,left,"[0,-150]","[-150,0]",left,1,2.0258,,,,,,001,2025-03-10_16h53.01.025,SL_base_41,2021.2.3,Win32,60.24096386,,,49,0,49,0,1,,,,,,,,
,,"[""circle"",""no_dis"",""hori"",""left"",[99999,99999],[-106,-106]]",circle,no_dis,hori,left,"[99999,99999]","[-106,-106]",left,1,2.0826,,,,,,001,2025-03-10_16h53.01.025,SL_base_41,2021.2.3,Win32,60.24096386,,,50,0,50,0,1,,,,,,,,
,,"[""diamond"",""no_dis"",""hori"",""left"",[99999,99999],[0,150]]",diamond,no_dis,hori,left,"[99999,99999]","[0,150]",left,1,2.0265,,,,,,001,2025-03-10_16h53.01.025,SL_base_41,2021.2.3,Win32,60.24096386,,,51,0,51,0,1,,,,,,,,
,,"[""diamond"",""green"",""hori"",""left"",[0,150],[-106,-106]]",diamond,green,hori,left,"[0,150]","[-106,-106]",left,1,1.6073,,,,,,001,2025-03-10_16h53.01.025,SL_base_41,2021.2.3,Win32,60.24096386,,,52,0,52,0,1,,,,,,,,
,,"[""diamond"",""red"",""vert"",""up"",[0,-150],[106,106]]",diamond,red,vert,up,"[0,-150]","[106,106]",up,1,1.5314,,,,,,001,2025-03-10_16h53.01.025,SL_base_41,2021.2.3,Win32,60.24096386,,,53,0,53,0,1,,,,,,,,
,,"[""diamond"",""red"",""hori"",""left"",[0,-150],[150,0]]",diamond,red,hori,left,"[0,-150]","[150,0]",left,1,2.3315,,,,,,001,2025-03-10_16h53.01.025,SL_base_41,2021.2.3,Win32,60.24096386,,,54,0,54,0,1,,,,,,,,
,,"[""circle"",""no_dis"",""vert"",""up"",[99999,99999],[-106,-106]]",circle,no_dis,vert,up,"[99999,99999]","[-106,-106]",up,1,1.8809,,,,,,001,2025-03-10_16h53.01.025,SL_base_41,2021.2.3,Win32,60.24096386,,,55,0,55,0,1,,,,,,,,
,,"[""diamond"",""red"",""vert"",""up"",[-106,-106],[150,0]]",diamond,red,vert,up,"[-106,-106]","[150,0]",up,1,2.6169,,,,,,001,2025-03-10_16h53.01.025,SL_base_41,2021.2.3,Win32,60.24096386,,,56,0,56,0,1,,,,,,,,
,,"[""circle"",""green"",""hori"",""left"",[0,150],[-106,106]]",circle,green,hori,left,"[0,150]","[-106,106]",left,1,2.1775,,,,,,001,2025-03-10_16h53.01.025,SL_base_41,2021.2.3,Win32,60.24096386,,,57,0,57,0,1,,,,,,,,
,,"[""circle"",""no_dis"",""vert"",""up"",[99999,99999],[106,106]]",circle,no_dis,vert,up,"[99999,99999]","[106,106]",up,1,1.8486,,,,,,001,2025-03-10_16h53.01.025,SL_base_41,2021.2.3,Win32,60.24096386,,,58,0,58,0,1,,,,,,,,
,,"[""diamond"",""no_dis"",""vert"",""up"",[99999,99999],[-106,106]]",diamond,no_dis,vert,up,"[99999,99999]","[-106,106]",up,1,2.0013,,,,,,001,2025-03-10_16h53.01.025,SL_base_41,2021.2.3,Win32,60.24096386,,,59,0,59,0,1,,,,,,,,
,,"[""circle"",""no_dis"",""vert"",""up"",[99999,99999],[106,106]]",circle,no_dis,vert,up,"[99999,99999]","[106,106]",up,1,2.0342,,,,,,001,2025-03-10_16h53.01.025,SL_base_41,2021.2.3,Win32,60.24096386,,,60,0,60,0,1,,,,,,,,
,,"[""diamond"",""red"",""hori"",""left"",[0,-150],[106,106]]",diamond,red,hori,left,"[0,-150]","[106,106]",left,1,1.499,,,,,,001,2025-03-10_16h53.01.025,SL_base_41,2021.2.3,Win32,60.24096386,,,61,0,61,0,1,,,,,,,,
,,"[""diamond"",""green"",""vert"",""up"",[106,106],[-106,106]]",diamond,green,vert,up,"[106,106]","[-106,106]",up,1,1.6884,,,,,,001,2025-03-10_16h53.01.025,SL_base_41,2021.2.3,Win32,60.24096386,,,62,0,62,0,1,,,,,,,,
,,"[""circle"",""green"",""hori"",""left"",[0,-150],[106,106]]",circle,green,hori,left,"[0,-150]","[106,106]",left,1,1.5866,,,,,,001,2025-03-10_16h53.01.025,SL_base_41,2021.2.3,Win32,60.24096386,,,63,0,63,0,1,,,,,,,,
,,"[""circle"",""green"",""hori"",""left"",[-150,0],[150,0]]",circle,green,hori,left,"[-150,0]","[150,0]",left,1,2.166,,,,,,001,2025-03-10_16h53.01.025,SL_base_41,2021.2.3,Win32,60.24096386,,,64,0,64,0,1,,,,,,,,
,,"[""diamond"",""no_dis"",""vert"",""up"",[99999,99999],[0,150]]",diamond,no_dis,vert,up,"[99999,99999]","[0,150]",up,1,1.1992,,,,,,001,2025-03-10_16h53.01.025,SL_base_41,2021.2.3,Win32,60.24096386,,,65,0,65,0,1,,,,,,,,
,,"[""diamond"",""no_dis"",""hori"",""left"",[99999,99999],[106,-106]]",diamond,no_dis,hori,left,"[99999,99999]","[106,-106]",left,1,1.7713,,,,,,001,2025-03-10_16h53.01.025,SL_base_41,2021.2.3,Win32,60.24096386,,,66,0,66,0,1,,,,,,,,
,,"[""diamond"",""green"",""hori"",""left"",[0,150],[-106,-106]]",diamond,green,hori,left,"[0,150]","[-106,-106]",left,1,1.327,,,,,,001,2025-03-10_16h53.01.025,SL_base_41,2021.2.3,Win32,60.24096386,,,67,0,67,0,1,,,,,,,,
,,"[""circle"",""red"",""vert"",""up"",[-150,0],[0,-150]]",circle,red,vert,up,"[-150,0]","[0,-150]",up,1,1.978,,,,,,001,2025-03-10_16h53.01.025,SL_base_41,2021.2.3,Win32,60.24096386,,,68,0,68,0,1,,,,,,,,
,,"[""diamond"",""red"",""hori"",""left"",[0,-150],[0,150]]",diamond,red,hori,left,"[0,-150]","[0,150]",left,1,1.4671,,,,,,001,2025-03-10_16h53.01.025,SL_base_41,2021.2.3,Win32,60.24096386,,,69,0,69,0,1,,,,,,,,
,,"[""diamond"",""red"",""hori"",""left"",[0,-150],[150,0]]",diamond,red,hori,left,"[0,-150]","[150,0]",left,1,1.4807,,,,,,001,2025-03-10_16h53.01.025,SL_base_41,2021.2.3,Win32,60.24096386,,,70,0,70,0,1,,,,,,,,
,,"[""circle"",""red"",""hori"",""left"",[0,-150],[-106,-106]]",circle,red,hori,left,"[0,-150]","[-106,-106]",left,1,1.986,,,,,,001,2025-03-10_16h53.01.025,SL_base_41,2021.2.3,Win32,60.24096386,,,71,0,71,0,1,,,,,,,,
,,"[""circle"",""no_dis"",""vert"",""up"",[99999,99999],[150,0]]",circle,no_dis,vert,up,"[99999,99999]","[150,0]",up,1,1.1662,,,,,,001,2025-03-10_16h53.01.025,SL_base_41,2021.2.3,Win32,60.24096386,,,72,0,72,0,1,,,,,,,,
,,"[""diamond"",""green"",""vert"",""up"",[0,-150],[-106,106]]",diamond,green,vert,up,"[0,-150]","[-106,106]",up,1,2.3489,,,,,,001,2025-03-10_16h53.01.025,SL_base_41,2021.2.3,Win32,60.24096386,,,73,0,73,0,1,,,,,,,,
,,"[""diamond"",""red"",""hori"",""left"",[106,106],[-150,0]]",diamond,red,hori,left,"[106,106]","[-150,0]",left,1,1.4986,,,,,,001,2025-03-10_16h53.01.025,SL_base_41,2021.2.3,Win32,60.24096386,,,74,0,74,0,1,,,,,,,,
,,"[""diamond"",""green"",""vert"",""up"",[0,-150],[150,0]]",diamond,green,vert,up,"[0,-150]","[150,0]",up,1,1.2567,,,,,,001,2025-03-10_16h53.01.025,SL_base_41,2021.2.3,Win32,60.24096386,,,75,0,75,0,1,,,,,,,,
,,"[""circle"",""red"",""hori"",""left"",[106,106],[0,-150]]",circle,red,hori,left,"[106,106]","[0,-150]",left,1,2.1723,,,,,,001,2025-03-10_16h53.01.025,SL_base_41,2021.2.3,Win32,60.24096386,,,76,0,76,0,1,,,,,,,,
,,"[""circle"",""no_dis"",""vert"",""up"",[99999,99999],[0,150]]",circle,no_dis,vert,up,"[99999,99999]","[0,150]",up,1,1.7249,,,,,,001,2025-03-10_16h53.01.025,SL_base_41,2021.2.3,Win32,60.24096386,,,77,0,77,0,1,,,,,,,,
,,"[""diamond"",""no_dis"",""hori"",""left"",[99999,99999],[-106,-106]]",diamond,no_dis,hori,left,"[99999,99999]","[-106,-106]",left,1,1.4478,,,,,,001,2025-03-10_16h53.01.025,SL_base_41,2021.2.3,Win32,60.24096386,,,78,0,78,0,1,,,,,,,,
,,"[""diamond"",""red"",""vert"",""up"",[-106,106],[0,-150]]",diamond,red,vert,up,"[-106,106]","[0,-150]",up,1,1.4087,,,,,,001,2025-03-10_16h53.01.025,SL_base_41,2021.2.3,Win32,60.24096386,,,79,0,79,0,1,,,,,,,,
,,"[""diamond"",""green"",""vert"",""up"",[0,-150],[106,106]]",diamond,green,vert,up,"[0,-150]","[106,106]",up,1,1.1637,,,,,,001,2025-03-10_16h53.01.025,SL_base_41,2021.2.3,Win32,60.24096386,,,80,0,80,0,1,,,,,,,,
,,"[""circle"",""green"",""hori"",""left"",[0,150],[0,-150]]",circle,green,hori,left,"[0,150]","[0,-150]",left,1,1.6027,,,,,,001,2025-03-10_16h53.01.025,SL_base_41,2021.2.3,Win32,60.24096386,,,81,0,81,0,1,,,,,,,,
,,"[""circle"",""no_dis"",""vert"",""up"",[99999,99999],[106,106]]",circle,no_dis,vert,up,"[99999,99999]","[106,106]",up,1,1.1862,,,,,,001,2025-03-10_16h53.01.025,SL_base_41,2021.2.3,Win32,60.24096386,,,82,0,82,0,1,,,,,,,,
,,"[""diamond"",""no_dis"",""vert"",""up"",[99999,99999],[-106,106]]",diamond,no_dis,vert,up,"[99999,99999]","[-106,106]",up,1,1.7692,,,,,,001,2025-03-10_16h53.01.025,SL_base_41,2021.2.3,Win32,60.24096386,,,83,0,83,0,1,,,,,,,,
,,"[""circle"",""green"",""vert"",""up"",[150,0],[-150,0]]",circle,green,vert,up,"[150,0]","[-150,0]",up,1,1.4184,,,,,,001,2025-03-10_16h53.01.025,SL_base_41,2021.2.3,Win32,60.24096386,,,84,0,84,0,1,,,,,,,,
,,"[""circle"",""green"",""vert"",""up"",[0,150],[0,-150]]",circle,green,vert,up,"[0,150]","[0,-150]",up,1,1.3858,,,,,,001,2025-03-10_16h53.01.025,SL_base_41,2021.2.3,Win32,60.24096386,,,85,0,85,0,1,,,,,,,,
,,"[""circle"",""no_dis"",""vert"",""up"",[99999,99999],[106,-106]]",circle,no_dis,vert,up,"[99999,99999]","[106,-106]",up,1,1.6078,,,,,,001,2025-03-10_16h53.01.025,SL_base_41,2021.2.3,Win32,60.24096386,,,86,0,86,0,1,,,,,,,,
,,"[""circle"",""red"",""vert"",""up"",[-106,-106],[-106,106]]",circle,red,vert,up,"[-106,-106]","[-106,106]",up,1,1.8211,,,,,,001,2025-03-10_16h53.01.025,SL_base_41,2021.2.3,Win32,60.24096386,,,87,0,87,0,1,,,,,,,,
,,"[""diamond"",""green"",""hori"",""left"",[106,-106],[-106,-106]]",diamond,green,hori,left,"[106,-106]","[-106,-106]",left,1,1.4662,,,,,,001,2025-03-10_16h53.01.025,SL_base_41,2021.2.3,Win32,60.24096386,,,88,0,88,0,1,,,,,,,,
,,"[""diamond"",""red"",""hori"",""left"",[-106,-106],[-106,106]]",diamond,red,hori,left,"[-106,-106]","[-106,106]",left,1,1.3319,,,,,,001,2025-03-10_16h53.01.025,SL_base_41,2021.2.3,Win32,60.24096386,,,89,0,89,0,1,,,,,,,,
,,"[""circle"",""green"",""hori"",""left"",[150,0],[106,-106]]",circle,green,hori,left,"[150,0]","[106,-106]",left,1,1.7355,,,,,,001,2025-03-10_16h53.01.025,SL_base_41,2021.2.3,Win32,60.24096386,,,90,0,90,0,1,,,,,,,,
,,"[""diamond"",""green"",""vert"",""up"",[106,106],[106,-106]]",diamond,green,vert,up,"[106,106]","[106,-106]",up,1,1.6551,,,,,,001,2025-03-10_16h53.01.025,SL_base_41,2021.2.3,Win32,60.24096386,,,91,0,91,0,1,,,,,,,,
,,"[""circle"",""red"",""vert"",""up"",[-150,0],[106,106]]",circle,red,vert,up,"[-150,0]","[106,106]",up,1,1.5989,,,,,,001,2025-03-10_16h53.01.025,SL_base_41,2021.2.3,Win32,60.24096386,,,92,0,92,0,1,,,,,,,,
,,"[""circle"",""red"",""hori"",""left"",[150,0],[106,-106]]",circle,red,hori,left,"[150,0]","[106,-106]",left,1,1.6538,,,,,,001,2025-03-10_16h53.01.025,SL_base_41,2021.2.3,Win32,60.24096386,,,93,0,93,0,1,,,,,,,,
,,"[""circle"",""green"",""hori"",""left"",[-150,0],[0,150]]",circle,green,hori,left,"[-150,0]","[0,150]",left,1,1.4024,,,,,,001,2025-03-10_16h53.01.025,SL_base_41,2021.2.3,Win32,60.24096386,,,94,0,94,0,1,,,,,,,,
,,"[""diamond"",""green"",""vert"",""up"",[-106,106],[106,-106]]",diamond,green,vert,up,"[-106,106]","[106,-106]",up,1,1.905,,,,,,001,2025-03-10_16h53.01.025,SL_base_41,2021.2.3,Win32,60.24096386,,,95,0,95,0,1,,,,,,,,
,,"[""diamond"",""no_dis"",""vert"",""up"",[99999,99999],[-106,106]]",diamond,no_dis,vert,up,"[99999,99999]","[-106,106]",up,1,1.2819,,,,,,001,2025-03-10_16h53.01.025,SL_base_41,2021.2.3,Win32,60.24096386,,,96,0,96,0,1,,,,,,,,
,,"[""circle"",""green"",""vert"",""up"",[106,106],[106,-106]]",circle,green,vert,up,"[106,106]","[106,-106]",up,1,1.2762,,,,,,001,2025-03-10_16h53.01.025,SL_base_41,2021.2.3,Win32,60.24096386,,,97,0,97,0,1,,,,,,,,
,,"[""diamond"",""no_dis"",""hori"",""left"",[99999,99999],[150,0]]",diamond,no_dis,hori,left,"[99999,99999]","[150,0]",left,1,0.9165,,,,,,001,2025-03-10_16h53.01.025,SL_base_41,2021.2.3,Win32,60.24096386,,,98,0,98,0,1,,,,,,,,
,,"[""diamond"",""green"",""hori"",""left"",[0,-150],[0,150]]",diamond,green,hori,left,"[0,-150]","[0,150]",left,1,1.4482,,,,,,001,2025-03-10_16h53.01.025,SL_base_41,2021.2.3,Win32,60.24096386,,,99,0,99,0,1,,,,,,,,
,,"[""diamond"",""green"",""vert"",""up"",[-106,106],[150,0]]",diamond,green,vert,up,"[-106,106]","[150,0]",up,1,1.1314,,,,,,001,2025-03-10_16h53.01.025,SL_base_41,2021.2.3,Win32,60.24096386,,,100,0,100,0,1,,,,,,,,
,,"[""diamond"",""green"",""hori"",""left"",[0,-150],[106,-106]]",diamond,green,hori,left,"[0,-150]","[106,-106]",left,1,1.5207,,,,,,001,2025-03-10_16h53.01.025,SL_base_41,2021.2.3,Win32,60.24096386,,,101,0,101,0,1,,,,,,,,
,,"[""diamond"",""green"",""hori"",""left"",[106,106],[-106,106]]",diamond,green,hori,left,"[106,106]","[-106,106]",left,1,1.2888,,,,,,001,2025-03-10_16h53.01.025,SL_base_41,2021.2.3,Win32,60.24096386,,,102,0,102,0,1,,,,,,,,
,,"[""circle"",""green"",""vert"",""up"",[106,-106],[-106,-106]]",circle,green,vert,up,"[106,-106]","[-106,-106]",up,1,1.6247,,,,,,001,2025-03-10_16h53.01.025,SL_base_41,2021.2.3,Win32,60.24096386,,,103,0,103,0,1,,,,,,,,
,,"[""circle"",""no_dis"",""vert"",""up"",[99999,99999],[106,106]]",circle,no_dis,vert,up,"[99999,99999]","[106,106]",up,1,1.6842,,,,,,001,2025-03-10_16h53.01.025,SL_base_41,2021.2.3,Win32,60.24096386,,,104,0,104,0,1,,,,,,,,
,,"[""circle"",""red"",""vert"",""up"",[106,106],[0,150]]",circle,red,vert,up,"[106,106]","[0,150]",up,1,1.3423,,,,,,001,2025-03-10_16h53.01.025,SL_base_41,2021.2.3,Win32,60.24096386,,,105,0,105,0,1,,,,,,,,
,,"[""circle"",""red"",""hori"",""left"",[150,0],[0,150]]",circle,red,hori,left,"[150,0]","[0,150]",left,1,1.6998,,,,,,001,2025-03-10_16h53.01.025,SL_base_41,2021.2.3,Win32,60.24096386,,,106,0,106,0,1,,,,,,,,
,,"[""circle"",""no_dis"",""vert"",""up"",[99999,99999],[150,0]]",circle,no_dis,vert,up,"[99999,99999]","[150,0]",up,1,1.383,,,,,,001,2025-03-10_16h53.01.025,SL_base_41,2021.2.3,Win32,60.24096386,,,107,0,107,0,1,,,,,,,,
,,"[""diamond"",""no_dis"",""hori"",""left"",[99999,99999],[0,-150]]",diamond,no_dis,hori,left,"[99999,99999]","[0,-150]",left,1,1.3541,,,,,,001,2025-03-10_16h53.01.025,SL_base_41,2021.2.3,Win32,60.24096386,,,108,0,108,0,1,,,,,,,,
,,"[""diamond"",""red"",""hori"",""left"",[-150,0],[0,150]]",diamond,red,hori,left,"[-150,0]","[0,150]",left,1,1.3651,,,,,,001,2025-03-10_16h53.01.025,SL_base_41,2021.2.3,Win32,60.24096386,,,109,0,109,0,1,,,,,,,,
,,"[""circle"",""red"",""hori"",""left"",[0,150],[106,106]]",circle,red,hori,left,"[0,150]","[106,106]",left,1,1.9861,,,,,,001,2025-03-10_16h53.01.025,SL_base_41,2021.2.3,Win32,60.24096386,,,110,0,110,0,1,,,,,,,,
,,"[""diamond"",""red"",""vert"",""up"",[0,150],[0,-150]]",diamond,red,vert,up,"[0,150]","[0,-150]",up,1,1.731,,,,,,001,2025-03-10_16h53.01.025,SL_base_41,2021.2.3,Win32,60.24096386,,,111,0,111,0,1,,,,,,,,
,,"[""diamond"",""red"",""vert"",""up"",[0,-150],[0,150]]",diamond,red,vert,up,"[0,-150]","[0,150]",up,1,2.5323,,,,,,001,2025-03-10_16h53.01.025,SL_base_41,2021.2.3,Win32,60.24096386,,,112,0,112,0,1,,,,,,,,
,,"[""diamond"",""no_dis"",""vert"",""up"",[99999,99999],[106,-106]]",diamond,no_dis,vert,up,"[99999,99999]","[106,-106]",up,1,1.2309,,,,,,001,2025-03-10_16h53.01.025,SL_base_41,2021.2.3,Win32,60.24096386,,,113,0,113,0,1,,,,,,,,
,,"[""diamond"",""red"",""vert"",""up"",[0,-150],[150,0]]",diamond,red,vert,up,"[0,-150]","[150,0]",up,1,1.5356,,,,,,001,2025-03-10_16h53.01.025,SL_base_41,2021.2.3,Win32,60.24096386,,,114,0,114,0,1,,,,,,,,
,,"[""circle"",""green"",""vert"",""up"",[-150,0],[106,106]]",circle,green,vert,up,"[-150,0]","[106,106]",up,1,1.418,,,,,,001,2025-03-10_16h53.01.025,SL_base_41,2021.2.3,Win32,60.24096386,,,115,0,115,0,1,,,,,,,,
,,"[""diamond"",""red"",""vert"",""up"",[0,-150],[150,0]]",diamond,red,vert,up,"[0,-150]","[150,0]",up,1,1.835,,,,,,001,2025-03-10_16h53.01.025,SL_base_41,2021.2.3,Win32,60.24096386,,,116,0,116,0,1,,,,,,,,
,,"[""diamond"",""red"",""hori"",""left"",[-106,-106],[-150,0]]",diamond,red,hori,left,"[-106,-106]","[-150,0]",left,1,1.4814,,,,,,001,2025-03-10_16h53.01.025,SL_base_41,2021.2.3,Win32,60.24096386,,,117,0,117,0,1,,,,,,,,
,,"[""circle"",""red"",""hori"",""left"",[0,-150],[0,150]]",circle,red,hori,left,"[0,-150]","[0,150]",left,1,1.4092,,,,,,001,2025-03-10_16h53.01.025,SL_base_41,2021.2.3,Win32,60.24096386,,,118,0,118,0,1,,,,,,,,
,,"[""diamond"",""no_dis"",""vert"",""up"",[99999,99999],[106,106]]",diamond,no_dis,vert,up,"[99999,99999]","[106,106]",up,1,1.3491,,,,,,001,2025-03-10_16h53.01.025,SL_base_41,2021.2.3,Win32,60.24096386,,,119,0,119,0,1,,,,,,,,
,,"[""diamond"",""red"",""vert"",""up"",[-106,-106],[106,106]]",diamond,red,vert,up,"[-106,-106]","[106,106]",up,1,1.3068,,,,,,001,2025-03-10_16h53.01.025,SL_base_41,2021.2.3,Win32,60.24096386,,,120,0,120,0,1,,,,,,,,
,,"[""circle"",""red"",""vert"",""up"",[106,106],[0,-150]]",circle,red,vert,up,"[106,106]","[0,-150]",up,1,1.4491,,,,,,001,2025-03-10_16h53.01.025,SL_base_41,2021.2.3,Win32,60.24096386,,,121,0,121,0,1,,,,,,,,
,,"[""diamond"",""green"",""hori"",""left"",[-106,106],[0,-150]]",diamond,green,hori,left,"[-106,106]","[0,-150]",up,0,1.4168,,,,,,001,2025-03-10_16h53.01.025,SL_base_41,2021.2.3,Win32,60.24096386,,,122,0,122,0,1,,,,,,,,
,,"[""diamond"",""no_dis"",""hori"",""left"",[99999,99999],[0,150]]",diamond,no_dis,hori,left,"[99999,99999]","[0,150]",left,1,2.4643,,,,,,001,2025-03-10_16h53.01.025,SL_base_41,2021.2.3,Win32,60.24096386,,,123,0,123,0,1,,,,,,,,
,,"[""diamond"",""red"",""hori"",""left"",[0,-150],[106,-106]]",diamond,red,hori,left,"[0,-150]","[106,-106]",left,1,1.7435,,,,,,001,2025-03-10_16h53.01.025,SL_base_41,2021.2.3,Win32,60.24096386,,,124,0,124,0,1,,,,,,,,
,,"[""diamond"",""red"",""hori"",""left"",[106,-106],[-106,-106]]",diamond,red,hori,left,"[106,-106]","[-106,-106]",left,1,1.7703,,,,,,001,2025-03-10_16h53.01.025,SL_base_41,2021.2.3,Win32,60.24096386,,,125,0,125,0,1,,,,,,,,
,,"[""diamond"",""green"",""hori"",""left"",[-106,-106],[0,150]]",diamond,green,hori,left,"[-106,-106]","[0,150]",left,1,1.8083,,,,,,001,2025-03-10_16h53.01.025,SL_base_41,2021.2.3,Win32,60.24096386,,,126,0,126,0,1,,,,,,,,
,,"[""diamond"",""no_dis"",""hori"",""left"",[99999,99999],[0,-150]]",diamond,no_dis,hori,left,"[99999,99999]","[0,-150]",left,1,1.3867,,,,,,001,2025-03-10_16h53.01.025,SL_base_41,2021.2.3,Win32,60.24096386,,,127,0,127,0,1,,,,,,,,
,,,,,,,,,,,,,,,,,001,2025-03-10_16h53.01.025,SL_base_41,2021.2.3,Win32,60.24096386,,,,,,,,3,space,12.0481,2,0,2,0,1
,,"[""circle"",""green"",""hori"",""left"",[0,150],[-106,106]]",circle,green,hori,left,"[0,150]","[-106,106]",left,1,1.9404,,,,,,001,2025-03-10_16h53.01.025,SL_base_41,2021.2.3,Win32,60.24096386,,,0,0,0,0,1,,,,,,,,
,,"[""diamond"",""red"",""hori"",""left"",[0,-150],[106,-106]]",diamond,red,hori,left,"[0,-150]","[106,-106]",left,1,2.0978,,,,,,001,2025-03-10_16h53.01.025,SL_base_41,2021.2.3,Win32,60.24096386,,,1,0,1,0,1,,,,,,,,
,,"[""diamond"",""red"",""hori"",""left"",[-150,0],[0,150]]",diamond,red,hori,left,"[-150,0]","[0,150]",left,1,1.0832,,,,,,001,2025-03-10_16h53.01.025,SL_base_41,2021.2.3,Win32,60.24096386,,,2,0,2,0,1,,,,,,,,
,,"[""circle"",""red"",""vert"",""up"",[0,-150],[-106,106]]",circle,red,vert,up,"[0,-150]","[-106,106]",up,1,1.4185,,,,,,001,2025-03-10_16h53.01.025,SL_base_41,2021.2.3,Win32,60.24096386,,,3,0,3,0,1,,,,,,,,
,,"[""diamond"",""no_dis"",""vert"",""up"",[99999,99999],[106,106]]",diamond,no_dis,vert,up,"[99999,99999]","[106,106]",up,1,1.4876,,,,,,001,2025-03-10_16h53.01.025,SL_base_41,2021.2.3,Win32,60.24096386,,,4,0,4,0,1,,,,,,,,
,,"[""diamond"",""no_dis"",""vert"",""up"",[99999,99999],[-106,106]]",diamond,no_dis,vert,up,"[99999,99999]","[-106,106]",up,1,1.3322,,,,,,001,2025-03-10_16h53.01.025,SL_base_41,2021.2.3,Win32,60.24096386,,,5,0,5,0,1,,,,,,,,
,,"[""circle"",""red"",""hori"",""left"",[-106,106],[-106,-106]]",circle,red,hori,left,"[-106,106]","[-106,-106]",left,1,1.5403,,,,,,001,2025-03-10_16h53.01.025,SL_base_41,2021.2.3,Win32,60.24096386,,,6,0,6,0,1,,,,,,,,
,,"[""diamond"",""no_dis"",""hori"",""left"",[99999,99999],[0,150]]",diamond,no_dis,hori,left,"[99999,99999]","[0,150]",left,1,1.5698,,,,,,001,2025-03-10_16h53.01.025,SL_base_41,2021.2.3,Win32,60.24096386,,,7,0,7,0,1,,,,,,,,
,,"[""circle"",""no_dis"",""vert"",""up"",[99999,99999],[106,106]]",circle,no_dis,vert,up,"[99999,99999]","[106,106]",up,1,2.3692,,,,,,001,2025-03-10_16h53.01.025,SL_base_41,2021.2.3,Win32,60.24096386,,,8,0,8,0,1,,,,,,,,
,,"[""diamond"",""green"",""hori"",""left"",[106,-106],[0,-150]]",diamond,green,hori,left,"[106,-106]","[0,-150]",left,1,1.6665,,,,,,001,2025-03-10_16h53.01.025,SL_base_41,2021.2.3,Win32,60.24096386,,,9,0,9,0,1,,,,,,,,
,,"[""diamond"",""green"",""vert"",""up"",[106,-106],[0,-150]]",diamond,green,vert,up,"[106,-106]","[0,-150]",up,1,1.3643,,,,,,001,2025-03-10_16h53.01.025,SL_base_41,2021.2.3,Win32,60.24096386,,,10,0,10,0,1,,,,,,,,
,,"[""circle"",""no_dis"",""vert"",""up"",[99999,99999],[0,150]]",circle,no_dis,vert,up,"[99999,99999]","[0,150]",up,1,1.986,,,,,,001,2025-03-10_16h53.01.025,SL_base_41,2021.2.3,Win32,60.24096386,,,11,0,11,0,1,,,,,,,,
,,"[""diamond"",""green"",""hori"",""left"",[-106,106],[0,-150]]",diamond,green,hori,left,"[-106,106]","[0,-150]",left,1,1.026,,,,,,001,2025-03-10_16h53.01.025,SL_base_41,2021.2.3,Win32,60.24096386,,,12,0,12,0,1,,,,,,,,
,,"[""diamond"",""red"",""hori"",""left"",[0,-150],[106,106]]",diamond,red,hori,left,"[0,-150]","[106,106]",left,1,1.0361,,,,,,001,2025-03-10_16h53.01.025,SL_base_41,2021.2.3,Win32,60.24096386,,,13,0,13,0,1,,,,,,,,
,,"[""circle"",""green"",""hori"",""left"",[0,-150],[150,0]]",circle,green,hori,left,"[0,-150]","[150,0]",left,1,1.4907,,,,,,001,2025-03-10_16h53.01.025,SL_base_41,2021.2.3,Win32,60.24096386,,,14,0,14,0,1,,,,,,,,
,,"[""circle"",""green"",""vert"",""up"",[106,106],[106,-106]]",circle,green,vert,up,"[106,106]","[106,-106]",up,1,1.2928,,,,,,001,2025-03-10_16h53.01.025,SL_base_41,2021.2.3,Win32,60.24096386,,,15,0,15,0,1,,,,,,,,
,,"[""diamond"",""red"",""vert"",""up"",[-106,-106],[-106,106]]",diamond,red,vert,up,"[-106,-106]","[-106,106]",up,1,1.7704,,,,,,001,2025-03-10_16h53.01.025,SL_base_41,2021.2.3,Win32,60.24096386,,,16,0,16,0,1,,,,,,,,
,,"[""circle"",""no_dis"",""hori"",""left"",[99999,99999],[106,-106]]",circle,no_dis,hori,left,"[99999,99999]","[106,-106]",left,1,1.1501,,,,,,001,2025-03-10_16h53.01.025,SL_base_41,2021.2.3,Win32,60.24096386,,,17,0,17,0,1,,,,,,,,
,,"[""diamond"",""red"",""vert"",""up"",[0,-150],[0,150]]",diamond,red,vert,up,"[0,-150]","[0,150]",up,1,1.4828,,,,,,001,2025-03-10_16h53.01.025,SL_base_41,2021.2.3,Win32,60.24096386,,,18,0,18,0,1,,,,,,,,
,,"[""circle"",""no_dis"",""vert"",""up"",[99999,99999],[-106,-106]]",circle,no_dis,vert,up,"[99999,99999]","[-106,-106]",up,1,1.7,,,,,,001,2025-03-10_16h53.01.025,SL_base_41,2021.2.3,Win32,60.24096386,,,19,0,19,0,1,,,,,,,,
,,"[""diamond"",""red"",""vert"",""up"",[-106,-106],[150,0]]",diamond,red,vert,up,"[-106,-106]","[150,0]",up,1,1.3021,,,,,,001,2025-03-10_16h53.01.025,SL_base_41,2021.2.3,Win32,60.24096386,,,20,0,20,0,1,,,,,,,,
,,"[""circle"",""red"",""vert"",""up"",[106,-106],[-106,-106]]",circle,red,vert,up,"[106,-106]","[-106,-106]",up,1,1.7518,,,,,,001,2025-03-10_16h53.01.025,SL_base_41,2021.2.3,Win32,60.24096386,,,21,0,21,0,1,,,,,,,,
,,"[""diamond"",""green"",""vert"",""up"",[0,-150],[106,106]]",diamond,green,vert,up,"[0,-150]","[106,106]",up,1,1.7332,,,,,,001,2025-03-10_16h53.01.025,SL_base_41,2021.2.3,Win32,60.24096386,,,22,0,22,0,1,,,,,,,,
,,"[""diamond"",""green"",""hori"",""left"",[-106,-106],[0,150]]",diamond,green,hori,left,"[-106,-106]","[0,150]",left,1,2.2318,,,,,,001,2025-03-10_16h53.01.025,SL_base_41,2021.2.3,Win32,60.24096386,,,23,0,23,0,1,,,,,,,,
,,"[""circle"",""no_dis"",""hori"",""left"",[99999,99999],[-106,-106]]",circle,no_dis,hori,left,"[99999,99999]","[-106,-106]",left,1,1.9566,,,,,,001,2025-03-10_16h53.01.025,SL_base_41,2021.2.3,Win32,60.24096386,,,24,0,24,0,1,,,,,,,,
,,"[""circle"",""red"",""hori"",""left"",[150,0],[106,-106]]",circle,red,hori,left,"[150,0]","[106,-106]",left,1,2.3683,,,,,,001,2025-03-10_16h53.01.025,SL_base_41,2021.2.3,Win32,60.24096386,,,25,0,25,0,1,,,,,,,,
,,"[""diamond"",""red"",""hori"",""left"",[0,-150],[106,-106]]",diamond,red,hori,left,"[0,-150]","[106,-106]",left,1,2.4183,,,,,,001,2025-03-10_16h53.01.025,SL_base_41,2021.2.3,Win32,60.24096386,,,26,0,26,0,1,,,,,,,,
,,"[""circle"",""red"",""vert"",""up"",[-150,0],[0,-150]]",circle,red,vert,up,"[-150,0]","[0,-150]",up,1,1.6036,,,,,,001,2025-03-10_16h53.01.025,SL_base_41,2021.2.3,Win32,60.24096386,,,27,0,27,0,1,,,,,,,,
,,"[""circle"",""green"",""vert"",""up"",[150,0],[-106,-106]]",circle,green,vert,up,"[150,0]","[-106,-106]",up,1,2.2172,,,,,,001,2025-03-10_16h53.01.025,SL_base_41,2021.2.3,Win32,60.24096386,,,28,0,28,0,1,,,,,,,,
,,"[""diamond"",""no_dis"",""vert"",""up"",[99999,99999],[-150,0]]",diamond,no_dis,vert,up,"[99999,99999]","[-150,0]",up,1,1.4345,,,,,,001,2025-03-10_16h53.01.025,SL_base_41,2021.2.3,Win32,60.24096386,,,29,0,29,0,1,,,,,,,,
,,"[""diamond"",""green"",""vert"",""up"",[0,-150],[150,0]]",diamond,green,vert,up,"[0,-150]","[150,0]",up,1,1.2382,,,,,,001,2025-03-10_16h53.01.025,SL_base_41,2021.2.3,Win32,60.24096386,,,30,0,30,0,1,,,,,,,,
,,"[""circle"",""no_dis"",""hori"",""left"",[99999,99999],[-106,106]]",circle,no_dis,hori,left,"[99999,99999]","[-106,106]",left,1,1.2548,,,,,,001,2025-03-10_16h53.01.025,SL_base_41,2021.2.3,Win32,60.24096386,,,31,0,31,0,1,,,,,,,,
,,"[""circle"",""red"",""hori"",""left"",[106,106],[0,-150]]",circle,red,hori,left,"[106,106]","[0,-150]",left,1,1.9765,,,,,,001,2025-03-10_16h53.01.025,SL_base_41,2021.2.3,Win32,60.24096386,,,32,0,32,0,1,,,,,,,,
,,"[""diamond"",""green"",""hori"",""left"",[0,-150],[-150,0]]",diamond,green,hori,left,"[0,-150]","[-150,0]",left,1,1.1401,,,,,,001,2025-03-10_16h53.01.025,SL_base_41,2021.2.3,Win32,60.24096386,,,33,0,33,0,1,,,,,,,,
,,"[""circle"",""red"",""vert"",""up"",[-106,-106],[-106,106]]",circle,red,vert,up,"[-106,-106]","[-106,106]",up,1,1.5909,,,,,,001,2025-03-10_16h53.01.025,SL_base_41,2021.2.3,Win32,60.24096386,,,34,0,34,0,1,,,,,,,,
,,"[""diamond"",""red"",""vert"",""up"",[0,-150],[106,106]]",diamond,red,vert,up,"[0,-150]","[106,106]",up,1,1.6809,,,,,,001,2025-03-10_16h53.01.025,SL_base_41,2021.2.3,Win32,60.24096386,,,35,0,35,0,1,,,,,,,,
,,"[""diamond"",""green"",""vert"",""up"",[-106,106],[150,0]]",diamond,green,vert,up,"[-106,106]","[150,0]",up,1,1.1675,,,,,,001,2025-03-10_16h53.01.025,SL_base_41,2021.2.3,Win32,60.24096386,,,36,0,36,0,1,,,,,,,,
,,"[""diamond"",""red"",""vert"",""up"",[0,-150],[150,0]]",diamond,red,vert,up,"[0,-150]","[150,0]",up,1,1.2994,,,,,,001,2025-03-10_16h53.01.025,SL_base_41,2021.2.3,Win32,60.24096386,,,37,0,37,0,1,,,,,,,,
,,"[""circle"",""green"",""vert"",""up"",[0,-150],[0,150]]",circle,green,vert,up,"[0,-150]","[0,150]",up,1,1.6723,,,,,,001,2025-03-10_16h53.01.025,SL_base_41,2021.2.3,Win32,60.24096386,,,38,0,38,0,1,,,,,,,,
,,"[""circle"",""red"",""hori"",""left"",[0,-150],[106,-106]]",circle,red,hori,left,"[0,-150]","[106,-106]",left,1,1.3849,,,,,,001,2025-03-10_16h53.01.025,SL_base_41,2021.2.3,Win32,60.24096386,,,39,0,39,0,1,,,,,,,,
,,"[""diamond"",""green"",""hori"",""left"",[0,-150],[106,106]]",diamond,green,hori,left,"[0,-150]","[106,106]",left,1,1.9983,,,,,,001,2025-03-10_16h53.01.025,SL_base_41,2021.2.3,Win32,60.24096386,,,40,0,40,0,1,,,,,,,,
,,"[""circle"",""red"",""vert"",""up"",[106,-106],[106,106]]",circle,red,vert,up,"[106,-106]","[106,106]",up,1,2.0843,,,,,,001,2025-03-10_16h53.01.025,SL_base_41,2021.2.3,Win32,60.24096386,,,41,0,41,0,1,,,,,,,,
,,"[""circle"",""red"",""vert"",""up"",[0,-150],[150,0]]",circle,red,vert,up,"[0,-150]","[150,0]",up,1,1.5565,,,,,,001,2025-03-10_16h53.01.025,SL_base_41,2021.2.3,Win32,60.24096386,,,42,0,42,0,1,,,,,,,,
,,"[""diamond"",""no_dis"",""vert"",""up"",[99999,99999],[-106,-106]]",diamond,no_dis,vert,up,"[99999,99999]","[-106,-106]",up,1,1.6986,,,,,,001,2025-03-10_16h53.01.025,SL_base_41,2021.2.3,Win32,60.24096386,,,43,0,43,0,1,,,,,,,,
,,"[""circle"",""green"",""hori"",""left"",[0,-150],[-150,0]]",circle,green,hori,left,"[0,-150]","[-150,0]",left,1,1.3152,,,,,,001,2025-03-10_16h53.01.025,SL_base_41,2021.2.3,Win32,60.24096386,,,44,0,44,0,1,,,,,,,,
,,"[""diamond"",""no_dis"",""hori"",""left"",[99999,99999],[-106,-106]]",diamond,no_dis,hori,left,"[99999,99999]","[-106,-106]",left,1,2.0703,,,,,,001,2025-03-10_16h53.01.025,SL_base_41,2021.2.3,Win32,60.24096386,,,45,0,45,0,1,,,,,,,,
,,"[""circle"",""no_dis"",""hori"",""left"",[99999,99999],[-150,0]]",circle,no_dis,hori,left,"[99999,99999]","[-150,0]",left,1,1.5225,,,,,,001,2025-03-10_16h53.01.025,SL_base_41,2021.2.3,Win32,60.24096386,,,46,0,46,0,1,,,,,,,,
,,"[""circle"",""green"",""hori"",""left"",[0,-150],[150,0]]",circle,green,hori,left,"[0,-150]","[150,0]",left,1,1.8538,,,,,,001,2025-03-10_16h53.01.025,SL_base_41,2021.2.3,Win32,60.24096386,,,47,0,47,0,1,,,,,,,,
,,"[""circle"",""no_dis"",""vert"",""up"",[99999,99999],[106,-106]]",circle,no_dis,vert,up,"[99999,99999]","[106,-106]",up,1,1.4324,,,,,,001,2025-03-10_16h53.01.025,SL_base_41,2021.2.3,Win32,60.24096386,,,48,0,48,0,1,,,,,,,,
,,"[""circle"",""green"",""hori"",""left"",[150,0],[106,-106]]",circle,green,hori,left,"[150,0]","[106,-106]",left,1,1.9176,,,,,,001,2025-03-10_16h53.01.025,SL_base_41,2021.2.3,Win32,60.24096386,,,49,0,49,0,1,,,,,,,,
,,"[""circle"",""green"",""hori"",""left"",[0,150],[0,-150]]",circle,green,hori,left,"[0,150]","[0,-150]",left,1,1.4323,,,,,,001,2025-03-10_16h53.01.025,SL_base_41,2021.2.3,Win32,60.24096386,,,50,0,50,0,1,,,,,,,,
,,"[""diamond"",""red"",""hori"",""left"",[0,-150],[150,0]]",diamond,red,hori,left,"[0,-150]","[150,0]",left,1,1.2686,,,,,,001,2025-03-10_16h53.01.025,SL_base_41,2021.2.3,Win32,60.24096386,,,51,0,51,0,1,,,,,,,,
,,"[""circle"",""green"",""hori"",""left"",[-150,0],[150,0]]",circle,green,hori,left,"[-150,0]","[150,0]",left,1,0.8979,,,,,,001,2025-03-10_16h53.01.025,SL_base_41,2021.2.3,Win32,60.24096386,,,52,0,52,0,1,,,,,,,,
,,"[""diamond"",""green"",""vert"",""up"",[0,-150],[-106,106]]",diamond,green,vert,up,"[0,-150]","[-106,106]",up,1,1.5165,,,,,,001,2025-03-10_16h53.01.025,SL_base_41,2021.2.3,Win32,60.24096386,,,53,0,53,0,1,,,,,,,,
,,"[""diamond"",""no_dis"",""hori"",""left"",[99999,99999],[0,-150]]",diamond,no_dis,hori,left,"[99999,99999]","[0,-150]",left,1,2.522,,,,,,001,2025-03-10_16h53.01.025,SL_base_41,2021.2.3,Win32,60.24096386,,,54,0,54,0,1,,,,,,,,
,,"[""circle"",""red"",""hori"",""left"",[0,150],[106,106]]",circle,red,hori,left,"[0,150]","[106,106]",left,1,1.8851,,,,,,001,2025-03-10_16h53.01.025,SL_base_41,2021.2.3,Win32,60.24096386,,,55,0,55,0,1,,,,,,,,
,,"[""circle"",""no_dis"",""hori"",""left"",[99999,99999],[-106,-106]]",circle,no_dis,hori,left,"[99999,99999]","[-106,-106]",left,1,1.8443,,,,,,001,2025-03-10_16h53.01.025,SL_base_41,2021.2.3,Win32,60.24096386,,,56,0,56,0,1,,,,,,,,
,,"[""circle"",""red"",""vert"",""up"",[0,-150],[106,-106]]",circle,red,vert,up,"[0,-150]","[106,-106]",left,0,2.3787,,,,,,001,2025-03-10_16h53.01.025,SL_base_41,2021.2.3,Win32,60.24096386,,,57,0,57,0,1,,,,,,,,
,,"[""diamond"",""red"",""vert"",""up"",[150,0],[-106,106]]",diamond,red,vert,up,"[150,0]","[-106,106]",up,1,1.6347,,,,,,001,2025-03-10_16h53.01.025,SL_base_41,2021.2.3,Win32,60.24096386,,,58,0,58,0,1,,,,,,,,
,,"[""circle"",""red"",""hori"",""left"",[0,-150],[-106,-106]]",circle,red,hori,left,"[0,-150]","[-106,-106]",left,1,1.5268,,,,,,001,2025-03-10_16h53.01.025,SL_base_41,2021.2.3,Win32,60.24096386,,,59,0,59,0,1,,,,,,,,
,,"[""circle"",""red"",""hori"",""left"",[0,-150],[0,150]]",circle,red,hori,left,"[0,-150]","[0,150]",left,1,1.3732,,,,,,001,2025-03-10_16h53.01.025,SL_base_41,2021.2.3,Win32,60.24096386,,,60,0,60,0,1,,,,,,,,
