﻿key_resp.keys,key_resp.rt,trial_para,tar_shape,dis_color_condi,tar_line,cor_resp,dis_loc,tar_loc,resp.keys,resp.corr,trials.thisRepN,trials.thisTrialN,trials.thisN,trials.thisIndex,trials.ran,participant,date,expName,psychopyVersion,OS,frameRate,resp.rt,key_resp_2.keys,key_resp_2.rt,trials_2.thisRepN,trials_2.thisTrialN,trials_2.thisN,trials_2.thisIndex,trials_2.ran,block_num,key_resp_3.keys,key_resp_3.rt,trials_3.thisRepN,trials_3.thisTrialN,trials_3.thisN,trials_3.thisIndex,trials_3.ran
space,18.9005,"[""diamond"",""red"",""vert"",""up"",[106,-106],[106,106]]",diamond,red,vert,up,"[106,-106]","[106,106]",,0,0,0,0,0,1,001,2025-03-10_18h19.02.729,SL_base_41,2021.2.3,Win32,125,,,,,,,,,,,,,,,,
,,"[""circle"",""no_dis"",""hori"",""left"",[99999,99999],[-106,-106]]",circle,no_dis,hori,left,"[99999,99999]","[-106,-106]",left,1,1,0,1,0,1,001,2025-03-10_18h19.02.729,SL_base_41,2021.2.3,Win32,125,1.0754,,,,,,,,,,,,,,,
,,"[""diamond"",""green"",""hori"",""left"",[-150,0],[-106,-106]]",diamond,green,hori,left,"[-150,0]","[-106,-106]",left,1,2,0,2,0,1,001,2025-03-10_18h19.02.729,SL_base_41,2021.2.3,Win32,125,0.9741,,,,,,,,,,,,,,,
,,"[""circle"",""red"",""vert"",""up"",[0,-150],[106,106]]",circle,red,vert,up,"[0,-150]","[106,106]",up,1,3,0,3,0,1,001,2025-03-10_18h19.02.729,SL_base_41,2021.2.3,Win32,125,2.077,,,,,,,,,,,,,,,
,,"[""circle"",""no_dis"",""hori"",""left"",[99999,99999],[-150,0]]",circle,no_dis,hori,left,"[99999,99999]","[-150,0]",left,1,4,0,4,0,1,001,2025-03-10_18h19.02.729,SL_base_41,2021.2.3,Win32,125,1.3704,,,,,,,,,,,,,,,
,,"[""circle"",""green"",""vert"",""up"",[0,-150],[-150,0]]",circle,green,vert,up,"[0,-150]","[-150,0]",up,1,5,0,5,0,1,001,2025-03-10_18h19.02.729,SL_base_41,2021.2.3,Win32,125,1.5366,,,,,,,,,,,,,,,
,,"[""diamond"",""red"",""hori"",""left"",[150,0],[0,150]]",diamond,red,hori,left,"[150,0]","[0,150]",left,1,6,0,6,0,1,001,2025-03-10_18h19.02.729,SL_base_41,2021.2.3,Win32,125,1.7106,,,,,,,,,,,,,,,
,,"[""circle"",""red"",""vert"",""up"",[150,0],[-150,0]]",circle,red,vert,up,"[150,0]","[-150,0]",up,1,7,0,7,0,1,001,2025-03-10_18h19.02.729,SL_base_41,2021.2.3,Win32,125,1.2441,,,,,,,,,,,,,,,
,,"[""circle"",""no_dis"",""vert"",""up"",[99999,99999],[150,0]]",circle,no_dis,vert,up,"[99999,99999]","[150,0]",left,0,8,0,8,0,1,001,2025-03-10_18h19.02.729,SL_base_41,2021.2.3,Win32,125,1.4438,,,,,,,,,,,,,,,
,,"[""circle"",""green"",""hori"",""left"",[-106,106],[106,-106]]",circle,green,hori,left,"[-106,106]","[106,-106]",left,1,9,0,9,0,1,001,2025-03-10_18h19.02.729,SL_base_41,2021.2.3,Win32,125,1.7188,,,,,,,,,,,,,,,
,,"[""diamond"",""red"",""vert"",""up"",[106,-106],[106,106]]",diamond,red,vert,up,"[106,-106]","[106,106]",up,1,,,,,,001,2025-03-10_18h19.02.729,SL_base_41,2021.2.3,Win32,125,1.3497,space,2.6943,0,0,0,0,1,,,,,,,,
,,"[""circle"",""no_dis"",""hori"",""left"",[99999,99999],[-106,-106]]",circle,no_dis,hori,left,"[99999,99999]","[-106,-106]",left,1,,,,,,001,2025-03-10_18h19.02.729,SL_base_41,2021.2.3,Win32,125,0.9461,,,1,0,1,0,1,,,,,,,,
,,"[""diamond"",""green"",""hori"",""left"",[-150,0],[-106,-106]]",diamond,green,hori,left,"[-150,0]","[-106,-106]",left,1,,,,,,001,2025-03-10_18h19.02.729,SL_base_41,2021.2.3,Win32,125,1.6349,,,2,0,2,0,1,,,,,,,,
,,"[""circle"",""red"",""vert"",""up"",[0,-150],[106,106]]",circle,red,vert,up,"[0,-150]","[106,106]",up,1,,,,,,001,2025-03-10_18h19.02.729,SL_base_41,2021.2.3,Win32,125,1.6423,,,3,0,3,0,1,,,,,,,,
,,"[""circle"",""no_dis"",""hori"",""left"",[99999,99999],[-150,0]]",circle,no_dis,hori,left,"[99999,99999]","[-150,0]",left,1,,,,,,001,2025-03-10_18h19.02.729,SL_base_41,2021.2.3,Win32,125,1.1464,,,4,0,4,0,1,,,,,,,,
,,"[""circle"",""green"",""vert"",""up"",[0,-150],[-150,0]]",circle,green,vert,up,"[0,-150]","[-150,0]",up,1,,,,,,001,2025-03-10_18h19.02.729,SL_base_41,2021.2.3,Win32,125,1.2286,,,5,0,5,0,1,,,,,,,,
,,"[""diamond"",""red"",""hori"",""left"",[150,0],[0,150]]",diamond,red,hori,left,"[150,0]","[0,150]",left,1,,,,,,001,2025-03-10_18h19.02.729,SL_base_41,2021.2.3,Win32,125,0.9886,,,6,0,6,0,1,,,,,,,,
,,"[""circle"",""red"",""vert"",""up"",[150,0],[-150,0]]",circle,red,vert,up,"[150,0]","[-150,0]",up,1,,,,,,001,2025-03-10_18h19.02.729,SL_base_41,2021.2.3,Win32,125,1.2858,,,7,0,7,0,1,,,,,,,,
,,"[""circle"",""no_dis"",""vert"",""up"",[99999,99999],[150,0]]",circle,no_dis,vert,up,"[99999,99999]","[150,0]",up,1,,,,,,001,2025-03-10_18h19.02.729,SL_base_41,2021.2.3,Win32,125,0.9741,,,8,0,8,0,1,,,,,,,,
,,"[""circle"",""green"",""hori"",""left"",[-106,106],[106,-106]]",circle,green,hori,left,"[-106,106]","[106,-106]",left,1,,,,,,001,2025-03-10_18h19.02.729,SL_base_41,2021.2.3,Win32,125,0.8424,,,9,0,9,0,1,,,,,,,,
,,"[""diamond"",""no_dis"",""hori"",""left"",[99999,99999],[150,0]]",diamond,no_dis,hori,left,"[99999,99999]","[150,0]",left,1,,,,,,001,2025-03-10_18h19.02.729,SL_base_41,2021.2.3,Win32,125,1.6418,,,10,0,10,0,1,,,,,,,,
,,"[""diamond"",""no_dis"",""hori"",""left"",[99999,99999],[-150,0]]",diamond,no_dis,hori,left,"[99999,99999]","[-150,0]",left,1,,,,,,001,2025-03-10_18h19.02.729,SL_base_41,2021.2.3,Win32,125,0.8196,,,11,0,11,0,1,,,,,,,,
,,"[""circle"",""no_dis"",""vert"",""up"",[99999,99999],[106,106]]",circle,no_dis,vert,up,"[99999,99999]","[106,106]",up,1,,,,,,001,2025-03-10_18h19.02.729,SL_base_41,2021.2.3,Win32,125,1.5532,,,12,0,12,0,1,,,,,,,,
,,"[""diamond"",""red"",""hori"",""left"",[0,-150],[-106,106]]",diamond,red,hori,left,"[0,-150]","[-106,106]",left,1,,,,,,001,2025-03-10_18h19.02.729,SL_base_41,2021.2.3,Win32,125,1.6056,,,13,0,13,0,1,,,,,,,,
,,"[""diamond"",""red"",""vert"",""up"",[0,-150],[106,-106]]",diamond,red,vert,up,"[0,-150]","[106,-106]",up,1,,,,,,001,2025-03-10_18h19.02.729,SL_base_41,2021.2.3,Win32,125,1.2493,,,14,0,14,0,1,,,,,,,,
,,"[""circle"",""green"",""hori"",""left"",[0,-150],[-106,-106]]",circle,green,hori,left,"[0,-150]","[-106,-106]",left,1,,,,,,001,2025-03-10_18h19.02.729,SL_base_41,2021.2.3,Win32,125,1.8277,,,15,0,15,0,1,,,,,,,,
,,"[""circle"",""green"",""hori"",""left"",[-106,106],[106,-106]]",circle,green,hori,left,"[-106,106]","[106,-106]",left,1,,,,,,001,2025-03-10_18h19.02.729,SL_base_41,2021.2.3,Win32,125,0.9428,,,16,0,16,0,1,,,,,,,,
,,"[""diamond"",""no_dis"",""hori"",""left"",[99999,99999],[0,-150]]",diamond,no_dis,hori,left,"[99999,99999]","[0,-150]",up,0,,,,,,001,2025-03-10_18h19.02.729,SL_base_41,2021.2.3,Win32,125,1.2754,,,17,0,17,0,1,,,,,,,,
,,"[""diamond"",""green"",""hori"",""left"",[0,-150],[-106,-106]]",diamond,green,hori,left,"[0,-150]","[-106,-106]",left,1,,,,,,001,2025-03-10_18h19.02.729,SL_base_41,2021.2.3,Win32,125,1.4657,,,18,0,18,0,1,,,,,,,,
,,"[""diamond"",""no_dis"",""vert"",""up"",[99999,99999],[106,106]]",diamond,no_dis,vert,up,"[99999,99999]","[106,106]",up,1,,,,,,001,2025-03-10_18h19.02.729,SL_base_41,2021.2.3,Win32,125,1.0424,,,19,0,19,0,1,,,,,,,,
,,"[""circle"",""green"",""vert"",""up"",[-106,106],[0,-150]]",circle,green,vert,up,"[-106,106]","[0,-150]",up,1,,,,,,001,2025-03-10_18h19.02.729,SL_base_41,2021.2.3,Win32,125,1.8319,,,20,0,20,0,1,,,,,,,,
,,"[""circle"",""no_dis"",""hori"",""left"",[99999,99999],[106,106]]",circle,no_dis,hori,left,"[99999,99999]","[106,106]",left,1,,,,,,001,2025-03-10_18h19.02.729,SL_base_41,2021.2.3,Win32,125,1.0416,,,21,0,21,0,1,,,,,,,,
,,"[""diamond"",""red"",""hori"",""left"",[-106,-106],[150,0]]",diamond,red,hori,left,"[-106,-106]","[150,0]",left,1,,,,,,001,2025-03-10_18h19.02.729,SL_base_41,2021.2.3,Win32,125,1.2995,,,22,0,22,0,1,,,,,,,,
,,"[""diamond"",""green"",""hori"",""left"",[0,-150],[-106,106]]",diamond,green,hori,left,"[0,-150]","[-106,106]",left,1,,,,,,001,2025-03-10_18h19.02.729,SL_base_41,2021.2.3,Win32,125,1.0404,,,23,0,23,0,1,,,,,,,,
,,"[""circle"",""green"",""vert"",""up"",[-106,106],[0,150]]",circle,green,vert,up,"[-106,106]","[0,150]",up,1,,,,,,001,2025-03-10_18h19.02.729,SL_base_41,2021.2.3,Win32,125,1.0942,,,24,0,24,0,1,,,,,,,,
,,"[""circle"",""no_dis"",""vert"",""up"",[99999,99999],[-106,106]]",circle,no_dis,vert,up,"[99999,99999]","[-106,106]",up,1,,,,,,001,2025-03-10_18h19.02.729,SL_base_41,2021.2.3,Win32,125,1.6503,,,25,0,25,0,1,,,,,,,,
,,"[""circle"",""red"",""hori"",""left"",[150,0],[-106,-106]]",circle,red,hori,left,"[150,0]","[-106,-106]",left,1,,,,,,001,2025-03-10_18h19.02.729,SL_base_41,2021.2.3,Win32,125,1.7843,,,26,0,26,0,1,,,,,,,,
,,"[""circle"",""no_dis"",""vert"",""up"",[99999,99999],[0,-150]]",circle,no_dis,vert,up,"[99999,99999]","[0,-150]",up,1,,,,,,001,2025-03-10_18h19.02.729,SL_base_41,2021.2.3,Win32,125,1.2708,,,27,0,27,0,1,,,,,,,,
,,"[""diamond"",""no_dis"",""vert"",""up"",[99999,99999],[-150,0]]",diamond,no_dis,vert,up,"[99999,99999]","[-150,0]",up,1,,,,,,001,2025-03-10_18h19.02.729,SL_base_41,2021.2.3,Win32,125,1.7202,,,28,0,28,0,1,,,,,,,,
,,"[""diamond"",""red"",""hori"",""left"",[0,-150],[106,106]]",diamond,red,hori,left,"[0,-150]","[106,106]",left,1,,,,,,001,2025-03-10_18h19.02.729,SL_base_41,2021.2.3,Win32,125,0.9659,,,29,0,29,0,1,,,,,,,,
,,"[""circle"",""green"",""hori"",""left"",[0,-150],[-106,106]]",circle,green,hori,left,"[0,-150]","[-106,106]",left,1,,,,,,001,2025-03-10_18h19.02.729,SL_base_41,2021.2.3,Win32,125,1.0537,,,30,0,30,0,1,,,,,,,,
,,"[""circle"",""no_dis"",""hori"",""left"",[99999,99999],[-106,-106]]",circle,no_dis,hori,left,"[99999,99999]","[-106,-106]",left,1,,,,,,001,2025-03-10_18h19.02.729,SL_base_41,2021.2.3,Win32,125,1.1267,,,31,0,31,0,1,,,,,,,,
,,"[""diamond"",""green"",""vert"",""up"",[0,-150],[150,0]]",diamond,green,vert,up,"[0,-150]","[150,0]",up,1,,,,,,001,2025-03-10_18h19.02.729,SL_base_41,2021.2.3,Win32,125,0.9669,,,32,0,32,0,1,,,,,,,,
,,"[""circle"",""no_dis"",""vert"",""up"",[99999,99999],[150,0]]",circle,no_dis,vert,up,"[99999,99999]","[150,0]",up,1,,,,,,001,2025-03-10_18h19.02.729,SL_base_41,2021.2.3,Win32,125,1.1505,,,33,0,33,0,1,,,,,,,,
,,"[""circle"",""green"",""vert"",""up"",[-106,106],[-106,-106]]",circle,green,vert,up,"[-106,106]","[-106,-106]",up,1,,,,,,001,2025-03-10_18h19.02.729,SL_base_41,2021.2.3,Win32,125,0.9119,,,34,0,34,0,1,,,,,,,,
,,"[""circle"",""no_dis"",""hori"",""left"",[99999,99999],[106,-106]]",circle,no_dis,hori,left,"[99999,99999]","[106,-106]",left,1,,,,,,001,2025-03-10_18h19.02.729,SL_base_41,2021.2.3,Win32,125,0.6927,,,35,0,35,0,1,,,,,,,,
,,"[""circle"",""red"",""vert"",""up"",[-150,0],[-106,106]]",circle,red,vert,up,"[-150,0]","[-106,106]",left,0,,,,,,001,2025-03-10_18h19.02.729,SL_base_41,2021.2.3,Win32,125,1.2674,,,36,0,36,0,1,,,,,,,,
,,"[""diamond"",""green"",""hori"",""left"",[150,0],[106,-106]]",diamond,green,hori,left,"[150,0]","[106,-106]",left,1,,,,,,001,2025-03-10_18h19.02.729,SL_base_41,2021.2.3,Win32,125,0.8279,,,37,0,37,0,1,,,,,,,,
,,"[""circle"",""red"",""vert"",""up"",[106,106],[-150,0]]",circle,red,vert,up,"[106,106]","[-150,0]",up,1,,,,,,001,2025-03-10_18h19.02.729,SL_base_41,2021.2.3,Win32,125,1.4753,,,38,0,38,0,1,,,,,,,,
,,"[""diamond"",""no_dis"",""vert"",""up"",[99999,99999],[-150,0]]",diamond,no_dis,vert,up,"[99999,99999]","[-150,0]",up,1,,,,,,001,2025-03-10_18h19.02.729,SL_base_41,2021.2.3,Win32,125,1.654,,,39,0,39,0,1,,,,,,,,
,,"[""diamond"",""green"",""vert"",""up"",[0,150],[0,-150]]",diamond,green,vert,up,"[0,150]","[0,-150]",up,1,,,,,,001,2025-03-10_18h19.02.729,SL_base_41,2021.2.3,Win32,125,1.3184,,,40,0,40,0,1,,,,,,,,
,,"[""circle"",""red"",""hori"",""left"",[-106,-106],[0,-150]]",circle,red,hori,left,"[-106,-106]","[0,-150]",left,1,,,,,,001,2025-03-10_18h19.02.729,SL_base_41,2021.2.3,Win32,125,1.4098,,,41,0,41,0,1,,,,,,,,
,,"[""diamond"",""red"",""hori"",""left"",[-150,0],[0,150]]",diamond,red,hori,left,"[-150,0]","[0,150]",up,0,,,,,,001,2025-03-10_18h19.02.729,SL_base_41,2021.2.3,Win32,125,1.9745,,,42,0,42,0,1,,,,,,,,
,,"[""diamond"",""green"",""vert"",""up"",[106,106],[0,150]]",diamond,green,vert,up,"[106,106]","[0,150]",up,1,,,,,,001,2025-03-10_18h19.02.729,SL_base_41,2021.2.3,Win32,125,1.3478,,,43,0,43,0,1,,,,,,,,
,,"[""circle"",""green"",""vert"",""up"",[0,-150],[-106,106]]",circle,green,vert,up,"[0,-150]","[-106,106]",up,1,,,,,,001,2025-03-10_18h19.02.729,SL_base_41,2021.2.3,Win32,125,1.6666,,,44,0,44,0,1,,,,,,,,
,,"[""circle"",""red"",""vert"",""up"",[0,-150],[-106,-106]]",circle,red,vert,up,"[0,-150]","[-106,-106]",up,1,,,,,,001,2025-03-10_18h19.02.729,SL_base_41,2021.2.3,Win32,125,1.7708,,,45,0,45,0,1,,,,,,,,
,,"[""circle"",""green"",""hori"",""left"",[0,-150],[106,-106]]",circle,green,hori,left,"[0,-150]","[106,-106]",left,1,,,,,,001,2025-03-10_18h19.02.729,SL_base_41,2021.2.3,Win32,125,1.0614,,,46,0,46,0,1,,,,,,,,
,,"[""circle"",""no_dis"",""vert"",""up"",[99999,99999],[106,-106]]",circle,no_dis,vert,up,"[99999,99999]","[106,-106]",up,1,,,,,,001,2025-03-10_18h19.02.729,SL_base_41,2021.2.3,Win32,125,1.4097,,,47,0,47,0,1,,,,,,,,
,,"[""circle"",""red"",""hori"",""left"",[106,-106],[150,0]]",circle,red,hori,left,"[106,-106]","[150,0]",left,1,,,,,,001,2025-03-10_18h19.02.729,SL_base_41,2021.2.3,Win32,125,1.3108,,,48,0,48,0,1,,,,,,,,
,,"[""circle"",""green"",""hori"",""left"",[150,0],[-106,106]]",circle,green,hori,left,"[150,0]","[-106,106]",left,1,,,,,,001,2025-03-10_18h19.02.729,SL_base_41,2021.2.3,Win32,125,0.9092,,,49,0,49,0,1,,,,,,,,
,,"[""diamond"",""no_dis"",""vert"",""up"",[99999,99999],[-106,-106]]",diamond,no_dis,vert,up,"[99999,99999]","[-106,-106]",up,1,,,,,,001,2025-03-10_18h19.02.729,SL_base_41,2021.2.3,Win32,125,1.4008,,,50,0,50,0,1,,,,,,,,
,,"[""diamond"",""red"",""vert"",""up"",[150,0],[106,106]]",diamond,red,vert,up,"[150,0]","[106,106]",up,1,,,,,,001,2025-03-10_18h19.02.729,SL_base_41,2021.2.3,Win32,125,1.0849,,,51,0,51,0,1,,,,,,,,
,,"[""diamond"",""green"",""hori"",""left"",[106,106],[150,0]]",diamond,green,hori,left,"[106,106]","[150,0]",left,1,,,,,,001,2025-03-10_18h19.02.729,SL_base_41,2021.2.3,Win32,125,1.3605,,,52,0,52,0,1,,,,,,,,
,,"[""circle"",""red"",""hori"",""left"",[0,-150],[106,-106]]",circle,red,hori,left,"[0,-150]","[106,-106]",left,1,,,,,,001,2025-03-10_18h19.02.729,SL_base_41,2021.2.3,Win32,125,0.8602,,,53,0,53,0,1,,,,,,,,
,,"[""diamond"",""red"",""vert"",""up"",[0,150],[-106,106]]",diamond,red,vert,up,"[0,150]","[-106,106]",up,1,,,,,,001,2025-03-10_18h19.02.729,SL_base_41,2021.2.3,Win32,125,2.1106,,,54,0,54,0,1,,,,,,,,
,,"[""circle"",""green"",""vert"",""up"",[0,-150],[-150,0]]",circle,green,vert,up,"[0,-150]","[-150,0]",up,1,,,,,,001,2025-03-10_18h19.02.729,SL_base_41,2021.2.3,Win32,125,1.5198,,,55,0,55,0,1,,,,,,,,
,,"[""circle"",""red"",""hori"",""left"",[0,150],[106,-106]]",circle,red,hori,left,"[0,150]","[106,-106]",left,1,,,,,,001,2025-03-10_18h19.02.729,SL_base_41,2021.2.3,Win32,125,1.1611,,,56,0,56,0,1,,,,,,,,
,,"[""circle"",""red"",""vert"",""up"",[106,-106],[106,106]]",circle,red,vert,up,"[106,-106]","[106,106]",up,1,,,,,,001,2025-03-10_18h19.02.729,SL_base_41,2021.2.3,Win32,125,2.5265,,,57,0,57,0,1,,,,,,,,
,,"[""diamond"",""red"",""hori"",""left"",[-106,-106],[-106,106]]",diamond,red,hori,left,"[-106,-106]","[-106,106]",left,1,,,,,,001,2025-03-10_18h19.02.729,SL_base_41,2021.2.3,Win32,125,0.9844,,,58,0,58,0,1,,,,,,,,
,,"[""circle"",""green"",""vert"",""up"",[106,106],[150,0]]",circle,green,vert,up,"[106,106]","[150,0]",up,1,,,,,,001,2025-03-10_18h19.02.729,SL_base_41,2021.2.3,Win32,125,2.5247,,,59,0,59,0,1,,,,,,,,
,,"[""circle"",""no_dis"",""vert"",""up"",[99999,99999],[-106,-106]]",circle,no_dis,vert,up,"[99999,99999]","[-106,-106]",up,1,,,,,,001,2025-03-10_18h19.02.729,SL_base_41,2021.2.3,Win32,125,1.1045,,,60,0,60,0,1,,,,,,,,
,,"[""diamond"",""red"",""hori"",""left"",[106,-106],[150,0]]",diamond,red,hori,left,"[106,-106]","[150,0]",left,1,,,,,,001,2025-03-10_18h19.02.729,SL_base_41,2021.2.3,Win32,125,1.4819,,,61,0,61,0,1,,,,,,,,
,,"[""circle"",""no_dis"",""vert"",""up"",[99999,99999],[-106,106]]",circle,no_dis,vert,up,"[99999,99999]","[-106,106]",up,1,,,,,,001,2025-03-10_18h19.02.729,SL_base_41,2021.2.3,Win32,125,1.3849,,,62,0,62,0,1,,,,,,,,
,,"[""circle"",""red"",""vert"",""up"",[-150,0],[-106,-106]]",circle,red,vert,up,"[-150,0]","[-106,-106]",up,1,,,,,,001,2025-03-10_18h19.02.729,SL_base_41,2021.2.3,Win32,125,1.1051,,,63,0,63,0,1,,,,,,,,
,,"[""diamond"",""green"",""vert"",""up"",[106,106],[0,-150]]",diamond,green,vert,up,"[106,106]","[0,-150]",left,0,,,,,,001,2025-03-10_18h19.02.729,SL_base_41,2021.2.3,Win32,125,1.7019,,,64,0,64,0,1,,,,,,,,
,,"[""diamond"",""green"",""vert"",""up"",[0,150],[106,-106]]",diamond,green,vert,up,"[0,150]","[106,-106]",up,1,,,,,,001,2025-03-10_18h19.02.729,SL_base_41,2021.2.3,Win32,125,1.0441,,,65,0,65,0,1,,,,,,,,
,,"[""diamond"",""no_dis"",""hori"",""left"",[99999,99999],[0,150]]",diamond,no_dis,hori,left,"[99999,99999]","[0,150]",up,0,,,,,,001,2025-03-10_18h19.02.729,SL_base_41,2021.2.3,Win32,125,1.0978,,,66,0,66,0,1,,,,,,,,
,,"[""circle"",""red"",""hori"",""left"",[106,-106],[-106,-106]]",circle,red,hori,left,"[106,-106]","[-106,-106]",left,1,,,,,,001,2025-03-10_18h19.02.729,SL_base_41,2021.2.3,Win32,125,1.1176,,,67,0,67,0,1,,,,,,,,
,,"[""diamond"",""no_dis"",""hori"",""left"",[99999,99999],[-106,106]]",diamond,no_dis,hori,left,"[99999,99999]","[-106,106]",left,1,,,,,,001,2025-03-10_18h19.02.729,SL_base_41,2021.2.3,Win32,125,0.8698,,,68,0,68,0,1,,,,,,,,
,,"[""diamond"",""green"",""hori"",""left"",[106,-106],[-106,-106]]",diamond,green,hori,left,"[106,-106]","[-106,-106]",left,1,,,,,,001,2025-03-10_18h19.02.729,SL_base_41,2021.2.3,Win32,125,0.9722,,,69,0,69,0,1,,,,,,,,
,,"[""diamond"",""green"",""hori"",""left"",[-150,0],[-106,106]]",diamond,green,hori,left,"[-150,0]","[-106,106]",left,1,,,,,,001,2025-03-10_18h19.02.729,SL_base_41,2021.2.3,Win32,125,1.7113,,,70,0,70,0,1,,,,,,,,
,,"[""diamond"",""no_dis"",""vert"",""up"",[99999,99999],[0,150]]",diamond,no_dis,vert,up,"[99999,99999]","[0,150]",up,1,,,,,,001,2025-03-10_18h19.02.729,SL_base_41,2021.2.3,Win32,125,1.0145,,,71,0,71,0,1,,,,,,,,
,,"[""diamond"",""no_dis"",""vert"",""up"",[99999,99999],[106,-106]]",diamond,no_dis,vert,up,"[99999,99999]","[106,-106]",up,1,,,,,,001,2025-03-10_18h19.02.729,SL_base_41,2021.2.3,Win32,125,0.8568,,,72,0,72,0,1,,,,,,,,
,,"[""diamond"",""red"",""hori"",""left"",[0,150],[-106,106]]",diamond,red,hori,left,"[0,150]","[-106,106]",left,1,,,,,,001,2025-03-10_18h19.02.729,SL_base_41,2021.2.3,Win32,125,1.8233,,,73,0,73,0,1,,,,,,,,
,,"[""diamond"",""red"",""hori"",""left"",[0,-150],[0,150]]",diamond,red,hori,left,"[0,-150]","[0,150]",left,1,,,,,,001,2025-03-10_18h19.02.729,SL_base_41,2021.2.3,Win32,125,0.9346,,,74,0,74,0,1,,,,,,,,
,,"[""circle"",""green"",""hori"",""left"",[0,-150],[0,150]]",circle,green,hori,left,"[0,-150]","[0,150]",left,1,,,,,,001,2025-03-10_18h19.02.729,SL_base_41,2021.2.3,Win32,125,1.3461,,,75,0,75,0,1,,,,,,,,
,,"[""circle"",""green"",""vert"",""up"",[0,-150],[106,-106]]",circle,green,vert,up,"[0,-150]","[106,-106]",left,0,,,,,,001,2025-03-10_18h19.02.729,SL_base_41,2021.2.3,Win32,125,1.6176,,,76,0,76,0,1,,,,,,,,
,,"[""circle"",""green"",""hori"",""left"",[-106,-106],[106,106]]",circle,green,hori,left,"[-106,-106]","[106,106]",left,1,,,,,,001,2025-03-10_18h19.02.729,SL_base_41,2021.2.3,Win32,125,1.7997,,,77,0,77,0,1,,,,,,,,
,,"[""diamond"",""green"",""hori"",""left"",[0,-150],[0,150]]",diamond,green,hori,left,"[0,-150]","[0,150]",left,1,,,,,,001,2025-03-10_18h19.02.729,SL_base_41,2021.2.3,Win32,125,1.3341,,,78,0,78,0,1,,,,,,,,
,,"[""diamond"",""red"",""vert"",""up"",[0,-150],[150,0]]",diamond,red,vert,up,"[0,-150]","[150,0]",up,1,,,,,,001,2025-03-10_18h19.02.729,SL_base_41,2021.2.3,Win32,125,1.009,,,79,0,79,0,1,,,,,,,,
,,"[""diamond"",""red"",""hori"",""left"",[0,-150],[-106,-106]]",diamond,red,hori,left,"[0,-150]","[-106,-106]",left,1,,,,,,001,2025-03-10_18h19.02.729,SL_base_41,2021.2.3,Win32,125,1.2616,,,80,0,80,0,1,,,,,,,,
,,"[""diamond"",""no_dis"",""hori"",""left"",[99999,99999],[0,150]]",diamond,no_dis,hori,left,"[99999,99999]","[0,150]",left,1,,,,,,001,2025-03-10_18h19.02.729,SL_base_41,2021.2.3,Win32,125,1.1588,,,81,0,81,0,1,,,,,,,,
,,"[""diamond"",""green"",""vert"",""up"",[0,150],[-150,0]]",diamond,green,vert,up,"[0,150]","[-150,0]",up,1,,,,,,001,2025-03-10_18h19.02.729,SL_base_41,2021.2.3,Win32,125,1.3744,,,82,0,82,0,1,,,,,,,,
,,"[""circle"",""no_dis"",""hori"",""left"",[99999,99999],[-106,106]]",circle,no_dis,hori,left,"[99999,99999]","[-106,106]",left,1,,,,,,001,2025-03-10_18h19.02.729,SL_base_41,2021.2.3,Win32,125,1.4518,,,83,0,83,0,1,,,,,,,,
,,"[""circle"",""no_dis"",""vert"",""up"",[99999,99999],[-150,0]]",circle,no_dis,vert,up,"[99999,99999]","[-150,0]",up,1,,,,,,001,2025-03-10_18h19.02.729,SL_base_41,2021.2.3,Win32,125,1.7679,,,84,0,84,0,1,,,,,,,,
,,"[""circle"",""no_dis"",""hori"",""left"",[99999,99999],[0,-150]]",circle,no_dis,hori,left,"[99999,99999]","[0,-150]",left,1,,,,,,001,2025-03-10_18h19.02.729,SL_base_41,2021.2.3,Win32,125,0.886,,,85,0,85,0,1,,,,,,,,
,,"[""diamond"",""red"",""vert"",""up"",[-106,-106],[-150,0]]",diamond,red,vert,up,"[-106,-106]","[-150,0]",up,1,,,,,,001,2025-03-10_18h19.02.729,SL_base_41,2021.2.3,Win32,125,0.9382,,,86,0,86,0,1,,,,,,,,
,,"[""diamond"",""no_dis"",""vert"",""up"",[99999,99999],[-106,-106]]",diamond,no_dis,vert,up,"[99999,99999]","[-106,-106]",up,1,,,,,,001,2025-03-10_18h19.02.729,SL_base_41,2021.2.3,Win32,125,1.4214,,,87,0,87,0,1,,,,,,,,
,,"[""circle"",""no_dis"",""hori"",""left"",[99999,99999],[150,0]]",circle,no_dis,hori,left,"[99999,99999]","[150,0]",left,1,,,,,,001,2025-03-10_18h19.02.729,SL_base_41,2021.2.3,Win32,125,0.7926,,,88,0,88,0,1,,,,,,,,
,,"[""diamond"",""green"",""vert"",""up"",[-150,0],[0,-150]]",diamond,green,vert,up,"[-150,0]","[0,-150]",up,1,,,,,,001,2025-03-10_18h19.02.729,SL_base_41,2021.2.3,Win32,125,1.4095,,,89,0,89,0,1,,,,,,,,
,,"[""circle"",""red"",""vert"",""up"",[-106,106],[-106,-106]]",circle,red,vert,up,"[-106,106]","[-106,-106]",up,1,,,,,,001,2025-03-10_18h19.02.729,SL_base_41,2021.2.3,Win32,125,1.3919,,,90,0,90,0,1,,,,,,,,
,,"[""circle"",""red"",""vert"",""up"",[-106,-106],[150,0]]",circle,red,vert,up,"[-106,-106]","[150,0]",up,1,,,,,,001,2025-03-10_18h19.02.729,SL_base_41,2021.2.3,Win32,125,0.8949,,,91,0,91,0,1,,,,,,,,
,,"[""circle"",""red"",""vert"",""up"",[106,-106],[-106,-106]]",circle,red,vert,up,"[106,-106]","[-106,-106]",up,1,,,,,,001,2025-03-10_18h19.02.729,SL_base_41,2021.2.3,Win32,125,0.8347,,,92,0,92,0,1,,,,,,,,
,,"[""circle"",""green"",""hori"",""left"",[106,106],[0,-150]]",circle,green,hori,left,"[106,106]","[0,-150]",left,1,,,,,,001,2025-03-10_18h19.02.729,SL_base_41,2021.2.3,Win32,125,1.2031,,,93,0,93,0,1,,,,,,,,
,,"[""diamond"",""no_dis"",""vert"",""up"",[99999,99999],[106,106]]",diamond,no_dis,vert,up,"[99999,99999]","[106,106]",up,1,,,,,,001,2025-03-10_18h19.02.729,SL_base_41,2021.2.3,Win32,125,1.3078,,,94,0,94,0,1,,,,,,,,
,,"[""diamond"",""red"",""vert"",""up"",[0,-150],[106,106]]",diamond,red,vert,up,"[0,-150]","[106,106]",up,1,,,,,,001,2025-03-10_18h19.02.729,SL_base_41,2021.2.3,Win32,125,1.0768,,,95,0,95,0,1,,,,,,,,
,,"[""circle"",""green"",""hori"",""left"",[0,-150],[-106,-106]]",circle,green,hori,left,"[0,-150]","[-106,-106]",left,1,,,,,,001,2025-03-10_18h19.02.729,SL_base_41,2021.2.3,Win32,125,0.7882,,,96,0,96,0,1,,,,,,,,
,,"[""circle"",""red"",""hori"",""left"",[-106,-106],[-106,106]]",circle,red,hori,left,"[-106,-106]","[-106,106]",left,1,,,,,,001,2025-03-10_18h19.02.729,SL_base_41,2021.2.3,Win32,125,1.135,,,97,0,97,0,1,,,,,,,,
,,"[""diamond"",""red"",""hori"",""left"",[150,0],[0,150]]",diamond,red,hori,left,"[150,0]","[0,150]",left,1,,,,,,001,2025-03-10_18h19.02.729,SL_base_41,2021.2.3,Win32,125,1.4656,,,98,0,98,0,1,,,,,,,,
,,"[""diamond"",""no_dis"",""vert"",""up"",[99999,99999],[0,-150]]",diamond,no_dis,vert,up,"[99999,99999]","[0,-150]",up,1,,,,,,001,2025-03-10_18h19.02.729,SL_base_41,2021.2.3,Win32,125,0.7679,,,99,0,99,0,1,,,,,,,,
,,"[""circle"",""red"",""hori"",""left"",[-106,106],[-106,-106]]",circle,red,hori,left,"[-106,106]","[-106,-106]",left,1,,,,,,001,2025-03-10_18h19.02.729,SL_base_41,2021.2.3,Win32,125,1.0267,,,100,0,100,0,1,,,,,,,,
,,"[""circle"",""green"",""vert"",""up"",[-106,-106],[0,150]]",circle,green,vert,up,"[-106,-106]","[0,150]",up,1,,,,,,001,2025-03-10_18h19.02.729,SL_base_41,2021.2.3,Win32,125,1.1191,,,101,0,101,0,1,,,,,,,,
,,"[""circle"",""no_dis"",""hori"",""left"",[99999,99999],[0,150]]",circle,no_dis,hori,left,"[99999,99999]","[0,150]",left,1,,,,,,001,2025-03-10_18h19.02.729,SL_base_41,2021.2.3,Win32,125,0.9094,,,102,0,102,0,1,,,,,,,,
,,"[""circle"",""green"",""vert"",""up"",[0,-150],[150,0]]",circle,green,vert,up,"[0,-150]","[150,0]",up,1,,,,,,001,2025-03-10_18h19.02.729,SL_base_41,2021.2.3,Win32,125,0.8252,,,103,0,103,0,1,,,,,,,,
,,"[""diamond"",""green"",""hori"",""left"",[0,-150],[106,106]]",diamond,green,hori,left,"[0,-150]","[106,106]",left,1,,,,,,001,2025-03-10_18h19.02.729,SL_base_41,2021.2.3,Win32,125,1.5677,,,104,0,104,0,1,,,,,,,,
,,"[""diamond"",""green"",""vert"",""up"",[-106,106],[106,106]]",diamond,green,vert,up,"[-106,106]","[106,106]",up,1,,,,,,001,2025-03-10_18h19.02.729,SL_base_41,2021.2.3,Win32,125,1.1092,,,105,0,105,0,1,,,,,,,,
,,"[""circle"",""red"",""vert"",""up"",[0,150],[106,-106]]",circle,red,vert,up,"[0,150]","[106,-106]",up,1,,,,,,001,2025-03-10_18h19.02.729,SL_base_41,2021.2.3,Win32,125,1.4946,,,106,0,106,0,1,,,,,,,,
,,"[""diamond"",""green"",""vert"",""up"",[0,-150],[-106,-106]]",diamond,green,vert,up,"[0,-150]","[-106,-106]",left,0,,,,,,001,2025-03-10_18h19.02.729,SL_base_41,2021.2.3,Win32,125,1.2095,,,107,0,107,0,1,,,,,,,,
,,"[""diamond"",""no_dis"",""hori"",""left"",[99999,99999],[150,0]]",diamond,no_dis,hori,left,"[99999,99999]","[150,0]",left,1,,,,,,001,2025-03-10_18h19.02.729,SL_base_41,2021.2.3,Win32,125,1.2335,,,108,0,108,0,1,,,,,,,,
,,"[""diamond"",""no_dis"",""vert"",""up"",[99999,99999],[0,150]]",diamond,no_dis,vert,up,"[99999,99999]","[0,150]",up,1,,,,,,001,2025-03-10_18h19.02.729,SL_base_41,2021.2.3,Win32,125,1.5933,,,109,0,109,0,1,,,,,,,,
,,"[""diamond"",""green"",""vert"",""up"",[0,-150],[106,-106]]",diamond,green,vert,up,"[0,-150]","[106,-106]",up,1,,,,,,001,2025-03-10_18h19.02.729,SL_base_41,2021.2.3,Win32,125,1.5287,,,110,0,110,0,1,,,,,,,,
,,"[""circle"",""red"",""hori"",""left"",[0,-150],[-150,0]]",circle,red,hori,left,"[0,-150]","[-150,0]",left,1,,,,,,001,2025-03-10_18h19.02.729,SL_base_41,2021.2.3,Win32,125,1.2182,,,111,0,111,0,1,,,,,,,,
,,"[""diamond"",""no_dis"",""hori"",""left"",[99999,99999],[0,-150]]",diamond,no_dis,hori,left,"[99999,99999]","[0,-150]",left,1,,,,,,001,2025-03-10_18h19.02.729,SL_base_41,2021.2.3,Win32,125,0.9343,,,112,0,112,0,1,,,,,,,,
,,"[""circle"",""green"",""vert"",""up"",[106,106],[106,-106]]",circle,green,vert,up,"[106,106]","[106,-106]",up,1,,,,,,001,2025-03-10_18h19.02.729,SL_base_41,2021.2.3,Win32,125,1.8837,,,113,0,113,0,1,,,,,,,,
,,"[""circle"",""no_dis"",""hori"",""left"",[99999,99999],[106,106]]",circle,no_dis,hori,left,"[99999,99999]","[106,106]",left,1,,,,,,001,2025-03-10_18h19.02.729,SL_base_41,2021.2.3,Win32,125,0.8271,,,114,0,114,0,1,,,,,,,,
,,"[""diamond"",""green"",""vert"",""up"",[0,-150],[150,0]]",diamond,green,vert,up,"[0,-150]","[150,0]",up,1,,,,,,001,2025-03-10_18h19.02.729,SL_base_41,2021.2.3,Win32,125,1.1142,,,115,0,115,0,1,,,,,,,,
,,"[""circle"",""red"",""hori"",""left"",[0,-150],[0,150]]",circle,red,hori,left,"[0,-150]","[0,150]",left,1,,,,,,001,2025-03-10_18h19.02.729,SL_base_41,2021.2.3,Win32,125,0.9808,,,116,0,116,0,1,,,,,,,,
,,"[""diamond"",""red"",""vert"",""up"",[150,0],[0,150]]",diamond,red,vert,up,"[150,0]","[0,150]",up,1,,,,,,001,2025-03-10_18h19.02.729,SL_base_41,2021.2.3,Win32,125,0.8954,,,117,0,117,0,1,,,,,,,,
,,"[""diamond"",""green"",""hori"",""left"",[-150,0],[-106,-106]]",diamond,green,hori,left,"[-150,0]","[-106,-106]",left,1,,,,,,001,2025-03-10_18h19.02.729,SL_base_41,2021.2.3,Win32,125,1.3078,,,118,0,118,0,1,,,,,,,,
,,"[""diamond"",""no_dis"",""hori"",""left"",[99999,99999],[-106,106]]",diamond,no_dis,hori,left,"[99999,99999]","[-106,106]",left,1,,,,,,001,2025-03-10_18h19.02.729,SL_base_41,2021.2.3,Win32,125,0.8518,,,119,0,119,0,1,,,,,,,,
,,"[""diamond"",""red"",""vert"",""up"",[0,150],[-106,106]]",diamond,red,vert,up,"[0,150]","[-106,106]",up,1,,,,,,001,2025-03-10_18h19.02.729,SL_base_41,2021.2.3,Win32,125,0.861,,,120,0,120,0,1,,,,,,,,
,,"[""circle"",""no_dis"",""vert"",""up"",[99999,99999],[106,-106]]",circle,no_dis,vert,up,"[99999,99999]","[106,-106]",up,1,,,,,,001,2025-03-10_18h19.02.729,SL_base_41,2021.2.3,Win32,125,1.4513,,,121,0,121,0,1,,,,,,,,
,,"[""circle"",""green"",""hori"",""left"",[-150,0],[106,106]]",circle,green,hori,left,"[-150,0]","[106,106]",left,1,,,,,,001,2025-03-10_18h19.02.729,SL_base_41,2021.2.3,Win32,125,0.8539,,,122,0,122,0,1,,,,,,,,
,,"[""diamond"",""no_dis"",""hori"",""left"",[99999,99999],[106,-106]]",diamond,no_dis,hori,left,"[99999,99999]","[106,-106]",left,1,,,,,,001,2025-03-10_18h19.02.729,SL_base_41,2021.2.3,Win32,125,0.8328,,,123,0,123,0,1,,,,,,,,
,,"[""circle"",""red"",""hori"",""left"",[0,-150],[0,150]]",circle,red,hori,left,"[0,-150]","[0,150]",left,1,,,,,,001,2025-03-10_18h19.02.729,SL_base_41,2021.2.3,Win32,125,0.8018,,,124,0,124,0,1,,,,,,,,
,,"[""diamond"",""green"",""hori"",""left"",[106,106],[-106,106]]",diamond,green,hori,left,"[106,106]","[-106,106]",left,1,,,,,,001,2025-03-10_18h19.02.729,SL_base_41,2021.2.3,Win32,125,0.8879,,,125,0,125,0,1,,,,,,,,
,,"[""diamond"",""red"",""vert"",""up"",[0,-150],[-150,0]]",diamond,red,vert,up,"[0,-150]","[-150,0]",up,1,,,,,,001,2025-03-10_18h19.02.729,SL_base_41,2021.2.3,Win32,125,0.7336,,,126,0,126,0,1,,,,,,,,
,,"[""diamond"",""red"",""vert"",""up"",[106,-106],[0,-150]]",diamond,red,vert,up,"[106,-106]","[0,-150]",up,1,,,,,,001,2025-03-10_18h19.02.729,SL_base_41,2021.2.3,Win32,125,1.1941,,,127,0,127,0,1,,,,,,,,
,,,,,,,,,,,,,,,,001,2025-03-10_18h19.02.729,SL_base_41,2021.2.3,Win32,125,,,,,,,,,1,space,184.0018,0,0,0,0,1
,,"[""circle"",""green"",""vert"",""up"",[0,-150],[106,-106]]",circle,green,vert,up,"[0,-150]","[106,-106]",up,1,,,,,,001,2025-03-10_18h19.02.729,SL_base_41,2021.2.3,Win32,125,1.1846,,,0,0,0,0,1,,,,,,,,
,,"[""circle"",""no_dis"",""vert"",""up"",[99999,99999],[0,-150]]",circle,no_dis,vert,up,"[99999,99999]","[0,-150]",up,1,,,,,,001,2025-03-10_18h19.02.729,SL_base_41,2021.2.3,Win32,125,0.9449,,,1,0,1,0,1,,,,,,,,
,,"[""diamond"",""red"",""hori"",""left"",[-150,0],[0,150]]",diamond,red,hori,left,"[-150,0]","[0,150]",left,1,,,,,,001,2025-03-10_18h19.02.729,SL_base_41,2021.2.3,Win32,125,0.6453,,,2,0,2,0,1,,,,,,,,
,,"[""circle"",""red"",""vert"",""up"",[106,-106],[-106,-106]]",circle,red,vert,up,"[106,-106]","[-106,-106]",up,1,,,,,,001,2025-03-10_18h19.02.729,SL_base_41,2021.2.3,Win32,125,1.1363,,,3,0,3,0,1,,,,,,,,
,,"[""circle"",""red"",""vert"",""up"",[-106,106],[-106,-106]]",circle,red,vert,up,"[-106,106]","[-106,-106]",up,1,,,,,,001,2025-03-10_18h19.02.729,SL_base_41,2021.2.3,Win32,125,0.8607,,,4,0,4,0,1,,,,,,,,
,,"[""diamond"",""no_dis"",""vert"",""up"",[99999,99999],[0,150]]",diamond,no_dis,vert,up,"[99999,99999]","[0,150]",up,1,,,,,,001,2025-03-10_18h19.02.729,SL_base_41,2021.2.3,Win32,125,1.1088,,,5,0,5,0,1,,,,,,,,
,,"[""diamond"",""red"",""hori"",""left"",[150,0],[0,150]]",diamond,red,hori,left,"[150,0]","[0,150]",left,1,,,,,,001,2025-03-10_18h19.02.729,SL_base_41,2021.2.3,Win32,125,2.0664,,,6,0,6,0,1,,,,,,,,
,,"[""diamond"",""green"",""vert"",""up"",[-106,106],[106,106]]",diamond,green,vert,up,"[-106,106]","[106,106]",up,1,,,,,,001,2025-03-10_18h19.02.729,SL_base_41,2021.2.3,Win32,125,0.9432,,,7,0,7,0,1,,,,,,,,
,,"[""diamond"",""red"",""hori"",""left"",[-106,-106],[-106,106]]",diamond,red,hori,left,"[-106,-106]","[-106,106]",left,1,,,,,,001,2025-03-10_18h19.02.729,SL_base_41,2021.2.3,Win32,125,0.6415,,,8,0,8,0,1,,,,,,,,
,,"[""circle"",""green"",""hori"",""left"",[0,-150],[-106,106]]",circle,green,hori,left,"[0,-150]","[-106,106]",left,1,,,,,,001,2025-03-10_18h19.02.729,SL_base_41,2021.2.3,Win32,125,0.6925,,,9,0,9,0,1,,,,,,,,
,,"[""diamond"",""red"",""vert"",""up"",[150,0],[0,150]]",diamond,red,vert,up,"[150,0]","[0,150]",up,1,,,,,,001,2025-03-10_18h19.02.729,SL_base_41,2021.2.3,Win32,125,1.4327,,,10,0,10,0,1,,,,,,,,
,,"[""diamond"",""no_dis"",""vert"",""up"",[99999,99999],[106,106]]",diamond,no_dis,vert,up,"[99999,99999]","[106,106]",up,1,,,,,,001,2025-03-10_18h19.02.729,SL_base_41,2021.2.3,Win32,125,1.0187,,,11,0,11,0,1,,,,,,,,
,,"[""diamond"",""no_dis"",""vert"",""up"",[99999,99999],[-106,-106]]",diamond,no_dis,vert,up,"[99999,99999]","[-106,-106]",up,1,,,,,,001,2025-03-10_18h19.02.729,SL_base_41,2021.2.3,Win32,125,1.2337,,,12,0,12,0,1,,,,,,,,
,,"[""circle"",""red"",""hori"",""left"",[106,-106],[150,0]]",circle,red,hori,left,"[106,-106]","[150,0]",left,1,,,,,,001,2025-03-10_18h19.02.729,SL_base_41,2021.2.3,Win32,125,0.7695,,,13,0,13,0,1,,,,,,,,
,,"[""diamond"",""no_dis"",""hori"",""left"",[99999,99999],[0,150]]",diamond,no_dis,hori,left,"[99999,99999]","[0,150]",left,1,,,,,,001,2025-03-10_18h19.02.729,SL_base_41,2021.2.3,Win32,125,0.7743,,,14,0,14,0,1,,,,,,,,
,,"[""diamond"",""red"",""vert"",""up"",[106,-106],[106,106]]",diamond,red,vert,up,"[106,-106]","[106,106]",up,1,,,,,,001,2025-03-10_18h19.02.729,SL_base_41,2021.2.3,Win32,125,1.6315,,,15,0,15,0,1,,,,,,,,
,,"[""diamond"",""red"",""hori"",""left"",[0,-150],[-106,106]]",diamond,red,hori,left,"[0,-150]","[-106,106]",left,1,,,,,,001,2025-03-10_18h19.02.729,SL_base_41,2021.2.3,Win32,125,0.8462,,,16,0,16,0,1,,,,,,,,
,,"[""diamond"",""no_dis"",""vert"",""up"",[99999,99999],[-106,-106]]",diamond,no_dis,vert,up,"[99999,99999]","[-106,-106]",up,1,,,,,,001,2025-03-10_18h19.02.729,SL_base_41,2021.2.3,Win32,125,0.7788,,,17,0,17,0,1,,,,,,,,
,,"[""diamond"",""green"",""hori"",""left"",[-150,0],[-106,-106]]",diamond,green,hori,left,"[-150,0]","[-106,-106]",left,1,,,,,,001,2025-03-10_18h19.02.729,SL_base_41,2021.2.3,Win32,125,1.5433,,,18,0,18,0,1,,,,,,,,
,,"[""circle"",""red"",""vert"",""up"",[0,150],[106,-106]]",circle,red,vert,up,"[0,150]","[106,-106]",up,1,,,,,,001,2025-03-10_18h19.02.729,SL_base_41,2021.2.3,Win32,125,0.9177,,,19,0,19,0,1,,,,,,,,
,,"[""circle"",""no_dis"",""hori"",""left"",[99999,99999],[0,150]]",circle,no_dis,hori,left,"[99999,99999]","[0,150]",left,1,,,,,,001,2025-03-10_18h19.02.729,SL_base_41,2021.2.3,Win32,125,0.5926,,,20,0,20,0,1,,,,,,,,
,,"[""circle"",""green"",""vert"",""up"",[106,106],[106,-106]]",circle,green,vert,up,"[106,106]","[106,-106]",up,1,,,,,,001,2025-03-10_18h19.02.729,SL_base_41,2021.2.3,Win32,125,1.2796,,,21,0,21,0,1,,,,,,,,
,,"[""diamond"",""green"",""vert"",""up"",[0,150],[106,-106]]",diamond,green,vert,up,"[0,150]","[106,-106]",left,0,,,,,,001,2025-03-10_18h19.02.729,SL_base_41,2021.2.3,Win32,125,0.6983,,,22,0,22,0,1,,,,,,,,
,,"[""circle"",""no_dis"",""vert"",""up"",[99999,99999],[-106,106]]",circle,no_dis,vert,up,"[99999,99999]","[-106,106]",up,1,,,,,,001,2025-03-10_18h19.02.729,SL_base_41,2021.2.3,Win32,125,0.9377,,,23,0,23,0,1,,,,,,,,
,,"[""circle"",""green"",""vert"",""up"",[0,-150],[150,0]]",circle,green,vert,up,"[0,-150]","[150,0]",up,1,,,,,,001,2025-03-10_18h19.02.729,SL_base_41,2021.2.3,Win32,125,0.8702,,,24,0,24,0,1,,,,,,,,
,,"[""diamond"",""green"",""vert"",""up"",[-150,0],[0,-150]]",diamond,green,vert,up,"[-150,0]","[0,-150]",up,1,,,,,,001,2025-03-10_18h19.02.729,SL_base_41,2021.2.3,Win32,125,1.0759,,,25,0,25,0,1,,,,,,,,
,,"[""circle"",""green"",""vert"",""up"",[0,-150],[-150,0]]",circle,green,vert,up,"[0,-150]","[-150,0]",up,1,,,,,,001,2025-03-10_18h19.02.729,SL_base_41,2021.2.3,Win32,125,1.647,,,26,0,26,0,1,,,,,,,,
,,"[""diamond"",""red"",""vert"",""up"",[0,150],[-106,106]]",diamond,red,vert,up,"[0,150]","[-106,106]",left,0,,,,,,001,2025-03-10_18h19.02.729,SL_base_41,2021.2.3,Win32,125,0.7117,,,27,0,27,0,1,,,,,,,,
,,"[""diamond"",""red"",""hori"",""left"",[-106,-106],[150,0]]",diamond,red,hori,left,"[-106,-106]","[150,0]",left,1,,,,,,001,2025-03-10_18h19.02.729,SL_base_41,2021.2.3,Win32,125,0.7428,,,28,0,28,0,1,,,,,,,,
,,"[""circle"",""green"",""hori"",""left"",[106,106],[0,-150]]",circle,green,hori,left,"[106,106]","[0,-150]",left,1,,,,,,001,2025-03-10_18h19.02.729,SL_base_41,2021.2.3,Win32,125,1.0536,,,29,0,29,0,1,,,,,,,,
,,"[""circle"",""red"",""hori"",""left"",[-106,-106],[-106,106]]",circle,red,hori,left,"[-106,-106]","[-106,106]",left,1,,,,,,001,2025-03-10_18h19.02.729,SL_base_41,2021.2.3,Win32,125,1.0437,,,30,0,30,0,1,,,,,,,,
,,"[""circle"",""green"",""hori"",""left"",[-106,-106],[106,106]]",circle,green,hori,left,"[-106,-106]","[106,106]",left,1,,,,,,001,2025-03-10_18h19.02.729,SL_base_41,2021.2.3,Win32,125,0.7413,,,31,0,31,0,1,,,,,,,,
,,"[""circle"",""red"",""hori"",""left"",[-106,-106],[0,-150]]",circle,red,hori,left,"[-106,-106]","[0,-150]",left,1,,,,,,001,2025-03-10_18h19.02.729,SL_base_41,2021.2.3,Win32,125,0.9273,,,32,0,32,0,1,,,,,,,,
,,"[""circle"",""red"",""hori"",""left"",[0,-150],[0,150]]",circle,red,hori,left,"[0,-150]","[0,150]",left,1,,,,,,001,2025-03-10_18h19.02.729,SL_base_41,2021.2.3,Win32,125,0.6361,,,33,0,33,0,1,,,,,,,,
,,"[""circle"",""green"",""vert"",""up"",[-106,-106],[0,150]]",circle,green,vert,up,"[-106,-106]","[0,150]",up,1,,,,,,001,2025-03-10_18h19.02.729,SL_base_41,2021.2.3,Win32,125,0.8425,,,34,0,34,0,1,,,,,,,,
,,"[""diamond"",""red"",""vert"",""up"",[0,-150],[-150,0]]",diamond,red,vert,up,"[0,-150]","[-150,0]",up,1,,,,,,001,2025-03-10_18h19.02.729,SL_base_41,2021.2.3,Win32,125,1.2658,,,35,0,35,0,1,,,,,,,,
,,"[""diamond"",""no_dis"",""vert"",""up"",[99999,99999],[0,150]]",diamond,no_dis,vert,up,"[99999,99999]","[0,150]",up,1,,,,,,001,2025-03-10_18h19.02.729,SL_base_41,2021.2.3,Win32,125,1.6738,,,36,0,36,0,1,,,,,,,,
,,"[""circle"",""red"",""hori"",""left"",[150,0],[-106,-106]]",circle,red,hori,left,"[150,0]","[-106,-106]",left,1,,,,,,001,2025-03-10_18h19.02.729,SL_base_41,2021.2.3,Win32,125,0.8275,,,37,0,37,0,1,,,,,,,,
,,"[""diamond"",""green"",""hori"",""left"",[0,-150],[-106,106]]",diamond,green,hori,left,"[0,-150]","[-106,106]",left,1,,,,,,001,2025-03-10_18h19.02.729,SL_base_41,2021.2.3,Win32,125,0.7049,,,38,0,38,0,1,,,,,,,,
,,"[""circle"",""red"",""vert"",""up"",[-150,0],[-106,106]]",circle,red,vert,up,"[-150,0]","[-106,106]",left,0,,,,,,001,2025-03-10_18h19.02.729,SL_base_41,2021.2.3,Win32,125,1.068,,,39,0,39,0,1,,,,,,,,
,,"[""diamond"",""no_dis"",""vert"",""up"",[99999,99999],[-150,0]]",diamond,no_dis,vert,up,"[99999,99999]","[-150,0]",left,0,,,,,,001,2025-03-10_18h19.02.729,SL_base_41,2021.2.3,Win32,125,1.7953,,,40,0,40,0,1,,,,,,,,
,,"[""circle"",""green"",""hori"",""left"",[-150,0],[106,106]]",circle,green,hori,left,"[-150,0]","[106,106]",up,0,,,,,,001,2025-03-10_18h19.02.729,SL_base_41,2021.2.3,Win32,125,2.3219,,,41,0,41,0,1,,,,,,,,
,,"[""circle"",""red"",""hori"",""left"",[-106,106],[-106,-106]]",circle,red,hori,left,"[-106,106]","[-106,-106]",left,1,,,,,,001,2025-03-10_18h19.02.729,SL_base_41,2021.2.3,Win32,125,0.9308,,,42,0,42,0,1,,,,,,,,
,,"[""circle"",""green"",""vert"",""up"",[0,-150],[-150,0]]",circle,green,vert,up,"[0,-150]","[-150,0]",up,1,,,,,,001,2025-03-10_18h19.02.729,SL_base_41,2021.2.3,Win32,125,0.9328,,,43,0,43,0,1,,,,,,,,
,,"[""diamond"",""red"",""hori"",""left"",[0,-150],[106,106]]",diamond,red,hori,left,"[0,-150]","[106,106]",left,1,,,,,,001,2025-03-10_18h19.02.729,SL_base_41,2021.2.3,Win32,125,1.2341,,,44,0,44,0,1,,,,,,,,
,,"[""diamond"",""red"",""hori"",""left"",[150,0],[0,150]]",diamond,red,hori,left,"[150,0]","[0,150]",left,1,,,,,,001,2025-03-10_18h19.02.729,SL_base_41,2021.2.3,Win32,125,0.6804,,,45,0,45,0,1,,,,,,,,
,,"[""diamond"",""green"",""vert"",""up"",[106,106],[0,-150]]",diamond,green,vert,up,"[106,106]","[0,-150]",up,1,,,,,,001,2025-03-10_18h19.02.729,SL_base_41,2021.2.3,Win32,125,0.959,,,46,0,46,0,1,,,,,,,,
,,"[""circle"",""no_dis"",""vert"",""up"",[99999,99999],[106,-106]]",circle,no_dis,vert,up,"[99999,99999]","[106,-106]",up,1,,,,,,001,2025-03-10_18h19.02.729,SL_base_41,2021.2.3,Win32,125,0.8799,,,47,0,47,0,1,,,,,,,,
,,"[""diamond"",""no_dis"",""hori"",""left"",[99999,99999],[-106,106]]",diamond,no_dis,hori,left,"[99999,99999]","[-106,106]",left,1,,,,,,001,2025-03-10_18h19.02.729,SL_base_41,2021.2.3,Win32,125,0.8077,,,48,0,48,0,1,,,,,,,,
,,"[""diamond"",""green"",""vert"",""up"",[0,-150],[150,0]]",diamond,green,vert,up,"[0,-150]","[150,0]",up,1,,,,,,001,2025-03-10_18h19.02.729,SL_base_41,2021.2.3,Win32,125,0.7488,,,49,0,49,0,1,,,,,,,,
,,"[""circle"",""red"",""vert"",""up"",[106,106],[-150,0]]",circle,red,vert,up,"[106,106]","[-150,0]",up,1,,,,,,001,2025-03-10_18h19.02.729,SL_base_41,2021.2.3,Win32,125,0.9519,,,50,0,50,0,1,,,,,,,,
,,"[""diamond"",""green"",""hori"",""left"",[0,-150],[0,150]]",diamond,green,hori,left,"[0,-150]","[0,150]",left,1,,,,,,001,2025-03-10_18h19.02.729,SL_base_41,2021.2.3,Win32,125,0.7266,,,51,0,51,0,1,,,,,,,,
,,"[""diamond"",""green"",""hori"",""left"",[-150,0],[-106,-106]]",diamond,green,hori,left,"[-150,0]","[-106,-106]",left,1,,,,,,001,2025-03-10_18h19.02.729,SL_base_41,2021.2.3,Win32,125,1.248,,,52,0,52,0,1,,,,,,,,
,,"[""circle"",""green"",""hori"",""left"",[150,0],[-106,106]]",circle,green,hori,left,"[150,0]","[-106,106]",left,1,,,,,,001,2025-03-10_18h19.02.729,SL_base_41,2021.2.3,Win32,125,1.1377,,,53,0,53,0,1,,,,,,,,
,,"[""circle"",""no_dis"",""hori"",""left"",[99999,99999],[106,106]]",circle,no_dis,hori,left,"[99999,99999]","[106,106]",left,1,,,,,,001,2025-03-10_18h19.02.729,SL_base_41,2021.2.3,Win32,125,0.6963,,,54,0,54,0,1,,,,,,,,
,,"[""circle"",""green"",""hori"",""left"",[0,-150],[-106,-106]]",circle,green,hori,left,"[0,-150]","[-106,-106]",left,1,,,,,,001,2025-03-10_18h19.02.729,SL_base_41,2021.2.3,Win32,125,1.7918,,,55,0,55,0,1,,,,,,,,
,,"[""diamond"",""green"",""vert"",""up"",[0,-150],[106,-106]]",diamond,green,vert,up,"[0,-150]","[106,-106]",up,1,,,,,,001,2025-03-10_18h19.02.729,SL_base_41,2021.2.3,Win32,125,0.835,,,56,0,56,0,1,,,,,,,,
,,"[""circle"",""no_dis"",""hori"",""left"",[99999,99999],[106,106]]",circle,no_dis,hori,left,"[99999,99999]","[106,106]",left,1,,,,,,001,2025-03-10_18h19.02.729,SL_base_41,2021.2.3,Win32,125,1.3598,,,57,0,57,0,1,,,,,,,,
,,"[""circle"",""red"",""vert"",""up"",[0,-150],[106,106]]",circle,red,vert,up,"[0,-150]","[106,106]",up,1,,,,,,001,2025-03-10_18h19.02.729,SL_base_41,2021.2.3,Win32,125,1.2208,,,58,0,58,0,1,,,,,,,,
,,"[""diamond"",""red"",""vert"",""up"",[150,0],[106,106]]",diamond,red,vert,up,"[150,0]","[106,106]",up,1,,,,,,001,2025-03-10_18h19.02.729,SL_base_41,2021.2.3,Win32,125,2.2585,,,59,0,59,0,1,,,,,,,,
,,"[""diamond"",""red"",""hori"",""left"",[0,150],[-106,106]]",diamond,red,hori,left,"[0,150]","[-106,106]",left,1,,,,,,001,2025-03-10_18h19.02.729,SL_base_41,2021.2.3,Win32,125,0.9272,,,60,0,60,0,1,,,,,,,,
,,"[""circle"",""green"",""vert"",""up"",[106,106],[150,0]]",circle,green,vert,up,"[106,106]","[150,0]",up,1,,,,,,001,2025-03-10_18h19.02.729,SL_base_41,2021.2.3,Win32,125,1.1263,,,61,0,61,0,1,,,,,,,,
,,"[""circle"",""no_dis"",""hori"",""left"",[99999,99999],[150,0]]",circle,no_dis,hori,left,"[99999,99999]","[150,0]",left,1,,,,,,001,2025-03-10_18h19.02.729,SL_base_41,2021.2.3,Win32,125,0.6772,,,62,0,62,0,1,,,,,,,,
,,"[""circle"",""no_dis"",""vert"",""up"",[99999,99999],[-106,-106]]",circle,no_dis,vert,up,"[99999,99999]","[-106,-106]",up,1,,,,,,001,2025-03-10_18h19.02.729,SL_base_41,2021.2.3,Win32,125,0.9351,,,63,0,63,0,1,,,,,,,,
,,"[""diamond"",""green"",""vert"",""up"",[0,-150],[-106,-106]]",diamond,green,vert,up,"[0,-150]","[-106,-106]",up,1,,,,,,001,2025-03-10_18h19.02.729,SL_base_41,2021.2.3,Win32,125,1.4263,,,64,0,64,0,1,,,,,,,,
,,"[""diamond"",""green"",""hori"",""left"",[-150,0],[-106,106]]",diamond,green,hori,left,"[-150,0]","[-106,106]",up,0,,,,,,001,2025-03-10_18h19.02.729,SL_base_41,2021.2.3,Win32,125,1.9735,,,65,0,65,0,1,,,,,,,,
,,"[""circle"",""red"",""hori"",""left"",[0,-150],[-150,0]]",circle,red,hori,left,"[0,-150]","[-150,0]",left,1,,,,,,001,2025-03-10_18h19.02.729,SL_base_41,2021.2.3,Win32,125,0.7533,,,66,0,66,0,1,,,,,,,,
,,"[""circle"",""no_dis"",""hori"",""left"",[99999,99999],[-106,-106]]",circle,no_dis,hori,left,"[99999,99999]","[-106,-106]",left,1,,,,,,001,2025-03-10_18h19.02.729,SL_base_41,2021.2.3,Win32,125,1.0877,,,67,0,67,0,1,,,,,,,,
,,"[""diamond"",""green"",""vert"",""up"",[0,150],[-150,0]]",diamond,green,vert,up,"[0,150]","[-150,0]",up,1,,,,,,001,2025-03-10_18h19.02.729,SL_base_41,2021.2.3,Win32,125,1.1206,,,68,0,68,0,1,,,,,,,,
,,"[""circle"",""green"",""hori"",""left"",[0,-150],[-106,-106]]",circle,green,hori,left,"[0,-150]","[-106,-106]",left,1,,,,,,001,2025-03-10_18h19.02.729,SL_base_41,2021.2.3,Win32,125,1.8169,,,69,0,69,0,1,,,,,,,,
,,"[""diamond"",""green"",""hori"",""left"",[150,0],[106,-106]]",diamond,green,hori,left,"[150,0]","[106,-106]",left,1,,,,,,001,2025-03-10_18h19.02.729,SL_base_41,2021.2.3,Win32,125,1.4505,,,70,0,70,0,1,,,,,,,,
,,"[""circle"",""red"",""vert"",""up"",[106,-106],[106,106]]",circle,red,vert,up,"[106,-106]","[106,106]",up,1,,,,,,001,2025-03-10_18h19.02.729,SL_base_41,2021.2.3,Win32,125,0.8354,,,71,0,71,0,1,,,,,,,,
,,"[""diamond"",""red"",""hori"",""left"",[106,-106],[150,0]]",diamond,red,hori,left,"[106,-106]","[150,0]",left,1,,,,,,001,2025-03-10_18h19.02.729,SL_base_41,2021.2.3,Win32,125,1.1028,,,72,0,72,0,1,,,,,,,,
,,"[""circle"",""green"",""vert"",""up"",[-106,106],[0,150]]",circle,green,vert,up,"[-106,106]","[0,150]",up,1,,,,,,001,2025-03-10_18h19.02.729,SL_base_41,2021.2.3,Win32,125,1.1809,,,73,0,73,0,1,,,,,,,,
,,"[""diamond"",""no_dis"",""vert"",""up"",[99999,99999],[106,-106]]",diamond,no_dis,vert,up,"[99999,99999]","[106,-106]",up,1,,,,,,001,2025-03-10_18h19.02.729,SL_base_41,2021.2.3,Win32,125,2.0114,,,74,0,74,0,1,,,,,,,,
,,"[""circle"",""no_dis"",""vert"",""up"",[99999,99999],[106,-106]]",circle,no_dis,vert,up,"[99999,99999]","[106,-106]",up,1,,,,,,001,2025-03-10_18h19.02.729,SL_base_41,2021.2.3,Win32,125,0.8604,,,75,0,75,0,1,,,,,,,,
,,"[""circle"",""red"",""vert"",""up"",[-106,-106],[150,0]]",circle,red,vert,up,"[-106,-106]","[150,0]",up,1,,,,,,001,2025-03-10_18h19.02.729,SL_base_41,2021.2.3,Win32,125,1.3524,,,76,0,76,0,1,,,,,,,,
,,"[""diamond"",""green"",""hori"",""left"",[0,-150],[106,106]]",diamond,green,hori,left,"[0,-150]","[106,106]",left,1,,,,,,001,2025-03-10_18h19.02.729,SL_base_41,2021.2.3,Win32,125,1.0412,,,77,0,77,0,1,,,,,,,,
,,"[""circle"",""red"",""hori"",""left"",[106,-106],[-106,-106]]",circle,red,hori,left,"[106,-106]","[-106,-106]",left,1,,,,,,001,2025-03-10_18h19.02.729,SL_base_41,2021.2.3,Win32,125,0.858,,,78,0,78,0,1,,,,,,,,
,,"[""diamond"",""red"",""vert"",""up"",[0,-150],[150,0]]",diamond,red,vert,up,"[0,-150]","[150,0]",up,1,,,,,,001,2025-03-10_18h19.02.729,SL_base_41,2021.2.3,Win32,125,1.0018,,,79,0,79,0,1,,,,,,,,
,,"[""circle"",""no_dis"",""hori"",""left"",[99999,99999],[106,-106]]",circle,no_dis,hori,left,"[99999,99999]","[106,-106]",left,1,,,,,,001,2025-03-10_18h19.02.729,SL_base_41,2021.2.3,Win32,125,0.7372,,,80,0,80,0,1,,,,,,,,
,,"[""circle"",""red"",""vert"",""up"",[-150,0],[-106,-106]]",circle,red,vert,up,"[-150,0]","[-106,-106]",up,1,,,,,,001,2025-03-10_18h19.02.729,SL_base_41,2021.2.3,Win32,125,1.3242,,,81,0,81,0,1,,,,,,,,
,,"[""circle"",""no_dis"",""vert"",""up"",[99999,99999],[-106,106]]",circle,no_dis,vert,up,"[99999,99999]","[-106,106]",up,1,,,,,,001,2025-03-10_18h19.02.729,SL_base_41,2021.2.3,Win32,125,0.7179,,,82,0,82,0,1,,,,,,,,
,,"[""circle"",""green"",""vert"",""up"",[-106,106],[-106,-106]]",circle,green,vert,up,"[-106,106]","[-106,-106]",left,0,,,,,,001,2025-03-10_18h19.02.729,SL_base_41,2021.2.3,Win32,125,1.769,,,83,0,83,0,1,,,,,,,,
,,"[""circle"",""no_dis"",""hori"",""left"",[99999,99999],[0,-150]]",circle,no_dis,hori,left,"[99999,99999]","[0,-150]",left,1,,,,,,001,2025-03-10_18h19.02.729,SL_base_41,2021.2.3,Win32,125,0.9177,,,84,0,84,0,1,,,,,,,,
,,"[""diamond"",""green"",""hori"",""left"",[106,106],[-106,106]]",diamond,green,hori,left,"[106,106]","[-106,106]",left,1,,,,,,001,2025-03-10_18h19.02.729,SL_base_41,2021.2.3,Win32,125,1.0581,,,85,0,85,0,1,,,,,,,,
,,"[""diamond"",""green"",""vert"",""up"",[0,-150],[150,0]]",diamond,green,vert,up,"[0,-150]","[150,0]",up,1,,,,,,001,2025-03-10_18h19.02.729,SL_base_41,2021.2.3,Win32,125,0.9431,,,86,0,86,0,1,,,,,,,,
,,"[""diamond"",""green"",""vert"",""up"",[106,106],[0,150]]",diamond,green,vert,up,"[106,106]","[0,150]",up,1,,,,,,001,2025-03-10_18h19.02.729,SL_base_41,2021.2.3,Win32,125,1.2349,,,87,0,87,0,1,,,,,,,,
,,"[""diamond"",""no_dis"",""vert"",""up"",[99999,99999],[0,-150]]",diamond,no_dis,vert,up,"[99999,99999]","[0,-150]",up,1,,,,,,001,2025-03-10_18h19.02.729,SL_base_41,2021.2.3,Win32,125,0.7782,,,88,0,88,0,1,,,,,,,,
,,"[""diamond"",""green"",""hori"",""left"",[0,-150],[-106,-106]]",diamond,green,hori,left,"[0,-150]","[-106,-106]",left,1,,,,,,001,2025-03-10_18h19.02.729,SL_base_41,2021.2.3,Win32,125,0.7512,,,89,0,89,0,1,,,,,,,,
,,"[""circle"",""red"",""hori"",""left"",[0,150],[106,-106]]",circle,red,hori,left,"[0,150]","[106,-106]",left,1,,,,,,001,2025-03-10_18h19.02.729,SL_base_41,2021.2.3,Win32,125,0.7934,,,90,0,90,0,1,,,,,,,,
,,"[""circle"",""no_dis"",""hori"",""left"",[99999,99999],[-150,0]]",circle,no_dis,hori,left,"[99999,99999]","[-150,0]",left,1,,,,,,001,2025-03-10_18h19.02.729,SL_base_41,2021.2.3,Win32,125,0.6113,,,91,0,91,0,1,,,,,,,,
,,"[""circle"",""red"",""hori"",""left"",[0,-150],[0,150]]",circle,red,hori,left,"[0,-150]","[0,150]",left,1,,,,,,001,2025-03-10_18h19.02.729,SL_base_41,2021.2.3,Win32,125,0.6053,,,92,0,92,0,1,,,,,,,,
,,"[""circle"",""green"",""hori"",""left"",[0,-150],[106,-106]]",circle,green,hori,left,"[0,-150]","[106,-106]",left,1,,,,,,001,2025-03-10_18h19.02.729,SL_base_41,2021.2.3,Win32,125,0.6248,,,93,0,93,0,1,,,,,,,,
,,"[""circle"",""no_dis"",""hori"",""left"",[99999,99999],[-106,106]]",circle,no_dis,hori,left,"[99999,99999]","[-106,106]",left,1,,,,,,001,2025-03-10_18h19.02.729,SL_base_41,2021.2.3,Win32,125,0.5293,,,94,0,94,0,1,,,,,,,,
,,"[""diamond"",""no_dis"",""hori"",""left"",[99999,99999],[-150,0]]",diamond,no_dis,hori,left,"[99999,99999]","[-150,0]",left,1,,,,,,001,2025-03-10_18h19.02.729,SL_base_41,2021.2.3,Win32,125,0.7587,,,95,0,95,0,1,,,,,,,,
,,"[""circle"",""red"",""vert"",""up"",[0,-150],[-106,-106]]",circle,red,vert,up,"[0,-150]","[-106,-106]",left,0,,,,,,001,2025-03-10_18h19.02.729,SL_base_41,2021.2.3,Win32,125,0.9679,,,96,0,96,0,1,,,,,,,,
,,"[""diamond"",""no_dis"",""hori"",""left"",[99999,99999],[150,0]]",diamond,no_dis,hori,left,"[99999,99999]","[150,0]",left,1,,,,,,001,2025-03-10_18h19.02.729,SL_base_41,2021.2.3,Win32,125,1.462,,,97,0,97,0,1,,,,,,,,
,,"[""circle"",""green"",""hori"",""left"",[-106,106],[106,-106]]",circle,green,hori,left,"[-106,106]","[106,-106]",left,1,,,,,,001,2025-03-10_18h19.02.729,SL_base_41,2021.2.3,Win32,125,0.665,,,98,0,98,0,1,,,,,,,,
,,"[""diamond"",""red"",""hori"",""left"",[0,-150],[-106,-106]]",diamond,red,hori,left,"[0,-150]","[-106,-106]",up,0,,,,,,001,2025-03-10_18h19.02.729,SL_base_41,2021.2.3,Win32,125,1.1698,,,99,0,99,0,1,,,,,,,,
,,"[""diamond"",""red"",""vert"",""up"",[0,150],[-106,106]]",diamond,red,vert,up,"[0,150]","[-106,106]",up,1,,,,,,001,2025-03-10_18h19.02.729,SL_base_41,2021.2.3,Win32,125,0.7419,,,100,0,100,0,1,,,,,,,,
,,"[""circle"",""red"",""vert"",""up"",[150,0],[-150,0]]",circle,red,vert,up,"[150,0]","[-150,0]",up,1,,,,,,001,2025-03-10_18h19.02.729,SL_base_41,2021.2.3,Win32,125,0.9213,,,101,0,101,0,1,,,,,,,,
,,"[""circle"",""green"",""hori"",""left"",[-106,106],[106,-106]]",circle,green,hori,left,"[-106,106]","[106,-106]",left,1,,,,,,001,2025-03-10_18h19.02.729,SL_base_41,2021.2.3,Win32,125,0.6939,,,102,0,102,0,1,,,,,,,,
,,"[""circle"",""no_dis"",""vert"",""up"",[99999,99999],[106,106]]",circle,no_dis,vert,up,"[99999,99999]","[106,106]",up,1,,,,,,001,2025-03-10_18h19.02.729,SL_base_41,2021.2.3,Win32,125,0.8051,,,103,0,103,0,1,,,,,,,,
,,"[""diamond"",""no_dis"",""vert"",""up"",[99999,99999],[-150,0]]",diamond,no_dis,vert,up,"[99999,99999]","[-150,0]",up,1,,,,,,001,2025-03-10_18h19.02.729,SL_base_41,2021.2.3,Win32,125,0.6367,,,104,0,104,0,1,,,,,,,,
,,"[""circle"",""no_dis"",""vert"",""up"",[99999,99999],[150,0]]",circle,no_dis,vert,up,"[99999,99999]","[150,0]",up,1,,,,,,001,2025-03-10_18h19.02.729,SL_base_41,2021.2.3,Win32,125,0.6696,,,105,0,105,0,1,,,,,,,,
,,"[""diamond"",""red"",""hori"",""left"",[0,-150],[0,150]]",diamond,red,hori,left,"[0,-150]","[0,150]",left,1,,,,,,001,2025-03-10_18h19.02.729,SL_base_41,2021.2.3,Win32,125,0.8143,,,106,0,106,0,1,,,,,,,,
,,"[""circle"",""no_dis"",""vert"",""up"",[99999,99999],[-150,0]]",circle,no_dis,vert,up,"[99999,99999]","[-150,0]",up,1,,,,,,001,2025-03-10_18h19.02.729,SL_base_41,2021.2.3,Win32,125,0.7372,,,107,0,107,0,1,,,,,,,,
,,"[""diamond"",""no_dis"",""hori"",""left"",[99999,99999],[0,150]]",diamond,no_dis,hori,left,"[99999,99999]","[0,150]",left,1,,,,,,001,2025-03-10_18h19.02.729,SL_base_41,2021.2.3,Win32,125,1.0106,,,108,0,108,0,1,,,,,,,,
,,"[""diamond"",""no_dis"",""hori"",""left"",[99999,99999],[150,0]]",diamond,no_dis,hori,left,"[99999,99999]","[150,0]",left,1,,,,,,001,2025-03-10_18h19.02.729,SL_base_41,2021.2.3,Win32,125,0.6124,,,109,0,109,0,1,,,,,,,,
,,"[""diamond"",""no_dis"",""hori"",""left"",[99999,99999],[0,-150]]",diamond,no_dis,hori,left,"[99999,99999]","[0,-150]",left,1,,,,,,001,2025-03-10_18h19.02.729,SL_base_41,2021.2.3,Win32,125,1.3625,,,110,0,110,0,1,,,,,,,,
,,"[""circle"",""green"",""hori"",""left"",[0,-150],[0,150]]",circle,green,hori,left,"[0,-150]","[0,150]",left,1,,,,,,001,2025-03-10_18h19.02.729,SL_base_41,2021.2.3,Win32,125,0.7778,,,111,0,111,0,1,,,,,,,,
,,"[""diamond"",""green"",""vert"",""up"",[0,150],[0,-150]]",diamond,green,vert,up,"[0,150]","[0,-150]",up,1,,,,,,001,2025-03-10_18h19.02.729,SL_base_41,2021.2.3,Win32,125,1.005,,,112,0,112,0,1,,,,,,,,
,,"[""circle"",""no_dis"",""vert"",""up"",[99999,99999],[150,0]]",circle,no_dis,vert,up,"[99999,99999]","[150,0]",up,1,,,,,,001,2025-03-10_18h19.02.729,SL_base_41,2021.2.3,Win32,125,1.3099,,,113,0,113,0,1,,,,,,,,
,,"[""diamond"",""no_dis"",""vert"",""up"",[99999,99999],[106,106]]",diamond,no_dis,vert,up,"[99999,99999]","[106,106]",up,1,,,,,,001,2025-03-10_18h19.02.729,SL_base_41,2021.2.3,Win32,125,1.2088,,,114,0,114,0,1,,,,,,,,
,,"[""diamond"",""no_dis"",""hori"",""left"",[99999,99999],[-106,106]]",diamond,no_dis,hori,left,"[99999,99999]","[-106,106]",left,1,,,,,,001,2025-03-10_18h19.02.729,SL_base_41,2021.2.3,Win32,125,0.7072,,,115,0,115,0,1,,,,,,,,
,,"[""diamond"",""red"",""vert"",""up"",[0,-150],[106,-106]]",diamond,red,vert,up,"[0,-150]","[106,-106]",up,1,,,,,,001,2025-03-10_18h19.02.729,SL_base_41,2021.2.3,Win32,125,0.9792,,,116,0,116,0,1,,,,,,,,
,,"[""diamond"",""red"",""vert"",""up"",[106,-106],[0,-150]]",diamond,red,vert,up,"[106,-106]","[0,-150]",up,1,,,,,,001,2025-03-10_18h19.02.729,SL_base_41,2021.2.3,Win32,125,1.109,,,117,0,117,0,1,,,,,,,,
,,"[""diamond"",""no_dis"",""hori"",""left"",[99999,99999],[0,-150]]",diamond,no_dis,hori,left,"[99999,99999]","[0,-150]",left,1,,,,,,001,2025-03-10_18h19.02.729,SL_base_41,2021.2.3,Win32,125,0.921,,,118,0,118,0,1,,,,,,,,
,,"[""diamond"",""red"",""vert"",""up"",[-106,-106],[-150,0]]",diamond,red,vert,up,"[-106,-106]","[-150,0]",up,1,,,,,,001,2025-03-10_18h19.02.729,SL_base_41,2021.2.3,Win32,125,0.7609,,,119,0,119,0,1,,,,,,,,
,,"[""circle"",""green"",""vert"",""up"",[-106,106],[0,-150]]",circle,green,vert,up,"[-106,106]","[0,-150]",up,1,,,,,,001,2025-03-10_18h19.02.729,SL_base_41,2021.2.3,Win32,125,1.0718,,,120,0,120,0,1,,,,,,,,
,,"[""diamond"",""no_dis"",""hori"",""left"",[99999,99999],[106,-106]]",diamond,no_dis,hori,left,"[99999,99999]","[106,-106]",left,1,,,,,,001,2025-03-10_18h19.02.729,SL_base_41,2021.2.3,Win32,125,0.6889,,,121,0,121,0,1,,,,,,,,
,,"[""diamond"",""green"",""hori"",""left"",[106,-106],[-106,-106]]",diamond,green,hori,left,"[106,-106]","[-106,-106]",left,1,,,,,,001,2025-03-10_18h19.02.729,SL_base_41,2021.2.3,Win32,125,1.0369,,,122,0,122,0,1,,,,,,,,
,,"[""diamond"",""red"",""vert"",""up"",[0,-150],[106,106]]",diamond,red,vert,up,"[0,-150]","[106,106]",up,1,,,,,,001,2025-03-10_18h19.02.729,SL_base_41,2021.2.3,Win32,125,0.7913,,,123,0,123,0,1,,,,,,,,
,,"[""diamond"",""green"",""hori"",""left"",[106,106],[150,0]]",diamond,green,hori,left,"[106,106]","[150,0]",left,1,,,,,,001,2025-03-10_18h19.02.729,SL_base_41,2021.2.3,Win32,125,0.6016,,,124,0,124,0,1,,,,,,,,
,,"[""circle"",""red"",""hori"",""left"",[0,-150],[106,-106]]",circle,red,hori,left,"[0,-150]","[106,-106]",up,0,,,,,,001,2025-03-10_18h19.02.729,SL_base_41,2021.2.3,Win32,125,2.0543,,,125,0,125,0,1,,,,,,,,
,,"[""circle"",""no_dis"",""hori"",""left"",[99999,99999],[-106,-106]]",circle,no_dis,hori,left,"[99999,99999]","[-106,-106]",left,1,,,,,,001,2025-03-10_18h19.02.729,SL_base_41,2021.2.3,Win32,125,0.8525,,,126,0,126,0,1,,,,,,,,
,,"[""circle"",""green"",""vert"",""up"",[0,-150],[-106,106]]",circle,green,vert,up,"[0,-150]","[-106,106]",up,1,,,,,,001,2025-03-10_18h19.02.729,SL_base_41,2021.2.3,Win32,125,0.7675,,,127,0,127,0,1,,,,,,,,
,,,,,,,,,,,,,,,,001,2025-03-10_18h19.02.729,SL_base_41,2021.2.3,Win32,125,,,,,,,,,2,space,1.3192,1,0,1,0,1
,,"[""circle"",""no_dis"",""hori"",""left"",[99999,99999],[150,0]]",circle,no_dis,hori,left,"[99999,99999]","[150,0]",left,1,,,,,,001,2025-03-10_18h19.02.729,SL_base_41,2021.2.3,Win32,125,0.7013,,,0,0,0,0,1,,,,,,,,
,,"[""diamond"",""green"",""hori"",""left"",[0,-150],[-106,-106]]",diamond,green,hori,left,"[0,-150]","[-106,-106]",left,1,,,,,,001,2025-03-10_18h19.02.729,SL_base_41,2021.2.3,Win32,125,0.802,,,1,0,1,0,1,,,,,,,,
,,"[""circle"",""no_dis"",""hori"",""left"",[99999,99999],[106,106]]",circle,no_dis,hori,left,"[99999,99999]","[106,106]",left,1,,,,,,001,2025-03-10_18h19.02.729,SL_base_41,2021.2.3,Win32,125,0.9442,,,2,0,2,0,1,,,,,,,,
,,"[""circle"",""green"",""hori"",""left"",[106,106],[0,-150]]",circle,green,hori,left,"[106,106]","[0,-150]",left,1,,,,,,001,2025-03-10_18h19.02.729,SL_base_41,2021.2.3,Win32,125,0.7098,,,3,0,3,0,1,,,,,,,,
,,"[""circle"",""red"",""hori"",""left"",[0,-150],[-150,0]]",circle,red,hori,left,"[0,-150]","[-150,0]",left,1,,,,,,001,2025-03-10_18h19.02.729,SL_base_41,2021.2.3,Win32,125,0.6,,,4,0,4,0,1,,,,,,,,
,,"[""circle"",""no_dis"",""hori"",""left"",[99999,99999],[106,106]]",circle,no_dis,hori,left,"[99999,99999]","[106,106]",left,1,,,,,,001,2025-03-10_18h19.02.729,SL_base_41,2021.2.3,Win32,125,0.5788,,,5,0,5,0,1,,,,,,,,
,,"[""circle"",""red"",""vert"",""up"",[-106,106],[-106,-106]]",circle,red,vert,up,"[-106,106]","[-106,-106]",up,1,,,,,,001,2025-03-10_18h19.02.729,SL_base_41,2021.2.3,Win32,125,0.7336,,,6,0,6,0,1,,,,,,,,
,,"[""diamond"",""no_dis"",""hori"",""left"",[99999,99999],[150,0]]",diamond,no_dis,hori,left,"[99999,99999]","[150,0]",left,1,,,,,,001,2025-03-10_18h19.02.729,SL_base_41,2021.2.3,Win32,125,0.9054,,,7,0,7,0,1,,,,,,,,
,,"[""circle"",""no_dis"",""hori"",""left"",[99999,99999],[0,150]]",circle,no_dis,hori,left,"[99999,99999]","[0,150]",left,1,,,,,,001,2025-03-10_18h19.02.729,SL_base_41,2021.2.3,Win32,125,0.5532,,,8,0,8,0,1,,,,,,,,
,,"[""circle"",""no_dis"",""hori"",""left"",[99999,99999],[-150,0]]",circle,no_dis,hori,left,"[99999,99999]","[-150,0]",left,1,,,,,,001,2025-03-10_18h19.02.729,SL_base_41,2021.2.3,Win32,125,0.6361,,,9,0,9,0,1,,,,,,,,
,,"[""diamond"",""green"",""hori"",""left"",[106,106],[150,0]]",diamond,green,hori,left,"[106,106]","[150,0]",left,1,,,,,,001,2025-03-10_18h19.02.729,SL_base_41,2021.2.3,Win32,125,0.9948,,,10,0,10,0,1,,,,,,,,
,,"[""circle"",""red"",""vert"",""up"",[0,-150],[106,106]]",circle,red,vert,up,"[0,-150]","[106,106]",up,1,,,,,,001,2025-03-10_18h19.02.729,SL_base_41,2021.2.3,Win32,125,0.9668,,,11,0,11,0,1,,,,,,,,
,,"[""diamond"",""red"",""vert"",""up"",[0,150],[-106,106]]",diamond,red,vert,up,"[0,150]","[-106,106]",up,1,,,,,,001,2025-03-10_18h19.02.729,SL_base_41,2021.2.3,Win32,125,0.9083,,,12,0,12,0,1,,,,,,,,
,,"[""circle"",""green"",""vert"",""up"",[0,-150],[-150,0]]",circle,green,vert,up,"[0,-150]","[-150,0]",up,1,,,,,,001,2025-03-10_18h19.02.729,SL_base_41,2021.2.3,Win32,125,1.3422,,,13,0,13,0,1,,,,,,,,
,,"[""diamond"",""no_dis"",""hori"",""left"",[99999,99999],[0,-150]]",diamond,no_dis,hori,left,"[99999,99999]","[0,-150]",left,1,,,,,,001,2025-03-10_18h19.02.729,SL_base_41,2021.2.3,Win32,125,1.1275,,,14,0,14,0,1,,,,,,,,
,,"[""diamond"",""red"",""vert"",""up"",[0,-150],[106,-106]]",diamond,red,vert,up,"[0,-150]","[106,-106]",up,1,,,,,,001,2025-03-10_18h19.02.729,SL_base_41,2021.2.3,Win32,125,0.8602,,,15,0,15,0,1,,,,,,,,
,,"[""circle"",""no_dis"",""hori"",""left"",[99999,99999],[-106,-106]]",circle,no_dis,hori,left,"[99999,99999]","[-106,-106]",left,1,,,,,,001,2025-03-10_18h19.02.729,SL_base_41,2021.2.3,Win32,125,0.7962,,,16,0,16,0,1,,,,,,,,
,,"[""diamond"",""red"",""vert"",""up"",[-106,-106],[-150,0]]",diamond,red,vert,up,"[-106,-106]","[-150,0]",up,1,,,,,,001,2025-03-10_18h19.02.729,SL_base_41,2021.2.3,Win32,125,0.7159,,,17,0,17,0,1,,,,,,,,
,,"[""circle"",""no_dis"",""vert"",""up"",[99999,99999],[0,-150]]",circle,no_dis,vert,up,"[99999,99999]","[0,-150]",up,1,,,,,,001,2025-03-10_18h19.02.729,SL_base_41,2021.2.3,Win32,125,0.9093,,,18,0,18,0,1,,,,,,,,
,,"[""diamond"",""no_dis"",""vert"",""up"",[99999,99999],[0,150]]",diamond,no_dis,vert,up,"[99999,99999]","[0,150]",up,1,,,,,,001,2025-03-10_18h19.02.729,SL_base_41,2021.2.3,Win32,125,0.7086,,,19,0,19,0,1,,,,,,,,
,,"[""circle"",""green"",""hori"",""left"",[0,-150],[-106,106]]",circle,green,hori,left,"[0,-150]","[-106,106]",left,1,,,,,,001,2025-03-10_18h19.02.729,SL_base_41,2021.2.3,Win32,125,1.2606,,,20,0,20,0,1,,,,,,,,
,,"[""diamond"",""green"",""vert"",""up"",[0,-150],[150,0]]",diamond,green,vert,up,"[0,-150]","[150,0]",up,1,,,,,,001,2025-03-10_18h19.02.729,SL_base_41,2021.2.3,Win32,125,1.1841,,,21,0,21,0,1,,,,,,,,
,,"[""diamond"",""red"",""hori"",""left"",[150,0],[0,150]]",diamond,red,hori,left,"[150,0]","[0,150]",left,1,,,,,,001,2025-03-10_18h19.02.729,SL_base_41,2021.2.3,Win32,125,1.4602,,,22,0,22,0,1,,,,,,,,
,,"[""circle"",""green"",""hori"",""left"",[0,-150],[-106,-106]]",circle,green,hori,left,"[0,-150]","[-106,-106]",left,1,,,,,,001,2025-03-10_18h19.02.729,SL_base_41,2021.2.3,Win32,125,0.9717,,,23,0,23,0,1,,,,,,,,
,,"[""diamond"",""red"",""hori"",""left"",[0,-150],[0,150]]",diamond,red,hori,left,"[0,-150]","[0,150]",left,1,,,,,,001,2025-03-10_18h19.02.729,SL_base_41,2021.2.3,Win32,125,0.7826,,,24,0,24,0,1,,,,,,,,
,,"[""diamond"",""no_dis"",""hori"",""left"",[99999,99999],[-106,106]]",diamond,no_dis,hori,left,"[99999,99999]","[-106,106]",left,1,,,,,,001,2025-03-10_18h19.02.729,SL_base_41,2021.2.3,Win32,125,0.6602,,,25,0,25,0,1,,,,,,,,
,,"[""circle"",""red"",""hori"",""left"",[0,-150],[0,150]]",circle,red,hori,left,"[0,-150]","[0,150]",left,1,,,,,,001,2025-03-10_18h19.02.729,SL_base_41,2021.2.3,Win32,125,0.6698,,,26,0,26,0,1,,,,,,,,
,,"[""circle"",""green"",""vert"",""up"",[0,-150],[-150,0]]",circle,green,vert,up,"[0,-150]","[-150,0]",up,1,,,,,,001,2025-03-10_18h19.02.729,SL_base_41,2021.2.3,Win32,125,0.8962,,,27,0,27,0,1,,,,,,,,
,,"[""diamond"",""red"",""hori"",""left"",[0,-150],[-106,-106]]",diamond,red,hori,left,"[0,-150]","[-106,-106]",left,1,,,,,,001,2025-03-10_18h19.02.729,SL_base_41,2021.2.3,Win32,125,1.1999,,,28,0,28,0,1,,,,,,,,
,,"[""circle"",""red"",""vert"",""up"",[106,-106],[-106,-106]]",circle,red,vert,up,"[106,-106]","[-106,-106]",up,1,,,,,,001,2025-03-10_18h19.02.729,SL_base_41,2021.2.3,Win32,125,1.3432,,,29,0,29,0,1,,,,,,,,
,,"[""circle"",""red"",""hori"",""left"",[0,150],[106,-106]]",circle,red,hori,left,"[0,150]","[106,-106]",left,1,,,,,,001,2025-03-10_18h19.02.729,SL_base_41,2021.2.3,Win32,125,0.6091,,,30,0,30,0,1,,,,,,,,
,,"[""circle"",""no_dis"",""vert"",""up"",[99999,99999],[106,-106]]",circle,no_dis,vert,up,"[99999,99999]","[106,-106]",left,0,,,,,,001,2025-03-10_18h19.02.729,SL_base_41,2021.2.3,Win32,125,0.5117,,,31,0,31,0,1,,,,,,,,
,,"[""circle"",""red"",""vert"",""up"",[-150,0],[-106,-106]]",circle,red,vert,up,"[-150,0]","[-106,-106]",up,1,,,,,,001,2025-03-10_18h19.02.729,SL_base_41,2021.2.3,Win32,125,1.0915,,,32,0,32,0,1,,,,,,,,
,,"[""diamond"",""no_dis"",""hori"",""left"",[99999,99999],[-106,106]]",diamond,no_dis,hori,left,"[99999,99999]","[-106,106]",left,1,,,,,,001,2025-03-10_18h19.02.729,SL_base_41,2021.2.3,Win32,125,0.6567,,,33,0,33,0,1,,,,,,,,
,,"[""circle"",""green"",""hori"",""left"",[-106,106],[106,-106]]",circle,green,hori,left,"[-106,106]","[106,-106]",left,1,,,,,,001,2025-03-10_18h19.02.729,SL_base_41,2021.2.3,Win32,125,0.8928,,,34,0,34,0,1,,,,,,,,
,,"[""circle"",""red"",""hori"",""left"",[-106,-106],[0,-150]]",circle,red,hori,left,"[-106,-106]","[0,-150]",left,1,,,,,,001,2025-03-10_18h19.02.729,SL_base_41,2021.2.3,Win32,125,1.1014,,,35,0,35,0,1,,,,,,,,
,,"[""diamond"",""green"",""hori"",""left"",[-150,0],[-106,-106]]",diamond,green,hori,left,"[-150,0]","[-106,-106]",up,0,,,,,,001,2025-03-10_18h19.02.729,SL_base_41,2021.2.3,Win32,125,1.6741,,,36,0,36,0,1,,,,,,,,
,,"[""circle"",""red"",""hori"",""left"",[106,-106],[-106,-106]]",circle,red,hori,left,"[106,-106]","[-106,-106]",left,1,,,,,,001,2025-03-10_18h19.02.729,SL_base_41,2021.2.3,Win32,125,0.6546,,,37,0,37,0,1,,,,,,,,
,,"[""circle"",""no_dis"",""vert"",""up"",[99999,99999],[106,-106]]",circle,no_dis,vert,up,"[99999,99999]","[106,-106]",up,1,,,,,,001,2025-03-10_18h19.02.729,SL_base_41,2021.2.3,Win32,125,0.8932,,,38,0,38,0,1,,,,,,,,
,,"[""diamond"",""red"",""hori"",""left"",[0,-150],[106,106]]",diamond,red,hori,left,"[0,-150]","[106,106]",left,1,,,,,,001,2025-03-10_18h19.02.729,SL_base_41,2021.2.3,Win32,125,1.0768,,,39,0,39,0,1,,,,,,,,
,,"[""circle"",""no_dis"",""vert"",""up"",[99999,99999],[150,0]]",circle,no_dis,vert,up,"[99999,99999]","[150,0]",up,1,,,,,,001,2025-03-10_18h19.02.729,SL_base_41,2021.2.3,Win32,125,1.2623,,,40,0,40,0,1,,,,,,,,
,,"[""circle"",""red"",""vert"",""up"",[150,0],[-150,0]]",circle,red,vert,up,"[150,0]","[-150,0]",up,1,,,,,,001,2025-03-10_18h19.02.729,SL_base_41,2021.2.3,Win32,125,0.611,,,41,0,41,0,1,,,,,,,,
,,"[""circle"",""green"",""vert"",""up"",[106,106],[106,-106]]",circle,green,vert,up,"[106,106]","[106,-106]",up,1,,,,,,001,2025-03-10_18h19.02.729,SL_base_41,2021.2.3,Win32,125,0.7258,,,42,0,42,0,1,,,,,,,,
,,"[""diamond"",""no_dis"",""vert"",""up"",[99999,99999],[106,106]]",diamond,no_dis,vert,up,"[99999,99999]","[106,106]",left,0,,,,,,001,2025-03-10_18h19.02.729,SL_base_41,2021.2.3,Win32,125,0.6987,,,43,0,43,0,1,,,,,,,,
,,"[""diamond"",""green"",""vert"",""up"",[0,-150],[-106,-106]]",diamond,green,vert,up,"[0,-150]","[-106,-106]",up,1,,,,,,001,2025-03-10_18h19.02.729,SL_base_41,2021.2.3,Win32,125,0.8185,,,44,0,44,0,1,,,,,,,,
,,"[""circle"",""no_dis"",""vert"",""up"",[99999,99999],[106,106]]",circle,no_dis,vert,up,"[99999,99999]","[106,106]",up,1,,,,,,001,2025-03-10_18h19.02.729,SL_base_41,2021.2.3,Win32,125,1.8089,,,45,0,45,0,1,,,,,,,,
,,"[""diamond"",""red"",""vert"",""up"",[150,0],[0,150]]",diamond,red,vert,up,"[150,0]","[0,150]",up,1,,,,,,001,2025-03-10_18h19.02.729,SL_base_41,2021.2.3,Win32,125,0.6096,,,46,0,46,0,1,,,,,,,,
,,"[""circle"",""no_dis"",""hori"",""left"",[99999,99999],[-106,-106]]",circle,no_dis,hori,left,"[99999,99999]","[-106,-106]",left,1,,,,,,001,2025-03-10_18h19.02.729,SL_base_41,2021.2.3,Win32,125,0.7447,,,47,0,47,0,1,,,,,,,,
,,"[""circle"",""green"",""vert"",""up"",[0,-150],[150,0]]",circle,green,vert,up,"[0,-150]","[150,0]",up,1,,,,,,001,2025-03-10_18h19.02.729,SL_base_41,2021.2.3,Win32,125,0.6952,,,48,0,48,0,1,,,,,,,,
,,"[""diamond"",""green"",""hori"",""left"",[106,106],[-106,106]]",diamond,green,hori,left,"[106,106]","[-106,106]",left,1,,,,,,001,2025-03-10_18h19.02.729,SL_base_41,2021.2.3,Win32,125,0.794,,,49,0,49,0,1,,,,,,,,
,,"[""diamond"",""no_dis"",""hori"",""left"",[99999,99999],[106,-106]]",diamond,no_dis,hori,left,"[99999,99999]","[106,-106]",left,1,,,,,,001,2025-03-10_18h19.02.729,SL_base_41,2021.2.3,Win32,125,0.7918,,,50,0,50,0,1,,,,,,,,
,,"[""diamond"",""green"",""vert"",""up"",[106,106],[0,-150]]",diamond,green,vert,up,"[106,106]","[0,-150]",up,1,,,,,,001,2025-03-10_18h19.02.729,SL_base_41,2021.2.3,Win32,125,0.6784,,,51,0,51,0,1,,,,,,,,
,,"[""diamond"",""green"",""hori"",""left"",[0,-150],[-106,106]]",diamond,green,hori,left,"[0,-150]","[-106,106]",left,1,,,,,,001,2025-03-10_18h19.02.729,SL_base_41,2021.2.3,Win32,125,0.6579,,,52,0,52,0,1,,,,,,,,
,,"[""diamond"",""green"",""hori"",""left"",[-150,0],[-106,106]]",diamond,green,hori,left,"[-150,0]","[-106,106]",left,1,,,,,,001,2025-03-10_18h19.02.729,SL_base_41,2021.2.3,Win32,125,1.4591,,,53,0,53,0,1,,,,,,,,
,,"[""circle"",""green"",""hori"",""left"",[0,-150],[-106,-106]]",circle,green,hori,left,"[0,-150]","[-106,-106]",left,1,,,,,,001,2025-03-10_18h19.02.729,SL_base_41,2021.2.3,Win32,125,1.0543,,,54,0,54,0,1,,,,,,,,
,,"[""diamond"",""green"",""hori"",""left"",[0,-150],[0,150]]",diamond,green,hori,left,"[0,-150]","[0,150]",left,1,,,,,,001,2025-03-10_18h19.02.729,SL_base_41,2021.2.3,Win32,125,0.7506,,,55,0,55,0,1,,,,,,,,
,,"[""diamond"",""red"",""hori"",""left"",[106,-106],[150,0]]",diamond,red,hori,left,"[106,-106]","[150,0]",left,1,,,,,,001,2025-03-10_18h19.02.729,SL_base_41,2021.2.3,Win32,125,0.8516,,,56,0,56,0,1,,,,,,,,
,,"[""diamond"",""green"",""vert"",""up"",[-150,0],[0,-150]]",diamond,green,vert,up,"[-150,0]","[0,-150]",up,1,,,,,,001,2025-03-10_18h19.02.729,SL_base_41,2021.2.3,Win32,125,0.8697,,,57,0,57,0,1,,,,,,,,
,,"[""diamond"",""no_dis"",""vert"",""up"",[99999,99999],[-150,0]]",diamond,no_dis,vert,up,"[99999,99999]","[-150,0]",up,1,,,,,,001,2025-03-10_18h19.02.729,SL_base_41,2021.2.3,Win32,125,0.5444,,,58,0,58,0,1,,,,,,,,
,,"[""diamond"",""red"",""hori"",""left"",[150,0],[0,150]]",diamond,red,hori,left,"[150,0]","[0,150]",left,1,,,,,,001,2025-03-10_18h19.02.729,SL_base_41,2021.2.3,Win32,125,0.5796,,,59,0,59,0,1,,,,,,,,
,,"[""diamond"",""no_dis"",""hori"",""left"",[99999,99999],[-150,0]]",diamond,no_dis,hori,left,"[99999,99999]","[-150,0]",left,1,,,,,,001,2025-03-10_18h19.02.729,SL_base_41,2021.2.3,Win32,125,0.675,,,60,0,60,0,1,,,,,,,,
,,"[""circle"",""green"",""hori"",""left"",[150,0],[-106,106]]",circle,green,hori,left,"[150,0]","[-106,106]",left,1,,,,,,001,2025-03-10_18h19.02.729,SL_base_41,2021.2.3,Win32,125,1.4379,,,61,0,61,0,1,,,,,,,,
,,"[""diamond"",""no_dis"",""vert"",""up"",[99999,99999],[0,-150]]",diamond,no_dis,vert,up,"[99999,99999]","[0,-150]",up,1,,,,,,001,2025-03-10_18h19.02.729,SL_base_41,2021.2.3,Win32,125,0.7836,,,62,0,62,0,1,,,,,,,,
,,"[""diamond"",""no_dis"",""vert"",""up"",[99999,99999],[0,150]]",diamond,no_dis,vert,up,"[99999,99999]","[0,150]",up,1,,,,,,001,2025-03-10_18h19.02.729,SL_base_41,2021.2.3,Win32,125,0.5228,,,63,0,63,0,1,,,,,,,,
,,"[""circle"",""green"",""vert"",""up"",[-106,106],[-106,-106]]",circle,green,vert,up,"[-106,106]","[-106,-106]",up,1,,,,,,001,2025-03-10_18h19.02.729,SL_base_41,2021.2.3,Win32,125,1.5937,,,64,0,64,0,1,,,,,,,,
,,"[""diamond"",""red"",""vert"",""up"",[0,-150],[150,0]]",diamond,red,vert,up,"[0,-150]","[150,0]",up,1,,,,,,001,2025-03-10_18h19.02.729,SL_base_41,2021.2.3,Win32,125,1.1769,,,65,0,65,0,1,,,,,,,,
,,"[""circle"",""red"",""vert"",""up"",[-150,0],[-106,106]]",circle,red,vert,up,"[-150,0]","[-106,106]",up,1,,,,,,001,2025-03-10_18h19.02.729,SL_base_41,2021.2.3,Win32,125,0.6858,,,66,0,66,0,1,,,,,,,,
,,"[""diamond"",""red"",""vert"",""up"",[150,0],[106,106]]",diamond,red,vert,up,"[150,0]","[106,106]",up,1,,,,,,001,2025-03-10_18h19.02.729,SL_base_41,2021.2.3,Win32,125,1.1929,,,67,0,67,0,1,,,,,,,,
,,"[""circle"",""no_dis"",""vert"",""up"",[99999,99999],[-106,106]]",circle,no_dis,vert,up,"[99999,99999]","[-106,106]",up,1,,,,,,001,2025-03-10_18h19.02.729,SL_base_41,2021.2.3,Win32,125,2.0339,,,68,0,68,0,1,,,,,,,,
,,"[""circle"",""red"",""hori"",""left"",[150,0],[-106,-106]]",circle,red,hori,left,"[150,0]","[-106,-106]",left,1,,,,,,001,2025-03-10_18h19.02.729,SL_base_41,2021.2.3,Win32,125,1.3962,,,69,0,69,0,1,,,,,,,,
,,"[""diamond"",""green"",""vert"",""up"",[-106,106],[106,106]]",diamond,green,vert,up,"[-106,106]","[106,106]",up,1,,,,,,001,2025-03-10_18h19.02.729,SL_base_41,2021.2.3,Win32,125,1.0249,,,70,0,70,0,1,,,,,,,,
,,"[""circle"",""no_dis"",""vert"",""up"",[99999,99999],[150,0]]",circle,no_dis,vert,up,"[99999,99999]","[150,0]",up,1,,,,,,001,2025-03-10_18h19.02.729,SL_base_41,2021.2.3,Win32,125,1.4033,,,71,0,71,0,1,,,,,,,,
,,"[""circle"",""red"",""hori"",""left"",[106,-106],[150,0]]",circle,red,hori,left,"[106,-106]","[150,0]",left,1,,,,,,001,2025-03-10_18h19.02.729,SL_base_41,2021.2.3,Win32,125,0.7431,,,72,0,72,0,1,,,,,,,,
,,"[""diamond"",""green"",""vert"",""up"",[0,-150],[106,-106]]",diamond,green,vert,up,"[0,-150]","[106,-106]",up,1,,,,,,001,2025-03-10_18h19.02.729,SL_base_41,2021.2.3,Win32,125,0.8074,,,73,0,73,0,1,,,,,,,,
,,"[""circle"",""green"",""vert"",""up"",[0,-150],[-106,106]]",circle,green,vert,up,"[0,-150]","[-106,106]",up,1,,,,,,001,2025-03-10_18h19.02.729,SL_base_41,2021.2.3,Win32,125,0.8847,,,74,0,74,0,1,,,,,,,,
,,"[""circle"",""red"",""vert"",""up"",[106,-106],[106,106]]",circle,red,vert,up,"[106,-106]","[106,106]",up,1,,,,,,001,2025-03-10_18h19.02.729,SL_base_41,2021.2.3,Win32,125,0.7691,,,75,0,75,0,1,,,,,,,,
,,"[""diamond"",""green"",""hori"",""left"",[-150,0],[-106,-106]]",diamond,green,hori,left,"[-150,0]","[-106,-106]",left,1,,,,,,001,2025-03-10_18h19.02.729,SL_base_41,2021.2.3,Win32,125,1.3848,,,76,0,76,0,1,,,,,,,,
,,"[""diamond"",""red"",""hori"",""left"",[-106,-106],[-106,106]]",diamond,red,hori,left,"[-106,-106]","[-106,106]",left,1,,,,,,001,2025-03-10_18h19.02.729,SL_base_41,2021.2.3,Win32,125,0.6999,,,77,0,77,0,1,,,,,,,,
,,"[""circle"",""green"",""vert"",""up"",[0,-150],[106,-106]]",circle,green,vert,up,"[0,-150]","[106,-106]",left,0,,,,,,001,2025-03-10_18h19.02.729,SL_base_41,2021.2.3,Win32,125,1.0197,,,78,0,78,0,1,,,,,,,,
,,"[""circle"",""red"",""hori"",""left"",[0,-150],[106,-106]]",circle,red,hori,left,"[0,-150]","[106,-106]",left,1,,,,,,001,2025-03-10_18h19.02.729,SL_base_41,2021.2.3,Win32,125,0.8871,,,79,0,79,0,1,,,,,,,,
,,"[""diamond"",""no_dis"",""vert"",""up"",[99999,99999],[106,106]]",diamond,no_dis,vert,up,"[99999,99999]","[106,106]",up,1,,,,,,001,2025-03-10_18h19.02.729,SL_base_41,2021.2.3,Win32,125,0.7635,,,80,0,80,0,1,,,,,,,,
,,"[""diamond"",""red"",""hori"",""left"",[0,-150],[-106,106]]",diamond,red,hori,left,"[0,-150]","[-106,106]",left,1,,,,,,001,2025-03-10_18h19.02.729,SL_base_41,2021.2.3,Win32,125,0.6113,,,81,0,81,0,1,,,,,,,,
,,"[""circle"",""red"",""vert"",""up"",[106,106],[-150,0]]",circle,red,vert,up,"[106,106]","[-150,0]",up,1,,,,,,001,2025-03-10_18h19.02.729,SL_base_41,2021.2.3,Win32,125,0.7807,,,82,0,82,0,1,,,,,,,,
,,"[""circle"",""green"",""vert"",""up"",[-106,106],[0,150]]",circle,green,vert,up,"[-106,106]","[0,150]",up,1,,,,,,001,2025-03-10_18h19.02.729,SL_base_41,2021.2.3,Win32,125,0.727,,,83,0,83,0,1,,,,,,,,
,,"[""circle"",""no_dis"",""hori"",""left"",[99999,99999],[-106,106]]",circle,no_dis,hori,left,"[99999,99999]","[-106,106]",left,1,,,,,,001,2025-03-10_18h19.02.729,SL_base_41,2021.2.3,Win32,125,0.5617,,,84,0,84,0,1,,,,,,,,
,,"[""circle"",""no_dis"",""vert"",""up"",[99999,99999],[-106,-106]]",circle,no_dis,vert,up,"[99999,99999]","[-106,-106]",up,1,,,,,,001,2025-03-10_18h19.02.729,SL_base_41,2021.2.3,Win32,125,0.9694,,,85,0,85,0,1,,,,,,,,
,,"[""circle"",""no_dis"",""vert"",""up"",[99999,99999],[-150,0]]",circle,no_dis,vert,up,"[99999,99999]","[-150,0]",up,1,,,,,,001,2025-03-10_18h19.02.729,SL_base_41,2021.2.3,Win32,125,0.6487,,,86,0,86,0,1,,,,,,,,
,,"[""diamond"",""red"",""vert"",""up"",[0,150],[-106,106]]",diamond,red,vert,up,"[0,150]","[-106,106]",left,0,,,,,,001,2025-03-10_18h19.02.729,SL_base_41,2021.2.3,Win32,125,0.5046,,,87,0,87,0,1,,,,,,,,
,,"[""diamond"",""no_dis"",""vert"",""up"",[99999,99999],[106,-106]]",diamond,no_dis,vert,up,"[99999,99999]","[106,-106]",up,1,,,,,,001,2025-03-10_18h19.02.729,SL_base_41,2021.2.3,Win32,125,1.3268,,,88,0,88,0,1,,,,,,,,
,,"[""diamond"",""no_dis"",""vert"",""up"",[99999,99999],[-106,-106]]",diamond,no_dis,vert,up,"[99999,99999]","[-106,-106]",up,1,,,,,,001,2025-03-10_18h19.02.729,SL_base_41,2021.2.3,Win32,125,0.6995,,,89,0,89,0,1,,,,,,,,
,,"[""circle"",""red"",""hori"",""left"",[-106,-106],[-106,106]]",circle,red,hori,left,"[-106,-106]","[-106,106]",left,1,,,,,,001,2025-03-10_18h19.02.729,SL_base_41,2021.2.3,Win32,125,1.0447,,,90,0,90,0,1,,,,,,,,
,,"[""diamond"",""green"",""hori"",""left"",[150,0],[106,-106]]",diamond,green,hori,left,"[150,0]","[106,-106]",up,0,,,,,,001,2025-03-10_18h19.02.729,SL_base_41,2021.2.3,Win32,125,0.9752,,,91,0,91,0,1,,,,,,,,
,,"[""circle"",""green"",""hori"",""left"",[-106,106],[106,-106]]",circle,green,hori,left,"[-106,106]","[106,-106]",left,1,,,,,,001,2025-03-10_18h19.02.729,SL_base_41,2021.2.3,Win32,125,0.7269,,,92,0,92,0,1,,,,,,,,
,,"[""circle"",""red"",""hori"",""left"",[0,-150],[0,150]]",circle,red,hori,left,"[0,-150]","[0,150]",left,1,,,,,,001,2025-03-10_18h19.02.729,SL_base_41,2021.2.3,Win32,125,0.6774,,,93,0,93,0,1,,,,,,,,
,,"[""circle"",""red"",""hori"",""left"",[-106,106],[-106,-106]]",circle,red,hori,left,"[-106,106]","[-106,-106]",left,1,,,,,,001,2025-03-10_18h19.02.729,SL_base_41,2021.2.3,Win32,125,0.7694,,,94,0,94,0,1,,,,,,,,
,,"[""diamond"",""no_dis"",""hori"",""left"",[99999,99999],[0,150]]",diamond,no_dis,hori,left,"[99999,99999]","[0,150]",left,1,,,,,,001,2025-03-10_18h19.02.729,SL_base_41,2021.2.3,Win32,125,1.0421,,,95,0,95,0,1,,,,,,,,
,,"[""circle"",""no_dis"",""hori"",""left"",[99999,99999],[106,-106]]",circle,no_dis,hori,left,"[99999,99999]","[106,-106]",left,1,,,,,,001,2025-03-10_18h19.02.729,SL_base_41,2021.2.3,Win32,125,0.811,,,96,0,96,0,1,,,,,,,,
,,"[""diamond"",""red"",""vert"",""up"",[106,-106],[106,106]]",diamond,red,vert,up,"[106,-106]","[106,106]",up,1,,,,,,001,2025-03-10_18h19.02.729,SL_base_41,2021.2.3,Win32,125,1.5529,,,97,0,97,0,1,,,,,,,,
,,"[""diamond"",""no_dis"",""hori"",""left"",[99999,99999],[0,-150]]",diamond,no_dis,hori,left,"[99999,99999]","[0,-150]",left,1,,,,,,001,2025-03-10_18h19.02.729,SL_base_41,2021.2.3,Win32,125,1.2098,,,98,0,98,0,1,,,,,,,,
,,"[""circle"",""green"",""hori"",""left"",[0,-150],[106,-106]]",circle,green,hori,left,"[0,-150]","[106,-106]",left,1,,,,,,001,2025-03-10_18h19.02.729,SL_base_41,2021.2.3,Win32,125,1.0527,,,99,0,99,0,1,,,,,,,,
,,"[""circle"",""no_dis"",""hori"",""left"",[99999,99999],[0,-150]]",circle,no_dis,hori,left,"[99999,99999]","[0,-150]",left,1,,,,,,001,2025-03-10_18h19.02.729,SL_base_41,2021.2.3,Win32,125,0.7434,,,100,0,100,0,1,,,,,,,,
,,"[""diamond"",""no_dis"",""hori"",""left"",[99999,99999],[0,150]]",diamond,no_dis,hori,left,"[99999,99999]","[0,150]",left,1,,,,,,001,2025-03-10_18h19.02.729,SL_base_41,2021.2.3,Win32,125,1.2264,,,101,0,101,0,1,,,,,,,,
,,"[""diamond"",""green"",""vert"",""up"",[0,150],[-150,0]]",diamond,green,vert,up,"[0,150]","[-150,0]",up,1,,,,,,001,2025-03-10_18h19.02.729,SL_base_41,2021.2.3,Win32,125,0.9078,,,102,0,102,0,1,,,,,,,,
,,"[""circle"",""green"",""hori"",""left"",[-106,-106],[106,106]]",circle,green,hori,left,"[-106,-106]","[106,106]",left,1,,,,,,001,2025-03-10_18h19.02.729,SL_base_41,2021.2.3,Win32,125,0.8588,,,103,0,103,0,1,,,,,,,,
,,"[""diamond"",""red"",""vert"",""up"",[0,-150],[106,106]]",diamond,red,vert,up,"[0,-150]","[106,106]",up,1,,,,,,001,2025-03-10_18h19.02.729,SL_base_41,2021.2.3,Win32,125,0.8932,,,104,0,104,0,1,,,,,,,,
,,"[""circle"",""red"",""vert"",""up"",[0,-150],[-106,-106]]",circle,red,vert,up,"[0,-150]","[-106,-106]",left,0,,,,,,001,2025-03-10_18h19.02.729,SL_base_41,2021.2.3,Win32,125,1.803,,,105,0,105,0,1,,,,,,,,
,,"[""diamond"",""green"",""vert"",""up"",[0,150],[106,-106]]",diamond,green,vert,up,"[0,150]","[106,-106]",up,1,,,,,,001,2025-03-10_18h19.02.729,SL_base_41,2021.2.3,Win32,125,0.9497,,,106,0,106,0,1,,,,,,,,
,,"[""circle"",""green"",""vert"",""up"",[-106,106],[0,-150]]",circle,green,vert,up,"[-106,106]","[0,-150]",up,1,,,,,,001,2025-03-10_18h19.02.729,SL_base_41,2021.2.3,Win32,125,0.686,,,107,0,107,0,1,,,,,,,,
,,"[""diamond"",""red"",""vert"",""up"",[106,-106],[0,-150]]",diamond,red,vert,up,"[106,-106]","[0,-150]",left,0,,,,,,001,2025-03-10_18h19.02.729,SL_base_41,2021.2.3,Win32,125,0.6007,,,108,0,108,0,1,,,,,,,,
,,"[""circle"",""green"",""vert"",""up"",[-106,-106],[0,150]]",circle,green,vert,up,"[-106,-106]","[0,150]",up,1,,,,,,001,2025-03-10_18h19.02.729,SL_base_41,2021.2.3,Win32,125,0.9769,,,109,0,109,0,1,,,,,,,,
,,"[""diamond"",""green"",""vert"",""up"",[0,-150],[150,0]]",diamond,green,vert,up,"[0,-150]","[150,0]",up,1,,,,,,001,2025-03-10_18h19.02.729,SL_base_41,2021.2.3,Win32,125,0.9844,,,110,0,110,0,1,,,,,,,,
,,"[""circle"",""green"",""vert"",""up"",[106,106],[150,0]]",circle,green,vert,up,"[106,106]","[150,0]",up,1,,,,,,001,2025-03-10_18h19.02.729,SL_base_41,2021.2.3,Win32,125,1.761,,,111,0,111,0,1,,,,,,,,
,,"[""diamond"",""green"",""vert"",""up"",[106,106],[0,150]]",diamond,green,vert,up,"[106,106]","[0,150]",up,1,,,,,,001,2025-03-10_18h19.02.729,SL_base_41,2021.2.3,Win32,125,1.6011,,,112,0,112,0,1,,,,,,,,
,,"[""diamond"",""red"",""hori"",""left"",[0,150],[-106,106]]",diamond,red,hori,left,"[0,150]","[-106,106]",left,1,,,,,,001,2025-03-10_18h19.02.729,SL_base_41,2021.2.3,Win32,125,0.87,,,113,0,113,0,1,,,,,,,,
,,"[""diamond"",""no_dis"",""vert"",""up"",[99999,99999],[-150,0]]",diamond,no_dis,vert,up,"[99999,99999]","[-150,0]",up,1,,,,,,001,2025-03-10_18h19.02.729,SL_base_41,2021.2.3,Win32,125,1.0914,,,114,0,114,0,1,,,,,,,,
,,"[""diamond"",""green"",""vert"",""up"",[0,150],[0,-150]]",diamond,green,vert,up,"[0,150]","[0,-150]",up,1,,,,,,001,2025-03-10_18h19.02.729,SL_base_41,2021.2.3,Win32,125,1.1913,,,115,0,115,0,1,,,,,,,,
,,"[""diamond"",""green"",""hori"",""left"",[0,-150],[106,106]]",diamond,green,hori,left,"[0,-150]","[106,106]",left,1,,,,,,001,2025-03-10_18h19.02.729,SL_base_41,2021.2.3,Win32,125,1.3669,,,116,0,116,0,1,,,,,,,,
,,"[""circle"",""red"",""vert"",""up"",[0,150],[106,-106]]",circle,red,vert,up,"[0,150]","[106,-106]",up,1,,,,,,001,2025-03-10_18h19.02.729,SL_base_41,2021.2.3,Win32,125,0.8762,,,117,0,117,0,1,,,,,,,,
,,"[""circle"",""green"",""hori"",""left"",[-150,0],[106,106]]",circle,green,hori,left,"[-150,0]","[106,106]",left,1,,,,,,001,2025-03-10_18h19.02.729,SL_base_41,2021.2.3,Win32,125,0.6458,,,118,0,118,0,1,,,,,,,,
,,"[""circle"",""red"",""vert"",""up"",[-106,-106],[150,0]]",circle,red,vert,up,"[-106,-106]","[150,0]",up,1,,,,,,001,2025-03-10_18h19.02.729,SL_base_41,2021.2.3,Win32,125,0.718,,,119,0,119,0,1,,,,,,,,
,,"[""diamond"",""red"",""hori"",""left"",[-106,-106],[150,0]]",diamond,red,hori,left,"[-106,-106]","[150,0]",left,1,,,,,,001,2025-03-10_18h19.02.729,SL_base_41,2021.2.3,Win32,125,0.6956,,,120,0,120,0,1,,,,,,,,
,,"[""circle"",""no_dis"",""vert"",""up"",[99999,99999],[-106,106]]",circle,no_dis,vert,up,"[99999,99999]","[-106,106]",up,1,,,,,,001,2025-03-10_18h19.02.729,SL_base_41,2021.2.3,Win32,125,0.6794,,,121,0,121,0,1,,,,,,,,
,,"[""circle"",""green"",""hori"",""left"",[0,-150],[0,150]]",circle,green,hori,left,"[0,-150]","[0,150]",left,1,,,,,,001,2025-03-10_18h19.02.729,SL_base_41,2021.2.3,Win32,125,1.1059,,,122,0,122,0,1,,,,,,,,
,,"[""diamond"",""green"",""hori"",""left"",[106,-106],[-106,-106]]",diamond,green,hori,left,"[106,-106]","[-106,-106]",up,0,,,,,,001,2025-03-10_18h19.02.729,SL_base_41,2021.2.3,Win32,125,0.9485,,,123,0,123,0,1,,,,,,,,
,,"[""diamond"",""red"",""vert"",""up"",[0,-150],[-150,0]]",diamond,red,vert,up,"[0,-150]","[-150,0]",up,1,,,,,,001,2025-03-10_18h19.02.729,SL_base_41,2021.2.3,Win32,125,0.6929,,,124,0,124,0,1,,,,,,,,
,,"[""diamond"",""red"",""hori"",""left"",[-150,0],[0,150]]",diamond,red,hori,left,"[-150,0]","[0,150]",left,1,,,,,,001,2025-03-10_18h19.02.729,SL_base_41,2021.2.3,Win32,125,0.7627,,,125,0,125,0,1,,,,,,,,
,,"[""diamond"",""no_dis"",""vert"",""up"",[99999,99999],[-106,-106]]",diamond,no_dis,vert,up,"[99999,99999]","[-106,-106]",up,1,,,,,,001,2025-03-10_18h19.02.729,SL_base_41,2021.2.3,Win32,125,0.6935,,,126,0,126,0,1,,,,,,,,
,,"[""diamond"",""no_dis"",""hori"",""left"",[99999,99999],[150,0]]",diamond,no_dis,hori,left,"[99999,99999]","[150,0]",left,1,,,,,,001,2025-03-10_18h19.02.729,SL_base_41,2021.2.3,Win32,125,0.6762,,,127,0,127,0,1,,,,,,,,
,,,,,,,,,,,,,,,,001,2025-03-10_18h19.02.729,SL_base_41,2021.2.3,Win32,125,,,,,,,,,3,space,1.1105,2,0,2,0,1
,,"[""circle"",""red"",""hori"",""left"",[106,-106],[-106,-106]]",circle,red,hori,left,"[106,-106]","[-106,-106]",left,1,,,,,,001,2025-03-10_18h19.02.729,SL_base_41,2021.2.3,Win32,125,1.137,,,0,0,0,0,1,,,,,,,,
,,"[""diamond"",""green"",""hori"",""left"",[-150,0],[-106,-106]]",diamond,green,hori,left,"[-150,0]","[-106,-106]",left,1,,,,,,001,2025-03-10_18h19.02.729,SL_base_41,2021.2.3,Win32,125,0.875,,,1,0,1,0,1,,,,,,,,
,,"[""circle"",""no_dis"",""hori"",""left"",[99999,99999],[0,-150]]",circle,no_dis,hori,left,"[99999,99999]","[0,-150]",left,1,,,,,,001,2025-03-10_18h19.02.729,SL_base_41,2021.2.3,Win32,125,1.4495,,,2,0,2,0,1,,,,,,,,
,,"[""circle"",""no_dis"",""hori"",""left"",[99999,99999],[150,0]]",circle,no_dis,hori,left,"[99999,99999]","[150,0]",left,1,,,,,,001,2025-03-10_18h19.02.729,SL_base_41,2021.2.3,Win32,125,1.604,,,3,0,3,0,1,,,,,,,,
,,"[""diamond"",""green"",""hori"",""left"",[0,-150],[106,106]]",diamond,green,hori,left,"[0,-150]","[106,106]",left,1,,,,,,001,2025-03-10_18h19.02.729,SL_base_41,2021.2.3,Win32,125,0.7883,,,4,0,4,0,1,,,,,,,,
,,"[""circle"",""no_dis"",""vert"",""up"",[99999,99999],[-106,106]]",circle,no_dis,vert,up,"[99999,99999]","[-106,106]",up,1,,,,,,001,2025-03-10_18h19.02.729,SL_base_41,2021.2.3,Win32,125,0.7763,,,5,0,5,0,1,,,,,,,,
,,"[""diamond"",""no_dis"",""vert"",""up"",[99999,99999],[-150,0]]",diamond,no_dis,vert,up,"[99999,99999]","[-150,0]",up,1,,,,,,001,2025-03-10_18h19.02.729,SL_base_41,2021.2.3,Win32,125,0.6965,,,6,0,6,0,1,,,,,,,,
,,"[""circle"",""red"",""hori"",""left"",[0,-150],[0,150]]",circle,red,hori,left,"[0,-150]","[0,150]",left,1,,,,,,001,2025-03-10_18h19.02.729,SL_base_41,2021.2.3,Win32,125,2.0112,,,7,0,7,0,1,,,,,,,,
,,"[""circle"",""green"",""vert"",""up"",[0,-150],[-150,0]]",circle,green,vert,up,"[0,-150]","[-150,0]",left,0,,,,,,001,2025-03-10_18h19.02.729,SL_base_41,2021.2.3,Win32,125,0.7088,,,8,0,8,0,1,,,,,,,,
,,"[""diamond"",""red"",""hori"",""left"",[-106,-106],[150,0]]",diamond,red,hori,left,"[-106,-106]","[150,0]",left,1,,,,,,001,2025-03-10_18h19.02.729,SL_base_41,2021.2.3,Win32,125,0.7594,,,9,0,9,0,1,,,,,,,,
,,"[""diamond"",""red"",""vert"",""up"",[0,150],[-106,106]]",diamond,red,vert,up,"[0,150]","[-106,106]",up,1,,,,,,001,2025-03-10_18h19.02.729,SL_base_41,2021.2.3,Win32,125,0.8008,,,10,0,10,0,1,,,,,,,,
,,"[""circle"",""red"",""hori"",""left"",[-106,-106],[-106,106]]",circle,red,hori,left,"[-106,-106]","[-106,106]",left,1,,,,,,001,2025-03-10_18h19.02.729,SL_base_41,2021.2.3,Win32,125,1.1533,,,11,0,11,0,1,,,,,,,,
,,"[""diamond"",""red"",""hori"",""left"",[150,0],[0,150]]",diamond,red,hori,left,"[150,0]","[0,150]",left,1,,,,,,001,2025-03-10_18h19.02.729,SL_base_41,2021.2.3,Win32,125,0.7757,,,12,0,12,0,1,,,,,,,,
,,"[""circle"",""no_dis"",""vert"",""up"",[99999,99999],[150,0]]",circle,no_dis,vert,up,"[99999,99999]","[150,0]",up,1,,,,,,001,2025-03-10_18h19.02.729,SL_base_41,2021.2.3,Win32,125,1.3129,,,13,0,13,0,1,,,,,,,,
,,"[""circle"",""green"",""hori"",""left"",[0,-150],[106,-106]]",circle,green,hori,left,"[0,-150]","[106,-106]",left,1,,,,,,001,2025-03-10_18h19.02.729,SL_base_41,2021.2.3,Win32,125,1.8761,,,14,0,14,0,1,,,,,,,,
,,"[""diamond"",""no_dis"",""hori"",""left"",[99999,99999],[0,150]]",diamond,no_dis,hori,left,"[99999,99999]","[0,150]",left,1,,,,,,001,2025-03-10_18h19.02.729,SL_base_41,2021.2.3,Win32,125,1.3268,,,15,0,15,0,1,,,,,,,,
,,"[""diamond"",""no_dis"",""hori"",""left"",[99999,99999],[150,0]]",diamond,no_dis,hori,left,"[99999,99999]","[150,0]",left,1,,,,,,001,2025-03-10_18h19.02.729,SL_base_41,2021.2.3,Win32,125,0.7519,,,16,0,16,0,1,,,,,,,,
,,"[""circle"",""red"",""hori"",""left"",[0,-150],[0,150]]",circle,red,hori,left,"[0,-150]","[0,150]",left,1,,,,,,001,2025-03-10_18h19.02.729,SL_base_41,2021.2.3,Win32,125,1.9772,,,17,0,17,0,1,,,,,,,,
,,"[""circle"",""red"",""vert"",""up"",[106,-106],[-106,-106]]",circle,red,vert,up,"[106,-106]","[-106,-106]",up,1,,,,,,001,2025-03-10_18h19.02.729,SL_base_41,2021.2.3,Win32,125,1.0758,,,18,0,18,0,1,,,,,,,,
,,"[""diamond"",""no_dis"",""hori"",""left"",[99999,99999],[0,150]]",diamond,no_dis,hori,left,"[99999,99999]","[0,150]",left,1,,,,,,001,2025-03-10_18h19.02.729,SL_base_41,2021.2.3,Win32,125,1.1545,,,19,0,19,0,1,,,,,,,,
,,"[""circle"",""red"",""vert"",""up"",[-106,-106],[150,0]]",circle,red,vert,up,"[-106,-106]","[150,0]",up,1,,,,,,001,2025-03-10_18h19.02.729,SL_base_41,2021.2.3,Win32,125,0.9009,,,20,0,20,0,1,,,,,,,,
,,"[""diamond"",""no_dis"",""vert"",""up"",[99999,99999],[0,150]]",diamond,no_dis,vert,up,"[99999,99999]","[0,150]",up,1,,,,,,001,2025-03-10_18h19.02.729,SL_base_41,2021.2.3,Win32,125,0.7582,,,21,0,21,0,1,,,,,,,,
,,"[""circle"",""red"",""hori"",""left"",[-106,-106],[0,-150]]",circle,red,hori,left,"[-106,-106]","[0,-150]",left,1,,,,,,001,2025-03-10_18h19.02.729,SL_base_41,2021.2.3,Win32,125,0.6932,,,22,0,22,0,1,,,,,,,,
,,"[""diamond"",""red"",""hori"",""left"",[0,-150],[0,150]]",diamond,red,hori,left,"[0,-150]","[0,150]",left,1,,,,,,001,2025-03-10_18h19.02.729,SL_base_41,2021.2.3,Win32,125,0.6841,,,23,0,23,0,1,,,,,,,,
,,"[""diamond"",""red"",""hori"",""left"",[0,-150],[106,106]]",diamond,red,hori,left,"[0,-150]","[106,106]",left,1,,,,,,001,2025-03-10_18h19.02.729,SL_base_41,2021.2.3,Win32,125,0.7803,,,24,0,24,0,1,,,,,,,,
,,"[""diamond"",""red"",""vert"",""up"",[-106,-106],[-150,0]]",diamond,red,vert,up,"[-106,-106]","[-150,0]",up,1,,,,,,001,2025-03-10_18h19.02.729,SL_base_41,2021.2.3,Win32,125,0.674,,,25,0,25,0,1,,,,,,,,
,,"[""diamond"",""red"",""vert"",""up"",[150,0],[0,150]]",diamond,red,vert,up,"[150,0]","[0,150]",up,1,,,,,,001,2025-03-10_18h19.02.729,SL_base_41,2021.2.3,Win32,125,0.5627,,,26,0,26,0,1,,,,,,,,
,,"[""diamond"",""red"",""vert"",""up"",[106,-106],[0,-150]]",diamond,red,vert,up,"[106,-106]","[0,-150]",left,0,,,,,,001,2025-03-10_18h19.02.729,SL_base_41,2021.2.3,Win32,125,0.5203,,,27,0,27,0,1,,,,,,,,
,,"[""diamond"",""green"",""vert"",""up"",[0,150],[-150,0]]",diamond,green,vert,up,"[0,150]","[-150,0]",up,1,,,,,,001,2025-03-10_18h19.02.729,SL_base_41,2021.2.3,Win32,125,0.8027,,,28,0,28,0,1,,,,,,,,
,,"[""circle"",""no_dis"",""hori"",""left"",[99999,99999],[-150,0]]",circle,no_dis,hori,left,"[99999,99999]","[-150,0]",left,1,,,,,,001,2025-03-10_18h19.02.729,SL_base_41,2021.2.3,Win32,125,1.2998,,,29,0,29,0,1,,,,,,,,
,,"[""diamond"",""green"",""hori"",""left"",[0,-150],[0,150]]",diamond,green,hori,left,"[0,-150]","[0,150]",left,1,,,,,,001,2025-03-10_18h19.02.729,SL_base_41,2021.2.3,Win32,125,0.6354,,,30,0,30,0,1,,,,,,,,
,,"[""diamond"",""no_dis"",""hori"",""left"",[99999,99999],[0,-150]]",diamond,no_dis,hori,left,"[99999,99999]","[0,-150]",left,1,,,,,,001,2025-03-10_18h19.02.729,SL_base_41,2021.2.3,Win32,125,0.6601,,,31,0,31,0,1,,,,,,,,
,,"[""circle"",""no_dis"",""vert"",""up"",[99999,99999],[106,-106]]",circle,no_dis,vert,up,"[99999,99999]","[106,-106]",up,1,,,,,,001,2025-03-10_18h19.02.729,SL_base_41,2021.2.3,Win32,125,0.8938,,,32,0,32,0,1,,,,,,,,
,,"[""diamond"",""green"",""vert"",""up"",[106,106],[0,-150]]",diamond,green,vert,up,"[106,106]","[0,-150]",up,1,,,,,,001,2025-03-10_18h19.02.729,SL_base_41,2021.2.3,Win32,125,0.9996,,,33,0,33,0,1,,,,,,,,
,,"[""diamond"",""red"",""hori"",""left"",[0,-150],[-106,106]]",diamond,red,hori,left,"[0,-150]","[-106,106]",left,1,,,,,,001,2025-03-10_18h19.02.729,SL_base_41,2021.2.3,Win32,125,0.6255,,,34,0,34,0,1,,,,,,,,
,,"[""diamond"",""green"",""hori"",""left"",[0,-150],[-106,106]]",diamond,green,hori,left,"[0,-150]","[-106,106]",left,1,,,,,,001,2025-03-10_18h19.02.729,SL_base_41,2021.2.3,Win32,125,0.6575,,,35,0,35,0,1,,,,,,,,
,,"[""circle"",""no_dis"",""hori"",""left"",[99999,99999],[106,-106]]",circle,no_dis,hori,left,"[99999,99999]","[106,-106]",left,1,,,,,,001,2025-03-10_18h19.02.729,SL_base_41,2021.2.3,Win32,125,0.6058,,,36,0,36,0,1,,,,,,,,
,,"[""diamond"",""red"",""hori"",""left"",[0,150],[-106,106]]",diamond,red,hori,left,"[0,150]","[-106,106]",left,1,,,,,,001,2025-03-10_18h19.02.729,SL_base_41,2021.2.3,Win32,125,0.6441,,,37,0,37,0,1,,,,,,,,
,,"[""circle"",""no_dis"",""hori"",""left"",[99999,99999],[106,106]]",circle,no_dis,hori,left,"[99999,99999]","[106,106]",left,1,,,,,,001,2025-03-10_18h19.02.729,SL_base_41,2021.2.3,Win32,125,1.4696,,,38,0,38,0,1,,,,,,,,
,,"[""diamond"",""green"",""vert"",""up"",[0,-150],[106,-106]]",diamond,green,vert,up,"[0,-150]","[106,-106]",up,1,,,,,,001,2025-03-10_18h19.02.729,SL_base_41,2021.2.3,Win32,125,0.9335,,,39,0,39,0,1,,,,,,,,
,,"[""circle"",""red"",""vert"",""up"",[0,-150],[106,106]]",circle,red,vert,up,"[0,-150]","[106,106]",up,1,,,,,,001,2025-03-10_18h19.02.729,SL_base_41,2021.2.3,Win32,125,1.1053,,,40,0,40,0,1,,,,,,,,
,,"[""diamond"",""red"",""vert"",""up"",[0,-150],[150,0]]",diamond,red,vert,up,"[0,-150]","[150,0]",up,1,,,,,,001,2025-03-10_18h19.02.729,SL_base_41,2021.2.3,Win32,125,0.7371,,,41,0,41,0,1,,,,,,,,
,,"[""diamond"",""no_dis"",""vert"",""up"",[99999,99999],[-106,-106]]",diamond,no_dis,vert,up,"[99999,99999]","[-106,-106]",up,1,,,,,,001,2025-03-10_18h19.02.729,SL_base_41,2021.2.3,Win32,125,0.6106,,,42,0,42,0,1,,,,,,,,
,,"[""diamond"",""red"",""hori"",""left"",[106,-106],[150,0]]",diamond,red,hori,left,"[106,-106]","[150,0]",left,1,,,,,,001,2025-03-10_18h19.02.729,SL_base_41,2021.2.3,Win32,125,0.6278,,,43,0,43,0,1,,,,,,,,
,,"[""diamond"",""green"",""hori"",""left"",[106,106],[-106,106]]",diamond,green,hori,left,"[106,106]","[-106,106]",up,0,,,,,,001,2025-03-10_18h19.02.729,SL_base_41,2021.2.3,Win32,125,0.6201,,,44,0,44,0,1,,,,,,,,
,,"[""circle"",""red"",""hori"",""left"",[-106,106],[-106,-106]]",circle,red,hori,left,"[-106,106]","[-106,-106]",left,1,,,,,,001,2025-03-10_18h19.02.729,SL_base_41,2021.2.3,Win32,125,1.1946,,,45,0,45,0,1,,,,,,,,
,,"[""circle"",""red"",""hori"",""left"",[0,-150],[106,-106]]",circle,red,hori,left,"[0,-150]","[106,-106]",left,1,,,,,,001,2025-03-10_18h19.02.729,SL_base_41,2021.2.3,Win32,125,0.6129,,,46,0,46,0,1,,,,,,,,
,,"[""diamond"",""green"",""vert"",""up"",[-106,106],[106,106]]",diamond,green,vert,up,"[-106,106]","[106,106]",up,1,,,,,,001,2025-03-10_18h19.02.729,SL_base_41,2021.2.3,Win32,125,0.6677,,,47,0,47,0,1,,,,,,,,
,,"[""circle"",""no_dis"",""hori"",""left"",[99999,99999],[0,150]]",circle,no_dis,hori,left,"[99999,99999]","[0,150]",left,1,,,,,,001,2025-03-10_18h19.02.729,SL_base_41,2021.2.3,Win32,125,0.9394,,,48,0,48,0,1,,,,,,,,
,,"[""circle"",""no_dis"",""vert"",""up"",[99999,99999],[150,0]]",circle,no_dis,vert,up,"[99999,99999]","[150,0]",up,1,,,,,,001,2025-03-10_18h19.02.729,SL_base_41,2021.2.3,Win32,125,0.7404,,,49,0,49,0,1,,,,,,,,
,,"[""diamond"",""green"",""vert"",""up"",[0,-150],[150,0]]",diamond,green,vert,up,"[0,-150]","[150,0]",up,1,,,,,,001,2025-03-10_18h19.02.729,SL_base_41,2021.2.3,Win32,125,0.6135,,,50,0,50,0,1,,,,,,,,
,,"[""diamond"",""green"",""vert"",""up"",[106,106],[0,150]]",diamond,green,vert,up,"[106,106]","[0,150]",up,1,,,,,,001,2025-03-10_18h19.02.729,SL_base_41,2021.2.3,Win32,125,0.642,,,51,0,51,0,1,,,,,,,,
,,"[""diamond"",""red"",""vert"",""up"",[0,-150],[-150,0]]",diamond,red,vert,up,"[0,-150]","[-150,0]",up,1,,,,,,001,2025-03-10_18h19.02.729,SL_base_41,2021.2.3,Win32,125,0.6219,,,52,0,52,0,1,,,,,,,,
,,"[""diamond"",""no_dis"",""vert"",""up"",[99999,99999],[0,-150]]",diamond,no_dis,vert,up,"[99999,99999]","[0,-150]",up,1,,,,,,001,2025-03-10_18h19.02.729,SL_base_41,2021.2.3,Win32,125,1.1,,,53,0,53,0,1,,,,,,,,
,,"[""diamond"",""green"",""hori"",""left"",[106,-106],[-106,-106]]",diamond,green,hori,left,"[106,-106]","[-106,-106]",left,1,,,,,,001,2025-03-10_18h19.02.729,SL_base_41,2021.2.3,Win32,125,1.4851,,,54,0,54,0,1,,,,,,,,
,,"[""diamond"",""green"",""vert"",""up"",[0,-150],[150,0]]",diamond,green,vert,up,"[0,-150]","[150,0]",up,1,,,,,,001,2025-03-10_18h19.02.729,SL_base_41,2021.2.3,Win32,125,0.6753,,,55,0,55,0,1,,,,,,,,
,,"[""circle"",""no_dis"",""vert"",""up"",[99999,99999],[0,-150]]",circle,no_dis,vert,up,"[99999,99999]","[0,-150]",up,1,,,,,,001,2025-03-10_18h19.02.729,SL_base_41,2021.2.3,Win32,125,0.9116,,,56,0,56,0,1,,,,,,,,
,,"[""circle"",""red"",""hori"",""left"",[106,-106],[150,0]]",circle,red,hori,left,"[106,-106]","[150,0]",left,1,,,,,,001,2025-03-10_18h19.02.729,SL_base_41,2021.2.3,Win32,125,1.5032,,,57,0,57,0,1,,,,,,,,
,,"[""diamond"",""no_dis"",""vert"",""up"",[99999,99999],[106,-106]]",diamond,no_dis,vert,up,"[99999,99999]","[106,-106]",up,1,,,,,,001,2025-03-10_18h19.02.729,SL_base_41,2021.2.3,Win32,125,1.0394,,,58,0,58,0,1,,,,,,,,
,,"[""circle"",""green"",""vert"",""up"",[-106,106],[0,150]]",circle,green,vert,up,"[-106,106]","[0,150]",left,0,,,,,,001,2025-03-10_18h19.02.729,SL_base_41,2021.2.3,Win32,125,0.5546,,,59,0,59,0,1,,,,,,,,
,,"[""circle"",""green"",""vert"",""up"",[0,-150],[106,-106]]",circle,green,vert,up,"[0,-150]","[106,-106]",up,1,,,,,,001,2025-03-10_18h19.02.729,SL_base_41,2021.2.3,Win32,125,2.0027,,,60,0,60,0,1,,,,,,,,
,,"[""diamond"",""no_dis"",""vert"",""up"",[99999,99999],[-106,-106]]",diamond,no_dis,vert,up,"[99999,99999]","[-106,-106]",up,1,,,,,,001,2025-03-10_18h19.02.729,SL_base_41,2021.2.3,Win32,125,0.9504,,,61,0,61,0,1,,,,,,,,
,,"[""diamond"",""green"",""hori"",""left"",[106,106],[150,0]]",diamond,green,hori,left,"[106,106]","[150,0]",left,1,,,,,,001,2025-03-10_18h19.02.729,SL_base_41,2021.2.3,Win32,125,0.6864,,,62,0,62,0,1,,,,,,,,
,,"[""diamond"",""red"",""vert"",""up"",[150,0],[106,106]]",diamond,red,vert,up,"[150,0]","[106,106]",up,1,,,,,,001,2025-03-10_18h19.02.729,SL_base_41,2021.2.3,Win32,125,0.9924,,,63,0,63,0,1,,,,,,,,
,,"[""circle"",""green"",""hori"",""left"",[0,-150],[0,150]]",circle,green,hori,left,"[0,-150]","[0,150]",left,1,,,,,,001,2025-03-10_18h19.02.729,SL_base_41,2021.2.3,Win32,125,1.0108,,,64,0,64,0,1,,,,,,,,
,,"[""circle"",""green"",""vert"",""up"",[0,-150],[-106,106]]",circle,green,vert,up,"[0,-150]","[-106,106]",left,0,,,,,,001,2025-03-10_18h19.02.729,SL_base_41,2021.2.3,Win32,125,0.7623,,,65,0,65,0,1,,,,,,,,
,,"[""diamond"",""green"",""hori"",""left"",[-150,0],[-106,106]]",diamond,green,hori,left,"[-150,0]","[-106,106]",left,1,,,,,,001,2025-03-10_18h19.02.729,SL_base_41,2021.2.3,Win32,125,1.2336,,,66,0,66,0,1,,,,,,,,
,,"[""circle"",""red"",""hori"",""left"",[0,150],[106,-106]]",circle,red,hori,left,"[0,150]","[106,-106]",left,1,,,,,,001,2025-03-10_18h19.02.729,SL_base_41,2021.2.3,Win32,125,1.0256,,,67,0,67,0,1,,,,,,,,
,,"[""circle"",""no_dis"",""hori"",""left"",[99999,99999],[-106,-106]]",circle,no_dis,hori,left,"[99999,99999]","[-106,-106]",left,1,,,,,,001,2025-03-10_18h19.02.729,SL_base_41,2021.2.3,Win32,125,0.6113,,,68,0,68,0,1,,,,,,,,
,,"[""circle"",""green"",""vert"",""up"",[106,106],[106,-106]]",circle,green,vert,up,"[106,106]","[106,-106]",up,1,,,,,,001,2025-03-10_18h19.02.729,SL_base_41,2021.2.3,Win32,125,0.8513,,,69,0,69,0,1,,,,,,,,
,,"[""circle"",""red"",""hori"",""left"",[150,0],[-106,-106]]",circle,red,hori,left,"[150,0]","[-106,-106]",up,0,,,,,,001,2025-03-10_18h19.02.729,SL_base_41,2021.2.3,Win32,125,1.2637,,,70,0,70,0,1,,,,,,,,
,,"[""circle"",""no_dis"",""vert"",""up"",[99999,99999],[-106,-106]]",circle,no_dis,vert,up,"[99999,99999]","[-106,-106]",up,1,,,,,,001,2025-03-10_18h19.02.729,SL_base_41,2021.2.3,Win32,125,0.853,,,71,0,71,0,1,,,,,,,,
,,"[""diamond"",""green"",""vert"",""up"",[0,150],[0,-150]]",diamond,green,vert,up,"[0,150]","[0,-150]",up,1,,,,,,001,2025-03-10_18h19.02.729,SL_base_41,2021.2.3,Win32,125,1.2013,,,72,0,72,0,1,,,,,,,,
,,"[""diamond"",""no_dis"",""hori"",""left"",[99999,99999],[-106,106]]",diamond,no_dis,hori,left,"[99999,99999]","[-106,106]",left,1,,,,,,001,2025-03-10_18h19.02.729,SL_base_41,2021.2.3,Win32,125,0.727,,,73,0,73,0,1,,,,,,,,
,,"[""circle"",""no_dis"",""vert"",""up"",[99999,99999],[-150,0]]",circle,no_dis,vert,up,"[99999,99999]","[-150,0]",up,1,,,,,,001,2025-03-10_18h19.02.729,SL_base_41,2021.2.3,Win32,125,1.2944,,,74,0,74,0,1,,,,,,,,
,,"[""circle"",""green"",""hori"",""left"",[-106,-106],[106,106]]",circle,green,hori,left,"[-106,-106]","[106,106]",left,1,,,,,,001,2025-03-10_18h19.02.729,SL_base_41,2021.2.3,Win32,125,0.7182,,,75,0,75,0,1,,,,,,,,
,,"[""circle"",""red"",""vert"",""up"",[0,150],[106,-106]]",circle,red,vert,up,"[0,150]","[106,-106]",up,1,,,,,,001,2025-03-10_18h19.02.729,SL_base_41,2021.2.3,Win32,125,0.7042,,,76,0,76,0,1,,,,,,,,
,,"[""diamond"",""red"",""vert"",""up"",[0,150],[-106,106]]",diamond,red,vert,up,"[0,150]","[-106,106]",up,1,,,,,,001,2025-03-10_18h19.02.729,SL_base_41,2021.2.3,Win32,125,0.8938,,,77,0,77,0,1,,,,,,,,
