﻿key_resp.keys,key_resp.rt,trial_para,tar_shape,dis_color_condi,tar_line,cor_resp,dis_loc,tar_loc,resp.keys,resp.corr,trials.thisRepN,trials.thisTrialN,trials.thisN,trials.thisIndex,trials.ran,participant,date,expName,psychopyVersion,OS,frameRate,resp.rt,key_resp_2.keys,key_resp_2.rt,trials_2.thisRepN,trials_2.thisTrialN,trials_2.thisN,trials_2.thisIndex,trials_2.ran,block_num,key_resp_3.keys,key_resp_3.rt,trials_3.thisRepN,trials_3.thisTrialN,trials_3.thisN,trials_3.thisIndex,trials_3.ran
space,22.5362,"[""circle"",""red"",""hori"",""left"",[-106,106],[106,106]]",circle,red,hori,left,"[-106,106]","[106,106]",,0,0,0,0,0,1,001,2025-03-17_12h54.12.187,SL_base_41,2021.2.3,Win32,58.70267097,,,,,,,,,,,,,,,,
,,"[""circle"",""red"",""hori"",""left"",[106,-106],[0,150]]",circle,red,hori,left,"[106,-106]","[0,150]",left,1,1,0,1,0,1,001,2025-03-17_12h54.12.187,SL_base_41,2021.2.3,Win32,58.70267097,2.25,,,,,,,,,,,,,,,
,,"[""circle"",""green"",""vert"",""up"",[106,-106],[-106,-106]]",circle,green,vert,up,"[106,-106]","[-106,-106]",up,1,2,0,2,0,1,001,2025-03-17_12h54.12.187,SL_base_41,2021.2.3,Win32,58.70267097,1.7845,,,,,,,,,,,,,,,
,,"[""diamond"",""no_dis"",""hori"",""left"",[99999,99999],[106,-106]]",diamond,no_dis,hori,left,"[99999,99999]","[106,-106]",left,1,3,0,3,0,1,001,2025-03-17_12h54.12.187,SL_base_41,2021.2.3,Win32,58.70267097,1.7937,,,,,,,,,,,,,,,
,,"[""diamond"",""no_dis"",""vert"",""up"",[99999,99999],[150,0]]",diamond,no_dis,vert,up,"[99999,99999]","[150,0]",up,1,4,0,4,0,1,001,2025-03-17_12h54.12.187,SL_base_41,2021.2.3,Win32,58.70267097,1.4172,,,,,,,,,,,,,,,
,,"[""diamond"",""green"",""hori"",""left"",[0,-150],[106,-106]]",diamond,green,hori,left,"[0,-150]","[106,-106]",left,1,5,0,5,0,1,001,2025-03-17_12h54.12.187,SL_base_41,2021.2.3,Win32,58.70267097,2.2131,,,,,,,,,,,,,,,
,,"[""diamond"",""no_dis"",""hori"",""left"",[99999,99999],[-106,106]]",diamond,no_dis,hori,left,"[99999,99999]","[-106,106]",left,1,6,0,6,0,1,001,2025-03-17_12h54.12.187,SL_base_41,2021.2.3,Win32,58.70267097,1.7116,,,,,,,,,,,,,,,
,,"[""diamond"",""green"",""vert"",""up"",[-106,-106],[0,-150]]",diamond,green,vert,up,"[-106,-106]","[0,-150]",up,1,7,0,7,0,1,001,2025-03-17_12h54.12.187,SL_base_41,2021.2.3,Win32,58.70267097,1.8624,,,,,,,,,,,,,,,
,,"[""diamond"",""no_dis"",""hori"",""left"",[99999,99999],[0,-150]]",diamond,no_dis,hori,left,"[99999,99999]","[0,-150]",left,1,8,0,8,0,1,001,2025-03-17_12h54.12.187,SL_base_41,2021.2.3,Win32,58.70267097,2.0523,,,,,,,,,,,,,,,
,,"[""diamond"",""no_dis"",""hori"",""left"",[99999,99999],[0,150]]",diamond,no_dis,hori,left,"[99999,99999]","[0,150]",left,1,9,0,9,0,1,001,2025-03-17_12h54.12.187,SL_base_41,2021.2.3,Win32,58.70267097,1.2551,,,,,,,,,,,,,,,
,,"[""circle"",""red"",""hori"",""left"",[-106,106],[106,106]]",circle,red,hori,left,"[-106,106]","[106,106]",left,1,,,,,,001,2025-03-17_12h54.12.187,SL_base_41,2021.2.3,Win32,58.70267097,1.8513,space,50.8687,0,0,0,0,1,,,,,,,,
,,"[""circle"",""red"",""hori"",""left"",[106,-106],[0,150]]",circle,red,hori,left,"[106,-106]","[0,150]",left,1,,,,,,001,2025-03-17_12h54.12.187,SL_base_41,2021.2.3,Win32,58.70267097,2.1712,,,1,0,1,0,1,,,,,,,,
,,"[""circle"",""green"",""vert"",""up"",[106,-106],[-106,-106]]",circle,green,vert,up,"[106,-106]","[-106,-106]",up,1,,,,,,001,2025-03-17_12h54.12.187,SL_base_41,2021.2.3,Win32,58.70267097,1.3988,,,2,0,2,0,1,,,,,,,,
,,"[""diamond"",""no_dis"",""hori"",""left"",[99999,99999],[106,-106]]",diamond,no_dis,hori,left,"[99999,99999]","[106,-106]",left,1,,,,,,001,2025-03-17_12h54.12.187,SL_base_41,2021.2.3,Win32,58.70267097,2.0482,,,3,0,3,0,1,,,,,,,,
,,"[""diamond"",""no_dis"",""vert"",""up"",[99999,99999],[150,0]]",diamond,no_dis,vert,up,"[99999,99999]","[150,0]",up,1,,,,,,001,2025-03-17_12h54.12.187,SL_base_41,2021.2.3,Win32,58.70267097,1.4697,,,4,0,4,0,1,,,,,,,,
,,"[""diamond"",""green"",""hori"",""left"",[0,-150],[106,-106]]",diamond,green,hori,left,"[0,-150]","[106,-106]",left,1,,,,,,001,2025-03-17_12h54.12.187,SL_base_41,2021.2.3,Win32,58.70267097,2.0519,,,5,0,5,0,1,,,,,,,,
,,"[""diamond"",""no_dis"",""hori"",""left"",[99999,99999],[-106,106]]",diamond,no_dis,hori,left,"[99999,99999]","[-106,106]",left,1,,,,,,001,2025-03-17_12h54.12.187,SL_base_41,2021.2.3,Win32,58.70267097,2.1773,,,6,0,6,0,1,,,,,,,,
,,"[""diamond"",""green"",""vert"",""up"",[-106,-106],[0,-150]]",diamond,green,vert,up,"[-106,-106]","[0,-150]",up,1,,,,,,001,2025-03-17_12h54.12.187,SL_base_41,2021.2.3,Win32,58.70267097,1.3462,,,7,0,7,0,1,,,,,,,,
,,"[""diamond"",""no_dis"",""hori"",""left"",[99999,99999],[0,-150]]",diamond,no_dis,hori,left,"[99999,99999]","[0,-150]",left,1,,,,,,001,2025-03-17_12h54.12.187,SL_base_41,2021.2.3,Win32,58.70267097,2.4421,,,8,0,8,0,1,,,,,,,,
,,"[""diamond"",""no_dis"",""hori"",""left"",[99999,99999],[0,150]]",diamond,no_dis,hori,left,"[99999,99999]","[0,150]",up,0,,,,,,001,2025-03-17_12h54.12.187,SL_base_41,2021.2.3,Win32,58.70267097,2.4006,,,9,0,9,0,1,,,,,,,,
,,"[""diamond"",""green"",""vert"",""up"",[-150,0],[150,0]]",diamond,green,vert,up,"[-150,0]","[150,0]",up,1,,,,,,001,2025-03-17_12h54.12.187,SL_base_41,2021.2.3,Win32,58.70267097,1.6445,,,10,0,10,0,1,,,,,,,,
,,"[""circle"",""red"",""hori"",""left"",[106,106],[0,-150]]",circle,red,hori,left,"[106,106]","[0,-150]",left,1,,,,,,001,2025-03-17_12h54.12.187,SL_base_41,2021.2.3,Win32,58.70267097,1.6339,,,11,0,11,0,1,,,,,,,,
,,"[""circle"",""no_dis"",""hori"",""left"",[99999,99999],[106,-106]]",circle,no_dis,hori,left,"[99999,99999]","[106,-106]",left,1,,,,,,001,2025-03-17_12h54.12.187,SL_base_41,2021.2.3,Win32,58.70267097,2.0483,,,12,0,12,0,1,,,,,,,,
,,"[""diamond"",""green"",""vert"",""up"",[106,-106],[-106,-106]]",diamond,green,vert,up,"[106,-106]","[-106,-106]",up,1,,,,,,001,2025-03-17_12h54.12.187,SL_base_41,2021.2.3,Win32,58.70267097,1.5801,,,13,0,13,0,1,,,,,,,,
,,"[""circle"",""no_dis"",""vert"",""up"",[99999,99999],[-150,0]]",circle,no_dis,vert,up,"[99999,99999]","[-150,0]",up,1,,,,,,001,2025-03-17_12h54.12.187,SL_base_41,2021.2.3,Win32,58.70267097,1.333,,,14,0,14,0,1,,,,,,,,
,,"[""circle"",""no_dis"",""vert"",""up"",[99999,99999],[150,0]]",circle,no_dis,vert,up,"[99999,99999]","[150,0]",up,1,,,,,,001,2025-03-17_12h54.12.187,SL_base_41,2021.2.3,Win32,58.70267097,2.1544,,,15,0,15,0,1,,,,,,,,
,,"[""circle"",""green"",""vert"",""up"",[150,0],[106,-106]]",circle,green,vert,up,"[150,0]","[106,-106]",up,1,,,,,,001,2025-03-17_12h54.12.187,SL_base_41,2021.2.3,Win32,58.70267097,2.2316,,,16,0,16,0,1,,,,,,,,
,,"[""circle"",""no_dis"",""hori"",""left"",[99999,99999],[-150,0]]",circle,no_dis,hori,left,"[99999,99999]","[-150,0]",left,1,,,,,,001,2025-03-17_12h54.12.187,SL_base_41,2021.2.3,Win32,58.70267097,1.8848,,,17,0,17,0,1,,,,,,,,
,,"[""diamond"",""red"",""vert"",""up"",[106,-106],[-150,0]]",diamond,red,vert,up,"[106,-106]","[-150,0]",up,1,,,,,,001,2025-03-17_12h54.12.187,SL_base_41,2021.2.3,Win32,58.70267097,2.13,,,18,0,18,0,1,,,,,,,,
,,"[""diamond"",""green"",""vert"",""up"",[106,-106],[-150,0]]",diamond,green,vert,up,"[106,-106]","[-150,0]",left,0,,,,,,001,2025-03-17_12h54.12.187,SL_base_41,2021.2.3,Win32,58.70267097,2.3973,,,19,0,19,0,1,,,,,,,,
,,"[""diamond"",""red"",""vert"",""up"",[150,0],[-150,0]]",diamond,red,vert,up,"[150,0]","[-150,0]",up,1,,,,,,001,2025-03-17_12h54.12.187,SL_base_41,2021.2.3,Win32,58.70267097,2.5121,,,20,0,20,0,1,,,,,,,,
,,"[""diamond"",""no_dis"",""vert"",""up"",[99999,99999],[-106,106]]",diamond,no_dis,vert,up,"[99999,99999]","[-106,106]",up,1,,,,,,001,2025-03-17_12h54.12.187,SL_base_41,2021.2.3,Win32,58.70267097,1.8329,,,21,0,21,0,1,,,,,,,,
,,"[""diamond"",""green"",""vert"",""up"",[0,150],[106,106]]",diamond,green,vert,up,"[0,150]","[106,106]",up,1,,,,,,001,2025-03-17_12h54.12.187,SL_base_41,2021.2.3,Win32,58.70267097,1.7795,,,22,0,22,0,1,,,,,,,,
,,"[""circle"",""red"",""vert"",""up"",[-106,-106],[0,150]]",circle,red,vert,up,"[-106,-106]","[0,150]",up,1,,,,,,001,2025-03-17_12h54.12.187,SL_base_41,2021.2.3,Win32,58.70267097,1.9307,,,23,0,23,0,1,,,,,,,,
,,"[""circle"",""no_dis"",""hori"",""left"",[99999,99999],[0,150]]",circle,no_dis,hori,left,"[99999,99999]","[0,150]",left,1,,,,,,001,2025-03-17_12h54.12.187,SL_base_41,2021.2.3,Win32,58.70267097,1.2717,,,24,0,24,0,1,,,,,,,,
,,"[""circle"",""no_dis"",""hori"",""left"",[99999,99999],[-106,-106]]",circle,no_dis,hori,left,"[99999,99999]","[-106,-106]",left,1,,,,,,001,2025-03-17_12h54.12.187,SL_base_41,2021.2.3,Win32,58.70267097,1.5843,,,25,0,25,0,1,,,,,,,,
,,"[""diamond"",""no_dis"",""vert"",""up"",[99999,99999],[-106,106]]",diamond,no_dis,vert,up,"[99999,99999]","[-106,106]",up,1,,,,,,001,2025-03-17_12h54.12.187,SL_base_41,2021.2.3,Win32,58.70267097,1.623,,,26,0,26,0,1,,,,,,,,
,,"[""circle"",""green"",""vert"",""up"",[106,106],[-150,0]]",circle,green,vert,up,"[106,106]","[-150,0]",up,1,,,,,,001,2025-03-17_12h54.12.187,SL_base_41,2021.2.3,Win32,58.70267097,1.3623,,,27,0,27,0,1,,,,,,,,
,,"[""circle"",""red"",""vert"",""up"",[150,0],[-106,-106]]",circle,red,vert,up,"[150,0]","[-106,-106]",,0,,,,,,001,2025-03-17_12h54.12.187,SL_base_41,2021.2.3,Win32,58.70267097,,,,28,0,28,0,1,,,,,,,,
,,"[""diamond"",""green"",""hori"",""left"",[-106,106],[150,0]]",diamond,green,hori,left,"[-106,106]","[150,0]",left,1,,,,,,001,2025-03-17_12h54.12.187,SL_base_41,2021.2.3,Win32,58.70267097,1.5816,,,29,0,29,0,1,,,,,,,,
,,"[""circle"",""red"",""hori"",""left"",[106,-106],[150,0]]",circle,red,hori,left,"[106,-106]","[150,0]",left,1,,,,,,001,2025-03-17_12h54.12.187,SL_base_41,2021.2.3,Win32,58.70267097,1.4332,,,30,0,30,0,1,,,,,,,,
,,"[""circle"",""green"",""hori"",""left"",[0,-150],[-106,-106]]",circle,green,hori,left,"[0,-150]","[-106,-106]",left,1,,,,,,001,2025-03-17_12h54.12.187,SL_base_41,2021.2.3,Win32,58.70267097,1.5824,,,31,0,31,0,1,,,,,,,,
,,"[""circle"",""red"",""hori"",""left"",[106,-106],[-106,-106]]",circle,red,hori,left,"[106,-106]","[-106,-106]",left,1,,,,,,001,2025-03-17_12h54.12.187,SL_base_41,2021.2.3,Win32,58.70267097,1.4709,,,32,0,32,0,1,,,,,,,,
,,"[""diamond"",""green"",""hori"",""left"",[150,0],[0,-150]]",diamond,green,hori,left,"[150,0]","[0,-150]",left,1,,,,,,001,2025-03-17_12h54.12.187,SL_base_41,2021.2.3,Win32,58.70267097,1.6824,,,33,0,33,0,1,,,,,,,,
,,"[""circle"",""red"",""vert"",""up"",[-106,-106],[150,0]]",circle,red,vert,up,"[-106,-106]","[150,0]",up,1,,,,,,001,2025-03-17_12h54.12.187,SL_base_41,2021.2.3,Win32,58.70267097,2.1872,,,34,0,34,0,1,,,,,,,,
,,"[""diamond"",""green"",""vert"",""up"",[-150,0],[-106,106]]",diamond,green,vert,up,"[-150,0]","[-106,106]",up,1,,,,,,001,2025-03-17_12h54.12.187,SL_base_41,2021.2.3,Win32,58.70267097,1.5727,,,35,0,35,0,1,,,,,,,,
,,"[""diamond"",""red"",""hori"",""left"",[106,-106],[0,150]]",diamond,red,hori,left,"[106,-106]","[0,150]",left,1,,,,,,001,2025-03-17_12h54.12.187,SL_base_41,2021.2.3,Win32,58.70267097,1.9788,,,36,0,36,0,1,,,,,,,,
,,"[""diamond"",""red"",""vert"",""up"",[-106,106],[150,0]]",diamond,red,vert,up,"[-106,106]","[150,0]",up,1,,,,,,001,2025-03-17_12h54.12.187,SL_base_41,2021.2.3,Win32,58.70267097,2.4017,,,37,0,37,0,1,,,,,,,,
,,"[""diamond"",""red"",""vert"",""up"",[-106,106],[-150,0]]",diamond,red,vert,up,"[-106,106]","[-150,0]",up,1,,,,,,001,2025-03-17_12h54.12.187,SL_base_41,2021.2.3,Win32,58.70267097,1.363,,,38,0,38,0,1,,,,,,,,
,,"[""circle"",""green"",""hori"",""left"",[150,0],[106,-106]]",circle,green,hori,left,"[150,0]","[106,-106]",left,1,,,,,,001,2025-03-17_12h54.12.187,SL_base_41,2021.2.3,Win32,58.70267097,1.9005,,,39,0,39,0,1,,,,,,,,
,,"[""circle"",""no_dis"",""hori"",""left"",[99999,99999],[0,150]]",circle,no_dis,hori,left,"[99999,99999]","[0,150]",up,0,,,,,,001,2025-03-17_12h54.12.187,SL_base_41,2021.2.3,Win32,58.70267097,1.3561,,,40,0,40,0,1,,,,,,,,
,,"[""circle"",""green"",""hori"",""left"",[-150,0],[0,-150]]",circle,green,hori,left,"[-150,0]","[0,-150]",left,1,,,,,,001,2025-03-17_12h54.12.187,SL_base_41,2021.2.3,Win32,58.70267097,2.0323,,,41,0,41,0,1,,,,,,,,
,,"[""diamond"",""red"",""vert"",""up"",[106,-106],[0,-150]]",diamond,red,vert,up,"[106,-106]","[0,-150]",up,1,,,,,,001,2025-03-17_12h54.12.187,SL_base_41,2021.2.3,Win32,58.70267097,1.8238,,,42,0,42,0,1,,,,,,,,
,,"[""diamond"",""green"",""hori"",""left"",[0,150],[150,0]]",diamond,green,hori,left,"[0,150]","[150,0]",left,1,,,,,,001,2025-03-17_12h54.12.187,SL_base_41,2021.2.3,Win32,58.70267097,1.6303,,,43,0,43,0,1,,,,,,,,
,,"[""diamond"",""green"",""hori"",""left"",[106,-106],[-106,-106]]",diamond,green,hori,left,"[106,-106]","[-106,-106]",left,1,,,,,,001,2025-03-17_12h54.12.187,SL_base_41,2021.2.3,Win32,58.70267097,1.6273,,,44,0,44,0,1,,,,,,,,
,,"[""diamond"",""green"",""vert"",""up"",[-106,-106],[0,150]]",diamond,green,vert,up,"[-106,-106]","[0,150]",up,1,,,,,,001,2025-03-17_12h54.12.187,SL_base_41,2021.2.3,Win32,58.70267097,1.9846,,,45,0,45,0,1,,,,,,,,
,,"[""diamond"",""no_dis"",""vert"",""up"",[99999,99999],[0,-150]]",diamond,no_dis,vert,up,"[99999,99999]","[0,-150]",up,1,,,,,,001,2025-03-17_12h54.12.187,SL_base_41,2021.2.3,Win32,58.70267097,1.369,,,46,0,46,0,1,,,,,,,,
,,"[""circle"",""red"",""hori"",""left"",[106,-106],[0,150]]",circle,red,hori,left,"[106,-106]","[0,150]",left,1,,,,,,001,2025-03-17_12h54.12.187,SL_base_41,2021.2.3,Win32,58.70267097,1.4742,,,47,0,47,0,1,,,,,,,,
,,"[""circle"",""no_dis"",""hori"",""left"",[99999,99999],[-106,-106]]",circle,no_dis,hori,left,"[99999,99999]","[-106,-106]",left,1,,,,,,001,2025-03-17_12h54.12.187,SL_base_41,2021.2.3,Win32,58.70267097,1.6028,,,48,0,48,0,1,,,,,,,,
,,"[""diamond"",""green"",""hori"",""left"",[0,150],[106,-106]]",diamond,green,hori,left,"[0,150]","[106,-106]",left,1,,,,,,001,2025-03-17_12h54.12.187,SL_base_41,2021.2.3,Win32,58.70267097,1.4316,,,49,0,49,0,1,,,,,,,,
,,"[""diamond"",""green"",""vert"",""up"",[106,-106],[0,150]]",diamond,green,vert,up,"[106,-106]","[0,150]",up,1,,,,,,001,2025-03-17_12h54.12.187,SL_base_41,2021.2.3,Win32,58.70267097,1.5795,,,50,0,50,0,1,,,,,,,,
,,"[""circle"",""red"",""vert"",""up"",[0,150],[106,106]]",circle,red,vert,up,"[0,150]","[106,106]",left,0,,,,,,001,2025-03-17_12h54.12.187,SL_base_41,2021.2.3,Win32,58.70267097,2.103,,,51,0,51,0,1,,,,,,,,
,,"[""circle"",""no_dis"",""vert"",""up"",[99999,99999],[-150,0]]",circle,no_dis,vert,up,"[99999,99999]","[-150,0]",up,1,,,,,,001,2025-03-17_12h54.12.187,SL_base_41,2021.2.3,Win32,58.70267097,1.182,,,52,0,52,0,1,,,,,,,,
,,"[""circle"",""green"",""vert"",""up"",[-106,-106],[-150,0]]",circle,green,vert,up,"[-106,-106]","[-150,0]",up,1,,,,,,001,2025-03-17_12h54.12.187,SL_base_41,2021.2.3,Win32,58.70267097,1.18,,,53,0,53,0,1,,,,,,,,
,,"[""circle"",""green"",""vert"",""up"",[-150,0],[0,-150]]",circle,green,vert,up,"[-150,0]","[0,-150]",up,1,,,,,,001,2025-03-17_12h54.12.187,SL_base_41,2021.2.3,Win32,58.70267097,2.1723,,,54,0,54,0,1,,,,,,,,
,,"[""diamond"",""green"",""hori"",""left"",[-106,106],[-106,-106]]",diamond,green,hori,left,"[-106,106]","[-106,-106]",left,1,,,,,,001,2025-03-17_12h54.12.187,SL_base_41,2021.2.3,Win32,58.70267097,1.913,,,55,0,55,0,1,,,,,,,,
,,"[""circle"",""green"",""vert"",""up"",[106,106],[-106,106]]",circle,green,vert,up,"[106,106]","[-106,106]",up,1,,,,,,001,2025-03-17_12h54.12.187,SL_base_41,2021.2.3,Win32,58.70267097,1.4148,,,56,0,56,0,1,,,,,,,,
,,"[""diamond"",""green"",""vert"",""up"",[106,-106],[0,150]]",diamond,green,vert,up,"[106,-106]","[0,150]",up,1,,,,,,001,2025-03-17_12h54.12.187,SL_base_41,2021.2.3,Win32,58.70267097,1.3782,,,57,0,57,0,1,,,,,,,,
,,"[""circle"",""green"",""hori"",""left"",[150,0],[0,150]]",circle,green,hori,left,"[150,0]","[0,150]",left,1,,,,,,001,2025-03-17_12h54.12.187,SL_base_41,2021.2.3,Win32,58.70267097,1.4327,,,58,0,58,0,1,,,,,,,,
,,"[""diamond"",""no_dis"",""hori"",""left"",[99999,99999],[150,0]]",diamond,no_dis,hori,left,"[99999,99999]","[150,0]",left,1,,,,,,001,2025-03-17_12h54.12.187,SL_base_41,2021.2.3,Win32,58.70267097,1.4537,,,59,0,59,0,1,,,,,,,,
,,"[""circle"",""red"",""vert"",""up"",[106,106],[-106,106]]",circle,red,vert,up,"[106,106]","[-106,106]",,0,,,,,,001,2025-03-17_12h54.12.187,SL_base_41,2021.2.3,Win32,58.70267097,,,,60,0,60,0,1,,,,,,,,
,,"[""circle"",""green"",""hori"",""left"",[0,-150],[150,0]]",circle,green,hori,left,"[0,-150]","[150,0]",left,1,,,,,,001,2025-03-17_12h54.12.187,SL_base_41,2021.2.3,Win32,58.70267097,1.1637,,,61,0,61,0,1,,,,,,,,
,,"[""diamond"",""red"",""vert"",""up"",[106,-106],[-106,106]]",diamond,red,vert,up,"[106,-106]","[-106,106]",up,1,,,,,,001,2025-03-17_12h54.12.187,SL_base_41,2021.2.3,Win32,58.70267097,1.7556,,,62,0,62,0,1,,,,,,,,
,,"[""circle"",""green"",""hori"",""left"",[106,-106],[0,150]]",circle,green,hori,left,"[106,-106]","[0,150]",left,1,,,,,,001,2025-03-17_12h54.12.187,SL_base_41,2021.2.3,Win32,58.70267097,1.2547,,,63,0,63,0,1,,,,,,,,
,,"[""circle"",""no_dis"",""vert"",""up"",[99999,99999],[-150,0]]",circle,no_dis,vert,up,"[99999,99999]","[-150,0]",up,1,,,,,,001,2025-03-17_12h54.12.187,SL_base_41,2021.2.3,Win32,58.70267097,1.1141,,,64,0,64,0,1,,,,,,,,
,,"[""diamond"",""red"",""hori"",""left"",[0,150],[106,-106]]",diamond,red,hori,left,"[0,150]","[106,-106]",left,1,,,,,,001,2025-03-17_12h54.12.187,SL_base_41,2021.2.3,Win32,58.70267097,1.463,,,65,0,65,0,1,,,,,,,,
,,"[""diamond"",""red"",""hori"",""left"",[-150,0],[-106,106]]",diamond,red,hori,left,"[-150,0]","[-106,106]",left,1,,,,,,001,2025-03-17_12h54.12.187,SL_base_41,2021.2.3,Win32,58.70267097,1.9688,,,66,0,66,0,1,,,,,,,,
,,"[""diamond"",""green"",""hori"",""left"",[106,106],[-106,-106]]",diamond,green,hori,left,"[106,106]","[-106,-106]",left,1,,,,,,001,2025-03-17_12h54.12.187,SL_base_41,2021.2.3,Win32,58.70267097,1.0648,,,67,0,67,0,1,,,,,,,,
,,"[""diamond"",""no_dis"",""vert"",""up"",[99999,99999],[-106,106]]",diamond,no_dis,vert,up,"[99999,99999]","[-106,106]",up,1,,,,,,001,2025-03-17_12h54.12.187,SL_base_41,2021.2.3,Win32,58.70267097,1.6978,,,68,0,68,0,1,,,,,,,,
,,"[""circle"",""red"",""hori"",""left"",[-106,-106],[106,-106]]",circle,red,hori,left,"[-106,-106]","[106,-106]",left,1,,,,,,001,2025-03-17_12h54.12.187,SL_base_41,2021.2.3,Win32,58.70267097,1.5136,,,69,0,69,0,1,,,,,,,,
,,"[""circle"",""green"",""hori"",""left"",[150,0],[-106,-106]]",circle,green,hori,left,"[150,0]","[-106,-106]",left,1,,,,,,001,2025-03-17_12h54.12.187,SL_base_41,2021.2.3,Win32,58.70267097,1.215,,,70,0,70,0,1,,,,,,,,
,,"[""circle"",""red"",""vert"",""up"",[-106,-106],[0,-150]]",circle,red,vert,up,"[-106,-106]","[0,-150]",up,1,,,,,,001,2025-03-17_12h54.12.187,SL_base_41,2021.2.3,Win32,58.70267097,2.2315,,,71,0,71,0,1,,,,,,,,
,,"[""diamond"",""red"",""vert"",""up"",[106,-106],[-150,0]]",diamond,red,vert,up,"[106,-106]","[-150,0]",up,1,,,,,,001,2025-03-17_12h54.12.187,SL_base_41,2021.2.3,Win32,58.70267097,2.4469,,,72,0,72,0,1,,,,,,,,
,,"[""diamond"",""red"",""vert"",""up"",[106,106],[0,-150]]",diamond,red,vert,up,"[106,106]","[0,-150]",up,1,,,,,,001,2025-03-17_12h54.12.187,SL_base_41,2021.2.3,Win32,58.70267097,1.666,,,73,0,73,0,1,,,,,,,,
,,"[""diamond"",""red"",""hori"",""left"",[0,-150],[-106,-106]]",diamond,red,hori,left,"[0,-150]","[-106,-106]",left,1,,,,,,001,2025-03-17_12h54.12.187,SL_base_41,2021.2.3,Win32,58.70267097,1.5147,,,74,0,74,0,1,,,,,,,,
,,"[""diamond"",""green"",""hori"",""left"",[-150,0],[-106,106]]",diamond,green,hori,left,"[-150,0]","[-106,106]",left,1,,,,,,001,2025-03-17_12h54.12.187,SL_base_41,2021.2.3,Win32,58.70267097,1.4517,,,75,0,75,0,1,,,,,,,,
,,"[""diamond"",""green"",""hori"",""left"",[106,-106],[106,106]]",diamond,green,hori,left,"[106,-106]","[106,106]",left,1,,,,,,001,2025-03-17_12h54.12.187,SL_base_41,2021.2.3,Win32,58.70267097,2.0774,,,76,0,76,0,1,,,,,,,,
,,"[""diamond"",""green"",""vert"",""up"",[106,-106],[-106,-106]]",diamond,green,vert,up,"[106,-106]","[-106,-106]",up,1,,,,,,001,2025-03-17_12h54.12.187,SL_base_41,2021.2.3,Win32,58.70267097,1.2806,,,77,0,77,0,1,,,,,,,,
,,"[""circle"",""no_dis"",""vert"",""up"",[99999,99999],[-106,-106]]",circle,no_dis,vert,up,"[99999,99999]","[-106,-106]",up,1,,,,,,001,2025-03-17_12h54.12.187,SL_base_41,2021.2.3,Win32,58.70267097,2.0051,,,78,0,78,0,1,,,,,,,,
,,"[""diamond"",""red"",""vert"",""up"",[106,-106],[150,0]]",diamond,red,vert,up,"[106,-106]","[150,0]",up,1,,,,,,001,2025-03-17_12h54.12.187,SL_base_41,2021.2.3,Win32,58.70267097,1.6293,,,79,0,79,0,1,,,,,,,,
,,"[""circle"",""green"",""vert"",""up"",[0,150],[0,-150]]",circle,green,vert,up,"[0,150]","[0,-150]",up,1,,,,,,001,2025-03-17_12h54.12.187,SL_base_41,2021.2.3,Win32,58.70267097,1.6179,,,80,0,80,0,1,,,,,,,,
,,"[""diamond"",""green"",""hori"",""left"",[106,-106],[-106,106]]",diamond,green,hori,left,"[106,-106]","[-106,106]",left,1,,,,,,001,2025-03-17_12h54.12.187,SL_base_41,2021.2.3,Win32,58.70267097,1.7037,,,81,0,81,0,1,,,,,,,,
,,"[""diamond"",""no_dis"",""hori"",""left"",[99999,99999],[106,-106]]",diamond,no_dis,hori,left,"[99999,99999]","[106,-106]",left,1,,,,,,001,2025-03-17_12h54.12.187,SL_base_41,2021.2.3,Win32,58.70267097,1.5386,,,82,0,82,0,1,,,,,,,,
,,"[""circle"",""no_dis"",""hori"",""left"",[99999,99999],[106,-106]]",circle,no_dis,hori,left,"[99999,99999]","[106,-106]",left,1,,,,,,001,2025-03-17_12h54.12.187,SL_base_41,2021.2.3,Win32,58.70267097,2.0672,,,83,0,83,0,1,,,,,,,,
,,"[""circle"",""red"",""vert"",""up"",[0,150],[-106,-106]]",circle,red,vert,up,"[0,150]","[-106,-106]",up,1,,,,,,001,2025-03-17_12h54.12.187,SL_base_41,2021.2.3,Win32,58.70267097,1.1837,,,84,0,84,0,1,,,,,,,,
,,"[""circle"",""red"",""vert"",""up"",[-106,106],[-150,0]]",circle,red,vert,up,"[-106,106]","[-150,0]",up,1,,,,,,001,2025-03-17_12h54.12.187,SL_base_41,2021.2.3,Win32,58.70267097,1.9321,,,85,0,85,0,1,,,,,,,,
,,"[""circle"",""green"",""hori"",""left"",[106,-106],[0,150]]",circle,green,hori,left,"[106,-106]","[0,150]",left,1,,,,,,001,2025-03-17_12h54.12.187,SL_base_41,2021.2.3,Win32,58.70267097,1.435,,,86,0,86,0,1,,,,,,,,
,,"[""circle"",""no_dis"",""hori"",""left"",[99999,99999],[-150,0]]",circle,no_dis,hori,left,"[99999,99999]","[-150,0]",left,1,,,,,,001,2025-03-17_12h54.12.187,SL_base_41,2021.2.3,Win32,58.70267097,1.4054,,,87,0,87,0,1,,,,,,,,
,,"[""circle"",""no_dis"",""vert"",""up"",[99999,99999],[0,150]]",circle,no_dis,vert,up,"[99999,99999]","[0,150]",up,1,,,,,,001,2025-03-17_12h54.12.187,SL_base_41,2021.2.3,Win32,58.70267097,1.6562,,,88,0,88,0,1,,,,,,,,
,,"[""circle"",""no_dis"",""hori"",""left"",[99999,99999],[106,106]]",circle,no_dis,hori,left,"[99999,99999]","[106,106]",left,1,,,,,,001,2025-03-17_12h54.12.187,SL_base_41,2021.2.3,Win32,58.70267097,1.5654,,,89,0,89,0,1,,,,,,,,
,,"[""circle"",""red"",""vert"",""up"",[106,-106],[0,-150]]",circle,red,vert,up,"[106,-106]","[0,-150]",up,1,,,,,,001,2025-03-17_12h54.12.187,SL_base_41,2021.2.3,Win32,58.70267097,1.2752,,,90,0,90,0,1,,,,,,,,
,,"[""circle"",""no_dis"",""vert"",""up"",[99999,99999],[150,0]]",circle,no_dis,vert,up,"[99999,99999]","[150,0]",up,1,,,,,,001,2025-03-17_12h54.12.187,SL_base_41,2021.2.3,Win32,58.70267097,1.4582,,,91,0,91,0,1,,,,,,,,
,,"[""diamond"",""no_dis"",""vert"",""up"",[99999,99999],[106,106]]",diamond,no_dis,vert,up,"[99999,99999]","[106,106]",up,1,,,,,,001,2025-03-17_12h54.12.187,SL_base_41,2021.2.3,Win32,58.70267097,1.7392,,,92,0,92,0,1,,,,,,,,
,,"[""circle"",""green"",""hori"",""left"",[0,150],[-106,106]]",circle,green,hori,left,"[0,150]","[-106,106]",left,1,,,,,,001,2025-03-17_12h54.12.187,SL_base_41,2021.2.3,Win32,58.70267097,1.0068,,,93,0,93,0,1,,,,,,,,
,,"[""circle"",""no_dis"",""vert"",""up"",[99999,99999],[106,106]]",circle,no_dis,vert,up,"[99999,99999]","[106,106]",up,1,,,,,,001,2025-03-17_12h54.12.187,SL_base_41,2021.2.3,Win32,58.70267097,1.5404,,,94,0,94,0,1,,,,,,,,
,,"[""circle"",""red"",""vert"",""up"",[106,-106],[-106,-106]]",circle,red,vert,up,"[106,-106]","[-106,-106]",up,1,,,,,,001,2025-03-17_12h54.12.187,SL_base_41,2021.2.3,Win32,58.70267097,1.2905,,,95,0,95,0,1,,,,,,,,
,,"[""circle"",""red"",""hori"",""left"",[0,-150],[0,150]]",circle,red,hori,left,"[0,-150]","[0,150]",left,1,,,,,,001,2025-03-17_12h54.12.187,SL_base_41,2021.2.3,Win32,58.70267097,1.0153,,,96,0,96,0,1,,,,,,,,
,,"[""diamond"",""red"",""hori"",""left"",[106,-106],[-150,0]]",diamond,red,hori,left,"[106,-106]","[-150,0]",left,1,,,,,,001,2025-03-17_12h54.12.187,SL_base_41,2021.2.3,Win32,58.70267097,1.8478,,,97,0,97,0,1,,,,,,,,
,,"[""diamond"",""green"",""vert"",""up"",[-106,-106],[0,-150]]",diamond,green,vert,up,"[-106,-106]","[0,-150]",up,1,,,,,,001,2025-03-17_12h54.12.187,SL_base_41,2021.2.3,Win32,58.70267097,1.4324,,,98,0,98,0,1,,,,,,,,
,,"[""circle"",""green"",""vert"",""up"",[0,-150],[0,150]]",circle,green,vert,up,"[0,-150]","[0,150]",up,1,,,,,,001,2025-03-17_12h54.12.187,SL_base_41,2021.2.3,Win32,58.70267097,1.7702,,,99,0,99,0,1,,,,,,,,
,,"[""diamond"",""no_dis"",""vert"",""up"",[99999,99999],[106,106]]",diamond,no_dis,vert,up,"[99999,99999]","[106,106]",up,1,,,,,,001,2025-03-17_12h54.12.187,SL_base_41,2021.2.3,Win32,58.70267097,1.4107,,,100,0,100,0,1,,,,,,,,
,,"[""diamond"",""no_dis"",""vert"",""up"",[99999,99999],[0,150]]",diamond,no_dis,vert,up,"[99999,99999]","[0,150]",up,1,,,,,,001,2025-03-17_12h54.12.187,SL_base_41,2021.2.3,Win32,58.70267097,2.0205,,,101,0,101,0,1,,,,,,,,
,,"[""diamond"",""red"",""hori"",""left"",[-150,0],[0,-150]]",diamond,red,hori,left,"[-150,0]","[0,-150]",left,1,,,,,,001,2025-03-17_12h54.12.187,SL_base_41,2021.2.3,Win32,58.70267097,1.8278,,,102,0,102,0,1,,,,,,,,
,,"[""diamond"",""red"",""hori"",""left"",[106,-106],[0,150]]",diamond,red,hori,left,"[106,-106]","[0,150]",left,1,,,,,,001,2025-03-17_12h54.12.187,SL_base_41,2021.2.3,Win32,58.70267097,1.6188,,,103,0,103,0,1,,,,,,,,
,,"[""circle"",""green"",""vert"",""up"",[-106,106],[106,106]]",circle,green,vert,up,"[-106,106]","[106,106]",up,1,,,,,,001,2025-03-17_12h54.12.187,SL_base_41,2021.2.3,Win32,58.70267097,2.3316,,,104,0,104,0,1,,,,,,,,
,,"[""diamond"",""no_dis"",""hori"",""left"",[99999,99999],[-106,-106]]",diamond,no_dis,hori,left,"[99999,99999]","[-106,-106]",left,1,,,,,,001,2025-03-17_12h54.12.187,SL_base_41,2021.2.3,Win32,58.70267097,1.3071,,,105,0,105,0,1,,,,,,,,
,,"[""diamond"",""red"",""hori"",""left"",[-106,106],[-106,-106]]",diamond,red,hori,left,"[-106,106]","[-106,-106]",left,1,,,,,,001,2025-03-17_12h54.12.187,SL_base_41,2021.2.3,Win32,58.70267097,1.436,,,106,0,106,0,1,,,,,,,,
,,"[""circle"",""no_dis"",""hori"",""left"",[99999,99999],[0,-150]]",circle,no_dis,hori,left,"[99999,99999]","[0,-150]",left,1,,,,,,001,2025-03-17_12h54.12.187,SL_base_41,2021.2.3,Win32,58.70267097,1.1363,,,107,0,107,0,1,,,,,,,,
,,"[""circle"",""no_dis"",""vert"",""up"",[99999,99999],[-106,106]]",circle,no_dis,vert,up,"[99999,99999]","[-106,106]",up,1,,,,,,001,2025-03-17_12h54.12.187,SL_base_41,2021.2.3,Win32,58.70267097,1.5025,,,108,0,108,0,1,,,,,,,,
,,"[""diamond"",""no_dis"",""hori"",""left"",[99999,99999],[106,106]]",diamond,no_dis,hori,left,"[99999,99999]","[106,106]",left,1,,,,,,001,2025-03-17_12h54.12.187,SL_base_41,2021.2.3,Win32,58.70267097,1.8782,,,109,0,109,0,1,,,,,,,,
,,"[""diamond"",""red"",""hori"",""left"",[106,-106],[0,150]]",diamond,red,hori,left,"[106,-106]","[0,150]",left,1,,,,,,001,2025-03-17_12h54.12.187,SL_base_41,2021.2.3,Win32,58.70267097,2.1388,,,110,0,110,0,1,,,,,,,,
,,"[""circle"",""green"",""hori"",""left"",[0,-150],[-106,106]]",circle,green,hori,left,"[0,-150]","[-106,106]",left,1,,,,,,001,2025-03-17_12h54.12.187,SL_base_41,2021.2.3,Win32,58.70267097,1.305,,,111,0,111,0,1,,,,,,,,
,,"[""diamond"",""red"",""hori"",""left"",[106,-106],[0,150]]",diamond,red,hori,left,"[106,-106]","[0,150]",left,1,,,,,,001,2025-03-17_12h54.12.187,SL_base_41,2021.2.3,Win32,58.70267097,1.6515,,,112,0,112,0,1,,,,,,,,
,,"[""diamond"",""no_dis"",""vert"",""up"",[99999,99999],[0,-150]]",diamond,no_dis,vert,up,"[99999,99999]","[0,-150]",up,1,,,,,,001,2025-03-17_12h54.12.187,SL_base_41,2021.2.3,Win32,58.70267097,1.349,,,113,0,113,0,1,,,,,,,,
,,"[""circle"",""green"",""vert"",""up"",[-150,0],[106,106]]",circle,green,vert,up,"[-150,0]","[106,106]",up,1,,,,,,001,2025-03-17_12h54.12.187,SL_base_41,2021.2.3,Win32,58.70267097,2.5155,,,114,0,114,0,1,,,,,,,,
,,"[""circle"",""green"",""hori"",""left"",[106,-106],[-106,106]]",circle,green,hori,left,"[106,-106]","[-106,106]",left,1,,,,,,001,2025-03-17_12h54.12.187,SL_base_41,2021.2.3,Win32,58.70267097,1.2861,,,115,0,115,0,1,,,,,,,,
,,"[""diamond"",""no_dis"",""vert"",""up"",[99999,99999],[106,-106]]",diamond,no_dis,vert,up,"[99999,99999]","[106,-106]",up,1,,,,,,001,2025-03-17_12h54.12.187,SL_base_41,2021.2.3,Win32,58.70267097,1.3449,,,116,0,116,0,1,,,,,,,,
,,"[""circle"",""red"",""hori"",""left"",[106,106],[-150,0]]",circle,red,hori,left,"[106,106]","[-150,0]",left,1,,,,,,001,2025-03-17_12h54.12.187,SL_base_41,2021.2.3,Win32,58.70267097,1.6705,,,117,0,117,0,1,,,,,,,,
,,"[""circle"",""green"",""vert"",""up"",[106,-106],[0,150]]",circle,green,vert,up,"[106,-106]","[0,150]",up,1,,,,,,001,2025-03-17_12h54.12.187,SL_base_41,2021.2.3,Win32,58.70267097,1.1732,,,118,0,118,0,1,,,,,,,,
,,"[""diamond"",""no_dis"",""hori"",""left"",[99999,99999],[150,0]]",diamond,no_dis,hori,left,"[99999,99999]","[150,0]",left,1,,,,,,001,2025-03-17_12h54.12.187,SL_base_41,2021.2.3,Win32,58.70267097,1.3484,,,119,0,119,0,1,,,,,,,,
,,"[""circle"",""red"",""hori"",""left"",[106,-106],[0,150]]",circle,red,hori,left,"[106,-106]","[0,150]",up,0,,,,,,001,2025-03-17_12h54.12.187,SL_base_41,2021.2.3,Win32,58.70267097,1.1241,,,120,0,120,0,1,,,,,,,,
,,"[""diamond"",""red"",""hori"",""left"",[106,-106],[-150,0]]",diamond,red,hori,left,"[106,-106]","[-150,0]",left,1,,,,,,001,2025-03-17_12h54.12.187,SL_base_41,2021.2.3,Win32,58.70267097,1.7633,,,121,0,121,0,1,,,,,,,,
,,"[""diamond"",""no_dis"",""hori"",""left"",[99999,99999],[0,-150]]",diamond,no_dis,hori,left,"[99999,99999]","[0,-150]",left,1,,,,,,001,2025-03-17_12h54.12.187,SL_base_41,2021.2.3,Win32,58.70267097,1.1541,,,122,0,122,0,1,,,,,,,,
,,"[""circle"",""red"",""hori"",""left"",[106,-106],[150,0]]",circle,red,hori,left,"[106,-106]","[150,0]",left,1,,,,,,001,2025-03-17_12h54.12.187,SL_base_41,2021.2.3,Win32,58.70267097,2.0482,,,123,0,123,0,1,,,,,,,,
,,"[""diamond"",""red"",""vert"",""up"",[0,-150],[-150,0]]",diamond,red,vert,up,"[0,-150]","[-150,0]",up,1,,,,,,001,2025-03-17_12h54.12.187,SL_base_41,2021.2.3,Win32,58.70267097,1.5238,,,124,0,124,0,1,,,,,,,,
,,"[""circle"",""red"",""vert"",""up"",[106,106],[-150,0]]",circle,red,vert,up,"[106,106]","[-150,0]",up,1,,,,,,001,2025-03-17_12h54.12.187,SL_base_41,2021.2.3,Win32,58.70267097,2.3483,,,125,0,125,0,1,,,,,,,,
,,"[""diamond"",""red"",""vert"",""up"",[150,0],[106,-106]]",diamond,red,vert,up,"[150,0]","[106,-106]",,0,,,,,,001,2025-03-17_12h54.12.187,SL_base_41,2021.2.3,Win32,58.70267097,,,,126,0,126,0,1,,,,,,,,
,,"[""circle"",""no_dis"",""vert"",""up"",[99999,99999],[-106,-106]]",circle,no_dis,vert,up,"[99999,99999]","[-106,-106]",up,1,,,,,,001,2025-03-17_12h54.12.187,SL_base_41,2021.2.3,Win32,58.70267097,1.7539,,,127,0,127,0,1,,,,,,,,
,,,,,,,,,,,,,,,,001,2025-03-17_12h54.12.187,SL_base_41,2021.2.3,Win32,58.70267097,,,,,,,,,1,space,74.4278,0,0,0,0,1
,,"[""diamond"",""red"",""hori"",""left"",[0,150],[106,-106]]",diamond,red,hori,left,"[0,150]","[106,-106]",left,1,,,,,,001,2025-03-17_12h54.12.187,SL_base_41,2021.2.3,Win32,58.70267097,1.7906,,,0,0,0,0,1,,,,,,,,
,,"[""circle"",""no_dis"",""vert"",""up"",[99999,99999],[-150,0]]",circle,no_dis,vert,up,"[99999,99999]","[-150,0]",up,1,,,,,,001,2025-03-17_12h54.12.187,SL_base_41,2021.2.3,Win32,58.70267097,1.1165,,,1,0,1,0,1,,,,,,,,
,,"[""diamond"",""green"",""vert"",""up"",[-106,-106],[0,-150]]",diamond,green,vert,up,"[-106,-106]","[0,-150]",up,1,,,,,,001,2025-03-17_12h54.12.187,SL_base_41,2021.2.3,Win32,58.70267097,1.4408,,,2,0,2,0,1,,,,,,,,
,,"[""circle"",""no_dis"",""hori"",""left"",[99999,99999],[0,150]]",circle,no_dis,hori,left,"[99999,99999]","[0,150]",left,1,,,,,,001,2025-03-17_12h54.12.187,SL_base_41,2021.2.3,Win32,58.70267097,1.1795,,,3,0,3,0,1,,,,,,,,
,,"[""circle"",""red"",""vert"",""up"",[106,106],[-150,0]]",circle,red,vert,up,"[106,106]","[-150,0]",up,1,,,,,,001,2025-03-17_12h54.12.187,SL_base_41,2021.2.3,Win32,58.70267097,1.1474,,,4,0,4,0,1,,,,,,,,
,,"[""circle"",""green"",""vert"",""up"",[-106,106],[106,106]]",circle,green,vert,up,"[-106,106]","[106,106]",up,1,,,,,,001,2025-03-17_12h54.12.187,SL_base_41,2021.2.3,Win32,58.70267097,1.6448,,,5,0,5,0,1,,,,,,,,
,,"[""diamond"",""green"",""hori"",""left"",[-106,106],[150,0]]",diamond,green,hori,left,"[-106,106]","[150,0]",left,1,,,,,,001,2025-03-17_12h54.12.187,SL_base_41,2021.2.3,Win32,58.70267097,1.38,,,6,0,6,0,1,,,,,,,,
,,"[""diamond"",""red"",""vert"",""up"",[106,-106],[0,-150]]",diamond,red,vert,up,"[106,-106]","[0,-150]",up,1,,,,,,001,2025-03-17_12h54.12.187,SL_base_41,2021.2.3,Win32,58.70267097,2.0325,,,7,0,7,0,1,,,,,,,,
,,"[""circle"",""green"",""vert"",""up"",[-106,-106],[-150,0]]",circle,green,vert,up,"[-106,-106]","[-150,0]",up,1,,,,,,001,2025-03-17_12h54.12.187,SL_base_41,2021.2.3,Win32,58.70267097,1.0289,,,8,0,8,0,1,,,,,,,,
,,"[""diamond"",""red"",""vert"",""up"",[150,0],[106,-106]]",diamond,red,vert,up,"[150,0]","[106,-106]",up,1,,,,,,001,2025-03-17_12h54.12.187,SL_base_41,2021.2.3,Win32,58.70267097,1.3648,,,9,0,9,0,1,,,,,,,,
,,"[""circle"",""green"",""vert"",""up"",[106,-106],[-106,-106]]",circle,green,vert,up,"[106,-106]","[-106,-106]",up,1,,,,,,001,2025-03-17_12h54.12.187,SL_base_41,2021.2.3,Win32,58.70267097,1.2135,,,10,0,10,0,1,,,,,,,,
,,"[""diamond"",""no_dis"",""vert"",""up"",[99999,99999],[0,-150]]",diamond,no_dis,vert,up,"[99999,99999]","[0,-150]",up,1,,,,,,001,2025-03-17_12h54.12.187,SL_base_41,2021.2.3,Win32,58.70267097,1.3824,,,11,0,11,0,1,,,,,,,,
,,"[""circle"",""green"",""vert"",""up"",[106,-106],[0,150]]",circle,green,vert,up,"[106,-106]","[0,150]",up,1,,,,,,001,2025-03-17_12h54.12.187,SL_base_41,2021.2.3,Win32,58.70267097,2.0338,,,12,0,12,0,1,,,,,,,,
,,"[""circle"",""no_dis"",""vert"",""up"",[99999,99999],[150,0]]",circle,no_dis,vert,up,"[99999,99999]","[150,0]",up,1,,,,,,001,2025-03-17_12h54.12.187,SL_base_41,2021.2.3,Win32,58.70267097,1.6723,,,13,0,13,0,1,,,,,,,,
,,"[""diamond"",""red"",""hori"",""left"",[0,-150],[-106,-106]]",diamond,red,hori,left,"[0,-150]","[-106,-106]",left,1,,,,,,001,2025-03-17_12h54.12.187,SL_base_41,2021.2.3,Win32,58.70267097,1.9192,,,14,0,14,0,1,,,,,,,,
,,"[""diamond"",""green"",""hori"",""left"",[106,-106],[106,106]]",diamond,green,hori,left,"[106,-106]","[106,106]",left,1,,,,,,001,2025-03-17_12h54.12.187,SL_base_41,2021.2.3,Win32,58.70267097,1.6214,,,15,0,15,0,1,,,,,,,,
,,"[""diamond"",""no_dis"",""vert"",""up"",[99999,99999],[106,106]]",diamond,no_dis,vert,up,"[99999,99999]","[106,106]",up,1,,,,,,001,2025-03-17_12h54.12.187,SL_base_41,2021.2.3,Win32,58.70267097,1.5803,,,16,0,16,0,1,,,,,,,,
,,"[""circle"",""green"",""vert"",""up"",[0,150],[0,-150]]",circle,green,vert,up,"[0,150]","[0,-150]",up,1,,,,,,001,2025-03-17_12h54.12.187,SL_base_41,2021.2.3,Win32,58.70267097,1.2489,,,17,0,17,0,1,,,,,,,,
,,"[""circle"",""no_dis"",""vert"",""up"",[99999,99999],[-150,0]]",circle,no_dis,vert,up,"[99999,99999]","[-150,0]",up,1,,,,,,001,2025-03-17_12h54.12.187,SL_base_41,2021.2.3,Win32,58.70267097,1.5467,,,18,0,18,0,1,,,,,,,,
,,"[""diamond"",""green"",""vert"",""up"",[106,-106],[0,150]]",diamond,green,vert,up,"[106,-106]","[0,150]",up,1,,,,,,001,2025-03-17_12h54.12.187,SL_base_41,2021.2.3,Win32,58.70267097,1.0618,,,19,0,19,0,1,,,,,,,,
,,"[""diamond"",""red"",""hori"",""left"",[106,-106],[-150,0]]",diamond,red,hori,left,"[106,-106]","[-150,0]",left,1,,,,,,001,2025-03-17_12h54.12.187,SL_base_41,2021.2.3,Win32,58.70267097,1.4502,,,20,0,20,0,1,,,,,,,,
,,"[""circle"",""green"",""vert"",""up"",[0,-150],[0,150]]",circle,green,vert,up,"[0,-150]","[0,150]",up,1,,,,,,001,2025-03-17_12h54.12.187,SL_base_41,2021.2.3,Win32,58.70267097,1.2126,,,21,0,21,0,1,,,,,,,,
,,"[""diamond"",""red"",""hori"",""left"",[-106,106],[-106,-106]]",diamond,red,hori,left,"[-106,106]","[-106,-106]",left,1,,,,,,001,2025-03-17_12h54.12.187,SL_base_41,2021.2.3,Win32,58.70267097,1.5224,,,22,0,22,0,1,,,,,,,,
,,"[""circle"",""red"",""hori"",""left"",[106,-106],[0,150]]",circle,red,hori,left,"[106,-106]","[0,150]",left,1,,,,,,001,2025-03-17_12h54.12.187,SL_base_41,2021.2.3,Win32,58.70267097,1.2995,,,23,0,23,0,1,,,,,,,,
,,"[""circle"",""no_dis"",""hori"",""left"",[99999,99999],[-150,0]]",circle,no_dis,hori,left,"[99999,99999]","[-150,0]",left,1,,,,,,001,2025-03-17_12h54.12.187,SL_base_41,2021.2.3,Win32,58.70267097,1.4242,,,24,0,24,0,1,,,,,,,,
,,"[""diamond"",""red"",""vert"",""up"",[0,-150],[-150,0]]",diamond,red,vert,up,"[0,-150]","[-150,0]",up,1,,,,,,001,2025-03-17_12h54.12.187,SL_base_41,2021.2.3,Win32,58.70267097,1.48,,,25,0,25,0,1,,,,,,,,
,,"[""circle"",""no_dis"",""vert"",""up"",[99999,99999],[106,106]]",circle,no_dis,vert,up,"[99999,99999]","[106,106]",up,1,,,,,,001,2025-03-17_12h54.12.187,SL_base_41,2021.2.3,Win32,58.70267097,1.698,,,26,0,26,0,1,,,,,,,,
,,"[""circle"",""red"",""hori"",""left"",[106,-106],[150,0]]",circle,red,hori,left,"[106,-106]","[150,0]",left,1,,,,,,001,2025-03-17_12h54.12.187,SL_base_41,2021.2.3,Win32,58.70267097,1.3359,,,27,0,27,0,1,,,,,,,,
,,"[""diamond"",""no_dis"",""hori"",""left"",[99999,99999],[0,150]]",diamond,no_dis,hori,left,"[99999,99999]","[0,150]",left,1,,,,,,001,2025-03-17_12h54.12.187,SL_base_41,2021.2.3,Win32,58.70267097,1.6395,,,28,0,28,0,1,,,,,,,,
,,"[""circle"",""red"",""vert"",""up"",[-106,-106],[150,0]]",circle,red,vert,up,"[-106,-106]","[150,0]",up,1,,,,,,001,2025-03-17_12h54.12.187,SL_base_41,2021.2.3,Win32,58.70267097,1.3631,,,29,0,29,0,1,,,,,,,,
,,"[""diamond"",""no_dis"",""hori"",""left"",[99999,99999],[106,-106]]",diamond,no_dis,hori,left,"[99999,99999]","[106,-106]",left,1,,,,,,001,2025-03-17_12h54.12.187,SL_base_41,2021.2.3,Win32,58.70267097,2.5309,,,30,0,30,0,1,,,,,,,,
,,"[""circle"",""green"",""hori"",""left"",[150,0],[106,-106]]",circle,green,hori,left,"[150,0]","[106,-106]",left,1,,,,,,001,2025-03-17_12h54.12.187,SL_base_41,2021.2.3,Win32,58.70267097,1.0655,,,31,0,31,0,1,,,,,,,,
,,"[""circle"",""no_dis"",""vert"",""up"",[99999,99999],[-106,-106]]",circle,no_dis,vert,up,"[99999,99999]","[-106,-106]",up,1,,,,,,001,2025-03-17_12h54.12.187,SL_base_41,2021.2.3,Win32,58.70267097,1.126,,,32,0,32,0,1,,,,,,,,
,,"[""diamond"",""green"",""hori"",""left"",[106,-106],[-106,-106]]",diamond,green,hori,left,"[106,-106]","[-106,-106]",left,1,,,,,,001,2025-03-17_12h54.12.187,SL_base_41,2021.2.3,Win32,58.70267097,1.4115,,,33,0,33,0,1,,,,,,,,
,,"[""circle"",""green"",""hori"",""left"",[106,-106],[-106,106]]",circle,green,hori,left,"[106,-106]","[-106,106]",left,1,,,,,,001,2025-03-17_12h54.12.187,SL_base_41,2021.2.3,Win32,58.70267097,1.0395,,,34,0,34,0,1,,,,,,,,
,,"[""circle"",""green"",""hori"",""left"",[-150,0],[0,-150]]",circle,green,hori,left,"[-150,0]","[0,-150]",left,1,,,,,,001,2025-03-17_12h54.12.187,SL_base_41,2021.2.3,Win32,58.70267097,1.4638,,,35,0,35,0,1,,,,,,,,
,,"[""diamond"",""green"",""vert"",""up"",[106,-106],[-106,-106]]",diamond,green,vert,up,"[106,-106]","[-106,-106]",up,1,,,,,,001,2025-03-17_12h54.12.187,SL_base_41,2021.2.3,Win32,58.70267097,1.6627,,,36,0,36,0,1,,,,,,,,
,,"[""diamond"",""red"",""hori"",""left"",[106,-106],[0,150]]",diamond,red,hori,left,"[106,-106]","[0,150]",left,1,,,,,,001,2025-03-17_12h54.12.187,SL_base_41,2021.2.3,Win32,58.70267097,1.532,,,37,0,37,0,1,,,,,,,,
,,"[""diamond"",""green"",""hori"",""left"",[106,-106],[-106,106]]",diamond,green,hori,left,"[106,-106]","[-106,106]",left,1,,,,,,001,2025-03-17_12h54.12.187,SL_base_41,2021.2.3,Win32,58.70267097,1.2195,,,38,0,38,0,1,,,,,,,,
,,"[""diamond"",""no_dis"",""vert"",""up"",[99999,99999],[0,150]]",diamond,no_dis,vert,up,"[99999,99999]","[0,150]",up,1,,,,,,001,2025-03-17_12h54.12.187,SL_base_41,2021.2.3,Win32,58.70267097,1.611,,,39,0,39,0,1,,,,,,,,
,,"[""circle"",""green"",""hori"",""left"",[0,-150],[-106,106]]",circle,green,hori,left,"[0,-150]","[-106,106]",left,1,,,,,,001,2025-03-17_12h54.12.187,SL_base_41,2021.2.3,Win32,58.70267097,1.7635,,,40,0,40,0,1,,,,,,,,
,,"[""circle"",""red"",""hori"",""left"",[106,-106],[150,0]]",circle,red,hori,left,"[106,-106]","[150,0]",left,1,,,,,,001,2025-03-17_12h54.12.187,SL_base_41,2021.2.3,Win32,58.70267097,1.2827,,,41,0,41,0,1,,,,,,,,
,,"[""diamond"",""no_dis"",""hori"",""left"",[99999,99999],[-106,106]]",diamond,no_dis,hori,left,"[99999,99999]","[-106,106]",left,1,,,,,,001,2025-03-17_12h54.12.187,SL_base_41,2021.2.3,Win32,58.70267097,1.4791,,,42,0,42,0,1,,,,,,,,
,,"[""diamond"",""no_dis"",""vert"",""up"",[99999,99999],[106,-106]]",diamond,no_dis,vert,up,"[99999,99999]","[106,-106]",up,1,,,,,,001,2025-03-17_12h54.12.187,SL_base_41,2021.2.3,Win32,58.70267097,1.4453,,,43,0,43,0,1,,,,,,,,
,,"[""circle"",""no_dis"",""vert"",""up"",[99999,99999],[-150,0]]",circle,no_dis,vert,up,"[99999,99999]","[-150,0]",up,1,,,,,,001,2025-03-17_12h54.12.187,SL_base_41,2021.2.3,Win32,58.70267097,1.2457,,,44,0,44,0,1,,,,,,,,
,,"[""diamond"",""no_dis"",""hori"",""left"",[99999,99999],[0,-150]]",diamond,no_dis,hori,left,"[99999,99999]","[0,-150]",left,1,,,,,,001,2025-03-17_12h54.12.187,SL_base_41,2021.2.3,Win32,58.70267097,1.3041,,,45,0,45,0,1,,,,,,,,
,,"[""circle"",""red"",""hori"",""left"",[106,106],[0,-150]]",circle,red,hori,left,"[106,106]","[0,-150]",left,1,,,,,,001,2025-03-17_12h54.12.187,SL_base_41,2021.2.3,Win32,58.70267097,1.5477,,,46,0,46,0,1,,,,,,,,
,,"[""circle"",""red"",""hori"",""left"",[106,-106],[0,150]]",circle,red,hori,left,"[106,-106]","[0,150]",left,1,,,,,,001,2025-03-17_12h54.12.187,SL_base_41,2021.2.3,Win32,58.70267097,1.4076,,,47,0,47,0,1,,,,,,,,
,,"[""circle"",""no_dis"",""hori"",""left"",[99999,99999],[-106,-106]]",circle,no_dis,hori,left,"[99999,99999]","[-106,-106]",left,1,,,,,,001,2025-03-17_12h54.12.187,SL_base_41,2021.2.3,Win32,58.70267097,1.0753,,,48,0,48,0,1,,,,,,,,
,,"[""diamond"",""red"",""vert"",""up"",[106,-106],[-106,106]]",diamond,red,vert,up,"[106,-106]","[-106,106]",up,1,,,,,,001,2025-03-17_12h54.12.187,SL_base_41,2021.2.3,Win32,58.70267097,1.7297,,,49,0,49,0,1,,,,,,,,
,,"[""diamond"",""green"",""vert"",""up"",[106,-106],[0,150]]",diamond,green,vert,up,"[106,-106]","[0,150]",left,0,,,,,,001,2025-03-17_12h54.12.187,SL_base_41,2021.2.3,Win32,58.70267097,1.5612,,,50,0,50,0,1,,,,,,,,
,,"[""circle"",""red"",""hori"",""left"",[0,-150],[0,150]]",circle,red,hori,left,"[0,-150]","[0,150]",left,1,,,,,,001,2025-03-17_12h54.12.187,SL_base_41,2021.2.3,Win32,58.70267097,2.3487,,,51,0,51,0,1,,,,,,,,
,,"[""diamond"",""green"",""hori"",""left"",[0,-150],[106,-106]]",diamond,green,hori,left,"[0,-150]","[106,-106]",left,1,,,,,,001,2025-03-17_12h54.12.187,SL_base_41,2021.2.3,Win32,58.70267097,1.3214,,,52,0,52,0,1,,,,,,,,
,,"[""diamond"",""red"",""hori"",""left"",[-150,0],[-106,106]]",diamond,red,hori,left,"[-150,0]","[-106,106]",left,1,,,,,,001,2025-03-17_12h54.12.187,SL_base_41,2021.2.3,Win32,58.70267097,2.078,,,53,0,53,0,1,,,,,,,,
,,"[""circle"",""green"",""hori"",""left"",[150,0],[-106,-106]]",circle,green,hori,left,"[150,0]","[-106,-106]",left,1,,,,,,001,2025-03-17_12h54.12.187,SL_base_41,2021.2.3,Win32,58.70267097,1.7594,,,54,0,54,0,1,,,,,,,,
,,"[""diamond"",""red"",""hori"",""left"",[106,-106],[-150,0]]",diamond,red,hori,left,"[106,-106]","[-150,0]",left,1,,,,,,001,2025-03-17_12h54.12.187,SL_base_41,2021.2.3,Win32,58.70267097,1.7081,,,55,0,55,0,1,,,,,,,,
,,"[""diamond"",""green"",""hori"",""left"",[0,150],[150,0]]",diamond,green,hori,left,"[0,150]","[150,0]",left,1,,,,,,001,2025-03-17_12h54.12.187,SL_base_41,2021.2.3,Win32,58.70267097,1.3283,,,56,0,56,0,1,,,,,,,,
,,"[""diamond"",""red"",""vert"",""up"",[150,0],[-150,0]]",diamond,red,vert,up,"[150,0]","[-150,0]",up,1,,,,,,001,2025-03-17_12h54.12.187,SL_base_41,2021.2.3,Win32,58.70267097,1.5366,,,57,0,57,0,1,,,,,,,,
,,"[""diamond"",""red"",""vert"",""up"",[106,106],[0,-150]]",diamond,red,vert,up,"[106,106]","[0,-150]",up,1,,,,,,001,2025-03-17_12h54.12.187,SL_base_41,2021.2.3,Win32,58.70267097,1.6446,,,58,0,58,0,1,,,,,,,,
,,"[""circle"",""no_dis"",""hori"",""left"",[99999,99999],[106,106]]",circle,no_dis,hori,left,"[99999,99999]","[106,106]",left,1,,,,,,001,2025-03-17_12h54.12.187,SL_base_41,2021.2.3,Win32,58.70267097,1.3427,,,59,0,59,0,1,,,,,,,,
,,"[""diamond"",""green"",""vert"",""up"",[106,-106],[-150,0]]",diamond,green,vert,up,"[106,-106]","[-150,0]",up,1,,,,,,001,2025-03-17_12h54.12.187,SL_base_41,2021.2.3,Win32,58.70267097,1.0473,,,60,0,60,0,1,,,,,,,,
,,"[""circle"",""green"",""vert"",""up"",[-150,0],[0,-150]]",circle,green,vert,up,"[-150,0]","[0,-150]",up,1,,,,,,001,2025-03-17_12h54.12.187,SL_base_41,2021.2.3,Win32,58.70267097,1.1205,,,61,0,61,0,1,,,,,,,,
,,"[""circle"",""red"",""vert"",""up"",[106,-106],[-106,-106]]",circle,red,vert,up,"[106,-106]","[-106,-106]",up,1,,,,,,001,2025-03-17_12h54.12.187,SL_base_41,2021.2.3,Win32,58.70267097,1.8417,,,62,0,62,0,1,,,,,,,,
,,"[""diamond"",""no_dis"",""vert"",""up"",[99999,99999],[106,106]]",diamond,no_dis,vert,up,"[99999,99999]","[106,106]",up,1,,,,,,001,2025-03-17_12h54.12.187,SL_base_41,2021.2.3,Win32,58.70267097,1.286,,,63,0,63,0,1,,,,,,,,
,,"[""circle"",""green"",""vert"",""up"",[106,106],[-106,106]]",circle,green,vert,up,"[106,106]","[-106,106]",up,1,,,,,,001,2025-03-17_12h54.12.187,SL_base_41,2021.2.3,Win32,58.70267097,2.0746,,,64,0,64,0,1,,,,,,,,
,,"[""diamond"",""green"",""hori"",""left"",[106,106],[-106,-106]]",diamond,green,hori,left,"[106,106]","[-106,-106]",left,1,,,,,,001,2025-03-17_12h54.12.187,SL_base_41,2021.2.3,Win32,58.70267097,1.6462,,,65,0,65,0,1,,,,,,,,
,,"[""diamond"",""green"",""vert"",""up"",[0,150],[106,106]]",diamond,green,vert,up,"[0,150]","[106,106]",up,1,,,,,,001,2025-03-17_12h54.12.187,SL_base_41,2021.2.3,Win32,58.70267097,1.2558,,,66,0,66,0,1,,,,,,,,
,,"[""circle"",""red"",""hori"",""left"",[-106,-106],[106,-106]]",circle,red,hori,left,"[-106,-106]","[106,-106]",left,1,,,,,,001,2025-03-17_12h54.12.187,SL_base_41,2021.2.3,Win32,58.70267097,1.54,,,67,0,67,0,1,,,,,,,,
,,"[""diamond"",""red"",""hori"",""left"",[106,-106],[0,150]]",diamond,red,hori,left,"[106,-106]","[0,150]",left,1,,,,,,001,2025-03-17_12h54.12.187,SL_base_41,2021.2.3,Win32,58.70267097,1.5008,,,68,0,68,0,1,,,,,,,,
,,"[""circle"",""green"",""hori"",""left"",[106,-106],[0,150]]",circle,green,hori,left,"[106,-106]","[0,150]",left,1,,,,,,001,2025-03-17_12h54.12.187,SL_base_41,2021.2.3,Win32,58.70267097,1.7488,,,69,0,69,0,1,,,,,,,,
,,"[""circle"",""no_dis"",""vert"",""up"",[99999,99999],[0,150]]",circle,no_dis,vert,up,"[99999,99999]","[0,150]",up,1,,,,,,001,2025-03-17_12h54.12.187,SL_base_41,2021.2.3,Win32,58.70267097,1.8649,,,70,0,70,0,1,,,,,,,,
,,"[""diamond"",""green"",""vert"",""up"",[-150,0],[-106,106]]",diamond,green,vert,up,"[-150,0]","[-106,106]",up,1,,,,,,001,2025-03-17_12h54.12.187,SL_base_41,2021.2.3,Win32,58.70267097,1.7565,,,71,0,71,0,1,,,,,,,,
,,"[""circle"",""red"",""vert"",""up"",[0,150],[-106,-106]]",circle,red,vert,up,"[0,150]","[-106,-106]",up,1,,,,,,001,2025-03-17_12h54.12.187,SL_base_41,2021.2.3,Win32,58.70267097,1.1545,,,72,0,72,0,1,,,,,,,,
,,"[""diamond"",""green"",""hori"",""left"",[150,0],[0,-150]]",diamond,green,hori,left,"[150,0]","[0,-150]",left,1,,,,,,001,2025-03-17_12h54.12.187,SL_base_41,2021.2.3,Win32,58.70267097,1.4579,,,73,0,73,0,1,,,,,,,,
,,"[""circle"",""red"",""hori"",""left"",[-106,106],[106,106]]",circle,red,hori,left,"[-106,106]","[106,106]",left,1,,,,,,001,2025-03-17_12h54.12.187,SL_base_41,2021.2.3,Win32,58.70267097,1.7374,,,74,0,74,0,1,,,,,,,,
,,"[""circle"",""red"",""vert"",""up"",[106,-106],[0,-150]]",circle,red,vert,up,"[106,-106]","[0,-150]",up,1,,,,,,001,2025-03-17_12h54.12.187,SL_base_41,2021.2.3,Win32,58.70267097,1.4696,,,75,0,75,0,1,,,,,,,,
,,"[""diamond"",""green"",""vert"",""up"",[-150,0],[150,0]]",diamond,green,vert,up,"[-150,0]","[150,0]",up,1,,,,,,001,2025-03-17_12h54.12.187,SL_base_41,2021.2.3,Win32,58.70267097,1.2024,,,76,0,76,0,1,,,,,,,,
,,"[""diamond"",""green"",""vert"",""up"",[-106,-106],[0,-150]]",diamond,green,vert,up,"[-106,-106]","[0,-150]",up,1,,,,,,001,2025-03-17_12h54.12.187,SL_base_41,2021.2.3,Win32,58.70267097,1.8121,,,77,0,77,0,1,,,,,,,,
,,"[""circle"",""green"",""hori"",""left"",[0,150],[-106,106]]",circle,green,hori,left,"[0,150]","[-106,106]",left,1,,,,,,001,2025-03-17_12h54.12.187,SL_base_41,2021.2.3,Win32,58.70267097,1.2857,,,78,0,78,0,1,,,,,,,,
,,"[""diamond"",""no_dis"",""hori"",""left"",[99999,99999],[106,-106]]",diamond,no_dis,hori,left,"[99999,99999]","[106,-106]",left,1,,,,,,001,2025-03-17_12h54.12.187,SL_base_41,2021.2.3,Win32,58.70267097,1.709,,,79,0,79,0,1,,,,,,,,
,,"[""circle"",""red"",""hori"",""left"",[106,106],[-150,0]]",circle,red,hori,left,"[106,106]","[-150,0]",left,1,,,,,,001,2025-03-17_12h54.12.187,SL_base_41,2021.2.3,Win32,58.70267097,0.9527,,,80,0,80,0,1,,,,,,,,
,,"[""diamond"",""no_dis"",""vert"",""up"",[99999,99999],[0,-150]]",diamond,no_dis,vert,up,"[99999,99999]","[0,-150]",up,1,,,,,,001,2025-03-17_12h54.12.187,SL_base_41,2021.2.3,Win32,58.70267097,1.2614,,,81,0,81,0,1,,,,,,,,
,,"[""diamond"",""green"",""hori"",""left"",[-150,0],[-106,106]]",diamond,green,hori,left,"[-150,0]","[-106,106]",left,1,,,,,,001,2025-03-17_12h54.12.187,SL_base_41,2021.2.3,Win32,58.70267097,1.2876,,,82,0,82,0,1,,,,,,,,
,,"[""circle"",""red"",""vert"",""up"",[-106,-106],[0,-150]]",circle,red,vert,up,"[-106,-106]","[0,-150]",up,1,,,,,,001,2025-03-17_12h54.12.187,SL_base_41,2021.2.3,Win32,58.70267097,1.5843,,,83,0,83,0,1,,,,,,,,
,,"[""diamond"",""no_dis"",""hori"",""left"",[99999,99999],[150,0]]",diamond,no_dis,hori,left,"[99999,99999]","[150,0]",left,1,,,,,,001,2025-03-17_12h54.12.187,SL_base_41,2021.2.3,Win32,58.70267097,1.338,,,84,0,84,0,1,,,,,,,,
,,"[""diamond"",""no_dis"",""vert"",""up"",[99999,99999],[-106,106]]",diamond,no_dis,vert,up,"[99999,99999]","[-106,106]",up,1,,,,,,001,2025-03-17_12h54.12.187,SL_base_41,2021.2.3,Win32,58.70267097,1.5805,,,85,0,85,0,1,,,,,,,,
,,"[""diamond"",""no_dis"",""vert"",""up"",[99999,99999],[150,0]]",diamond,no_dis,vert,up,"[99999,99999]","[150,0]",up,1,,,,,,001,2025-03-17_12h54.12.187,SL_base_41,2021.2.3,Win32,58.70267097,0.9632,,,86,0,86,0,1,,,,,,,,
,,"[""circle"",""red"",""hori"",""left"",[106,-106],[-106,-106]]",circle,red,hori,left,"[106,-106]","[-106,-106]",left,1,,,,,,001,2025-03-17_12h54.12.187,SL_base_41,2021.2.3,Win32,58.70267097,1.2746,,,87,0,87,0,1,,,,,,,,
,,"[""circle"",""no_dis"",""hori"",""left"",[99999,99999],[-106,-106]]",circle,no_dis,hori,left,"[99999,99999]","[-106,-106]",left,1,,,,,,001,2025-03-17_12h54.12.187,SL_base_41,2021.2.3,Win32,58.70267097,1.4207,,,88,0,88,0,1,,,,,,,,
,,"[""circle"",""no_dis"",""hori"",""left"",[99999,99999],[-150,0]]",circle,no_dis,hori,left,"[99999,99999]","[-150,0]",left,1,,,,,,001,2025-03-17_12h54.12.187,SL_base_41,2021.2.3,Win32,58.70267097,2.0006,,,89,0,89,0,1,,,,,,,,
,,"[""circle"",""no_dis"",""hori"",""left"",[99999,99999],[106,-106]]",circle,no_dis,hori,left,"[99999,99999]","[106,-106]",left,1,,,,,,001,2025-03-17_12h54.12.187,SL_base_41,2021.2.3,Win32,58.70267097,1.2035,,,90,0,90,0,1,,,,,,,,
,,"[""circle"",""red"",""vert"",""up"",[-106,106],[-150,0]]",circle,red,vert,up,"[-106,106]","[-150,0]",up,1,,,,,,001,2025-03-17_12h54.12.187,SL_base_41,2021.2.3,Win32,58.70267097,2.8058,,,91,0,91,0,1,,,,,,,,
,,"[""circle"",""green"",""hori"",""left"",[0,-150],[150,0]]",circle,green,hori,left,"[0,-150]","[150,0]",left,1,,,,,,001,2025-03-17_12h54.12.187,SL_base_41,2021.2.3,Win32,58.70267097,1.4368,,,92,0,92,0,1,,,,,,,,
,,"[""circle"",""no_dis"",""vert"",""up"",[99999,99999],[-106,-106]]",circle,no_dis,vert,up,"[99999,99999]","[-106,-106]",up,1,,,,,,001,2025-03-17_12h54.12.187,SL_base_41,2021.2.3,Win32,58.70267097,1.2643,,,93,0,93,0,1,,,,,,,,
,,"[""circle"",""green"",""vert"",""up"",[106,106],[-150,0]]",circle,green,vert,up,"[106,106]","[-150,0]",up,1,,,,,,001,2025-03-17_12h54.12.187,SL_base_41,2021.2.3,Win32,58.70267097,0.9669,,,94,0,94,0,1,,,,,,,,
,,"[""diamond"",""red"",""vert"",""up"",[-106,106],[-150,0]]",diamond,red,vert,up,"[-106,106]","[-150,0]",up,1,,,,,,001,2025-03-17_12h54.12.187,SL_base_41,2021.2.3,Win32,58.70267097,1.9922,,,95,0,95,0,1,,,,,,,,
,,"[""circle"",""no_dis"",""vert"",""up"",[99999,99999],[150,0]]",circle,no_dis,vert,up,"[99999,99999]","[150,0]",up,1,,,,,,001,2025-03-17_12h54.12.187,SL_base_41,2021.2.3,Win32,58.70267097,2.5535,,,96,0,96,0,1,,,,,,,,
,,"[""circle"",""green"",""hori"",""left"",[150,0],[0,150]]",circle,green,hori,left,"[150,0]","[0,150]",left,1,,,,,,001,2025-03-17_12h54.12.187,SL_base_41,2021.2.3,Win32,58.70267097,1.1986,,,97,0,97,0,1,,,,,,,,
,,"[""diamond"",""green"",""vert"",""up"",[-106,-106],[0,150]]",diamond,green,vert,up,"[-106,-106]","[0,150]",up,1,,,,,,001,2025-03-17_12h54.12.187,SL_base_41,2021.2.3,Win32,58.70267097,1.5299,,,98,0,98,0,1,,,,,,,,
,,"[""diamond"",""no_dis"",""hori"",""left"",[99999,99999],[150,0]]",diamond,no_dis,hori,left,"[99999,99999]","[150,0]",left,1,,,,,,001,2025-03-17_12h54.12.187,SL_base_41,2021.2.3,Win32,58.70267097,1.6371,,,99,0,99,0,1,,,,,,,,
,,"[""circle"",""red"",""vert"",""up"",[150,0],[-106,-106]]",circle,red,vert,up,"[150,0]","[-106,-106]",up,1,,,,,,001,2025-03-17_12h54.12.187,SL_base_41,2021.2.3,Win32,58.70267097,1.1901,,,100,0,100,0,1,,,,,,,,
,,"[""diamond"",""red"",""vert"",""up"",[106,-106],[-150,0]]",diamond,red,vert,up,"[106,-106]","[-150,0]",up,1,,,,,,001,2025-03-17_12h54.12.187,SL_base_41,2021.2.3,Win32,58.70267097,1.0965,,,101,0,101,0,1,,,,,,,,
,,"[""circle"",""green"",""hori"",""left"",[0,-150],[-106,-106]]",circle,green,hori,left,"[0,-150]","[-106,-106]",left,1,,,,,,001,2025-03-17_12h54.12.187,SL_base_41,2021.2.3,Win32,58.70267097,1.5902,,,102,0,102,0,1,,,,,,,,
,,"[""circle"",""red"",""vert"",""up"",[-106,-106],[0,150]]",circle,red,vert,up,"[-106,-106]","[0,150]",up,1,,,,,,001,2025-03-17_12h54.12.187,SL_base_41,2021.2.3,Win32,58.70267097,1.4085,,,103,0,103,0,1,,,,,,,,
,,"[""circle"",""no_dis"",""hori"",""left"",[99999,99999],[106,-106]]",circle,no_dis,hori,left,"[99999,99999]","[106,-106]",left,1,,,,,,001,2025-03-17_12h54.12.187,SL_base_41,2021.2.3,Win32,58.70267097,2.3178,,,104,0,104,0,1,,,,,,,,
,,"[""diamond"",""red"",""hori"",""left"",[-150,0],[0,-150]]",diamond,red,hori,left,"[-150,0]","[0,-150]",left,1,,,,,,001,2025-03-17_12h54.12.187,SL_base_41,2021.2.3,Win32,58.70267097,1.5983,,,105,0,105,0,1,,,,,,,,
,,"[""circle"",""no_dis"",""vert"",""up"",[99999,99999],[-106,106]]",circle,no_dis,vert,up,"[99999,99999]","[-106,106]",up,1,,,,,,001,2025-03-17_12h54.12.187,SL_base_41,2021.2.3,Win32,58.70267097,2.0837,,,106,0,106,0,1,,,,,,,,
,,"[""diamond"",""no_dis"",""hori"",""left"",[99999,99999],[0,-150]]",diamond,no_dis,hori,left,"[99999,99999]","[0,-150]",left,1,,,,,,001,2025-03-17_12h54.12.187,SL_base_41,2021.2.3,Win32,58.70267097,1.4884,,,107,0,107,0,1,,,,,,,,
,,"[""diamond"",""green"",""hori"",""left"",[-106,106],[-106,-106]]",diamond,green,hori,left,"[-106,106]","[-106,-106]",left,1,,,,,,001,2025-03-17_12h54.12.187,SL_base_41,2021.2.3,Win32,58.70267097,1.9999,,,108,0,108,0,1,,,,,,,,
,,"[""diamond"",""green"",""hori"",""left"",[0,150],[106,-106]]",diamond,green,hori,left,"[0,150]","[106,-106]",left,1,,,,,,001,2025-03-17_12h54.12.187,SL_base_41,2021.2.3,Win32,58.70267097,1.1836,,,109,0,109,0,1,,,,,,,,
,,"[""circle"",""green"",""hori"",""left"",[106,-106],[0,150]]",circle,green,hori,left,"[106,-106]","[0,150]",left,1,,,,,,001,2025-03-17_12h54.12.187,SL_base_41,2021.2.3,Win32,58.70267097,1.5805,,,110,0,110,0,1,,,,,,,,
,,"[""circle"",""green"",""vert"",""up"",[-150,0],[106,106]]",circle,green,vert,up,"[-150,0]","[106,106]",up,1,,,,,,001,2025-03-17_12h54.12.187,SL_base_41,2021.2.3,Win32,58.70267097,1.5316,,,111,0,111,0,1,,,,,,,,
,,"[""circle"",""red"",""vert"",""up"",[106,106],[-106,106]]",circle,red,vert,up,"[106,106]","[-106,106]",up,1,,,,,,001,2025-03-17_12h54.12.187,SL_base_41,2021.2.3,Win32,58.70267097,2.1397,,,112,0,112,0,1,,,,,,,,
,,"[""diamond"",""red"",""vert"",""up"",[106,-106],[150,0]]",diamond,red,vert,up,"[106,-106]","[150,0]",up,1,,,,,,001,2025-03-17_12h54.12.187,SL_base_41,2021.2.3,Win32,58.70267097,1.6156,,,113,0,113,0,1,,,,,,,,
,,"[""diamond"",""no_dis"",""hori"",""left"",[99999,99999],[106,106]]",diamond,no_dis,hori,left,"[99999,99999]","[106,106]",left,1,,,,,,001,2025-03-17_12h54.12.187,SL_base_41,2021.2.3,Win32,58.70267097,1.7804,,,114,0,114,0,1,,,,,,,,
,,"[""diamond"",""red"",""vert"",""up"",[106,-106],[-150,0]]",diamond,red,vert,up,"[106,-106]","[-150,0]",up,1,,,,,,001,2025-03-17_12h54.12.187,SL_base_41,2021.2.3,Win32,58.70267097,1.4904,,,115,0,115,0,1,,,,,,,,
,,"[""circle"",""no_dis"",""hori"",""left"",[99999,99999],[0,150]]",circle,no_dis,hori,left,"[99999,99999]","[0,150]",left,1,,,,,,001,2025-03-17_12h54.12.187,SL_base_41,2021.2.3,Win32,58.70267097,1.5062,,,116,0,116,0,1,,,,,,,,
,,"[""diamond"",""red"",""vert"",""up"",[-106,106],[150,0]]",diamond,red,vert,up,"[-106,106]","[150,0]",up,1,,,,,,001,2025-03-17_12h54.12.187,SL_base_41,2021.2.3,Win32,58.70267097,1.572,,,117,0,117,0,1,,,,,,,,
,,"[""diamond"",""no_dis"",""hori"",""left"",[99999,99999],[-106,-106]]",diamond,no_dis,hori,left,"[99999,99999]","[-106,-106]",left,1,,,,,,001,2025-03-17_12h54.12.187,SL_base_41,2021.2.3,Win32,58.70267097,1.9812,,,118,0,118,0,1,,,,,,,,
,,"[""diamond"",""no_dis"",""vert"",""up"",[99999,99999],[-106,106]]",diamond,no_dis,vert,up,"[99999,99999]","[-106,106]",up,1,,,,,,001,2025-03-17_12h54.12.187,SL_base_41,2021.2.3,Win32,58.70267097,1.1614,,,119,0,119,0,1,,,,,,,,
,,"[""diamond"",""red"",""hori"",""left"",[106,-106],[0,150]]",diamond,red,hori,left,"[106,-106]","[0,150]",left,1,,,,,,001,2025-03-17_12h54.12.187,SL_base_41,2021.2.3,Win32,58.70267097,1.2447,,,120,0,120,0,1,,,,,,,,
,,"[""circle"",""red"",""vert"",""up"",[0,150],[106,106]]",circle,red,vert,up,"[0,150]","[106,106]",up,1,,,,,,001,2025-03-17_12h54.12.187,SL_base_41,2021.2.3,Win32,58.70267097,1.9401,,,121,0,121,0,1,,,,,,,,
,,"[""circle"",""no_dis"",""hori"",""left"",[99999,99999],[0,-150]]",circle,no_dis,hori,left,"[99999,99999]","[0,-150]",left,1,,,,,,001,2025-03-17_12h54.12.187,SL_base_41,2021.2.3,Win32,58.70267097,1.7358,,,122,0,122,0,1,,,,,,,,
,,"[""diamond"",""red"",""hori"",""left"",[106,-106],[0,150]]",diamond,red,hori,left,"[106,-106]","[0,150]",left,1,,,,,,001,2025-03-17_12h54.12.187,SL_base_41,2021.2.3,Win32,58.70267097,1.2462,,,123,0,123,0,1,,,,,,,,
,,"[""circle"",""red"",""hori"",""left"",[106,-106],[0,150]]",circle,red,hori,left,"[106,-106]","[0,150]",left,1,,,,,,001,2025-03-17_12h54.12.187,SL_base_41,2021.2.3,Win32,58.70267097,1.44,,,124,0,124,0,1,,,,,,,,
,,"[""circle"",""green"",""vert"",""up"",[150,0],[106,-106]]",circle,green,vert,up,"[150,0]","[106,-106]",up,1,,,,,,001,2025-03-17_12h54.12.187,SL_base_41,2021.2.3,Win32,58.70267097,1.6888,,,125,0,125,0,1,,,,,,,,
,,"[""diamond"",""green"",""vert"",""up"",[106,-106],[-106,-106]]",diamond,green,vert,up,"[106,-106]","[-106,-106]",up,1,,,,,,001,2025-03-17_12h54.12.187,SL_base_41,2021.2.3,Win32,58.70267097,2.0333,,,126,0,126,0,1,,,,,,,,
,,"[""diamond"",""no_dis"",""vert"",""up"",[99999,99999],[-106,106]]",diamond,no_dis,vert,up,"[99999,99999]","[-106,106]",up,1,,,,,,001,2025-03-17_12h54.12.187,SL_base_41,2021.2.3,Win32,58.70267097,1.7133,,,127,0,127,0,1,,,,,,,,
,,,,,,,,,,,,,,,,001,2025-03-17_12h54.12.187,SL_base_41,2021.2.3,Win32,58.70267097,,,,,,,,,2,space,48.7448,1,0,1,0,1
,,"[""diamond"",""red"",""vert"",""up"",[106,-106],[-106,106]]",diamond,red,vert,up,"[106,-106]","[-106,106]",up,1,,,,,,001,2025-03-17_12h54.12.187,SL_base_41,2021.2.3,Win32,58.70267097,1.1233,,,0,0,0,0,1,,,,,,,,
,,"[""circle"",""green"",""vert"",""up"",[-106,-106],[-150,0]]",circle,green,vert,up,"[-106,-106]","[-150,0]",up,1,,,,,,001,2025-03-17_12h54.12.187,SL_base_41,2021.2.3,Win32,58.70267097,1.2366,,,1,0,1,0,1,,,,,,,,
,,"[""circle"",""green"",""vert"",""up"",[-150,0],[106,106]]",circle,green,vert,up,"[-150,0]","[106,106]",up,1,,,,,,001,2025-03-17_12h54.12.187,SL_base_41,2021.2.3,Win32,58.70267097,1.7202,,,2,0,2,0,1,,,,,,,,
,,"[""circle"",""no_dis"",""hori"",""left"",[99999,99999],[-150,0]]",circle,no_dis,hori,left,"[99999,99999]","[-150,0]",left,1,,,,,,001,2025-03-17_12h54.12.187,SL_base_41,2021.2.3,Win32,58.70267097,1.0522,,,3,0,3,0,1,,,,,,,,
,,"[""circle"",""no_dis"",""vert"",""up"",[99999,99999],[-106,-106]]",circle,no_dis,vert,up,"[99999,99999]","[-106,-106]",up,1,,,,,,001,2025-03-17_12h54.12.187,SL_base_41,2021.2.3,Win32,58.70267097,1.3479,,,4,0,4,0,1,,,,,,,,
,,"[""circle"",""red"",""hori"",""left"",[106,106],[-150,0]]",circle,red,hori,left,"[106,106]","[-150,0]",left,1,,,,,,001,2025-03-17_12h54.12.187,SL_base_41,2021.2.3,Win32,58.70267097,1.5093,,,5,0,5,0,1,,,,,,,,
,,"[""circle"",""no_dis"",""hori"",""left"",[99999,99999],[0,150]]",circle,no_dis,hori,left,"[99999,99999]","[0,150]",left,1,,,,,,001,2025-03-17_12h54.12.187,SL_base_41,2021.2.3,Win32,58.70267097,1.4151,,,6,0,6,0,1,,,,,,,,
,,"[""circle"",""no_dis"",""vert"",""up"",[99999,99999],[-106,106]]",circle,no_dis,vert,up,"[99999,99999]","[-106,106]",up,1,,,,,,001,2025-03-17_12h54.12.187,SL_base_41,2021.2.3,Win32,58.70267097,1.3345,,,7,0,7,0,1,,,,,,,,
,,"[""diamond"",""green"",""hori"",""left"",[150,0],[0,-150]]",diamond,green,hori,left,"[150,0]","[0,-150]",left,1,,,,,,001,2025-03-17_12h54.12.187,SL_base_41,2021.2.3,Win32,58.70267097,1.214,,,8,0,8,0,1,,,,,,,,
,,"[""circle"",""green"",""hori"",""left"",[106,-106],[0,150]]",circle,green,hori,left,"[106,-106]","[0,150]",left,1,,,,,,001,2025-03-17_12h54.12.187,SL_base_41,2021.2.3,Win32,58.70267097,1.3374,,,9,0,9,0,1,,,,,,,,
,,"[""diamond"",""green"",""hori"",""left"",[-106,106],[-106,-106]]",diamond,green,hori,left,"[-106,106]","[-106,-106]",left,1,,,,,,001,2025-03-17_12h54.12.187,SL_base_41,2021.2.3,Win32,58.70267097,1.2345,,,10,0,10,0,1,,,,,,,,
,,"[""diamond"",""no_dis"",""hori"",""left"",[99999,99999],[0,-150]]",diamond,no_dis,hori,left,"[99999,99999]","[0,-150]",left,1,,,,,,001,2025-03-17_12h54.12.187,SL_base_41,2021.2.3,Win32,58.70267097,1.171,,,11,0,11,0,1,,,,,,,,
,,"[""diamond"",""green"",""hori"",""left"",[106,-106],[106,106]]",diamond,green,hori,left,"[106,-106]","[106,106]",left,1,,,,,,001,2025-03-17_12h54.12.187,SL_base_41,2021.2.3,Win32,58.70267097,1.4392,,,12,0,12,0,1,,,,,,,,
,,"[""circle"",""green"",""vert"",""up"",[150,0],[106,-106]]",circle,green,vert,up,"[150,0]","[106,-106]",up,1,,,,,,001,2025-03-17_12h54.12.187,SL_base_41,2021.2.3,Win32,58.70267097,1.3557,,,13,0,13,0,1,,,,,,,,
,,"[""circle"",""no_dis"",""vert"",""up"",[99999,99999],[-106,-106]]",circle,no_dis,vert,up,"[99999,99999]","[-106,-106]",up,1,,,,,,001,2025-03-17_12h54.12.187,SL_base_41,2021.2.3,Win32,58.70267097,1.4498,,,14,0,14,0,1,,,,,,,,
,,"[""diamond"",""no_dis"",""vert"",""up"",[99999,99999],[-106,106]]",diamond,no_dis,vert,up,"[99999,99999]","[-106,106]",up,1,,,,,,001,2025-03-17_12h54.12.187,SL_base_41,2021.2.3,Win32,58.70267097,1.153,,,15,0,15,0,1,,,,,,,,
,,"[""diamond"",""green"",""vert"",""up"",[0,150],[106,106]]",diamond,green,vert,up,"[0,150]","[106,106]",up,1,,,,,,001,2025-03-17_12h54.12.187,SL_base_41,2021.2.3,Win32,58.70267097,2.0798,,,16,0,16,0,1,,,,,,,,
,,"[""circle"",""no_dis"",""hori"",""left"",[99999,99999],[0,-150]]",circle,no_dis,hori,left,"[99999,99999]","[0,-150]",left,1,,,,,,001,2025-03-17_12h54.12.187,SL_base_41,2021.2.3,Win32,58.70267097,1.2985,,,17,0,17,0,1,,,,,,,,
,,"[""diamond"",""no_dis"",""hori"",""left"",[99999,99999],[0,150]]",diamond,no_dis,hori,left,"[99999,99999]","[0,150]",left,1,,,,,,001,2025-03-17_12h54.12.187,SL_base_41,2021.2.3,Win32,58.70267097,1.7794,,,18,0,18,0,1,,,,,,,,
,,"[""diamond"",""no_dis"",""vert"",""up"",[99999,99999],[-106,106]]",diamond,no_dis,vert,up,"[99999,99999]","[-106,106]",up,1,,,,,,001,2025-03-17_12h54.12.187,SL_base_41,2021.2.3,Win32,58.70267097,1.3829,,,19,0,19,0,1,,,,,,,,
,,"[""diamond"",""green"",""hori"",""left"",[-150,0],[-106,106]]",diamond,green,hori,left,"[-150,0]","[-106,106]",left,1,,,,,,001,2025-03-17_12h54.12.187,SL_base_41,2021.2.3,Win32,58.70267097,1.7002,,,20,0,20,0,1,,,,,,,,
,,"[""diamond"",""red"",""hori"",""left"",[106,-106],[-150,0]]",diamond,red,hori,left,"[106,-106]","[-150,0]",left,1,,,,,,001,2025-03-17_12h54.12.187,SL_base_41,2021.2.3,Win32,58.70267097,1.1176,,,21,0,21,0,1,,,,,,,,
,,"[""circle"",""red"",""vert"",""up"",[106,-106],[-106,-106]]",circle,red,vert,up,"[106,-106]","[-106,-106]",up,1,,,,,,001,2025-03-17_12h54.12.187,SL_base_41,2021.2.3,Win32,58.70267097,1.0698,,,22,0,22,0,1,,,,,,,,
,,"[""circle"",""red"",""vert"",""up"",[106,106],[-106,106]]",circle,red,vert,up,"[106,106]","[-106,106]",up,1,,,,,,001,2025-03-17_12h54.12.187,SL_base_41,2021.2.3,Win32,58.70267097,1.8558,,,23,0,23,0,1,,,,,,,,
,,"[""circle"",""red"",""hori"",""left"",[0,-150],[0,150]]",circle,red,hori,left,"[0,-150]","[0,150]",left,1,,,,,,001,2025-03-17_12h54.12.187,SL_base_41,2021.2.3,Win32,58.70267097,1.117,,,24,0,24,0,1,,,,,,,,
,,"[""diamond"",""red"",""vert"",""up"",[-106,106],[150,0]]",diamond,red,vert,up,"[-106,106]","[150,0]",up,1,,,,,,001,2025-03-17_12h54.12.187,SL_base_41,2021.2.3,Win32,58.70267097,1.4354,,,25,0,25,0,1,,,,,,,,
,,"[""circle"",""green"",""hori"",""left"",[150,0],[106,-106]]",circle,green,hori,left,"[150,0]","[106,-106]",left,1,,,,,,001,2025-03-17_12h54.12.187,SL_base_41,2021.2.3,Win32,58.70267097,1.6206,,,26,0,26,0,1,,,,,,,,
,,"[""diamond"",""red"",""hori"",""left"",[106,-106],[0,150]]",diamond,red,hori,left,"[106,-106]","[0,150]",left,1,,,,,,001,2025-03-17_12h54.12.187,SL_base_41,2021.2.3,Win32,58.70267097,1.0975,,,27,0,27,0,1,,,,,,,,
,,"[""circle"",""green"",""vert"",""up"",[106,106],[-150,0]]",circle,green,vert,up,"[106,106]","[-150,0]",up,1,,,,,,001,2025-03-17_12h54.12.187,SL_base_41,2021.2.3,Win32,58.70267097,1.3705,,,28,0,28,0,1,,,,,,,,
,,"[""circle"",""green"",""hori"",""left"",[106,-106],[0,150]]",circle,green,hori,left,"[106,-106]","[0,150]",left,1,,,,,,001,2025-03-17_12h54.12.187,SL_base_41,2021.2.3,Win32,58.70267097,1.4653,,,29,0,29,0,1,,,,,,,,
,,"[""diamond"",""no_dis"",""vert"",""up"",[99999,99999],[150,0]]",diamond,no_dis,vert,up,"[99999,99999]","[150,0]",up,1,,,,,,001,2025-03-17_12h54.12.187,SL_base_41,2021.2.3,Win32,58.70267097,1.1314,,,30,0,30,0,1,,,,,,,,
,,"[""diamond"",""green"",""hori"",""left"",[0,150],[150,0]]",diamond,green,hori,left,"[0,150]","[150,0]",left,1,,,,,,001,2025-03-17_12h54.12.187,SL_base_41,2021.2.3,Win32,58.70267097,1.7611,,,31,0,31,0,1,,,,,,,,
,,"[""diamond"",""red"",""hori"",""left"",[0,-150],[-106,-106]]",diamond,red,hori,left,"[0,-150]","[-106,-106]",left,1,,,,,,001,2025-03-17_12h54.12.187,SL_base_41,2021.2.3,Win32,58.70267097,1.3674,,,32,0,32,0,1,,,,,,,,
,,"[""diamond"",""green"",""vert"",""up"",[106,-106],[-150,0]]",diamond,green,vert,up,"[106,-106]","[-150,0]",up,1,,,,,,001,2025-03-17_12h54.12.187,SL_base_41,2021.2.3,Win32,58.70267097,1.0127,,,33,0,33,0,1,,,,,,,,
,,"[""circle"",""no_dis"",""vert"",""up"",[99999,99999],[0,150]]",circle,no_dis,vert,up,"[99999,99999]","[0,150]",up,1,,,,,,001,2025-03-17_12h54.12.187,SL_base_41,2021.2.3,Win32,58.70267097,1.3874,,,34,0,34,0,1,,,,,,,,
,,"[""diamond"",""no_dis"",""hori"",""left"",[99999,99999],[-106,106]]",diamond,no_dis,hori,left,"[99999,99999]","[-106,106]",left,1,,,,,,001,2025-03-17_12h54.12.187,SL_base_41,2021.2.3,Win32,58.70267097,1.6629,,,35,0,35,0,1,,,,,,,,
,,"[""diamond"",""red"",""hori"",""left"",[106,-106],[0,150]]",diamond,red,hori,left,"[106,-106]","[0,150]",left,1,,,,,,001,2025-03-17_12h54.12.187,SL_base_41,2021.2.3,Win32,58.70267097,1.0273,,,36,0,36,0,1,,,,,,,,
,,"[""circle"",""red"",""hori"",""left"",[106,-106],[0,150]]",circle,red,hori,left,"[106,-106]","[0,150]",left,1,,,,,,001,2025-03-17_12h54.12.187,SL_base_41,2021.2.3,Win32,58.70267097,2.2066,,,37,0,37,0,1,,,,,,,,
,,"[""diamond"",""no_dis"",""vert"",""up"",[99999,99999],[106,106]]",diamond,no_dis,vert,up,"[99999,99999]","[106,106]",up,1,,,,,,001,2025-03-17_12h54.12.187,SL_base_41,2021.2.3,Win32,58.70267097,1.1925,,,38,0,38,0,1,,,,,,,,
,,"[""circle"",""red"",""hori"",""left"",[106,-106],[150,0]]",circle,red,hori,left,"[106,-106]","[150,0]",left,1,,,,,,001,2025-03-17_12h54.12.187,SL_base_41,2021.2.3,Win32,58.70267097,1.9541,,,39,0,39,0,1,,,,,,,,
,,"[""circle"",""no_dis"",""hori"",""left"",[99999,99999],[-106,-106]]",circle,no_dis,hori,left,"[99999,99999]","[-106,-106]",left,1,,,,,,001,2025-03-17_12h54.12.187,SL_base_41,2021.2.3,Win32,58.70267097,1.6979,,,40,0,40,0,1,,,,,,,,
,,"[""diamond"",""green"",""vert"",""up"",[106,-106],[0,150]]",diamond,green,vert,up,"[106,-106]","[0,150]",up,1,,,,,,001,2025-03-17_12h54.12.187,SL_base_41,2021.2.3,Win32,58.70267097,1.0799,,,41,0,41,0,1,,,,,,,,
,,"[""diamond"",""green"",""hori"",""left"",[106,-106],[-106,106]]",diamond,green,hori,left,"[106,-106]","[-106,106]",left,1,,,,,,001,2025-03-17_12h54.12.187,SL_base_41,2021.2.3,Win32,58.70267097,1.2467,,,42,0,42,0,1,,,,,,,,
,,"[""diamond"",""no_dis"",""hori"",""left"",[99999,99999],[-106,-106]]",diamond,no_dis,hori,left,"[99999,99999]","[-106,-106]",left,1,,,,,,001,2025-03-17_12h54.12.187,SL_base_41,2021.2.3,Win32,58.70267097,1.1862,,,43,0,43,0,1,,,,,,,,
,,"[""diamond"",""green"",""vert"",""up"",[106,-106],[0,150]]",diamond,green,vert,up,"[106,-106]","[0,150]",up,1,,,,,,001,2025-03-17_12h54.12.187,SL_base_41,2021.2.3,Win32,58.70267097,1.069,,,44,0,44,0,1,,,,,,,,
,,"[""diamond"",""green"",""vert"",""up"",[-106,-106],[0,150]]",diamond,green,vert,up,"[-106,-106]","[0,150]",up,1,,,,,,001,2025-03-17_12h54.12.187,SL_base_41,2021.2.3,Win32,58.70267097,1.4232,,,45,0,45,0,1,,,,,,,,
,,"[""diamond"",""red"",""hori"",""left"",[0,150],[106,-106]]",diamond,red,hori,left,"[0,150]","[106,-106]",left,1,,,,,,001,2025-03-17_12h54.12.187,SL_base_41,2021.2.3,Win32,58.70267097,1.6174,,,46,0,46,0,1,,,,,,,,
,,"[""circle"",""no_dis"",""hori"",""left"",[99999,99999],[106,-106]]",circle,no_dis,hori,left,"[99999,99999]","[106,-106]",left,1,,,,,,001,2025-03-17_12h54.12.187,SL_base_41,2021.2.3,Win32,58.70267097,1.6373,,,47,0,47,0,1,,,,,,,,
,,"[""diamond"",""no_dis"",""hori"",""left"",[99999,99999],[150,0]]",diamond,no_dis,hori,left,"[99999,99999]","[150,0]",left,1,,,,,,001,2025-03-17_12h54.12.187,SL_base_41,2021.2.3,Win32,58.70267097,0.9287,,,48,0,48,0,1,,,,,,,,
,,"[""diamond"",""red"",""vert"",""up"",[150,0],[-150,0]]",diamond,red,vert,up,"[150,0]","[-150,0]",up,1,,,,,,001,2025-03-17_12h54.12.187,SL_base_41,2021.2.3,Win32,58.70267097,1.4986,,,49,0,49,0,1,,,,,,,,
,,"[""diamond"",""green"",""vert"",""up"",[-106,-106],[0,-150]]",diamond,green,vert,up,"[-106,-106]","[0,-150]",up,1,,,,,,001,2025-03-17_12h54.12.187,SL_base_41,2021.2.3,Win32,58.70267097,1.7637,,,50,0,50,0,1,,,,,,,,
,,"[""circle"",""green"",""hori"",""left"",[0,150],[-106,106]]",circle,green,hori,left,"[0,150]","[-106,106]",left,1,,,,,,001,2025-03-17_12h54.12.187,SL_base_41,2021.2.3,Win32,58.70267097,2.1994,,,51,0,51,0,1,,,,,,,,
,,"[""diamond"",""red"",""vert"",""up"",[150,0],[106,-106]]",diamond,red,vert,up,"[150,0]","[106,-106]",up,1,,,,,,001,2025-03-17_12h54.12.187,SL_base_41,2021.2.3,Win32,58.70267097,1.6065,,,52,0,52,0,1,,,,,,,,
,,"[""circle"",""red"",""vert"",""up"",[-106,-106],[0,150]]",circle,red,vert,up,"[-106,-106]","[0,150]",up,1,,,,,,001,2025-03-17_12h54.12.187,SL_base_41,2021.2.3,Win32,58.70267097,1.2554,,,53,0,53,0,1,,,,,,,,
,,"[""diamond"",""green"",""hori"",""left"",[0,-150],[106,-106]]",diamond,green,hori,left,"[0,-150]","[106,-106]",left,1,,,,,,001,2025-03-17_12h54.12.187,SL_base_41,2021.2.3,Win32,58.70267097,1.404,,,54,0,54,0,1,,,,,,,,
,,"[""circle"",""no_dis"",""vert"",""up"",[99999,99999],[-150,0]]",circle,no_dis,vert,up,"[99999,99999]","[-150,0]",up,1,,,,,,001,2025-03-17_12h54.12.187,SL_base_41,2021.2.3,Win32,58.70267097,1.3039,,,55,0,55,0,1,,,,,,,,
,,"[""diamond"",""no_dis"",""hori"",""left"",[99999,99999],[150,0]]",diamond,no_dis,hori,left,"[99999,99999]","[150,0]",left,1,,,,,,001,2025-03-17_12h54.12.187,SL_base_41,2021.2.3,Win32,58.70267097,1.2615,,,56,0,56,0,1,,,,,,,,
,,"[""circle"",""green"",""vert"",""up"",[0,-150],[0,150]]",circle,green,vert,up,"[0,-150]","[0,150]",up,1,,,,,,001,2025-03-17_12h54.12.187,SL_base_41,2021.2.3,Win32,58.70267097,1.2139,,,57,0,57,0,1,,,,,,,,
,,"[""circle"",""green"",""vert"",""up"",[-150,0],[0,-150]]",circle,green,vert,up,"[-150,0]","[0,-150]",up,1,,,,,,001,2025-03-17_12h54.12.187,SL_base_41,2021.2.3,Win32,58.70267097,1.7474,,,58,0,58,0,1,,,,,,,,
,,"[""diamond"",""red"",""hori"",""left"",[106,-106],[-150,0]]",diamond,red,hori,left,"[106,-106]","[-150,0]",left,1,,,,,,001,2025-03-17_12h54.12.187,SL_base_41,2021.2.3,Win32,58.70267097,1.7322,,,59,0,59,0,1,,,,,,,,
,,"[""diamond"",""green"",""vert"",""up"",[-150,0],[-106,106]]",diamond,green,vert,up,"[-150,0]","[-106,106]",up,1,,,,,,001,2025-03-17_12h54.12.187,SL_base_41,2021.2.3,Win32,58.70267097,1.1464,,,60,0,60,0,1,,,,,,,,
,,"[""circle"",""no_dis"",""vert"",""up"",[99999,99999],[-150,0]]",circle,no_dis,vert,up,"[99999,99999]","[-150,0]",up,1,,,,,,001,2025-03-17_12h54.12.187,SL_base_41,2021.2.3,Win32,58.70267097,2.2859,,,61,0,61,0,1,,,,,,,,
,,"[""circle"",""red"",""hori"",""left"",[106,-106],[0,150]]",circle,red,hori,left,"[106,-106]","[0,150]",left,1,,,,,,001,2025-03-17_12h54.12.187,SL_base_41,2021.2.3,Win32,58.70267097,1.2207,,,62,0,62,0,1,,,,,,,,
,,"[""circle"",""red"",""vert"",""up"",[150,0],[-106,-106]]",circle,red,vert,up,"[150,0]","[-106,-106]",up,1,,,,,,001,2025-03-17_12h54.12.187,SL_base_41,2021.2.3,Win32,58.70267097,1.477,,,63,0,63,0,1,,,,,,,,
,,"[""circle"",""no_dis"",""hori"",""left"",[99999,99999],[106,-106]]",circle,no_dis,hori,left,"[99999,99999]","[106,-106]",left,1,,,,,,001,2025-03-17_12h54.12.187,SL_base_41,2021.2.3,Win32,58.70267097,1.2348,,,64,0,64,0,1,,,,,,,,
,,"[""diamond"",""green"",""vert"",""up"",[106,-106],[-106,-106]]",diamond,green,vert,up,"[106,-106]","[-106,-106]",up,1,,,,,,001,2025-03-17_12h54.12.187,SL_base_41,2021.2.3,Win32,58.70267097,1.363,,,65,0,65,0,1,,,,,,,,
,,"[""circle"",""no_dis"",""hori"",""left"",[99999,99999],[-106,-106]]",circle,no_dis,hori,left,"[99999,99999]","[-106,-106]",left,1,,,,,,001,2025-03-17_12h54.12.187,SL_base_41,2021.2.3,Win32,58.70267097,1.2999,,,66,0,66,0,1,,,,,,,,
,,"[""diamond"",""no_dis"",""vert"",""up"",[99999,99999],[-106,106]]",diamond,no_dis,vert,up,"[99999,99999]","[-106,106]",up,1,,,,,,001,2025-03-17_12h54.12.187,SL_base_41,2021.2.3,Win32,58.70267097,0.9064,,,67,0,67,0,1,,,,,,,,
,,"[""circle"",""green"",""hori"",""left"",[0,-150],[-106,-106]]",circle,green,hori,left,"[0,-150]","[-106,-106]",left,1,,,,,,001,2025-03-17_12h54.12.187,SL_base_41,2021.2.3,Win32,58.70267097,1.9628,,,68,0,68,0,1,,,,,,,,
,,"[""diamond"",""red"",""vert"",""up"",[106,-106],[-150,0]]",diamond,red,vert,up,"[106,-106]","[-150,0]",up,1,,,,,,001,2025-03-17_12h54.12.187,SL_base_41,2021.2.3,Win32,58.70267097,1.2313,,,69,0,69,0,1,,,,,,,,
,,"[""circle"",""red"",""hori"",""left"",[106,-106],[150,0]]",circle,red,hori,left,"[106,-106]","[150,0]",left,1,,,,,,001,2025-03-17_12h54.12.187,SL_base_41,2021.2.3,Win32,58.70267097,1.2156,,,70,0,70,0,1,,,,,,,,
,,"[""circle"",""no_dis"",""vert"",""up"",[99999,99999],[150,0]]",circle,no_dis,vert,up,"[99999,99999]","[150,0]",up,1,,,,,,001,2025-03-17_12h54.12.187,SL_base_41,2021.2.3,Win32,58.70267097,1.5589,,,71,0,71,0,1,,,,,,,,
,,"[""circle"",""red"",""vert"",""up"",[106,-106],[0,-150]]",circle,red,vert,up,"[106,-106]","[0,-150]",up,1,,,,,,001,2025-03-17_12h54.12.187,SL_base_41,2021.2.3,Win32,58.70267097,1.3382,,,72,0,72,0,1,,,,,,,,
,,"[""circle"",""no_dis"",""hori"",""left"",[99999,99999],[0,150]]",circle,no_dis,hori,left,"[99999,99999]","[0,150]",left,1,,,,,,001,2025-03-17_12h54.12.187,SL_base_41,2021.2.3,Win32,58.70267097,1.6648,,,73,0,73,0,1,,,,,,,,
,,"[""circle"",""green"",""hori"",""left"",[150,0],[-106,-106]]",circle,green,hori,left,"[150,0]","[-106,-106]",left,1,,,,,,001,2025-03-17_12h54.12.187,SL_base_41,2021.2.3,Win32,58.70267097,2.1149,,,74,0,74,0,1,,,,,,,,
,,"[""circle"",""green"",""vert"",""up"",[0,150],[0,-150]]",circle,green,vert,up,"[0,150]","[0,-150]",up,1,,,,,,001,2025-03-17_12h54.12.187,SL_base_41,2021.2.3,Win32,58.70267097,2.3911,,,75,0,75,0,1,,,,,,,,
,,"[""circle"",""green"",""hori"",""left"",[0,-150],[-106,106]]",circle,green,hori,left,"[0,-150]","[-106,106]",left,1,,,,,,001,2025-03-17_12h54.12.187,SL_base_41,2021.2.3,Win32,58.70267097,1.0584,,,76,0,76,0,1,,,,,,,,
,,"[""circle"",""no_dis"",""hori"",""left"",[99999,99999],[-150,0]]",circle,no_dis,hori,left,"[99999,99999]","[-150,0]",left,1,,,,,,001,2025-03-17_12h54.12.187,SL_base_41,2021.2.3,Win32,58.70267097,0.8124,,,77,0,77,0,1,,,,,,,,
,,"[""diamond"",""red"",""vert"",""up"",[106,-106],[-150,0]]",diamond,red,vert,up,"[106,-106]","[-150,0]",up,1,,,,,,001,2025-03-17_12h54.12.187,SL_base_41,2021.2.3,Win32,58.70267097,1.2718,,,78,0,78,0,1,,,,,,,,
,,"[""diamond"",""no_dis"",""hori"",""left"",[99999,99999],[106,-106]]",diamond,no_dis,hori,left,"[99999,99999]","[106,-106]",left,1,,,,,,001,2025-03-17_12h54.12.187,SL_base_41,2021.2.3,Win32,58.70267097,1.6818,,,79,0,79,0,1,,,,,,,,
,,"[""diamond"",""no_dis"",""vert"",""up"",[99999,99999],[106,106]]",diamond,no_dis,vert,up,"[99999,99999]","[106,106]",up,1,,,,,,001,2025-03-17_12h54.12.187,SL_base_41,2021.2.3,Win32,58.70267097,0.9191,,,80,0,80,0,1,,,,,,,,
,,"[""circle"",""green"",""hori"",""left"",[150,0],[0,150]]",circle,green,hori,left,"[150,0]","[0,150]",left,1,,,,,,001,2025-03-17_12h54.12.187,SL_base_41,2021.2.3,Win32,58.70267097,0.9836,,,81,0,81,0,1,,,,,,,,
,,"[""circle"",""no_dis"",""vert"",""up"",[99999,99999],[150,0]]",circle,no_dis,vert,up,"[99999,99999]","[150,0]",up,1,,,,,,001,2025-03-17_12h54.12.187,SL_base_41,2021.2.3,Win32,58.70267097,1.4674,,,82,0,82,0,1,,,,,,,,
,,"[""diamond"",""green"",""vert"",""up"",[106,-106],[-106,-106]]",diamond,green,vert,up,"[106,-106]","[-106,-106]",up,1,,,,,,001,2025-03-17_12h54.12.187,SL_base_41,2021.2.3,Win32,58.70267097,1.1381,,,83,0,83,0,1,,,,,,,,
,,"[""diamond"",""red"",""vert"",""up"",[0,-150],[-150,0]]",diamond,red,vert,up,"[0,-150]","[-150,0]",up,1,,,,,,001,2025-03-17_12h54.12.187,SL_base_41,2021.2.3,Win32,58.70267097,1.2207,,,84,0,84,0,1,,,,,,,,
,,"[""diamond"",""green"",""vert"",""up"",[-150,0],[150,0]]",diamond,green,vert,up,"[-150,0]","[150,0]",up,1,,,,,,001,2025-03-17_12h54.12.187,SL_base_41,2021.2.3,Win32,58.70267097,1.5607,,,85,0,85,0,1,,,,,,,,
,,"[""circle"",""green"",""hori"",""left"",[106,-106],[-106,106]]",circle,green,hori,left,"[106,-106]","[-106,106]",left,1,,,,,,001,2025-03-17_12h54.12.187,SL_base_41,2021.2.3,Win32,58.70267097,1.1389,,,86,0,86,0,1,,,,,,,,
,,"[""circle"",""no_dis"",""vert"",""up"",[99999,99999],[-150,0]]",circle,no_dis,vert,up,"[99999,99999]","[-150,0]",up,1,,,,,,001,2025-03-17_12h54.12.187,SL_base_41,2021.2.3,Win32,58.70267097,1.9384,,,87,0,87,0,1,,,,,,,,
,,"[""circle"",""green"",""vert"",""up"",[106,-106],[0,150]]",circle,green,vert,up,"[106,-106]","[0,150]",up,1,,,,,,001,2025-03-17_12h54.12.187,SL_base_41,2021.2.3,Win32,58.70267097,2.0026,,,88,0,88,0,1,,,,,,,,
,,"[""circle"",""red"",""vert"",""up"",[0,150],[106,106]]",circle,red,vert,up,"[0,150]","[106,106]",up,1,,,,,,001,2025-03-17_12h54.12.187,SL_base_41,2021.2.3,Win32,58.70267097,1.6667,,,89,0,89,0,1,,,,,,,,
,,"[""diamond"",""red"",""vert"",""up"",[106,-106],[0,-150]]",diamond,red,vert,up,"[106,-106]","[0,-150]",up,1,,,,,,001,2025-03-17_12h54.12.187,SL_base_41,2021.2.3,Win32,58.70267097,1.5049,,,90,0,90,0,1,,,,,,,,
,,"[""diamond"",""red"",""vert"",""up"",[-106,106],[-150,0]]",diamond,red,vert,up,"[-106,106]","[-150,0]",left,0,,,,,,001,2025-03-17_12h54.12.187,SL_base_41,2021.2.3,Win32,58.70267097,2.3118,,,91,0,91,0,1,,,,,,,,
,,"[""diamond"",""red"",""vert"",""up"",[106,106],[0,-150]]",diamond,red,vert,up,"[106,106]","[0,-150]",up,1,,,,,,001,2025-03-17_12h54.12.187,SL_base_41,2021.2.3,Win32,58.70267097,1.6812,,,92,0,92,0,1,,,,,,,,
,,"[""circle"",""green"",""vert"",""up"",[106,-106],[-106,-106]]",circle,green,vert,up,"[106,-106]","[-106,-106]",up,1,,,,,,001,2025-03-17_12h54.12.187,SL_base_41,2021.2.3,Win32,58.70267097,1.7981,,,93,0,93,0,1,,,,,,,,
,,"[""diamond"",""red"",""hori"",""left"",[-150,0],[0,-150]]",diamond,red,hori,left,"[-150,0]","[0,-150]",left,1,,,,,,001,2025-03-17_12h54.12.187,SL_base_41,2021.2.3,Win32,58.70267097,1.932,,,94,0,94,0,1,,,,,,,,
,,"[""circle"",""red"",""vert"",""up"",[-106,-106],[150,0]]",circle,red,vert,up,"[-106,-106]","[150,0]",up,1,,,,,,001,2025-03-17_12h54.12.187,SL_base_41,2021.2.3,Win32,58.70267097,1.6074,,,95,0,95,0,1,,,,,,,,
,,"[""circle"",""green"",""hori"",""left"",[-150,0],[0,-150]]",circle,green,hori,left,"[-150,0]","[0,-150]",left,1,,,,,,001,2025-03-17_12h54.12.187,SL_base_41,2021.2.3,Win32,58.70267097,1.4091,,,96,0,96,0,1,,,,,,,,
,,"[""circle"",""green"",""hori"",""left"",[0,-150],[150,0]]",circle,green,hori,left,"[0,-150]","[150,0]",left,1,,,,,,001,2025-03-17_12h54.12.187,SL_base_41,2021.2.3,Win32,58.70267097,1.7998,,,97,0,97,0,1,,,,,,,,
,,"[""diamond"",""red"",""hori"",""left"",[106,-106],[0,150]]",diamond,red,hori,left,"[106,-106]","[0,150]",left,1,,,,,,001,2025-03-17_12h54.12.187,SL_base_41,2021.2.3,Win32,58.70267097,1.0655,,,98,0,98,0,1,,,,,,,,
,,"[""diamond"",""red"",""hori"",""left"",[-106,106],[-106,-106]]",diamond,red,hori,left,"[-106,106]","[-106,-106]",left,1,,,,,,001,2025-03-17_12h54.12.187,SL_base_41,2021.2.3,Win32,58.70267097,1.1751,,,99,0,99,0,1,,,,,,,,
,,"[""diamond"",""no_dis"",""hori"",""left"",[99999,99999],[106,-106]]",diamond,no_dis,hori,left,"[99999,99999]","[106,-106]",left,1,,,,,,001,2025-03-17_12h54.12.187,SL_base_41,2021.2.3,Win32,58.70267097,1.1628,,,100,0,100,0,1,,,,,,,,
,,"[""diamond"",""no_dis"",""vert"",""up"",[99999,99999],[106,-106]]",diamond,no_dis,vert,up,"[99999,99999]","[106,-106]",up,1,,,,,,001,2025-03-17_12h54.12.187,SL_base_41,2021.2.3,Win32,58.70267097,1.0997,,,101,0,101,0,1,,,,,,,,
,,"[""circle"",""red"",""hori"",""left"",[-106,-106],[106,-106]]",circle,red,hori,left,"[-106,-106]","[106,-106]",left,1,,,,,,001,2025-03-17_12h54.12.187,SL_base_41,2021.2.3,Win32,58.70267097,1.7421,,,102,0,102,0,1,,,,,,,,
,,"[""diamond"",""red"",""vert"",""up"",[106,-106],[150,0]]",diamond,red,vert,up,"[106,-106]","[150,0]",up,1,,,,,,001,2025-03-17_12h54.12.187,SL_base_41,2021.2.3,Win32,58.70267097,1.8828,,,103,0,103,0,1,,,,,,,,
,,"[""circle"",""red"",""vert"",""up"",[-106,106],[-150,0]]",circle,red,vert,up,"[-106,106]","[-150,0]",up,1,,,,,,001,2025-03-17_12h54.12.187,SL_base_41,2021.2.3,Win32,58.70267097,1.9425,,,104,0,104,0,1,,,,,,,,
,,"[""diamond"",""red"",""hori"",""left"",[-150,0],[-106,106]]",diamond,red,hori,left,"[-150,0]","[-106,106]",left,1,,,,,,001,2025-03-17_12h54.12.187,SL_base_41,2021.2.3,Win32,58.70267097,2.6213,,,105,0,105,0,1,,,,,,,,
,,"[""circle"",""red"",""vert"",""up"",[106,106],[-150,0]]",circle,red,vert,up,"[106,106]","[-150,0]",up,1,,,,,,001,2025-03-17_12h54.12.187,SL_base_41,2021.2.3,Win32,58.70267097,1.7058,,,106,0,106,0,1,,,,,,,,
,,"[""circle"",""red"",""hori"",""left"",[106,-106],[0,150]]",circle,red,hori,left,"[106,-106]","[0,150]",left,1,,,,,,001,2025-03-17_12h54.12.187,SL_base_41,2021.2.3,Win32,58.70267097,1.302,,,107,0,107,0,1,,,,,,,,
,,"[""circle"",""red"",""vert"",""up"",[0,150],[-106,-106]]",circle,red,vert,up,"[0,150]","[-106,-106]",up,1,,,,,,001,2025-03-17_12h54.12.187,SL_base_41,2021.2.3,Win32,58.70267097,1.1589,,,108,0,108,0,1,,,,,,,,
,,"[""circle"",""red"",""vert"",""up"",[-106,-106],[0,-150]]",circle,red,vert,up,"[-106,-106]","[0,-150]",up,1,,,,,,001,2025-03-17_12h54.12.187,SL_base_41,2021.2.3,Win32,58.70267097,2.0476,,,109,0,109,0,1,,,,,,,,
,,"[""diamond"",""green"",""hori"",""left"",[-106,106],[150,0]]",diamond,green,hori,left,"[-106,106]","[150,0]",left,1,,,,,,001,2025-03-17_12h54.12.187,SL_base_41,2021.2.3,Win32,58.70267097,1.3959,,,110,0,110,0,1,,,,,,,,
,,"[""diamond"",""no_dis"",""hori"",""left"",[99999,99999],[0,-150]]",diamond,no_dis,hori,left,"[99999,99999]","[0,-150]",left,1,,,,,,001,2025-03-17_12h54.12.187,SL_base_41,2021.2.3,Win32,58.70267097,1.801,,,111,0,111,0,1,,,,,,,,
,,"[""diamond"",""green"",""hori"",""left"",[106,-106],[-106,-106]]",diamond,green,hori,left,"[106,-106]","[-106,-106]",left,1,,,,,,001,2025-03-17_12h54.12.187,SL_base_41,2021.2.3,Win32,58.70267097,1.4616,,,112,0,112,0,1,,,,,,,,
,,"[""circle"",""red"",""hori"",""left"",[106,-106],[-106,-106]]",circle,red,hori,left,"[106,-106]","[-106,-106]",left,1,,,,,,001,2025-03-17_12h54.12.187,SL_base_41,2021.2.3,Win32,58.70267097,1.1731,,,113,0,113,0,1,,,,,,,,
,,"[""circle"",""green"",""vert"",""up"",[106,106],[-106,106]]",circle,green,vert,up,"[106,106]","[-106,106]",up,1,,,,,,001,2025-03-17_12h54.12.187,SL_base_41,2021.2.3,Win32,58.70267097,1.4092,,,114,0,114,0,1,,,,,,,,
,,"[""diamond"",""no_dis"",""vert"",""up"",[99999,99999],[0,-150]]",diamond,no_dis,vert,up,"[99999,99999]","[0,-150]",up,1,,,,,,001,2025-03-17_12h54.12.187,SL_base_41,2021.2.3,Win32,58.70267097,1.378,,,115,0,115,0,1,,,,,,,,
,,"[""diamond"",""green"",""vert"",""up"",[-106,-106],[0,-150]]",diamond,green,vert,up,"[-106,-106]","[0,-150]",up,1,,,,,,001,2025-03-17_12h54.12.187,SL_base_41,2021.2.3,Win32,58.70267097,1.7821,,,116,0,116,0,1,,,,,,,,
,,"[""diamond"",""no_dis"",""vert"",""up"",[99999,99999],[0,-150]]",diamond,no_dis,vert,up,"[99999,99999]","[0,-150]",up,1,,,,,,001,2025-03-17_12h54.12.187,SL_base_41,2021.2.3,Win32,58.70267097,1.4413,,,117,0,117,0,1,,,,,,,,
,,"[""diamond"",""red"",""hori"",""left"",[106,-106],[0,150]]",diamond,red,hori,left,"[106,-106]","[0,150]",left,1,,,,,,001,2025-03-17_12h54.12.187,SL_base_41,2021.2.3,Win32,58.70267097,1.3215,,,118,0,118,0,1,,,,,,,,
,,"[""diamond"",""green"",""hori"",""left"",[106,106],[-106,-106]]",diamond,green,hori,left,"[106,106]","[-106,-106]",left,1,,,,,,001,2025-03-17_12h54.12.187,SL_base_41,2021.2.3,Win32,58.70267097,1.0392,,,119,0,119,0,1,,,,,,,,
,,"[""circle"",""green"",""vert"",""up"",[-106,106],[106,106]]",circle,green,vert,up,"[-106,106]","[106,106]",up,1,,,,,,001,2025-03-17_12h54.12.187,SL_base_41,2021.2.3,Win32,58.70267097,1.4714,,,120,0,120,0,1,,,,,,,,
,,"[""diamond"",""green"",""hori"",""left"",[0,150],[106,-106]]",diamond,green,hori,left,"[0,150]","[106,-106]",left,1,,,,,,001,2025-03-17_12h54.12.187,SL_base_41,2021.2.3,Win32,58.70267097,1.3807,,,121,0,121,0,1,,,,,,,,
,,"[""circle"",""no_dis"",""hori"",""left"",[99999,99999],[106,106]]",circle,no_dis,hori,left,"[99999,99999]","[106,106]",left,1,,,,,,001,2025-03-17_12h54.12.187,SL_base_41,2021.2.3,Win32,58.70267097,2.7363,,,122,0,122,0,1,,,,,,,,
,,"[""circle"",""red"",""hori"",""left"",[106,106],[0,-150]]",circle,red,hori,left,"[106,106]","[0,-150]",left,1,,,,,,001,2025-03-17_12h54.12.187,SL_base_41,2021.2.3,Win32,58.70267097,1.2633,,,123,0,123,0,1,,,,,,,,
,,"[""diamond"",""no_dis"",""hori"",""left"",[99999,99999],[106,106]]",diamond,no_dis,hori,left,"[99999,99999]","[106,106]",left,1,,,,,,001,2025-03-17_12h54.12.187,SL_base_41,2021.2.3,Win32,58.70267097,1.9956,,,124,0,124,0,1,,,,,,,,
,,"[""diamond"",""no_dis"",""vert"",""up"",[99999,99999],[0,150]]",diamond,no_dis,vert,up,"[99999,99999]","[0,150]",up,1,,,,,,001,2025-03-17_12h54.12.187,SL_base_41,2021.2.3,Win32,58.70267097,2.1922,,,125,0,125,0,1,,,,,,,,
,,"[""circle"",""red"",""hori"",""left"",[-106,106],[106,106]]",circle,red,hori,left,"[-106,106]","[106,106]",left,1,,,,,,001,2025-03-17_12h54.12.187,SL_base_41,2021.2.3,Win32,58.70267097,2.4198,,,126,0,126,0,1,,,,,,,,
,,"[""circle"",""no_dis"",""vert"",""up"",[99999,99999],[106,106]]",circle,no_dis,vert,up,"[99999,99999]","[106,106]",up,1,,,,,,001,2025-03-17_12h54.12.187,SL_base_41,2021.2.3,Win32,58.70267097,1.6415,,,127,0,127,0,1,,,,,,,,
,,,,,,,,,,,,,,,,001,2025-03-17_12h54.12.187,SL_base_41,2021.2.3,Win32,58.70267097,,,,,,,,,3,space,35.7593,2,0,2,0,1
,,"[""circle"",""no_dis"",""hori"",""left"",[99999,99999],[-106,-106]]",circle,no_dis,hori,left,"[99999,99999]","[-106,-106]",left,1,,,,,,001,2025-03-17_12h54.12.187,SL_base_41,2021.2.3,Win32,58.70267097,2.0517,,,0,0,0,0,1,,,,,,,,
,,"[""circle"",""no_dis"",""vert"",""up"",[99999,99999],[106,106]]",circle,no_dis,vert,up,"[99999,99999]","[106,106]",up,1,,,,,,001,2025-03-17_12h54.12.187,SL_base_41,2021.2.3,Win32,58.70267097,2.4442,,,1,0,1,0,1,,,,,,,,
,,"[""circle"",""no_dis"",""hori"",""left"",[99999,99999],[-106,-106]]",circle,no_dis,hori,left,"[99999,99999]","[-106,-106]",left,1,,,,,,001,2025-03-17_12h54.12.187,SL_base_41,2021.2.3,Win32,58.70267097,1.492,,,2,0,2,0,1,,,,,,,,
,,"[""circle"",""red"",""vert"",""up"",[106,-106],[-106,-106]]",circle,red,vert,up,"[106,-106]","[-106,-106]",up,1,,,,,,001,2025-03-17_12h54.12.187,SL_base_41,2021.2.3,Win32,58.70267097,2.621,,,3,0,3,0,1,,,,,,,,
,,"[""circle"",""no_dis"",""vert"",""up"",[99999,99999],[-106,106]]",circle,no_dis,vert,up,"[99999,99999]","[-106,106]",up,1,,,,,,001,2025-03-17_12h54.12.187,SL_base_41,2021.2.3,Win32,58.70267097,2.2037,,,4,0,4,0,1,,,,,,,,
,,"[""diamond"",""no_dis"",""vert"",""up"",[99999,99999],[-106,106]]",diamond,no_dis,vert,up,"[99999,99999]","[-106,106]",up,1,,,,,,001,2025-03-17_12h54.12.187,SL_base_41,2021.2.3,Win32,58.70267097,2.2141,,,5,0,5,0,1,,,,,,,,
,,"[""diamond"",""red"",""vert"",""up"",[150,0],[-150,0]]",diamond,red,vert,up,"[150,0]","[-150,0]",up,1,,,,,,001,2025-03-17_12h54.12.187,SL_base_41,2021.2.3,Win32,58.70267097,2.2255,,,6,0,6,0,1,,,,,,,,
,,"[""diamond"",""red"",""hori"",""left"",[106,-106],[0,150]]",diamond,red,hori,left,"[106,-106]","[0,150]",left,1,,,,,,001,2025-03-17_12h54.12.187,SL_base_41,2021.2.3,Win32,58.70267097,2.496,,,7,0,7,0,1,,,,,,,,
,,"[""diamond"",""no_dis"",""vert"",""up"",[99999,99999],[-106,106]]",diamond,no_dis,vert,up,"[99999,99999]","[-106,106]",,0,,,,,,001,2025-03-17_12h54.12.187,SL_base_41,2021.2.3,Win32,58.70267097,,,,8,0,8,0,1,,,,,,,,
,,"[""diamond"",""red"",""vert"",""up"",[106,-106],[150,0]]",diamond,red,vert,up,"[106,-106]","[150,0]",up,1,,,,,,001,2025-03-17_12h54.12.187,SL_base_41,2021.2.3,Win32,58.70267097,1.2539,,,9,0,9,0,1,,,,,,,,
,,"[""diamond"",""no_dis"",""vert"",""up"",[99999,99999],[0,-150]]",diamond,no_dis,vert,up,"[99999,99999]","[0,-150]",up,1,,,,,,001,2025-03-17_12h54.12.187,SL_base_41,2021.2.3,Win32,58.70267097,1.8156,,,10,0,10,0,1,,,,,,,,
,,"[""circle"",""green"",""hori"",""left"",[0,-150],[-106,106]]",circle,green,hori,left,"[0,-150]","[-106,106]",left,1,,,,,,001,2025-03-17_12h54.12.187,SL_base_41,2021.2.3,Win32,58.70267097,2.6733,,,11,0,11,0,1,,,,,,,,
,,"[""diamond"",""red"",""hori"",""left"",[106,-106],[0,150]]",diamond,red,hori,left,"[106,-106]","[0,150]",,0,,,,,,001,2025-03-17_12h54.12.187,SL_base_41,2021.2.3,Win32,58.70267097,,,,12,0,12,0,1,,,,,,,,
,,"[""circle"",""red"",""hori"",""left"",[106,-106],[0,150]]",circle,red,hori,left,"[106,-106]","[0,150]",left,1,,,,,,001,2025-03-17_12h54.12.187,SL_base_41,2021.2.3,Win32,58.70267097,1.1579,,,13,0,13,0,1,,,,,,,,
,,"[""circle"",""red"",""vert"",""up"",[150,0],[-106,-106]]",circle,red,vert,up,"[150,0]","[-106,-106]",up,1,,,,,,001,2025-03-17_12h54.12.187,SL_base_41,2021.2.3,Win32,58.70267097,1.4674,,,14,0,14,0,1,,,,,,,,
,,"[""diamond"",""no_dis"",""hori"",""left"",[99999,99999],[150,0]]",diamond,no_dis,hori,left,"[99999,99999]","[150,0]",left,1,,,,,,001,2025-03-17_12h54.12.187,SL_base_41,2021.2.3,Win32,58.70267097,1.662,,,15,0,15,0,1,,,,,,,,
,,"[""diamond"",""red"",""hori"",""left"",[106,-106],[0,150]]",diamond,red,hori,left,"[106,-106]","[0,150]",left,1,,,,,,001,2025-03-17_12h54.12.187,SL_base_41,2021.2.3,Win32,58.70267097,2.4639,,,16,0,16,0,1,,,,,,,,
,,"[""diamond"",""red"",""vert"",""up"",[150,0],[106,-106]]",diamond,red,vert,up,"[150,0]","[106,-106]",up,1,,,,,,001,2025-03-17_12h54.12.187,SL_base_41,2021.2.3,Win32,58.70267097,1.4654,,,17,0,17,0,1,,,,,,,,
,,"[""circle"",""no_dis"",""hori"",""left"",[99999,99999],[106,-106]]",circle,no_dis,hori,left,"[99999,99999]","[106,-106]",left,1,,,,,,001,2025-03-17_12h54.12.187,SL_base_41,2021.2.3,Win32,58.70267097,0.9631,,,18,0,18,0,1,,,,,,,,
,,"[""circle"",""green"",""hori"",""left"",[0,-150],[150,0]]",circle,green,hori,left,"[0,-150]","[150,0]",left,1,,,,,,001,2025-03-17_12h54.12.187,SL_base_41,2021.2.3,Win32,58.70267097,1.3074,,,19,0,19,0,1,,,,,,,,
,,"[""circle"",""no_dis"",""hori"",""left"",[99999,99999],[-150,0]]",circle,no_dis,hori,left,"[99999,99999]","[-150,0]",left,1,,,,,,001,2025-03-17_12h54.12.187,SL_base_41,2021.2.3,Win32,58.70267097,1.8594,,,20,0,20,0,1,,,,,,,,
,,"[""diamond"",""red"",""hori"",""left"",[106,-106],[-150,0]]",diamond,red,hori,left,"[106,-106]","[-150,0]",left,1,,,,,,001,2025-03-17_12h54.12.187,SL_base_41,2021.2.3,Win32,58.70267097,1.1954,,,21,0,21,0,1,,,,,,,,
,,"[""circle"",""green"",""hori"",""left"",[106,-106],[0,150]]",circle,green,hori,left,"[106,-106]","[0,150]",,0,,,,,,001,2025-03-17_12h54.12.187,SL_base_41,2021.2.3,Win32,58.70267097,,,,22,0,22,0,1,,,,,,,,
,,"[""circle"",""green"",""hori"",""left"",[150,0],[0,150]]",circle,green,hori,left,"[150,0]","[0,150]",left,1,,,,,,001,2025-03-17_12h54.12.187,SL_base_41,2021.2.3,Win32,58.70267097,2.3176,,,23,0,23,0,1,,,,,,,,
,,"[""diamond"",""green"",""hori"",""left"",[106,-106],[106,106]]",diamond,green,hori,left,"[106,-106]","[106,106]",left,1,,,,,,001,2025-03-17_12h54.12.187,SL_base_41,2021.2.3,Win32,58.70267097,1.163,,,24,0,24,0,1,,,,,,,,
,,"[""diamond"",""no_dis"",""hori"",""left"",[99999,99999],[0,-150]]",diamond,no_dis,hori,left,"[99999,99999]","[0,-150]",left,1,,,,,,001,2025-03-17_12h54.12.187,SL_base_41,2021.2.3,Win32,58.70267097,1.8006,,,25,0,25,0,1,,,,,,,,
,,"[""circle"",""red"",""hori"",""left"",[106,-106],[150,0]]",circle,red,hori,left,"[106,-106]","[150,0]",left,1,,,,,,001,2025-03-17_12h54.12.187,SL_base_41,2021.2.3,Win32,58.70267097,2.285,,,26,0,26,0,1,,,,,,,,
,,"[""circle"",""green"",""hori"",""left"",[106,-106],[0,150]]",circle,green,hori,left,"[106,-106]","[0,150]",left,1,,,,,,001,2025-03-17_12h54.12.187,SL_base_41,2021.2.3,Win32,58.70267097,2.5896,,,27,0,27,0,1,,,,,,,,
,,"[""diamond"",""no_dis"",""hori"",""left"",[99999,99999],[0,150]]",diamond,no_dis,hori,left,"[99999,99999]","[0,150]",left,1,,,,,,001,2025-03-17_12h54.12.187,SL_base_41,2021.2.3,Win32,58.70267097,1.1042,,,28,0,28,0,1,,,,,,,,
,,"[""diamond"",""green"",""hori"",""left"",[150,0],[0,-150]]",diamond,green,hori,left,"[150,0]","[0,-150]",left,1,,,,,,001,2025-03-17_12h54.12.187,SL_base_41,2021.2.3,Win32,58.70267097,2.7631,,,29,0,29,0,1,,,,,,,,
,,"[""diamond"",""green"",""vert"",""up"",[106,-106],[0,150]]",diamond,green,vert,up,"[106,-106]","[0,150]",up,1,,,,,,001,2025-03-17_12h54.12.187,SL_base_41,2021.2.3,Win32,58.70267097,1.0889,,,30,0,30,0,1,,,,,,,,
,,"[""circle"",""green"",""vert"",""up"",[150,0],[106,-106]]",circle,green,vert,up,"[150,0]","[106,-106]",up,1,,,,,,001,2025-03-17_12h54.12.187,SL_base_41,2021.2.3,Win32,58.70267097,1.517,,,31,0,31,0,1,,,,,,,,
,,"[""diamond"",""red"",""hori"",""left"",[-106,106],[-106,-106]]",diamond,red,hori,left,"[-106,106]","[-106,-106]",left,1,,,,,,001,2025-03-17_12h54.12.187,SL_base_41,2021.2.3,Win32,58.70267097,2.2627,,,32,0,32,0,1,,,,,,,,
,,"[""diamond"",""no_dis"",""vert"",""up"",[99999,99999],[0,150]]",diamond,no_dis,vert,up,"[99999,99999]","[0,150]",up,1,,,,,,001,2025-03-17_12h54.12.187,SL_base_41,2021.2.3,Win32,58.70267097,1.2484,,,33,0,33,0,1,,,,,,,,
,,"[""diamond"",""no_dis"",""hori"",""left"",[99999,99999],[0,-150]]",diamond,no_dis,hori,left,"[99999,99999]","[0,-150]",left,1,,,,,,001,2025-03-17_12h54.12.187,SL_base_41,2021.2.3,Win32,58.70267097,1.4135,,,34,0,34,0,1,,,,,,,,
,,"[""diamond"",""no_dis"",""vert"",""up"",[99999,99999],[0,-150]]",diamond,no_dis,vert,up,"[99999,99999]","[0,-150]",up,1,,,,,,001,2025-03-17_12h54.12.187,SL_base_41,2021.2.3,Win32,58.70267097,1.6667,,,35,0,35,0,1,,,,,,,,
,,"[""circle"",""no_dis"",""vert"",""up"",[99999,99999],[-150,0]]",circle,no_dis,vert,up,"[99999,99999]","[-150,0]",up,1,,,,,,001,2025-03-17_12h54.12.187,SL_base_41,2021.2.3,Win32,58.70267097,1.107,,,36,0,36,0,1,,,,,,,,
,,"[""circle"",""green"",""hori"",""left"",[0,-150],[-106,-106]]",circle,green,hori,left,"[0,-150]","[-106,-106]",left,1,,,,,,001,2025-03-17_12h54.12.187,SL_base_41,2021.2.3,Win32,58.70267097,1.7178,,,37,0,37,0,1,,,,,,,,
,,"[""diamond"",""green"",""hori"",""left"",[106,-106],[-106,106]]",diamond,green,hori,left,"[106,-106]","[-106,106]",left,1,,,,,,001,2025-03-17_12h54.12.187,SL_base_41,2021.2.3,Win32,58.70267097,1.4167,,,38,0,38,0,1,,,,,,,,
,,"[""circle"",""green"",""hori"",""left"",[0,150],[-106,106]]",circle,green,hori,left,"[0,150]","[-106,106]",left,1,,,,,,001,2025-03-17_12h54.12.187,SL_base_41,2021.2.3,Win32,58.70267097,1.3465,,,39,0,39,0,1,,,,,,,,
,,"[""diamond"",""green"",""vert"",""up"",[106,-106],[-150,0]]",diamond,green,vert,up,"[106,-106]","[-150,0]",up,1,,,,,,001,2025-03-17_12h54.12.187,SL_base_41,2021.2.3,Win32,58.70267097,0.915,,,40,0,40,0,1,,,,,,,,
,,"[""circle"",""no_dis"",""vert"",""up"",[99999,99999],[-106,-106]]",circle,no_dis,vert,up,"[99999,99999]","[-106,-106]",up,1,,,,,,001,2025-03-17_12h54.12.187,SL_base_41,2021.2.3,Win32,58.70267097,1.4816,,,41,0,41,0,1,,,,,,,,
,,"[""circle"",""red"",""vert"",""up"",[106,-106],[0,-150]]",circle,red,vert,up,"[106,-106]","[0,-150]",up,1,,,,,,001,2025-03-17_12h54.12.187,SL_base_41,2021.2.3,Win32,58.70267097,1.1134,,,42,0,42,0,1,,,,,,,,
,,"[""circle"",""no_dis"",""vert"",""up"",[99999,99999],[-150,0]]",circle,no_dis,vert,up,"[99999,99999]","[-150,0]",left,0,,,,,,001,2025-03-17_12h54.12.187,SL_base_41,2021.2.3,Win32,58.70267097,2.8904,,,43,0,43,0,1,,,,,,,,
,,"[""circle"",""no_dis"",""hori"",""left"",[99999,99999],[-150,0]]",circle,no_dis,hori,left,"[99999,99999]","[-150,0]",left,1,,,,,,001,2025-03-17_12h54.12.187,SL_base_41,2021.2.3,Win32,58.70267097,1.5651,,,44,0,44,0,1,,,,,,,,
,,"[""circle"",""green"",""vert"",""up"",[106,-106],[-106,-106]]",circle,green,vert,up,"[106,-106]","[-106,-106]",up,1,,,,,,001,2025-03-17_12h54.12.187,SL_base_41,2021.2.3,Win32,58.70267097,1.0233,,,45,0,45,0,1,,,,,,,,
,,"[""diamond"",""red"",""hori"",""left"",[106,-106],[0,150]]",diamond,red,hori,left,"[106,-106]","[0,150]",left,1,,,,,,001,2025-03-17_12h54.12.187,SL_base_41,2021.2.3,Win32,58.70267097,1.9488,,,46,0,46,0,1,,,,,,,,
,,"[""circle"",""green"",""vert"",""up"",[-150,0],[106,106]]",circle,green,vert,up,"[-150,0]","[106,106]",up,1,,,,,,001,2025-03-17_12h54.12.187,SL_base_41,2021.2.3,Win32,58.70267097,2.224,,,47,0,47,0,1,,,,,,,,
,,"[""diamond"",""red"",""hori"",""left"",[-150,0],[0,-150]]",diamond,red,hori,left,"[-150,0]","[0,-150]",left,1,,,,,,001,2025-03-17_12h54.12.187,SL_base_41,2021.2.3,Win32,58.70267097,2.4327,,,48,0,48,0,1,,,,,,,,
,,"[""diamond"",""no_dis"",""hori"",""left"",[99999,99999],[106,-106]]",diamond,no_dis,hori,left,"[99999,99999]","[106,-106]",left,1,,,,,,001,2025-03-17_12h54.12.187,SL_base_41,2021.2.3,Win32,58.70267097,1.4887,,,49,0,49,0,1,,,,,,,,
,,"[""circle"",""green"",""vert"",""up"",[-106,106],[106,106]]",circle,green,vert,up,"[-106,106]","[106,106]",up,1,,,,,,001,2025-03-17_12h54.12.187,SL_base_41,2021.2.3,Win32,58.70267097,1.5539,,,50,0,50,0,1,,,,,,,,
,,"[""circle"",""no_dis"",""hori"",""left"",[99999,99999],[106,-106]]",circle,no_dis,hori,left,"[99999,99999]","[106,-106]",left,1,,,,,,001,2025-03-17_12h54.12.187,SL_base_41,2021.2.3,Win32,58.70267097,2.4697,,,51,0,51,0,1,,,,,,,,
,,"[""diamond"",""green"",""hori"",""left"",[-106,106],[-106,-106]]",diamond,green,hori,left,"[-106,106]","[-106,-106]",left,1,,,,,,001,2025-03-17_12h54.12.187,SL_base_41,2021.2.3,Win32,58.70267097,1.6831,,,52,0,52,0,1,,,,,,,,
,,"[""diamond"",""no_dis"",""hori"",""left"",[99999,99999],[150,0]]",diamond,no_dis,hori,left,"[99999,99999]","[150,0]",left,1,,,,,,001,2025-03-17_12h54.12.187,SL_base_41,2021.2.3,Win32,58.70267097,1.082,,,53,0,53,0,1,,,,,,,,
,,"[""circle"",""red"",""vert"",""up"",[106,106],[-150,0]]",circle,red,vert,up,"[106,106]","[-150,0]",up,1,,,,,,001,2025-03-17_12h54.12.187,SL_base_41,2021.2.3,Win32,58.70267097,1.1066,,,54,0,54,0,1,,,,,,,,
,,"[""diamond"",""no_dis"",""hori"",""left"",[99999,99999],[106,-106]]",diamond,no_dis,hori,left,"[99999,99999]","[106,-106]",left,1,,,,,,001,2025-03-17_12h54.12.187,SL_base_41,2021.2.3,Win32,58.70267097,1.0497,,,55,0,55,0,1,,,,,,,,
,,"[""circle"",""green"",""vert"",""up"",[106,106],[-106,106]]",circle,green,vert,up,"[106,106]","[-106,106]",up,1,,,,,,001,2025-03-17_12h54.12.187,SL_base_41,2021.2.3,Win32,58.70267097,1.1309,,,56,0,56,0,1,,,,,,,,
,,"[""circle"",""no_dis"",""vert"",""up"",[99999,99999],[-106,-106]]",circle,no_dis,vert,up,"[99999,99999]","[-106,-106]",up,1,,,,,,001,2025-03-17_12h54.12.187,SL_base_41,2021.2.3,Win32,58.70267097,1.1305,,,57,0,57,0,1,,,,,,,,
,,"[""diamond"",""green"",""hori"",""left"",[0,150],[150,0]]",diamond,green,hori,left,"[0,150]","[150,0]",left,1,,,,,,001,2025-03-17_12h54.12.187,SL_base_41,2021.2.3,Win32,58.70267097,0.9536,,,58,0,58,0,1,,,,,,,,
