﻿key_resp.keys,key_resp.rt,trial_para,tar_shape,dis_color_condi,tar_line,cor_resp,dis_loc,tar_loc,resp.keys,resp.corr,resp.rt,trials.thisRepN,trials.thisTrialN,trials.thisN,trials.thisIndex,trials.ran,participant,date,expName,psychopyVersion,OS,frameRate,key_resp_2.keys,key_resp_2.rt,trials_2.thisRepN,trials_2.thisTrialN,trials_2.thisN,trials_2.thisIndex,trials_2.ran,block_num,key_resp_3.keys,key_resp_3.rt,trials_3.thisRepN,trials_3.thisTrialN,trials_3.thisN,trials_3.thisIndex,trials_3.ran
space,15.2587,"[""circle"",""no_dis"",""vert"",""up"",[99999,99999],[-106,-106]]",circle,no_dis,vert,up,"[99999,99999]","[-106,-106]",up,1,2.7422,0,0,0,0,1,001,2025-03-10_20h03.32.977,SL_base_41,2021.2.3,Win32,60.24096386,,,,,,,,,,,,,,,
,,"[""circle"",""green"",""vert"",""up"",[-106,-106],[0,-150]]",circle,green,vert,up,"[-106,-106]","[0,-150]",up,1,1.7853,1,0,1,0,1,001,2025-03-10_20h03.32.977,SL_base_41,2021.2.3,Win32,60.24096386,,,,,,,,,,,,,,,
,,"[""circle"",""red"",""vert"",""up"",[0,-150],[106,-106]]",circle,red,vert,up,"[0,-150]","[106,-106]",,0,,2,0,2,0,1,001,2025-03-10_20h03.32.977,SL_base_41,2021.2.3,Win32,60.24096386,,,,,,,,,,,,,,,
,,"[""diamond"",""red"",""hori"",""left"",[0,-150],[150,0]]",diamond,red,hori,left,"[0,-150]","[150,0]",up,0,1.5958,3,0,3,0,1,001,2025-03-10_20h03.32.977,SL_base_41,2021.2.3,Win32,60.24096386,,,,,,,,,,,,,,,
,,"[""diamond"",""red"",""vert"",""up"",[-106,-106],[150,0]]",diamond,red,vert,up,"[-106,-106]","[150,0]",left,0,1.02,4,0,4,0,1,001,2025-03-10_20h03.32.977,SL_base_41,2021.2.3,Win32,60.24096386,,,,,,,,,,,,,,,
,,"[""circle"",""no_dis"",""hori"",""left"",[99999,99999],[0,150]]",circle,no_dis,hori,left,"[99999,99999]","[0,150]",left,1,2.2924,5,0,5,0,1,001,2025-03-10_20h03.32.977,SL_base_41,2021.2.3,Win32,60.24096386,,,,,,,,,,,,,,,
,,"[""diamond"",""green"",""hori"",""left"",[106,106],[0,-150]]",diamond,green,hori,left,"[106,106]","[0,-150]",,0,,6,0,6,0,1,001,2025-03-10_20h03.32.977,SL_base_41,2021.2.3,Win32,60.24096386,,,,,,,,,,,,,,,
,,"[""diamond"",""no_dis"",""hori"",""left"",[99999,99999],[0,150]]",diamond,no_dis,hori,left,"[99999,99999]","[0,150]",left,1,1.1257,7,0,7,0,1,001,2025-03-10_20h03.32.977,SL_base_41,2021.2.3,Win32,60.24096386,,,,,,,,,,,,,,,
,,"[""diamond"",""no_dis"",""vert"",""up"",[99999,99999],[-106,-106]]",diamond,no_dis,vert,up,"[99999,99999]","[-106,-106]",up,1,1.5158,8,0,8,0,1,001,2025-03-10_20h03.32.977,SL_base_41,2021.2.3,Win32,60.24096386,,,,,,,,,,,,,,,
,,"[""circle"",""red"",""hori"",""left"",[0,150],[106,106]]",circle,red,hori,left,"[0,150]","[106,106]",left,1,1.1735,9,0,9,0,1,001,2025-03-10_20h03.32.977,SL_base_41,2021.2.3,Win32,60.24096386,,,,,,,,,,,,,,,
,,"[""circle"",""no_dis"",""vert"",""up"",[99999,99999],[-106,-106]]",circle,no_dis,vert,up,"[99999,99999]","[-106,-106]",up,1,1.1697,,,,,,001,2025-03-10_20h03.32.977,SL_base_41,2021.2.3,Win32,60.24096386,space,9.3657,0,0,0,0,1,,,,,,,,
,,"[""circle"",""green"",""vert"",""up"",[-106,-106],[0,-150]]",circle,green,vert,up,"[-106,-106]","[0,-150]",up,1,2.0215,,,,,,001,2025-03-10_20h03.32.977,SL_base_41,2021.2.3,Win32,60.24096386,,,1,0,1,0,1,,,,,,,,
,,"[""circle"",""red"",""vert"",""up"",[0,-150],[106,-106]]",circle,red,vert,up,"[0,-150]","[106,-106]",left,0,1.3205,,,,,,001,2025-03-10_20h03.32.977,SL_base_41,2021.2.3,Win32,60.24096386,,,2,0,2,0,1,,,,,,,,
,,"[""diamond"",""red"",""hori"",""left"",[0,-150],[150,0]]",diamond,red,hori,left,"[0,-150]","[150,0]",left,1,2.6553,,,,,,001,2025-03-10_20h03.32.977,SL_base_41,2021.2.3,Win32,60.24096386,,,3,0,3,0,1,,,,,,,,
,,"[""diamond"",""red"",""vert"",""up"",[-106,-106],[150,0]]",diamond,red,vert,up,"[-106,-106]","[150,0]",up,1,1.7656,,,,,,001,2025-03-10_20h03.32.977,SL_base_41,2021.2.3,Win32,60.24096386,,,4,0,4,0,1,,,,,,,,
,,"[""circle"",""no_dis"",""hori"",""left"",[99999,99999],[0,150]]",circle,no_dis,hori,left,"[99999,99999]","[0,150]",left,1,1.6169,,,,,,001,2025-03-10_20h03.32.977,SL_base_41,2021.2.3,Win32,60.24096386,,,5,0,5,0,1,,,,,,,,
,,"[""diamond"",""green"",""hori"",""left"",[106,106],[0,-150]]",diamond,green,hori,left,"[106,106]","[0,-150]",left,1,2.2858,,,,,,001,2025-03-10_20h03.32.977,SL_base_41,2021.2.3,Win32,60.24096386,,,6,0,6,0,1,,,,,,,,
,,"[""diamond"",""no_dis"",""hori"",""left"",[99999,99999],[0,150]]",diamond,no_dis,hori,left,"[99999,99999]","[0,150]",left,1,1.1663,,,,,,001,2025-03-10_20h03.32.977,SL_base_41,2021.2.3,Win32,60.24096386,,,7,0,7,0,1,,,,,,,,
,,"[""diamond"",""no_dis"",""vert"",""up"",[99999,99999],[-106,-106]]",diamond,no_dis,vert,up,"[99999,99999]","[-106,-106]",up,1,1.7479,,,,,,001,2025-03-10_20h03.32.977,SL_base_41,2021.2.3,Win32,60.24096386,,,8,0,8,0,1,,,,,,,,
,,"[""circle"",""red"",""hori"",""left"",[0,150],[106,106]]",circle,red,hori,left,"[0,150]","[106,106]",up,0,1.1822,,,,,,001,2025-03-10_20h03.32.977,SL_base_41,2021.2.3,Win32,60.24096386,,,9,0,9,0,1,,,,,,,,
,,"[""diamond"",""green"",""hori"",""left"",[0,-150],[150,0]]",diamond,green,hori,left,"[0,-150]","[150,0]",left,1,1.6751,,,,,,001,2025-03-10_20h03.32.977,SL_base_41,2021.2.3,Win32,60.24096386,,,10,0,10,0,1,,,,,,,,
,,"[""circle"",""green"",""hori"",""left"",[0,-150],[106,-106]]",circle,green,hori,left,"[0,-150]","[106,-106]",left,1,1.823,,,,,,001,2025-03-10_20h03.32.977,SL_base_41,2021.2.3,Win32,60.24096386,,,11,0,11,0,1,,,,,,,,
,,"[""circle"",""no_dis"",""vert"",""up"",[99999,99999],[150,0]]",circle,no_dis,vert,up,"[99999,99999]","[150,0]",up,1,0.9379,,,,,,001,2025-03-10_20h03.32.977,SL_base_41,2021.2.3,Win32,60.24096386,,,12,0,12,0,1,,,,,,,,
,,"[""circle"",""red"",""vert"",""up"",[106,106],[0,-150]]",circle,red,vert,up,"[106,106]","[0,-150]",up,1,1.5195,,,,,,001,2025-03-10_20h03.32.977,SL_base_41,2021.2.3,Win32,60.24096386,,,13,0,13,0,1,,,,,,,,
,,"[""circle"",""red"",""vert"",""up"",[0,150],[-150,0]]",circle,red,vert,up,"[0,150]","[-150,0]",up,1,1.7498,,,,,,001,2025-03-10_20h03.32.977,SL_base_41,2021.2.3,Win32,60.24096386,,,14,0,14,0,1,,,,,,,,
,,"[""diamond"",""red"",""hori"",""left"",[106,-106],[150,0]]",diamond,red,hori,left,"[106,-106]","[150,0]",left,1,1.4981,,,,,,001,2025-03-10_20h03.32.977,SL_base_41,2021.2.3,Win32,60.24096386,,,15,0,15,0,1,,,,,,,,
,,"[""circle"",""green"",""hori"",""left"",[-106,106],[0,150]]",circle,green,hori,left,"[-106,106]","[0,150]",left,1,1.8522,,,,,,001,2025-03-10_20h03.32.977,SL_base_41,2021.2.3,Win32,60.24096386,,,16,0,16,0,1,,,,,,,,
,,"[""circle"",""red"",""hori"",""left"",[106,106],[-106,-106]]",circle,red,hori,left,"[106,106]","[-106,-106]",left,1,1.8652,,,,,,001,2025-03-10_20h03.32.977,SL_base_41,2021.2.3,Win32,60.24096386,,,17,0,17,0,1,,,,,,,,
,,"[""circle"",""no_dis"",""vert"",""up"",[99999,99999],[106,106]]",circle,no_dis,vert,up,"[99999,99999]","[106,106]",up,1,1.1317,,,,,,001,2025-03-10_20h03.32.977,SL_base_41,2021.2.3,Win32,60.24096386,,,18,0,18,0,1,,,,,,,,
,,"[""circle"",""no_dis"",""vert"",""up"",[99999,99999],[-150,0]]",circle,no_dis,vert,up,"[99999,99999]","[-150,0]",up,1,1.6977,,,,,,001,2025-03-10_20h03.32.977,SL_base_41,2021.2.3,Win32,60.24096386,,,19,0,19,0,1,,,,,,,,
,,"[""circle"",""no_dis"",""vert"",""up"",[99999,99999],[106,-106]]",circle,no_dis,vert,up,"[99999,99999]","[106,-106]",left,0,1.5383,,,,,,001,2025-03-10_20h03.32.977,SL_base_41,2021.2.3,Win32,60.24096386,,,20,0,20,0,1,,,,,,,,
,,"[""circle"",""no_dis"",""hori"",""left"",[99999,99999],[0,-150]]",circle,no_dis,hori,left,"[99999,99999]","[0,-150]",left,1,1.0413,,,,,,001,2025-03-10_20h03.32.977,SL_base_41,2021.2.3,Win32,60.24096386,,,21,0,21,0,1,,,,,,,,
,,"[""diamond"",""green"",""vert"",""up"",[0,150],[0,-150]]",diamond,green,vert,up,"[0,150]","[0,-150]",up,1,1.3412,,,,,,001,2025-03-10_20h03.32.977,SL_base_41,2021.2.3,Win32,60.24096386,,,22,0,22,0,1,,,,,,,,
,,"[""circle"",""no_dis"",""hori"",""left"",[99999,99999],[106,106]]",circle,no_dis,hori,left,"[99999,99999]","[106,106]",left,1,2.5504,,,,,,001,2025-03-10_20h03.32.977,SL_base_41,2021.2.3,Win32,60.24096386,,,23,0,23,0,1,,,,,,,,
,,"[""diamond"",""no_dis"",""hori"",""left"",[99999,99999],[0,150]]",diamond,no_dis,hori,left,"[99999,99999]","[0,150]",left,1,1.2091,,,,,,001,2025-03-10_20h03.32.977,SL_base_41,2021.2.3,Win32,60.24096386,,,24,0,24,0,1,,,,,,,,
,,"[""diamond"",""no_dis"",""vert"",""up"",[99999,99999],[0,-150]]",diamond,no_dis,vert,up,"[99999,99999]","[0,-150]",up,1,1.8647,,,,,,001,2025-03-10_20h03.32.977,SL_base_41,2021.2.3,Win32,60.24096386,,,25,0,25,0,1,,,,,,,,
,,"[""circle"",""green"",""hori"",""left"",[0,-150],[106,106]]",circle,green,hori,left,"[0,-150]","[106,106]",up,0,2.6931,,,,,,001,2025-03-10_20h03.32.977,SL_base_41,2021.2.3,Win32,60.24096386,,,26,0,26,0,1,,,,,,,,
,,"[""circle"",""green"",""hori"",""left"",[0,-150],[106,-106]]",circle,green,hori,left,"[0,-150]","[106,-106]",up,0,1.2669,,,,,,001,2025-03-10_20h03.32.977,SL_base_41,2021.2.3,Win32,60.24096386,,,27,0,27,0,1,,,,,,,,
,,"[""circle"",""no_dis"",""vert"",""up"",[99999,99999],[0,150]]",circle,no_dis,vert,up,"[99999,99999]","[0,150]",up,1,1.8008,,,,,,001,2025-03-10_20h03.32.977,SL_base_41,2021.2.3,Win32,60.24096386,,,28,0,28,0,1,,,,,,,,
,,"[""circle"",""green"",""hori"",""left"",[0,-150],[150,0]]",circle,green,hori,left,"[0,-150]","[150,0]",left,1,2.0029,,,,,,001,2025-03-10_20h03.32.977,SL_base_41,2021.2.3,Win32,60.24096386,,,29,0,29,0,1,,,,,,,,
,,"[""diamond"",""red"",""hori"",""left"",[150,0],[-106,106]]",diamond,red,hori,left,"[150,0]","[-106,106]",left,1,1.8173,,,,,,001,2025-03-10_20h03.32.977,SL_base_41,2021.2.3,Win32,60.24096386,,,30,0,30,0,1,,,,,,,,
,,"[""diamond"",""no_dis"",""vert"",""up"",[99999,99999],[-106,106]]",diamond,no_dis,vert,up,"[99999,99999]","[-106,106]",up,1,1.5509,,,,,,001,2025-03-10_20h03.32.977,SL_base_41,2021.2.3,Win32,60.24096386,,,31,0,31,0,1,,,,,,,,
,,"[""diamond"",""no_dis"",""vert"",""up"",[99999,99999],[-150,0]]",diamond,no_dis,vert,up,"[99999,99999]","[-150,0]",up,1,2.5388,,,,,,001,2025-03-10_20h03.32.977,SL_base_41,2021.2.3,Win32,60.24096386,,,32,0,32,0,1,,,,,,,,
,,"[""circle"",""green"",""vert"",""up"",[150,0],[0,150]]",circle,green,vert,up,"[150,0]","[0,150]",up,1,2.0932,,,,,,001,2025-03-10_20h03.32.977,SL_base_41,2021.2.3,Win32,60.24096386,,,33,0,33,0,1,,,,,,,,
,,"[""circle"",""red"",""vert"",""up"",[-150,0],[106,106]]",circle,red,vert,up,"[-150,0]","[106,106]",up,1,1.7948,,,,,,001,2025-03-10_20h03.32.977,SL_base_41,2021.2.3,Win32,60.24096386,,,34,0,34,0,1,,,,,,,,
,,"[""circle"",""red"",""vert"",""up"",[150,0],[106,-106]]",circle,red,vert,up,"[150,0]","[106,-106]",up,1,1.6175,,,,,,001,2025-03-10_20h03.32.977,SL_base_41,2021.2.3,Win32,60.24096386,,,35,0,35,0,1,,,,,,,,
,,"[""circle"",""no_dis"",""hori"",""left"",[99999,99999],[150,0]]",circle,no_dis,hori,left,"[99999,99999]","[150,0]",left,1,1.2983,,,,,,001,2025-03-10_20h03.32.977,SL_base_41,2021.2.3,Win32,60.24096386,,,36,0,36,0,1,,,,,,,,
,,"[""diamond"",""no_dis"",""hori"",""left"",[99999,99999],[150,0]]",diamond,no_dis,hori,left,"[99999,99999]","[150,0]",left,1,1.6084,,,,,,001,2025-03-10_20h03.32.977,SL_base_41,2021.2.3,Win32,60.24096386,,,37,0,37,0,1,,,,,,,,
,,"[""diamond"",""no_dis"",""hori"",""left"",[99999,99999],[-106,106]]",diamond,no_dis,hori,left,"[99999,99999]","[-106,106]",left,1,1.4834,,,,,,001,2025-03-10_20h03.32.977,SL_base_41,2021.2.3,Win32,60.24096386,,,38,0,38,0,1,,,,,,,,
,,"[""circle"",""green"",""hori"",""left"",[-106,106],[0,150]]",circle,green,hori,left,"[-106,106]","[0,150]",left,1,1.4622,,,,,,001,2025-03-10_20h03.32.977,SL_base_41,2021.2.3,Win32,60.24096386,,,39,0,39,0,1,,,,,,,,
,,"[""circle"",""no_dis"",""hori"",""left"",[99999,99999],[106,106]]",circle,no_dis,hori,left,"[99999,99999]","[106,106]",left,1,1.3458,,,,,,001,2025-03-10_20h03.32.977,SL_base_41,2021.2.3,Win32,60.24096386,,,40,0,40,0,1,,,,,,,,
,,"[""circle"",""red"",""vert"",""up"",[106,106],[-150,0]]",circle,red,vert,up,"[106,106]","[-150,0]",up,1,1.5993,,,,,,001,2025-03-10_20h03.32.977,SL_base_41,2021.2.3,Win32,60.24096386,,,41,0,41,0,1,,,,,,,,
,,"[""circle"",""green"",""vert"",""up"",[150,0],[0,-150]]",circle,green,vert,up,"[150,0]","[0,-150]",up,1,1.7827,,,,,,001,2025-03-10_20h03.32.977,SL_base_41,2021.2.3,Win32,60.24096386,,,42,0,42,0,1,,,,,,,,
,,"[""diamond"",""green"",""hori"",""left"",[-150,0],[0,150]]",diamond,green,hori,left,"[-150,0]","[0,150]",up,0,1.9262,,,,,,001,2025-03-10_20h03.32.977,SL_base_41,2021.2.3,Win32,60.24096386,,,43,0,43,0,1,,,,,,,,
,,"[""circle"",""green"",""vert"",""up"",[106,106],[-150,0]]",circle,green,vert,up,"[106,106]","[-150,0]",,0,,,,,,,001,2025-03-10_20h03.32.977,SL_base_41,2021.2.3,Win32,60.24096386,,,44,0,44,0,1,,,,,,,,
,,"[""diamond"",""green"",""vert"",""up"",[0,-150],[106,-106]]",diamond,green,vert,up,"[0,-150]","[106,-106]",up,1,2.4016,,,,,,001,2025-03-10_20h03.32.977,SL_base_41,2021.2.3,Win32,60.24096386,,,45,0,45,0,1,,,,,,,,
,,"[""diamond"",""no_dis"",""vert"",""up"",[99999,99999],[106,-106]]",diamond,no_dis,vert,up,"[99999,99999]","[106,-106]",up,1,1.2715,,,,,,001,2025-03-10_20h03.32.977,SL_base_41,2021.2.3,Win32,60.24096386,,,46,0,46,0,1,,,,,,,,
,,"[""diamond"",""no_dis"",""hori"",""left"",[99999,99999],[0,-150]]",diamond,no_dis,hori,left,"[99999,99999]","[0,-150]",left,1,2.0187,,,,,,001,2025-03-10_20h03.32.977,SL_base_41,2021.2.3,Win32,60.24096386,,,47,0,47,0,1,,,,,,,,
,,"[""circle"",""red"",""hori"",""left"",[-150,0],[106,-106]]",circle,red,hori,left,"[-150,0]","[106,-106]",left,1,2.3264,,,,,,001,2025-03-10_20h03.32.977,SL_base_41,2021.2.3,Win32,60.24096386,,,48,0,48,0,1,,,,,,,,
,,"[""diamond"",""red"",""vert"",""up"",[0,-150],[-106,-106]]",diamond,red,vert,up,"[0,-150]","[-106,-106]",up,1,1.7113,,,,,,001,2025-03-10_20h03.32.977,SL_base_41,2021.2.3,Win32,60.24096386,,,49,0,49,0,1,,,,,,,,
,,"[""circle"",""green"",""hori"",""left"",[-106,-106],[-106,106]]",circle,green,hori,left,"[-106,-106]","[-106,106]",left,1,1.7051,,,,,,001,2025-03-10_20h03.32.977,SL_base_41,2021.2.3,Win32,60.24096386,,,50,0,50,0,1,,,,,,,,
,,"[""circle"",""red"",""hori"",""left"",[106,-106],[-150,0]]",circle,red,hori,left,"[106,-106]","[-150,0]",left,1,2.1775,,,,,,001,2025-03-10_20h03.32.977,SL_base_41,2021.2.3,Win32,60.24096386,,,51,0,51,0,1,,,,,,,,
,,"[""diamond"",""green"",""hori"",""left"",[106,-106],[106,106]]",diamond,green,hori,left,"[106,-106]","[106,106]",left,1,2.1003,,,,,,001,2025-03-10_20h03.32.977,SL_base_41,2021.2.3,Win32,60.24096386,,,52,0,52,0,1,,,,,,,,
,,"[""diamond"",""no_dis"",""hori"",""left"",[99999,99999],[-150,0]]",diamond,no_dis,hori,left,"[99999,99999]","[-150,0]",left,1,1.1425,,,,,,001,2025-03-10_20h03.32.977,SL_base_41,2021.2.3,Win32,60.24096386,,,53,0,53,0,1,,,,,,,,
,,"[""circle"",""green"",""hori"",""left"",[0,-150],[-106,-106]]",circle,green,hori,left,"[0,-150]","[-106,-106]",up,0,1.1829,,,,,,001,2025-03-10_20h03.32.977,SL_base_41,2021.2.3,Win32,60.24096386,,,54,0,54,0,1,,,,,,,,
,,"[""diamond"",""red"",""hori"",""left"",[0,-150],[0,150]]",diamond,red,hori,left,"[0,-150]","[0,150]",,0,,,,,,,001,2025-03-10_20h03.32.977,SL_base_41,2021.2.3,Win32,60.24096386,,,55,0,55,0,1,,,,,,,,
,,"[""diamond"",""green"",""vert"",""up"",[0,-150],[-106,-106]]",diamond,green,vert,up,"[0,-150]","[-106,-106]",up,1,2.4185,,,,,,001,2025-03-10_20h03.32.977,SL_base_41,2021.2.3,Win32,60.24096386,,,56,0,56,0,1,,,,,,,,
,,"[""circle"",""green"",""vert"",""up"",[0,-150],[-150,0]]",circle,green,vert,up,"[0,-150]","[-150,0]",up,1,2.5403,,,,,,001,2025-03-10_20h03.32.977,SL_base_41,2021.2.3,Win32,60.24096386,,,57,0,57,0,1,,,,,,,,
,,"[""diamond"",""no_dis"",""vert"",""up"",[99999,99999],[0,150]]",diamond,no_dis,vert,up,"[99999,99999]","[0,150]",up,1,1.2357,,,,,,001,2025-03-10_20h03.32.977,SL_base_41,2021.2.3,Win32,60.24096386,,,58,0,58,0,1,,,,,,,,
,,"[""circle"",""green"",""vert"",""up"",[150,0],[-106,106]]",circle,green,vert,up,"[150,0]","[-106,106]",up,1,2.5696,,,,,,001,2025-03-10_20h03.32.977,SL_base_41,2021.2.3,Win32,60.24096386,,,59,0,59,0,1,,,,,,,,
,,"[""circle"",""no_dis"",""vert"",""up"",[99999,99999],[106,-106]]",circle,no_dis,vert,up,"[99999,99999]","[106,-106]",left,0,1.7687,,,,,,001,2025-03-10_20h03.32.977,SL_base_41,2021.2.3,Win32,60.24096386,,,60,0,60,0,1,,,,,,,,
,,"[""circle"",""green"",""vert"",""up"",[0,-150],[-106,106]]",circle,green,vert,up,"[0,-150]","[-106,106]",up,1,1.3401,,,,,,001,2025-03-10_20h03.32.977,SL_base_41,2021.2.3,Win32,60.24096386,,,61,0,61,0,1,,,,,,,,
,,"[""circle"",""red"",""hori"",""left"",[0,-150],[-106,106]]",circle,red,hori,left,"[0,-150]","[-106,106]",up,0,2.3061,,,,,,001,2025-03-10_20h03.32.977,SL_base_41,2021.2.3,Win32,60.24096386,,,62,0,62,0,1,,,,,,,,
,,"[""diamond"",""green"",""hori"",""left"",[0,150],[-106,-106]]",diamond,green,hori,left,"[0,150]","[-106,-106]",left,1,1.4219,,,,,,001,2025-03-10_20h03.32.977,SL_base_41,2021.2.3,Win32,60.24096386,,,63,0,63,0,1,,,,,,,,
,,"[""diamond"",""green"",""vert"",""up"",[0,-150],[-150,0]]",diamond,green,vert,up,"[0,-150]","[-150,0]",up,1,1.9491,,,,,,001,2025-03-10_20h03.32.977,SL_base_41,2021.2.3,Win32,60.24096386,,,64,0,64,0,1,,,,,,,,
,,"[""circle"",""red"",""hori"",""left"",[150,0],[-106,-106]]",circle,red,hori,left,"[150,0]","[-106,-106]",left,1,1.643,,,,,,001,2025-03-10_20h03.32.977,SL_base_41,2021.2.3,Win32,60.24096386,,,65,0,65,0,1,,,,,,,,
,,"[""diamond"",""green"",""hori"",""left"",[106,106],[106,-106]]",diamond,green,hori,left,"[106,106]","[106,-106]",up,0,1.2866,,,,,,001,2025-03-10_20h03.32.977,SL_base_41,2021.2.3,Win32,60.24096386,,,66,0,66,0,1,,,,,,,,
,,"[""diamond"",""no_dis"",""vert"",""up"",[99999,99999],[150,0]]",diamond,no_dis,vert,up,"[99999,99999]","[150,0]",up,1,2.138,,,,,,001,2025-03-10_20h03.32.977,SL_base_41,2021.2.3,Win32,60.24096386,,,67,0,67,0,1,,,,,,,,
,,"[""diamond"",""red"",""vert"",""up"",[-106,-106],[-106,106]]",diamond,red,vert,up,"[-106,-106]","[-106,106]",up,1,2.9282,,,,,,001,2025-03-10_20h03.32.977,SL_base_41,2021.2.3,Win32,60.24096386,,,68,0,68,0,1,,,,,,,,
,,"[""diamond"",""red"",""vert"",""up"",[-106,106],[-106,-106]]",diamond,red,vert,up,"[-106,106]","[-106,-106]",left,0,2.3015,,,,,,001,2025-03-10_20h03.32.977,SL_base_41,2021.2.3,Win32,60.24096386,,,69,0,69,0,1,,,,,,,,
,,"[""diamond"",""red"",""vert"",""up"",[-150,0],[0,150]]",diamond,red,vert,up,"[-150,0]","[0,150]",left,0,2.8548,,,,,,001,2025-03-10_20h03.32.977,SL_base_41,2021.2.3,Win32,60.24096386,,,70,0,70,0,1,,,,,,,,
,,"[""circle"",""green"",""vert"",""up"",[106,-106],[-150,0]]",circle,green,vert,up,"[106,-106]","[-150,0]",up,1,1.9979,,,,,,001,2025-03-10_20h03.32.977,SL_base_41,2021.2.3,Win32,60.24096386,,,71,0,71,0,1,,,,,,,,
,,"[""diamond"",""no_dis"",""hori"",""left"",[99999,99999],[106,-106]]",diamond,no_dis,hori,left,"[99999,99999]","[106,-106]",up,0,2.1951,,,,,,001,2025-03-10_20h03.32.977,SL_base_41,2021.2.3,Win32,60.24096386,,,72,0,72,0,1,,,,,,,,
,,"[""circle"",""no_dis"",""vert"",""up"",[99999,99999],[-150,0]]",circle,no_dis,vert,up,"[99999,99999]","[-150,0]",up,1,1.4852,,,,,,001,2025-03-10_20h03.32.977,SL_base_41,2021.2.3,Win32,60.24096386,,,73,0,73,0,1,,,,,,,,
,,"[""diamond"",""green"",""vert"",""up"",[0,-150],[106,106]]",diamond,green,vert,up,"[0,-150]","[106,106]",up,1,1.8847,,,,,,001,2025-03-10_20h03.32.977,SL_base_41,2021.2.3,Win32,60.24096386,,,74,0,74,0,1,,,,,,,,
,,"[""circle"",""no_dis"",""hori"",""left"",[99999,99999],[106,106]]",circle,no_dis,hori,left,"[99999,99999]","[106,106]",left,1,2.5897,,,,,,001,2025-03-10_20h03.32.977,SL_base_41,2021.2.3,Win32,60.24096386,,,75,0,75,0,1,,,,,,,,
,,"[""circle"",""green"",""hori"",""left"",[0,-150],[-106,106]]",circle,green,hori,left,"[0,-150]","[-106,106]",left,1,2.8019,,,,,,001,2025-03-10_20h03.32.977,SL_base_41,2021.2.3,Win32,60.24096386,,,76,0,76,0,1,,,,,,,,
,,"[""circle"",""no_dis"",""hori"",""left"",[99999,99999],[-106,106]]",circle,no_dis,hori,left,"[99999,99999]","[-106,106]",left,1,1.956,,,,,,001,2025-03-10_20h03.32.977,SL_base_41,2021.2.3,Win32,60.24096386,,,77,0,77,0,1,,,,,,,,
,,"[""diamond"",""red"",""vert"",""up"",[-106,-106],[-150,0]]",diamond,red,vert,up,"[-106,-106]","[-150,0]",up,1,2.2352,,,,,,001,2025-03-10_20h03.32.977,SL_base_41,2021.2.3,Win32,60.24096386,,,78,0,78,0,1,,,,,,,,
,,"[""circle"",""red"",""vert"",""up"",[0,150],[-150,0]]",circle,red,vert,up,"[0,150]","[-150,0]",left,0,2.9482,,,,,,001,2025-03-10_20h03.32.977,SL_base_41,2021.2.3,Win32,60.24096386,,,79,0,79,0,1,,,,,,,,
,,"[""circle"",""red"",""hori"",""left"",[106,-106],[106,106]]",circle,red,hori,left,"[106,-106]","[106,106]",left,1,1.9057,,,,,,001,2025-03-10_20h03.32.977,SL_base_41,2021.2.3,Win32,60.24096386,,,80,0,80,0,1,,,,,,,,
,,"[""diamond"",""no_dis"",""hori"",""left"",[99999,99999],[-106,-106]]",diamond,no_dis,hori,left,"[99999,99999]","[-106,-106]",left,1,1.8308,,,,,,001,2025-03-10_20h03.32.977,SL_base_41,2021.2.3,Win32,60.24096386,,,81,0,81,0,1,,,,,,,,
,,"[""circle"",""red"",""hori"",""left"",[106,-106],[0,-150]]",circle,red,hori,left,"[106,-106]","[0,-150]",left,1,1.4491,,,,,,001,2025-03-10_20h03.32.977,SL_base_41,2021.2.3,Win32,60.24096386,,,82,0,82,0,1,,,,,,,,
,,"[""diamond"",""green"",""vert"",""up"",[-106,-106],[-150,0]]",diamond,green,vert,up,"[-106,-106]","[-150,0]",left,0,0.7882,,,,,,001,2025-03-10_20h03.32.977,SL_base_41,2021.2.3,Win32,60.24096386,,,83,0,83,0,1,,,,,,,,
,,"[""circle"",""green"",""hori"",""left"",[0,-150],[106,106]]",circle,green,hori,left,"[0,-150]","[106,106]",left,1,1.241,,,,,,001,2025-03-10_20h03.32.977,SL_base_41,2021.2.3,Win32,60.24096386,,,84,0,84,0,1,,,,,,,,
,,"[""diamond"",""no_dis"",""vert"",""up"",[99999,99999],[0,-150]]",diamond,no_dis,vert,up,"[99999,99999]","[0,-150]",up,1,0.9275,,,,,,001,2025-03-10_20h03.32.977,SL_base_41,2021.2.3,Win32,60.24096386,,,85,0,85,0,1,,,,,,,,
,,"[""diamond"",""no_dis"",""hori"",""left"",[99999,99999],[-106,-106]]",diamond,no_dis,hori,left,"[99999,99999]","[-106,-106]",left,1,1.6843,,,,,,001,2025-03-10_20h03.32.977,SL_base_41,2021.2.3,Win32,60.24096386,,,86,0,86,0,1,,,,,,,,
,,"[""diamond"",""green"",""hori"",""left"",[106,106],[150,0]]",diamond,green,hori,left,"[106,106]","[150,0]",left,1,0.9738,,,,,,001,2025-03-10_20h03.32.977,SL_base_41,2021.2.3,Win32,60.24096386,,,87,0,87,0,1,,,,,,,,
,,"[""diamond"",""green"",""vert"",""up"",[-106,106],[106,-106]]",diamond,green,vert,up,"[-106,106]","[106,-106]",up,1,1.2375,,,,,,001,2025-03-10_20h03.32.977,SL_base_41,2021.2.3,Win32,60.24096386,,,88,0,88,0,1,,,,,,,,
,,"[""circle"",""no_dis"",""hori"",""left"",[99999,99999],[-106,-106]]",circle,no_dis,hori,left,"[99999,99999]","[-106,-106]",left,1,2.2438,,,,,,001,2025-03-10_20h03.32.977,SL_base_41,2021.2.3,Win32,60.24096386,,,89,0,89,0,1,,,,,,,,
,,"[""diamond"",""red"",""vert"",""up"",[0,-150],[0,150]]",diamond,red,vert,up,"[0,-150]","[0,150]",up,1,1.2672,,,,,,001,2025-03-10_20h03.32.977,SL_base_41,2021.2.3,Win32,60.24096386,,,90,0,90,0,1,,,,,,,,
,,"[""diamond"",""green"",""hori"",""left"",[106,-106],[-106,106]]",diamond,green,hori,left,"[106,-106]","[-106,106]",left,1,2.0241,,,,,,001,2025-03-10_20h03.32.977,SL_base_41,2021.2.3,Win32,60.24096386,,,91,0,91,0,1,,,,,,,,
,,"[""circle"",""red"",""hori"",""left"",[-106,106],[0,150]]",circle,red,hori,left,"[-106,106]","[0,150]",left,1,1.491,,,,,,001,2025-03-10_20h03.32.977,SL_base_41,2021.2.3,Win32,60.24096386,,,92,0,92,0,1,,,,,,,,
,,"[""circle"",""green"",""hori"",""left"",[0,150],[106,-106]]",circle,green,hori,left,"[0,150]","[106,-106]",up,0,1.4206,,,,,,001,2025-03-10_20h03.32.977,SL_base_41,2021.2.3,Win32,60.24096386,,,93,0,93,0,1,,,,,,,,
,,"[""diamond"",""red"",""hori"",""left"",[-106,-106],[150,0]]",diamond,red,hori,left,"[-106,-106]","[150,0]",left,1,1.6594,,,,,,001,2025-03-10_20h03.32.977,SL_base_41,2021.2.3,Win32,60.24096386,,,94,0,94,0,1,,,,,,,,
,,"[""diamond"",""green"",""hori"",""left"",[106,106],[-106,-106]]",diamond,green,hori,left,"[106,106]","[-106,-106]",left,1,1.8514,,,,,,001,2025-03-10_20h03.32.977,SL_base_41,2021.2.3,Win32,60.24096386,,,95,0,95,0,1,,,,,,,,
,,"[""diamond"",""green"",""vert"",""up"",[150,0],[106,-106]]",diamond,green,vert,up,"[150,0]","[106,-106]",up,1,2.3614,,,,,,001,2025-03-10_20h03.32.977,SL_base_41,2021.2.3,Win32,60.24096386,,,96,0,96,0,1,,,,,,,,
,,"[""diamond"",""green"",""vert"",""up"",[0,-150],[106,-106]]",diamond,green,vert,up,"[0,-150]","[106,-106]",up,1,2.2771,,,,,,001,2025-03-10_20h03.32.977,SL_base_41,2021.2.3,Win32,60.24096386,,,97,0,97,0,1,,,,,,,,
,,"[""circle"",""red"",""vert"",""up"",[0,-150],[106,-106]]",circle,red,vert,up,"[0,-150]","[106,-106]",,0,,,,,,,001,2025-03-10_20h03.32.977,SL_base_41,2021.2.3,Win32,60.24096386,,,98,0,98,0,1,,,,,,,,
,,"[""circle"",""no_dis"",""hori"",""left"",[99999,99999],[106,106]]",circle,no_dis,hori,left,"[99999,99999]","[106,106]",up,0,0.7606,,,,,,001,2025-03-10_20h03.32.977,SL_base_41,2021.2.3,Win32,60.24096386,,,99,0,99,0,1,,,,,,,,
,,"[""circle"",""red"",""vert"",""up"",[-106,106],[106,106]]",circle,red,vert,up,"[-106,106]","[106,106]",up,1,1.8947,,,,,,001,2025-03-10_20h03.32.977,SL_base_41,2021.2.3,Win32,60.24096386,,,100,0,100,0,1,,,,,,,,
,,"[""diamond"",""green"",""hori"",""left"",[-106,106],[-106,-106]]",diamond,green,hori,left,"[-106,106]","[-106,-106]",up,0,1.5832,,,,,,001,2025-03-10_20h03.32.977,SL_base_41,2021.2.3,Win32,60.24096386,,,101,0,101,0,1,,,,,,,,
,,"[""diamond"",""green"",""vert"",""up"",[0,150],[106,106]]",diamond,green,vert,up,"[0,150]","[106,106]",up,1,1.4145,,,,,,001,2025-03-10_20h03.32.977,SL_base_41,2021.2.3,Win32,60.24096386,,,102,0,102,0,1,,,,,,,,
,,"[""diamond"",""red"",""vert"",""up"",[-150,0],[0,-150]]",diamond,red,vert,up,"[-150,0]","[0,-150]",left,0,2.3357,,,,,,001,2025-03-10_20h03.32.977,SL_base_41,2021.2.3,Win32,60.24096386,,,103,0,103,0,1,,,,,,,,
,,"[""circle"",""green"",""vert"",""up"",[0,-150],[0,150]]",circle,green,vert,up,"[0,-150]","[0,150]",up,1,0.7927,,,,,,001,2025-03-10_20h03.32.977,SL_base_41,2021.2.3,Win32,60.24096386,,,104,0,104,0,1,,,,,,,,
,,"[""diamond"",""no_dis"",""vert"",""up"",[99999,99999],[106,-106]]",diamond,no_dis,vert,up,"[99999,99999]","[106,-106]",left,0,1.5141,,,,,,001,2025-03-10_20h03.32.977,SL_base_41,2021.2.3,Win32,60.24096386,,,105,0,105,0,1,,,,,,,,
,,"[""circle"",""red"",""hori"",""left"",[0,-150],[106,-106]]",circle,red,hori,left,"[0,-150]","[106,-106]",up,0,1.4844,,,,,,001,2025-03-10_20h03.32.977,SL_base_41,2021.2.3,Win32,60.24096386,,,106,0,106,0,1,,,,,,,,
,,"[""diamond"",""red"",""hori"",""left"",[0,-150],[-150,0]]",diamond,red,hori,left,"[0,-150]","[-150,0]",up,0,1.7344,,,,,,001,2025-03-10_20h03.32.977,SL_base_41,2021.2.3,Win32,60.24096386,,,107,0,107,0,1,,,,,,,,
,,"[""diamond"",""red"",""vert"",""up"",[0,-150],[0,150]]",diamond,red,vert,up,"[0,-150]","[0,150]",up,1,2.7426,,,,,,001,2025-03-10_20h03.32.977,SL_base_41,2021.2.3,Win32,60.24096386,,,108,0,108,0,1,,,,,,,,
,,"[""circle"",""no_dis"",""vert"",""up"",[99999,99999],[150,0]]",circle,no_dis,vert,up,"[99999,99999]","[150,0]",up,1,2.4427,,,,,,001,2025-03-10_20h03.32.977,SL_base_41,2021.2.3,Win32,60.24096386,,,109,0,109,0,1,,,,,,,,
,,"[""diamond"",""no_dis"",""vert"",""up"",[99999,99999],[0,-150]]",diamond,no_dis,vert,up,"[99999,99999]","[0,-150]",up,1,2.3592,,,,,,001,2025-03-10_20h03.32.977,SL_base_41,2021.2.3,Win32,60.24096386,,,110,0,110,0,1,,,,,,,,
,,"[""diamond"",""red"",""vert"",""up"",[0,-150],[150,0]]",diamond,red,vert,up,"[0,-150]","[150,0]",left,0,1.7323,,,,,,001,2025-03-10_20h03.32.977,SL_base_41,2021.2.3,Win32,60.24096386,,,111,0,111,0,1,,,,,,,,
,,"[""diamond"",""red"",""hori"",""left"",[-150,0],[0,-150]]",diamond,red,hori,left,"[-150,0]","[0,-150]",left,1,2.4594,,,,,,001,2025-03-10_20h03.32.977,SL_base_41,2021.2.3,Win32,60.24096386,,,112,0,112,0,1,,,,,,,,
,,"[""diamond"",""red"",""hori"",""left"",[0,-150],[106,106]]",diamond,red,hori,left,"[0,-150]","[106,106]",left,1,1.467,,,,,,001,2025-03-10_20h03.32.977,SL_base_41,2021.2.3,Win32,60.24096386,,,113,0,113,0,1,,,,,,,,
,,"[""diamond"",""green"",""hori"",""left"",[0,-150],[-106,-106]]",diamond,green,hori,left,"[0,-150]","[-106,-106]",left,1,1.1261,,,,,,001,2025-03-10_20h03.32.977,SL_base_41,2021.2.3,Win32,60.24096386,,,114,0,114,0,1,,,,,,,,
,,"[""diamond"",""no_dis"",""hori"",""left"",[99999,99999],[-106,106]]",diamond,no_dis,hori,left,"[99999,99999]","[-106,106]",left,1,1.6666,,,,,,001,2025-03-10_20h03.32.977,SL_base_41,2021.2.3,Win32,60.24096386,,,115,0,115,0,1,,,,,,,,
,,"[""circle"",""no_dis"",""vert"",""up"",[99999,99999],[-150,0]]",circle,no_dis,vert,up,"[99999,99999]","[-150,0]",up,1,2.2776,,,,,,001,2025-03-10_20h03.32.977,SL_base_41,2021.2.3,Win32,60.24096386,,,116,0,116,0,1,,,,,,,,
,,"[""circle"",""green"",""vert"",""up"",[106,-106],[150,0]]",circle,green,vert,up,"[106,-106]","[150,0]",up,1,2.3312,,,,,,001,2025-03-10_20h03.32.977,SL_base_41,2021.2.3,Win32,60.24096386,,,117,0,117,0,1,,,,,,,,
,,"[""circle"",""red"",""vert"",""up"",[-106,-106],[106,106]]",circle,red,vert,up,"[-106,-106]","[106,106]",up,1,2.835,,,,,,001,2025-03-10_20h03.32.977,SL_base_41,2021.2.3,Win32,60.24096386,,,118,0,118,0,1,,,,,,,,
,,"[""circle"",""no_dis"",""hori"",""left"",[99999,99999],[-106,106]]",circle,no_dis,hori,left,"[99999,99999]","[-106,106]",left,1,1.478,,,,,,001,2025-03-10_20h03.32.977,SL_base_41,2021.2.3,Win32,60.24096386,,,119,0,119,0,1,,,,,,,,
,,"[""diamond"",""green"",""vert"",""up"",[0,-150],[-106,-106]]",diamond,green,vert,up,"[0,-150]","[-106,-106]",up,1,2.3675,,,,,,001,2025-03-10_20h03.32.977,SL_base_41,2021.2.3,Win32,60.24096386,,,120,0,120,0,1,,,,,,,,
,,"[""diamond"",""red"",""vert"",""up"",[0,-150],[-106,-106]]",diamond,red,vert,up,"[0,-150]","[-106,-106]",up,1,1.308,,,,,,001,2025-03-10_20h03.32.977,SL_base_41,2021.2.3,Win32,60.24096386,,,121,0,121,0,1,,,,,,,,
,,"[""circle"",""red"",""vert"",""up"",[-106,106],[0,-150]]",circle,red,vert,up,"[-106,106]","[0,-150]",up,1,2.2019,,,,,,001,2025-03-10_20h03.32.977,SL_base_41,2021.2.3,Win32,60.24096386,,,122,0,122,0,1,,,,,,,,
,,"[""diamond"",""red"",""hori"",""left"",[0,150],[-106,106]]",diamond,red,hori,left,"[0,150]","[-106,106]",left,1,1.9995,,,,,,001,2025-03-10_20h03.32.977,SL_base_41,2021.2.3,Win32,60.24096386,,,123,0,123,0,1,,,,,,,,
,,"[""diamond"",""red"",""hori"",""left"",[-150,0],[106,-106]]",diamond,red,hori,left,"[-150,0]","[106,-106]",left,1,1.3031,,,,,,001,2025-03-10_20h03.32.977,SL_base_41,2021.2.3,Win32,60.24096386,,,124,0,124,0,1,,,,,,,,
,,"[""diamond"",""red"",""hori"",""left"",[150,0],[-106,106]]",diamond,red,hori,left,"[150,0]","[-106,106]",left,1,1.1168,,,,,,001,2025-03-10_20h03.32.977,SL_base_41,2021.2.3,Win32,60.24096386,,,125,0,125,0,1,,,,,,,,
,,"[""circle"",""red"",""hori"",""left"",[-150,0],[-106,-106]]",circle,red,hori,left,"[-150,0]","[-106,-106]",up,0,1.3426,,,,,,001,2025-03-10_20h03.32.977,SL_base_41,2021.2.3,Win32,60.24096386,,,126,0,126,0,1,,,,,,,,
,,"[""circle"",""green"",""vert"",""up"",[0,-150],[150,0]]",circle,green,vert,up,"[0,-150]","[150,0]",up,1,1.9834,,,,,,001,2025-03-10_20h03.32.977,SL_base_41,2021.2.3,Win32,60.24096386,,,127,0,127,0,1,,,,,,,,
,,,,,,,,,,,,,,,,,001,2025-03-10_20h03.32.977,SL_base_41,2021.2.3,Win32,60.24096386,,,,,,,,1,space,13.7327,0,0,0,0,1
,,"[""circle"",""green"",""vert"",""up"",[106,-106],[150,0]]",circle,green,vert,up,"[106,-106]","[150,0]",up,1,1.6956,,,,,,001,2025-03-10_20h03.32.977,SL_base_41,2021.2.3,Win32,60.24096386,,,0,0,0,0,1,,,,,,,,
,,"[""diamond"",""no_dis"",""hori"",""left"",[99999,99999],[-106,106]]",diamond,no_dis,hori,left,"[99999,99999]","[-106,106]",up,0,2.4291,,,,,,001,2025-03-10_20h03.32.977,SL_base_41,2021.2.3,Win32,60.24096386,,,1,0,1,0,1,,,,,,,,
,,"[""circle"",""red"",""vert"",""up"",[0,150],[-150,0]]",circle,red,vert,up,"[0,150]","[-150,0]",up,1,2.0316,,,,,,001,2025-03-10_20h03.32.977,SL_base_41,2021.2.3,Win32,60.24096386,,,2,0,2,0,1,,,,,,,,
,,"[""circle"",""no_dis"",""hori"",""left"",[99999,99999],[-106,106]]",circle,no_dis,hori,left,"[99999,99999]","[-106,106]",left,1,1.572,,,,,,001,2025-03-10_20h03.32.977,SL_base_41,2021.2.3,Win32,60.24096386,,,3,0,3,0,1,,,,,,,,
,,"[""circle"",""red"",""vert"",""up"",[-150,0],[106,106]]",circle,red,vert,up,"[-150,0]","[106,106]",up,1,1.4483,,,,,,001,2025-03-10_20h03.32.977,SL_base_41,2021.2.3,Win32,60.24096386,,,4,0,4,0,1,,,,,,,,
,,"[""diamond"",""green"",""hori"",""left"",[0,-150],[150,0]]",diamond,green,hori,left,"[0,-150]","[150,0]",up,0,2.2222,,,,,,001,2025-03-10_20h03.32.977,SL_base_41,2021.2.3,Win32,60.24096386,,,5,0,5,0,1,,,,,,,,
,,"[""circle"",""red"",""hori"",""left"",[-150,0],[106,-106]]",circle,red,hori,left,"[-150,0]","[106,-106]",left,1,1.5453,,,,,,001,2025-03-10_20h03.32.977,SL_base_41,2021.2.3,Win32,60.24096386,,,6,0,6,0,1,,,,,,,,
,,"[""diamond"",""green"",""hori"",""left"",[106,-106],[-106,106]]",diamond,green,hori,left,"[106,-106]","[-106,106]",left,1,1.7503,,,,,,001,2025-03-10_20h03.32.977,SL_base_41,2021.2.3,Win32,60.24096386,,,7,0,7,0,1,,,,,,,,
,,"[""circle"",""green"",""hori"",""left"",[0,-150],[106,-106]]",circle,green,hori,left,"[0,-150]","[106,-106]",left,1,2.096,,,,,,001,2025-03-10_20h03.32.977,SL_base_41,2021.2.3,Win32,60.24096386,,,8,0,8,0,1,,,,,,,,
,,"[""circle"",""green"",""vert"",""up"",[106,-106],[-150,0]]",circle,green,vert,up,"[106,-106]","[-150,0]",up,1,1.0063,,,,,,001,2025-03-10_20h03.32.977,SL_base_41,2021.2.3,Win32,60.24096386,,,9,0,9,0,1,,,,,,,,
,,"[""diamond"",""red"",""hori"",""left"",[-106,-106],[150,0]]",diamond,red,hori,left,"[-106,-106]","[150,0]",left,1,2.5758,,,,,,001,2025-03-10_20h03.32.977,SL_base_41,2021.2.3,Win32,60.24096386,,,10,0,10,0,1,,,,,,,,
,,"[""circle"",""no_dis"",""hori"",""left"",[99999,99999],[106,106]]",circle,no_dis,hori,left,"[99999,99999]","[106,106]",left,1,2.0013,,,,,,001,2025-03-10_20h03.32.977,SL_base_41,2021.2.3,Win32,60.24096386,,,11,0,11,0,1,,,,,,,,
,,"[""circle"",""green"",""hori"",""left"",[0,-150],[106,106]]",circle,green,hori,left,"[0,-150]","[106,106]",left,1,1.1894,,,,,,001,2025-03-10_20h03.32.977,SL_base_41,2021.2.3,Win32,60.24096386,,,12,0,12,0,1,,,,,,,,
,,"[""diamond"",""no_dis"",""vert"",""up"",[99999,99999],[-106,106]]",diamond,no_dis,vert,up,"[99999,99999]","[-106,106]",up,1,1.8676,,,,,,001,2025-03-10_20h03.32.977,SL_base_41,2021.2.3,Win32,60.24096386,,,13,0,13,0,1,,,,,,,,
,,"[""circle"",""no_dis"",""hori"",""left"",[99999,99999],[106,106]]",circle,no_dis,hori,left,"[99999,99999]","[106,106]",up,0,1.9211,,,,,,001,2025-03-10_20h03.32.977,SL_base_41,2021.2.3,Win32,60.24096386,,,14,0,14,0,1,,,,,,,,
,,"[""circle"",""red"",""hori"",""left"",[-106,106],[0,150]]",circle,red,hori,left,"[-106,106]","[0,150]",,0,,,,,,,001,2025-03-10_20h03.32.977,SL_base_41,2021.2.3,Win32,60.24096386,,,15,0,15,0,1,,,,,,,,
,,"[""circle"",""no_dis"",""vert"",""up"",[99999,99999],[150,0]]",circle,no_dis,vert,up,"[99999,99999]","[150,0]",up,1,1.0673,,,,,,001,2025-03-10_20h03.32.977,SL_base_41,2021.2.3,Win32,60.24096386,,,16,0,16,0,1,,,,,,,,
,,"[""diamond"",""red"",""vert"",""up"",[-106,106],[-106,-106]]",diamond,red,vert,up,"[-106,106]","[-106,-106]",up,1,1.9168,,,,,,001,2025-03-10_20h03.32.977,SL_base_41,2021.2.3,Win32,60.24096386,,,17,0,17,0,1,,,,,,,,
,,"[""circle"",""red"",""hori"",""left"",[106,106],[-106,-106]]",circle,red,hori,left,"[106,106]","[-106,-106]",,0,,,,,,,001,2025-03-10_20h03.32.977,SL_base_41,2021.2.3,Win32,60.24096386,,,18,0,18,0,1,,,,,,,,
,,"[""circle"",""red"",""vert"",""up"",[-106,-106],[106,106]]",circle,red,vert,up,"[-106,-106]","[106,106]",left,0,2.0175,,,,,,001,2025-03-10_20h03.32.977,SL_base_41,2021.2.3,Win32,60.24096386,,,19,0,19,0,1,,,,,,,,
,,"[""diamond"",""red"",""vert"",""up"",[-150,0],[0,150]]",diamond,red,vert,up,"[-150,0]","[0,150]",up,1,1.5181,,,,,,001,2025-03-10_20h03.32.977,SL_base_41,2021.2.3,Win32,60.24096386,,,20,0,20,0,1,,,,,,,,
,,"[""circle"",""no_dis"",""vert"",""up"",[99999,99999],[150,0]]",circle,no_dis,vert,up,"[99999,99999]","[150,0]",up,1,1.6854,,,,,,001,2025-03-10_20h03.32.977,SL_base_41,2021.2.3,Win32,60.24096386,,,21,0,21,0,1,,,,,,,,
,,"[""diamond"",""no_dis"",""hori"",""left"",[99999,99999],[0,150]]",diamond,no_dis,hori,left,"[99999,99999]","[0,150]",left,1,1.7805,,,,,,001,2025-03-10_20h03.32.977,SL_base_41,2021.2.3,Win32,60.24096386,,,22,0,22,0,1,,,,,,,,
,,"[""circle"",""green"",""vert"",""up"",[150,0],[0,-150]]",circle,green,vert,up,"[150,0]","[0,-150]",up,1,2.9525,,,,,,001,2025-03-10_20h03.32.977,SL_base_41,2021.2.3,Win32,60.24096386,,,23,0,23,0,1,,,,,,,,
,,"[""diamond"",""no_dis"",""hori"",""left"",[99999,99999],[-106,-106]]",diamond,no_dis,hori,left,"[99999,99999]","[-106,-106]",left,1,1.2263,,,,,,001,2025-03-10_20h03.32.977,SL_base_41,2021.2.3,Win32,60.24096386,,,24,0,24,0,1,,,,,,,,
,,"[""circle"",""green"",""vert"",""up"",[0,-150],[-106,106]]",circle,green,vert,up,"[0,-150]","[-106,106]",up,1,1.1899,,,,,,001,2025-03-10_20h03.32.977,SL_base_41,2021.2.3,Win32,60.24096386,,,25,0,25,0,1,,,,,,,,
,,"[""circle"",""red"",""hori"",""left"",[106,-106],[-150,0]]",circle,red,hori,left,"[106,-106]","[-150,0]",left,1,2.1942,,,,,,001,2025-03-10_20h03.32.977,SL_base_41,2021.2.3,Win32,60.24096386,,,26,0,26,0,1,,,,,,,,
,,"[""circle"",""green"",""vert"",""up"",[150,0],[-106,106]]",circle,green,vert,up,"[150,0]","[-106,106]",up,1,2.2461,,,,,,001,2025-03-10_20h03.32.977,SL_base_41,2021.2.3,Win32,60.24096386,,,27,0,27,0,1,,,,,,,,
,,"[""diamond"",""green"",""vert"",""up"",[-106,-106],[-150,0]]",diamond,green,vert,up,"[-106,-106]","[-150,0]",up,1,1.8913,,,,,,001,2025-03-10_20h03.32.977,SL_base_41,2021.2.3,Win32,60.24096386,,,28,0,28,0,1,,,,,,,,
,,"[""circle"",""green"",""hori"",""left"",[0,150],[106,-106]]",circle,green,hori,left,"[0,150]","[106,-106]",left,1,1.821,,,,,,001,2025-03-10_20h03.32.977,SL_base_41,2021.2.3,Win32,60.24096386,,,29,0,29,0,1,,,,,,,,
,,"[""circle"",""no_dis"",""vert"",""up"",[99999,99999],[106,-106]]",circle,no_dis,vert,up,"[99999,99999]","[106,-106]",left,0,2.0008,,,,,,001,2025-03-10_20h03.32.977,SL_base_41,2021.2.3,Win32,60.24096386,,,30,0,30,0,1,,,,,,,,
,,"[""diamond"",""green"",""vert"",""up"",[-106,106],[106,-106]]",diamond,green,vert,up,"[-106,106]","[106,-106]",left,0,1.1783,,,,,,001,2025-03-10_20h03.32.977,SL_base_41,2021.2.3,Win32,60.24096386,,,31,0,31,0,1,,,,,,,,
,,"[""diamond"",""green"",""vert"",""up"",[0,-150],[106,-106]]",diamond,green,vert,up,"[0,-150]","[106,-106]",up,1,2.4134,,,,,,001,2025-03-10_20h03.32.977,SL_base_41,2021.2.3,Win32,60.24096386,,,32,0,32,0,1,,,,,,,,
,,"[""diamond"",""no_dis"",""hori"",""left"",[99999,99999],[-150,0]]",diamond,no_dis,hori,left,"[99999,99999]","[-150,0]",left,1,1.9336,,,,,,001,2025-03-10_20h03.32.977,SL_base_41,2021.2.3,Win32,60.24096386,,,33,0,33,0,1,,,,,,,,
,,"[""diamond"",""no_dis"",""vert"",""up"",[99999,99999],[-106,-106]]",diamond,no_dis,vert,up,"[99999,99999]","[-106,-106]",up,1,2.2011,,,,,,001,2025-03-10_20h03.32.977,SL_base_41,2021.2.3,Win32,60.24096386,,,34,0,34,0,1,,,,,,,,
,,"[""circle"",""no_dis"",""vert"",""up"",[99999,99999],[-150,0]]",circle,no_dis,vert,up,"[99999,99999]","[-150,0]",up,1,1.4668,,,,,,001,2025-03-10_20h03.32.977,SL_base_41,2021.2.3,Win32,60.24096386,,,35,0,35,0,1,,,,,,,,
,,"[""circle"",""red"",""vert"",""up"",[0,-150],[106,-106]]",circle,red,vert,up,"[0,-150]","[106,-106]",up,1,2.3053,,,,,,001,2025-03-10_20h03.32.977,SL_base_41,2021.2.3,Win32,60.24096386,,,36,0,36,0,1,,,,,,,,
,,"[""diamond"",""no_dis"",""hori"",""left"",[99999,99999],[150,0]]",diamond,no_dis,hori,left,"[99999,99999]","[150,0]",left,1,1.6883,,,,,,001,2025-03-10_20h03.32.977,SL_base_41,2021.2.3,Win32,60.24096386,,,37,0,37,0,1,,,,,,,,
,,"[""diamond"",""no_dis"",""vert"",""up"",[99999,99999],[0,-150]]",diamond,no_dis,vert,up,"[99999,99999]","[0,-150]",up,1,2.0343,,,,,,001,2025-03-10_20h03.32.977,SL_base_41,2021.2.3,Win32,60.24096386,,,38,0,38,0,1,,,,,,,,
,,"[""circle"",""red"",""vert"",""up"",[0,150],[-150,0]]",circle,red,vert,up,"[0,150]","[-150,0]",up,1,2.1932,,,,,,001,2025-03-10_20h03.32.977,SL_base_41,2021.2.3,Win32,60.24096386,,,39,0,39,0,1,,,,,,,,
,,"[""circle"",""red"",""hori"",""left"",[-150,0],[-106,-106]]",circle,red,hori,left,"[-150,0]","[-106,-106]",left,1,1.6007,,,,,,001,2025-03-10_20h03.32.977,SL_base_41,2021.2.3,Win32,60.24096386,,,40,0,40,0,1,,,,,,,,
,,"[""circle"",""no_dis"",""vert"",""up"",[99999,99999],[106,-106]]",circle,no_dis,vert,up,"[99999,99999]","[106,-106]",up,1,1.2466,,,,,,001,2025-03-10_20h03.32.977,SL_base_41,2021.2.3,Win32,60.24096386,,,41,0,41,0,1,,,,,,,,
,,"[""circle"",""green"",""hori"",""left"",[0,-150],[106,106]]",circle,green,hori,left,"[0,-150]","[106,106]",left,1,1.2004,,,,,,001,2025-03-10_20h03.32.977,SL_base_41,2021.2.3,Win32,60.24096386,,,42,0,42,0,1,,,,,,,,
,,"[""circle"",""green"",""vert"",""up"",[-106,-106],[0,-150]]",circle,green,vert,up,"[-106,-106]","[0,-150]",up,1,1.1682,,,,,,001,2025-03-10_20h03.32.977,SL_base_41,2021.2.3,Win32,60.24096386,,,43,0,43,0,1,,,,,,,,
,,"[""diamond"",""green"",""hori"",""left"",[-150,0],[0,150]]",diamond,green,hori,left,"[-150,0]","[0,150]",left,1,2.0008,,,,,,001,2025-03-10_20h03.32.977,SL_base_41,2021.2.3,Win32,60.24096386,,,44,0,44,0,1,,,,,,,,
,,"[""diamond"",""red"",""vert"",""up"",[0,-150],[-106,-106]]",diamond,red,vert,up,"[0,-150]","[-106,-106]",up,1,1.9397,,,,,,001,2025-03-10_20h03.32.977,SL_base_41,2021.2.3,Win32,60.24096386,,,45,0,45,0,1,,,,,,,,
,,"[""circle"",""no_dis"",""hori"",""left"",[99999,99999],[-106,-106]]",circle,no_dis,hori,left,"[99999,99999]","[-106,-106]",up,0,2.526,,,,,,001,2025-03-10_20h03.32.977,SL_base_41,2021.2.3,Win32,60.24096386,,,46,0,46,0,1,,,,,,,,
,,"[""diamond"",""red"",""vert"",""up"",[0,-150],[0,150]]",diamond,red,vert,up,"[0,-150]","[0,150]",left,0,2.4951,,,,,,001,2025-03-10_20h03.32.977,SL_base_41,2021.2.3,Win32,60.24096386,,,47,0,47,0,1,,,,,,,,
,,"[""diamond"",""red"",""vert"",""up"",[-106,-106],[-106,106]]",diamond,red,vert,up,"[-106,-106]","[-106,106]",up,1,1.5004,,,,,,001,2025-03-10_20h03.32.977,SL_base_41,2021.2.3,Win32,60.24096386,,,48,0,48,0,1,,,,,,,,
,,"[""diamond"",""no_dis"",""vert"",""up"",[99999,99999],[106,-106]]",diamond,no_dis,vert,up,"[99999,99999]","[106,-106]",up,1,1.3162,,,,,,001,2025-03-10_20h03.32.977,SL_base_41,2021.2.3,Win32,60.24096386,,,49,0,49,0,1,,,,,,,,
,,"[""diamond"",""red"",""hori"",""left"",[150,0],[-106,106]]",diamond,red,hori,left,"[150,0]","[-106,106]",left,1,1.2255,,,,,,001,2025-03-10_20h03.32.977,SL_base_41,2021.2.3,Win32,60.24096386,,,50,0,50,0,1,,,,,,,,
,,"[""circle"",""no_dis"",""hori"",""left"",[99999,99999],[106,106]]",circle,no_dis,hori,left,"[99999,99999]","[106,106]",left,1,1.7461,,,,,,001,2025-03-10_20h03.32.977,SL_base_41,2021.2.3,Win32,60.24096386,,,51,0,51,0,1,,,,,,,,
,,"[""circle"",""green"",""hori"",""left"",[0,-150],[-106,106]]",circle,green,hori,left,"[0,-150]","[-106,106]",left,1,2.0572,,,,,,001,2025-03-10_20h03.32.977,SL_base_41,2021.2.3,Win32,60.24096386,,,52,0,52,0,1,,,,,,,,
,,"[""diamond"",""green"",""hori"",""left"",[0,150],[-106,-106]]",diamond,green,hori,left,"[0,150]","[-106,-106]",up,0,2.8187,,,,,,001,2025-03-10_20h03.32.977,SL_base_41,2021.2.3,Win32,60.24096386,,,53,0,53,0,1,,,,,,,,
,,"[""circle"",""no_dis"",""hori"",""left"",[99999,99999],[150,0]]",circle,no_dis,hori,left,"[99999,99999]","[150,0]",left,1,2.2173,,,,,,001,2025-03-10_20h03.32.977,SL_base_41,2021.2.3,Win32,60.24096386,,,54,0,54,0,1,,,,,,,,
,,"[""diamond"",""green"",""vert"",""up"",[150,0],[106,-106]]",diamond,green,vert,up,"[150,0]","[106,-106]",up,1,1.5842,,,,,,001,2025-03-10_20h03.32.977,SL_base_41,2021.2.3,Win32,60.24096386,,,55,0,55,0,1,,,,,,,,
,,"[""circle"",""red"",""hori"",""left"",[106,-106],[0,-150]]",circle,red,hori,left,"[106,-106]","[0,-150]",left,1,2.2175,,,,,,001,2025-03-10_20h03.32.977,SL_base_41,2021.2.3,Win32,60.24096386,,,56,0,56,0,1,,,,,,,,
,,"[""circle"",""no_dis"",""vert"",""up"",[99999,99999],[-150,0]]",circle,no_dis,vert,up,"[99999,99999]","[-150,0]",up,1,1.5339,,,,,,001,2025-03-10_20h03.32.977,SL_base_41,2021.2.3,Win32,60.24096386,,,57,0,57,0,1,,,,,,,,
,,"[""circle"",""no_dis"",""vert"",""up"",[99999,99999],[0,150]]",circle,no_dis,vert,up,"[99999,99999]","[0,150]",up,1,1.767,,,,,,001,2025-03-10_20h03.32.977,SL_base_41,2021.2.3,Win32,60.24096386,,,58,0,58,0,1,,,,,,,,
,,"[""circle"",""red"",""hori"",""left"",[106,-106],[106,106]]",circle,red,hori,left,"[106,-106]","[106,106]",,0,,,,,,,001,2025-03-10_20h03.32.977,SL_base_41,2021.2.3,Win32,60.24096386,,,59,0,59,0,1,,,,,,,,
,,"[""diamond"",""no_dis"",""vert"",""up"",[99999,99999],[0,-150]]",diamond,no_dis,vert,up,"[99999,99999]","[0,-150]",,0,,,,,,,001,2025-03-10_20h03.32.977,SL_base_41,2021.2.3,Win32,60.24096386,,,60,0,60,0,1,,,,,,,,
,,"[""circle"",""no_dis"",""hori"",""left"",[99999,99999],[-106,106]]",circle,no_dis,hori,left,"[99999,99999]","[-106,106]",up,0,1.2338,,,,,,001,2025-03-10_20h03.32.977,SL_base_41,2021.2.3,Win32,60.24096386,,,61,0,61,0,1,,,,,,,,
,,"[""circle"",""green"",""hori"",""left"",[0,-150],[106,-106]]",circle,green,hori,left,"[0,-150]","[106,-106]",left,1,1.1287,,,,,,001,2025-03-10_20h03.32.977,SL_base_41,2021.2.3,Win32,60.24096386,,,62,0,62,0,1,,,,,,,,
,,"[""diamond"",""green"",""vert"",""up"",[0,-150],[-106,-106]]",diamond,green,vert,up,"[0,-150]","[-106,-106]",left,0,0.7172,,,,,,001,2025-03-10_20h03.32.977,SL_base_41,2021.2.3,Win32,60.24096386,,,63,0,63,0,1,,,,,,,,
,,"[""diamond"",""red"",""vert"",""up"",[-106,-106],[150,0]]",diamond,red,vert,up,"[-106,-106]","[150,0]",left,0,0.8663,,,,,,001,2025-03-10_20h03.32.977,SL_base_41,2021.2.3,Win32,60.24096386,,,64,0,64,0,1,,,,,,,,
,,"[""circle"",""red"",""vert"",""up"",[106,106],[0,-150]]",circle,red,vert,up,"[106,106]","[0,-150]",up,1,1.6004,,,,,,001,2025-03-10_20h03.32.977,SL_base_41,2021.2.3,Win32,60.24096386,,,65,0,65,0,1,,,,,,,,
,,"[""diamond"",""green"",""vert"",""up"",[0,-150],[-150,0]]",diamond,green,vert,up,"[0,-150]","[-150,0]",up,1,1.3508,,,,,,001,2025-03-10_20h03.32.977,SL_base_41,2021.2.3,Win32,60.24096386,,,66,0,66,0,1,,,,,,,,
,,"[""diamond"",""green"",""hori"",""left"",[106,106],[106,-106]]",diamond,green,hori,left,"[106,106]","[106,-106]",left,1,1.6671,,,,,,001,2025-03-10_20h03.32.977,SL_base_41,2021.2.3,Win32,60.24096386,,,67,0,67,0,1,,,,,,,,
,,"[""circle"",""green"",""vert"",""up"",[0,-150],[0,150]]",circle,green,vert,up,"[0,-150]","[0,150]",left,0,2.2095,,,,,,001,2025-03-10_20h03.32.977,SL_base_41,2021.2.3,Win32,60.24096386,,,68,0,68,0,1,,,,,,,,
,,"[""diamond"",""green"",""hori"",""left"",[106,-106],[106,106]]",diamond,green,hori,left,"[106,-106]","[106,106]",left,1,1.6577,,,,,,001,2025-03-10_20h03.32.977,SL_base_41,2021.2.3,Win32,60.24096386,,,69,0,69,0,1,,,,,,,,
,,"[""diamond"",""red"",""hori"",""left"",[0,-150],[0,150]]",diamond,red,hori,left,"[0,-150]","[0,150]",left,1,1.217,,,,,,001,2025-03-10_20h03.32.977,SL_base_41,2021.2.3,Win32,60.24096386,,,70,0,70,0,1,,,,,,,,
,,"[""diamond"",""red"",""hori"",""left"",[0,-150],[150,0]]",diamond,red,hori,left,"[0,-150]","[150,0]",left,1,2.4177,,,,,,001,2025-03-10_20h03.32.977,SL_base_41,2021.2.3,Win32,60.24096386,,,71,0,71,0,1,,,,,,,,
,,"[""circle"",""red"",""hori"",""left"",[0,150],[106,106]]",circle,red,hori,left,"[0,150]","[106,106]",left,1,1.4774,,,,,,001,2025-03-10_20h03.32.977,SL_base_41,2021.2.3,Win32,60.24096386,,,72,0,72,0,1,,,,,,,,
,,"[""circle"",""no_dis"",""vert"",""up"",[99999,99999],[-106,-106]]",circle,no_dis,vert,up,"[99999,99999]","[-106,-106]",up,1,1.4287,,,,,,001,2025-03-10_20h03.32.977,SL_base_41,2021.2.3,Win32,60.24096386,,,73,0,73,0,1,,,,,,,,
,,"[""diamond"",""no_dis"",""vert"",""up"",[99999,99999],[-150,0]]",diamond,no_dis,vert,up,"[99999,99999]","[-150,0]",left,0,2.334,,,,,,001,2025-03-10_20h03.32.977,SL_base_41,2021.2.3,Win32,60.24096386,,,74,0,74,0,1,,,,,,,,
,,"[""diamond"",""red"",""hori"",""left"",[106,-106],[150,0]]",diamond,red,hori,left,"[106,-106]","[150,0]",up,0,0.9024,,,,,,001,2025-03-10_20h03.32.977,SL_base_41,2021.2.3,Win32,60.24096386,,,75,0,75,0,1,,,,,,,,
,,"[""circle"",""green"",""vert"",""up"",[150,0],[0,150]]",circle,green,vert,up,"[150,0]","[0,150]",up,1,2.2508,,,,,,001,2025-03-10_20h03.32.977,SL_base_41,2021.2.3,Win32,60.24096386,,,76,0,76,0,1,,,,,,,,
,,"[""diamond"",""no_dis"",""hori"",""left"",[99999,99999],[0,-150]]",diamond,no_dis,hori,left,"[99999,99999]","[0,-150]",up,0,1.4671,,,,,,001,2025-03-10_20h03.32.977,SL_base_41,2021.2.3,Win32,60.24096386,,,77,0,77,0,1,,,,,,,,
,,"[""diamond"",""red"",""vert"",""up"",[0,-150],[-106,-106]]",diamond,red,vert,up,"[0,-150]","[-106,-106]",up,1,2.2957,,,,,,001,2025-03-10_20h03.32.977,SL_base_41,2021.2.3,Win32,60.24096386,,,78,0,78,0,1,,,,,,,,
,,"[""diamond"",""no_dis"",""hori"",""left"",[99999,99999],[106,-106]]",diamond,no_dis,hori,left,"[99999,99999]","[106,-106]",left,1,1.6506,,,,,,001,2025-03-10_20h03.32.977,SL_base_41,2021.2.3,Win32,60.24096386,,,79,0,79,0,1,,,,,,,,
,,"[""circle"",""green"",""hori"",""left"",[0,-150],[-106,-106]]",circle,green,hori,left,"[0,-150]","[-106,-106]",left,1,2.5173,,,,,,001,2025-03-10_20h03.32.977,SL_base_41,2021.2.3,Win32,60.24096386,,,80,0,80,0,1,,,,,,,,
,,"[""circle"",""green"",""vert"",""up"",[106,106],[-150,0]]",circle,green,vert,up,"[106,106]","[-150,0]",up,1,1.3996,,,,,,001,2025-03-10_20h03.32.977,SL_base_41,2021.2.3,Win32,60.24096386,,,81,0,81,0,1,,,,,,,,
,,"[""diamond"",""red"",""hori"",""left"",[-150,0],[106,-106]]",diamond,red,hori,left,"[-150,0]","[106,-106]",up,0,2.6925,,,,,,001,2025-03-10_20h03.32.977,SL_base_41,2021.2.3,Win32,60.24096386,,,82,0,82,0,1,,,,,,,,
,,"[""circle"",""red"",""vert"",""up"",[106,106],[-150,0]]",circle,red,vert,up,"[106,106]","[-150,0]",up,1,2.7603,,,,,,001,2025-03-10_20h03.32.977,SL_base_41,2021.2.3,Win32,60.24096386,,,83,0,83,0,1,,,,,,,,
,,"[""circle"",""green"",""hori"",""left"",[-106,106],[0,150]]",circle,green,hori,left,"[-106,106]","[0,150]",left,1,2.3882,,,,,,001,2025-03-10_20h03.32.977,SL_base_41,2021.2.3,Win32,60.24096386,,,84,0,84,0,1,,,,,,,,
,,"[""circle"",""green"",""vert"",""up"",[0,-150],[150,0]]",circle,green,vert,up,"[0,-150]","[150,0]",up,1,2.3111,,,,,,001,2025-03-10_20h03.32.977,SL_base_41,2021.2.3,Win32,60.24096386,,,85,0,85,0,1,,,,,,,,
,,"[""circle"",""red"",""hori"",""left"",[0,-150],[106,-106]]",circle,red,hori,left,"[0,-150]","[106,-106]",left,1,2.1212,,,,,,001,2025-03-10_20h03.32.977,SL_base_41,2021.2.3,Win32,60.24096386,,,86,0,86,0,1,,,,,,,,
,,"[""diamond"",""no_dis"",""hori"",""left"",[99999,99999],[-106,-106]]",diamond,no_dis,hori,left,"[99999,99999]","[-106,-106]",left,1,2.6195,,,,,,001,2025-03-10_20h03.32.977,SL_base_41,2021.2.3,Win32,60.24096386,,,87,0,87,0,1,,,,,,,,
,,"[""diamond"",""green"",""hori"",""left"",[0,-150],[-106,-106]]",diamond,green,hori,left,"[0,-150]","[-106,-106]",left,1,2.5532,,,,,,001,2025-03-10_20h03.32.977,SL_base_41,2021.2.3,Win32,60.24096386,,,88,0,88,0,1,,,,,,,,
,,"[""circle"",""no_dis"",""vert"",""up"",[99999,99999],[-150,0]]",circle,no_dis,vert,up,"[99999,99999]","[-150,0]",up,1,2.601,,,,,,001,2025-03-10_20h03.32.977,SL_base_41,2021.2.3,Win32,60.24096386,,,89,0,89,0,1,,,,,,,,
,,"[""circle"",""green"",""vert"",""up"",[0,-150],[-150,0]]",circle,green,vert,up,"[0,-150]","[-150,0]",up,1,1.8433,,,,,,001,2025-03-10_20h03.32.977,SL_base_41,2021.2.3,Win32,60.24096386,,,90,0,90,0,1,,,,,,,,
,,"[""circle"",""no_dis"",""hori"",""left"",[99999,99999],[0,-150]]",circle,no_dis,hori,left,"[99999,99999]","[0,-150]",,0,,,,,,,001,2025-03-10_20h03.32.977,SL_base_41,2021.2.3,Win32,60.24096386,,,91,0,91,0,1,,,,,,,,
,,"[""diamond"",""no_dis"",""vert"",""up"",[99999,99999],[150,0]]",diamond,no_dis,vert,up,"[99999,99999]","[150,0]",up,1,1.0227,,,,,,001,2025-03-10_20h03.32.977,SL_base_41,2021.2.3,Win32,60.24096386,,,92,0,92,0,1,,,,,,,,
,,"[""circle"",""no_dis"",""hori"",""left"",[99999,99999],[0,150]]",circle,no_dis,hori,left,"[99999,99999]","[0,150]",left,1,2.3378,,,,,,001,2025-03-10_20h03.32.977,SL_base_41,2021.2.3,Win32,60.24096386,,,93,0,93,0,1,,,,,,,,
,,"[""diamond"",""red"",""hori"",""left"",[-150,0],[0,-150]]",diamond,red,hori,left,"[-150,0]","[0,-150]",left,1,1.2551,,,,,,001,2025-03-10_20h03.32.977,SL_base_41,2021.2.3,Win32,60.24096386,,,94,0,94,0,1,,,,,,,,
,,"[""circle"",""no_dis"",""hori"",""left"",[99999,99999],[106,106]]",circle,no_dis,hori,left,"[99999,99999]","[106,106]",left,1,2.0671,,,,,,001,2025-03-10_20h03.32.977,SL_base_41,2021.2.3,Win32,60.24096386,,,95,0,95,0,1,,,,,,,,
,,"[""circle"",""red"",""vert"",""up"",[0,-150],[106,-106]]",circle,red,vert,up,"[0,-150]","[106,-106]",up,1,1.3096,,,,,,001,2025-03-10_20h03.32.977,SL_base_41,2021.2.3,Win32,60.24096386,,,96,0,96,0,1,,,,,,,,
,,"[""circle"",""red"",""vert"",""up"",[-106,106],[0,-150]]",circle,red,vert,up,"[-106,106]","[0,-150]",up,1,1.1945,,,,,,001,2025-03-10_20h03.32.977,SL_base_41,2021.2.3,Win32,60.24096386,,,97,0,97,0,1,,,,,,,,
,,"[""diamond"",""no_dis"",""vert"",""up"",[99999,99999],[0,-150]]",diamond,no_dis,vert,up,"[99999,99999]","[0,-150]",up,1,1.4921,,,,,,001,2025-03-10_20h03.32.977,SL_base_41,2021.2.3,Win32,60.24096386,,,98,0,98,0,1,,,,,,,,
,,"[""circle"",""green"",""hori"",""left"",[-106,106],[0,150]]",circle,green,hori,left,"[-106,106]","[0,150]",left,1,1.717,,,,,,001,2025-03-10_20h03.32.977,SL_base_41,2021.2.3,Win32,60.24096386,,,99,0,99,0,1,,,,,,,,
,,"[""circle"",""green"",""hori"",""left"",[0,-150],[150,0]]",circle,green,hori,left,"[0,-150]","[150,0]",left,1,2.0839,,,,,,001,2025-03-10_20h03.32.977,SL_base_41,2021.2.3,Win32,60.24096386,,,100,0,100,0,1,,,,,,,,
,,"[""diamond"",""green"",""vert"",""up"",[0,150],[106,106]]",diamond,green,vert,up,"[0,150]","[106,106]",up,1,1.8029,,,,,,001,2025-03-10_20h03.32.977,SL_base_41,2021.2.3,Win32,60.24096386,,,101,0,101,0,1,,,,,,,,
,,"[""circle"",""red"",""vert"",""up"",[-106,106],[106,106]]",circle,red,vert,up,"[-106,106]","[106,106]",up,1,1.4889,,,,,,001,2025-03-10_20h03.32.977,SL_base_41,2021.2.3,Win32,60.24096386,,,102,0,102,0,1,,,,,,,,
,,"[""diamond"",""green"",""hori"",""left"",[106,106],[-106,-106]]",diamond,green,hori,left,"[106,106]","[-106,-106]",left,1,1.4169,,,,,,001,2025-03-10_20h03.32.977,SL_base_41,2021.2.3,Win32,60.24096386,,,103,0,103,0,1,,,,,,,,
,,"[""diamond"",""green"",""vert"",""up"",[0,-150],[106,-106]]",diamond,green,vert,up,"[0,-150]","[106,-106]",up,1,1.2667,,,,,,001,2025-03-10_20h03.32.977,SL_base_41,2021.2.3,Win32,60.24096386,,,104,0,104,0,1,,,,,,,,
,,"[""diamond"",""red"",""hori"",""left"",[0,150],[-106,106]]",diamond,red,hori,left,"[0,150]","[-106,106]",left,1,1.3012,,,,,,001,2025-03-10_20h03.32.977,SL_base_41,2021.2.3,Win32,60.24096386,,,105,0,105,0,1,,,,,,,,
,,"[""diamond"",""green"",""hori"",""left"",[106,106],[150,0]]",diamond,green,hori,left,"[106,106]","[150,0]",left,1,1.6499,,,,,,001,2025-03-10_20h03.32.977,SL_base_41,2021.2.3,Win32,60.24096386,,,106,0,106,0,1,,,,,,,,
,,"[""diamond"",""green"",""vert"",""up"",[0,-150],[-106,-106]]",diamond,green,vert,up,"[0,-150]","[-106,-106]",up,1,1.6836,,,,,,001,2025-03-10_20h03.32.977,SL_base_41,2021.2.3,Win32,60.24096386,,,107,0,107,0,1,,,,,,,,
,,"[""diamond"",""no_dis"",""hori"",""left"",[99999,99999],[-106,106]]",diamond,no_dis,hori,left,"[99999,99999]","[-106,106]",up,0,1.6333,,,,,,001,2025-03-10_20h03.32.977,SL_base_41,2021.2.3,Win32,60.24096386,,,108,0,108,0,1,,,,,,,,
,,"[""diamond"",""green"",""hori"",""left"",[-106,106],[-106,-106]]",diamond,green,hori,left,"[-106,106]","[-106,-106]",left,1,1.4968,,,,,,001,2025-03-10_20h03.32.977,SL_base_41,2021.2.3,Win32,60.24096386,,,109,0,109,0,1,,,,,,,,
,,"[""diamond"",""green"",""hori"",""left"",[106,106],[0,-150]]",diamond,green,hori,left,"[106,106]","[0,-150]",left,1,1.6677,,,,,,001,2025-03-10_20h03.32.977,SL_base_41,2021.2.3,Win32,60.24096386,,,110,0,110,0,1,,,,,,,,
,,"[""diamond"",""red"",""vert"",""up"",[-106,-106],[-150,0]]",diamond,red,vert,up,"[-106,-106]","[-150,0]",up,1,1.4166,,,,,,001,2025-03-10_20h03.32.977,SL_base_41,2021.2.3,Win32,60.24096386,,,111,0,111,0,1,,,,,,,,
,,"[""circle"",""green"",""hori"",""left"",[-106,-106],[-106,106]]",circle,green,hori,left,"[-106,-106]","[-106,106]",left,1,2.1008,,,,,,001,2025-03-10_20h03.32.977,SL_base_41,2021.2.3,Win32,60.24096386,,,112,0,112,0,1,,,,,,,,
,,"[""diamond"",""red"",""hori"",""left"",[150,0],[-106,106]]",diamond,red,hori,left,"[150,0]","[-106,106]",left,1,1.973,,,,,,001,2025-03-10_20h03.32.977,SL_base_41,2021.2.3,Win32,60.24096386,,,113,0,113,0,1,,,,,,,,
,,"[""diamond"",""no_dis"",""hori"",""left"",[99999,99999],[0,150]]",diamond,no_dis,hori,left,"[99999,99999]","[0,150]",left,1,1.6029,,,,,,001,2025-03-10_20h03.32.977,SL_base_41,2021.2.3,Win32,60.24096386,,,114,0,114,0,1,,,,,,,,
,,"[""circle"",""red"",""hori"",""left"",[0,-150],[-106,106]]",circle,red,hori,left,"[0,-150]","[-106,106]",left,1,1.7033,,,,,,001,2025-03-10_20h03.32.977,SL_base_41,2021.2.3,Win32,60.24096386,,,115,0,115,0,1,,,,,,,,
,,"[""diamond"",""no_dis"",""vert"",""up"",[99999,99999],[106,-106]]",diamond,no_dis,vert,up,"[99999,99999]","[106,-106]",up,1,1.2063,,,,,,001,2025-03-10_20h03.32.977,SL_base_41,2021.2.3,Win32,60.24096386,,,116,0,116,0,1,,,,,,,,
,,"[""circle"",""no_dis"",""vert"",""up"",[99999,99999],[106,106]]",circle,no_dis,vert,up,"[99999,99999]","[106,106]",up,1,1.2532,,,,,,001,2025-03-10_20h03.32.977,SL_base_41,2021.2.3,Win32,60.24096386,,,117,0,117,0,1,,,,,,,,
,,"[""circle"",""red"",""hori"",""left"",[150,0],[-106,-106]]",circle,red,hori,left,"[150,0]","[-106,-106]",left,1,1.6904,,,,,,001,2025-03-10_20h03.32.977,SL_base_41,2021.2.3,Win32,60.24096386,,,118,0,118,0,1,,,,,,,,
,,"[""diamond"",""green"",""vert"",""up"",[0,-150],[106,106]]",diamond,green,vert,up,"[0,-150]","[106,106]",up,1,1.3862,,,,,,001,2025-03-10_20h03.32.977,SL_base_41,2021.2.3,Win32,60.24096386,,,119,0,119,0,1,,,,,,,,
,,"[""diamond"",""green"",""vert"",""up"",[0,150],[0,-150]]",diamond,green,vert,up,"[0,150]","[0,-150]",up,1,2.11,,,,,,001,2025-03-10_20h03.32.977,SL_base_41,2021.2.3,Win32,60.24096386,,,120,0,120,0,1,,,,,,,,
,,"[""diamond"",""red"",""vert"",""up"",[-150,0],[0,-150]]",diamond,red,vert,up,"[-150,0]","[0,-150]",up,1,1.2084,,,,,,001,2025-03-10_20h03.32.977,SL_base_41,2021.2.3,Win32,60.24096386,,,121,0,121,0,1,,,,,,,,
,,"[""diamond"",""red"",""vert"",""up"",[0,-150],[0,150]]",diamond,red,vert,up,"[0,-150]","[0,150]",up,1,1.6337,,,,,,001,2025-03-10_20h03.32.977,SL_base_41,2021.2.3,Win32,60.24096386,,,122,0,122,0,1,,,,,,,,
,,"[""circle"",""red"",""vert"",""up"",[150,0],[106,-106]]",circle,red,vert,up,"[150,0]","[106,-106]",left,0,2.2673,,,,,,001,2025-03-10_20h03.32.977,SL_base_41,2021.2.3,Win32,60.24096386,,,123,0,123,0,1,,,,,,,,
,,"[""diamond"",""red"",""hori"",""left"",[0,-150],[106,106]]",diamond,red,hori,left,"[0,-150]","[106,106]",left,1,1.2174,,,,,,001,2025-03-10_20h03.32.977,SL_base_41,2021.2.3,Win32,60.24096386,,,124,0,124,0,1,,,,,,,,
,,"[""diamond"",""no_dis"",""vert"",""up"",[99999,99999],[0,150]]",diamond,no_dis,vert,up,"[99999,99999]","[0,150]",up,1,1.9366,,,,,,001,2025-03-10_20h03.32.977,SL_base_41,2021.2.3,Win32,60.24096386,,,125,0,125,0,1,,,,,,,,
,,"[""diamond"",""red"",""hori"",""left"",[0,-150],[-150,0]]",diamond,red,hori,left,"[0,-150]","[-150,0]",left,1,2.0504,,,,,,001,2025-03-10_20h03.32.977,SL_base_41,2021.2.3,Win32,60.24096386,,,126,0,126,0,1,,,,,,,,
,,"[""diamond"",""red"",""vert"",""up"",[0,-150],[150,0]]",diamond,red,vert,up,"[0,-150]","[150,0]",up,1,1.751,,,,,,001,2025-03-10_20h03.32.977,SL_base_41,2021.2.3,Win32,60.24096386,,,127,0,127,0,1,,,,,,,,
,,,,,,,,,,,,,,,,,001,2025-03-10_20h03.32.977,SL_base_41,2021.2.3,Win32,60.24096386,,,,,,,,2,space,19.5075,1,0,1,0,1
,,"[""diamond"",""green"",""vert"",""up"",[0,-150],[106,-106]]",diamond,green,vert,up,"[0,-150]","[106,-106]",up,1,1.9023,,,,,,001,2025-03-10_20h03.32.977,SL_base_41,2021.2.3,Win32,60.24096386,,,0,0,0,0,1,,,,,,,,
,,"[""circle"",""red"",""hori"",""left"",[-106,106],[0,150]]",circle,red,hori,left,"[-106,106]","[0,150]",left,1,1.3836,,,,,,001,2025-03-10_20h03.32.977,SL_base_41,2021.2.3,Win32,60.24096386,,,1,0,1,0,1,,,,,,,,
,,"[""diamond"",""no_dis"",""hori"",""left"",[99999,99999],[150,0]]",diamond,no_dis,hori,left,"[99999,99999]","[150,0]",left,1,1.1702,,,,,,001,2025-03-10_20h03.32.977,SL_base_41,2021.2.3,Win32,60.24096386,,,2,0,2,0,1,,,,,,,,
,,"[""diamond"",""green"",""hori"",""left"",[106,106],[106,-106]]",diamond,green,hori,left,"[106,106]","[106,-106]",left,1,1.1841,,,,,,001,2025-03-10_20h03.32.977,SL_base_41,2021.2.3,Win32,60.24096386,,,3,0,3,0,1,,,,,,,,
,,"[""circle"",""red"",""vert"",""up"",[106,106],[0,-150]]",circle,red,vert,up,"[106,106]","[0,-150]",up,1,1.489,,,,,,001,2025-03-10_20h03.32.977,SL_base_41,2021.2.3,Win32,60.24096386,,,4,0,4,0,1,,,,,,,,
,,"[""diamond"",""no_dis"",""hori"",""left"",[99999,99999],[0,150]]",diamond,no_dis,hori,left,"[99999,99999]","[0,150]",left,1,1.57,,,,,,001,2025-03-10_20h03.32.977,SL_base_41,2021.2.3,Win32,60.24096386,,,5,0,5,0,1,,,,,,,,
,,"[""diamond"",""green"",""vert"",""up"",[0,150],[0,-150]]",diamond,green,vert,up,"[0,150]","[0,-150]",left,0,1.9138,,,,,,001,2025-03-10_20h03.32.977,SL_base_41,2021.2.3,Win32,60.24096386,,,6,0,6,0,1,,,,,,,,
,,"[""circle"",""red"",""hori"",""left"",[-150,0],[106,-106]]",circle,red,hori,left,"[-150,0]","[106,-106]",up,0,1.8005,,,,,,001,2025-03-10_20h03.32.977,SL_base_41,2021.2.3,Win32,60.24096386,,,7,0,7,0,1,,,,,,,,
,,"[""diamond"",""green"",""hori"",""left"",[-106,106],[-106,-106]]",diamond,green,hori,left,"[-106,106]","[-106,-106]",left,1,1.5759,,,,,,001,2025-03-10_20h03.32.977,SL_base_41,2021.2.3,Win32,60.24096386,,,8,0,8,0,1,,,,,,,,
,,"[""diamond"",""no_dis"",""vert"",""up"",[99999,99999],[-106,-106]]",diamond,no_dis,vert,up,"[99999,99999]","[-106,-106]",left,0,2.4866,,,,,,001,2025-03-10_20h03.32.977,SL_base_41,2021.2.3,Win32,60.24096386,,,9,0,9,0,1,,,,,,,,
,,"[""diamond"",""green"",""hori"",""left"",[106,106],[150,0]]",diamond,green,hori,left,"[106,106]","[150,0]",up,0,2.4506,,,,,,001,2025-03-10_20h03.32.977,SL_base_41,2021.2.3,Win32,60.24096386,,,10,0,10,0,1,,,,,,,,
,,"[""circle"",""green"",""hori"",""left"",[0,-150],[106,106]]",circle,green,hori,left,"[0,-150]","[106,106]",left,1,2.1011,,,,,,001,2025-03-10_20h03.32.977,SL_base_41,2021.2.3,Win32,60.24096386,,,11,0,11,0,1,,,,,,,,
,,"[""diamond"",""red"",""hori"",""left"",[106,-106],[150,0]]",diamond,red,hori,left,"[106,-106]","[150,0]",left,1,1.6006,,,,,,001,2025-03-10_20h03.32.977,SL_base_41,2021.2.3,Win32,60.24096386,,,12,0,12,0,1,,,,,,,,
,,"[""circle"",""no_dis"",""hori"",""left"",[99999,99999],[106,106]]",circle,no_dis,hori,left,"[99999,99999]","[106,106]",left,1,2.5869,,,,,,001,2025-03-10_20h03.32.977,SL_base_41,2021.2.3,Win32,60.24096386,,,13,0,13,0,1,,,,,,,,
,,"[""circle"",""green"",""hori"",""left"",[0,-150],[106,-106]]",circle,green,hori,left,"[0,-150]","[106,-106]",left,1,1.3797,,,,,,001,2025-03-10_20h03.32.977,SL_base_41,2021.2.3,Win32,60.24096386,,,14,0,14,0,1,,,,,,,,
,,"[""circle"",""green"",""hori"",""left"",[0,-150],[150,0]]",circle,green,hori,left,"[0,-150]","[150,0]",left,1,0.9503,,,,,,001,2025-03-10_20h03.32.977,SL_base_41,2021.2.3,Win32,60.24096386,,,15,0,15,0,1,,,,,,,,
,,"[""circle"",""no_dis"",""hori"",""left"",[99999,99999],[106,106]]",circle,no_dis,hori,left,"[99999,99999]","[106,106]",left,1,1.0174,,,,,,001,2025-03-10_20h03.32.977,SL_base_41,2021.2.3,Win32,60.24096386,,,16,0,16,0,1,,,,,,,,
,,"[""circle"",""no_dis"",""hori"",""left"",[99999,99999],[-106,106]]",circle,no_dis,hori,left,"[99999,99999]","[-106,106]",left,1,1.1945,,,,,,001,2025-03-10_20h03.32.977,SL_base_41,2021.2.3,Win32,60.24096386,,,17,0,17,0,1,,,,,,,,
,,"[""circle"",""green"",""hori"",""left"",[0,-150],[106,-106]]",circle,green,hori,left,"[0,-150]","[106,-106]",left,1,1.0167,,,,,,001,2025-03-10_20h03.32.977,SL_base_41,2021.2.3,Win32,60.24096386,,,18,0,18,0,1,,,,,,,,
,,"[""diamond"",""green"",""vert"",""up"",[150,0],[106,-106]]",diamond,green,vert,up,"[150,0]","[106,-106]",up,1,2.0512,,,,,,001,2025-03-10_20h03.32.977,SL_base_41,2021.2.3,Win32,60.24096386,,,19,0,19,0,1,,,,,,,,
,,"[""circle"",""red"",""hori"",""left"",[106,106],[-106,-106]]",circle,red,hori,left,"[106,106]","[-106,-106]",left,1,1.6267,,,,,,001,2025-03-10_20h03.32.977,SL_base_41,2021.2.3,Win32,60.24096386,,,20,0,20,0,1,,,,,,,,
,,"[""diamond"",""red"",""hori"",""left"",[150,0],[-106,106]]",diamond,red,hori,left,"[150,0]","[-106,106]",left,1,1.7239,,,,,,001,2025-03-10_20h03.32.977,SL_base_41,2021.2.3,Win32,60.24096386,,,21,0,21,0,1,,,,,,,,
,,"[""diamond"",""no_dis"",""vert"",""up"",[99999,99999],[0,-150]]",diamond,no_dis,vert,up,"[99999,99999]","[0,-150]",up,1,1.7675,,,,,,001,2025-03-10_20h03.32.977,SL_base_41,2021.2.3,Win32,60.24096386,,,22,0,22,0,1,,,,,,,,
,,"[""diamond"",""no_dis"",""vert"",""up"",[99999,99999],[0,-150]]",diamond,no_dis,vert,up,"[99999,99999]","[0,-150]",up,1,1.4506,,,,,,001,2025-03-10_20h03.32.977,SL_base_41,2021.2.3,Win32,60.24096386,,,23,0,23,0,1,,,,,,,,
,,"[""diamond"",""green"",""vert"",""up"",[0,-150],[106,-106]]",diamond,green,vert,up,"[0,-150]","[106,-106]",up,1,1.5628,,,,,,001,2025-03-10_20h03.32.977,SL_base_41,2021.2.3,Win32,60.24096386,,,24,0,24,0,1,,,,,,,,
,,"[""circle"",""no_dis"",""vert"",""up"",[99999,99999],[150,0]]",circle,no_dis,vert,up,"[99999,99999]","[150,0]",up,1,1.9175,,,,,,001,2025-03-10_20h03.32.977,SL_base_41,2021.2.3,Win32,60.24096386,,,25,0,25,0,1,,,,,,,,
,,"[""diamond"",""no_dis"",""hori"",""left"",[99999,99999],[0,150]]",diamond,no_dis,hori,left,"[99999,99999]","[0,150]",left,1,1.5833,,,,,,001,2025-03-10_20h03.32.977,SL_base_41,2021.2.3,Win32,60.24096386,,,26,0,26,0,1,,,,,,,,
,,"[""circle"",""green"",""vert"",""up"",[-106,-106],[0,-150]]",circle,green,vert,up,"[-106,-106]","[0,-150]",up,1,1.4007,,,,,,001,2025-03-10_20h03.32.977,SL_base_41,2021.2.3,Win32,60.24096386,,,27,0,27,0,1,,,,,,,,
,,"[""circle"",""red"",""vert"",""up"",[-150,0],[106,106]]",circle,red,vert,up,"[-150,0]","[106,106]",up,1,0.9841,,,,,,001,2025-03-10_20h03.32.977,SL_base_41,2021.2.3,Win32,60.24096386,,,28,0,28,0,1,,,,,,,,
,,"[""circle"",""red"",""vert"",""up"",[0,150],[-150,0]]",circle,red,vert,up,"[0,150]","[-150,0]",left,0,1.8665,,,,,,001,2025-03-10_20h03.32.977,SL_base_41,2021.2.3,Win32,60.24096386,,,29,0,29,0,1,,,,,,,,
,,"[""circle"",""red"",""vert"",""up"",[0,-150],[106,-106]]",circle,red,vert,up,"[0,-150]","[106,-106]",up,1,1.4373,,,,,,001,2025-03-10_20h03.32.977,SL_base_41,2021.2.3,Win32,60.24096386,,,30,0,30,0,1,,,,,,,,
,,"[""diamond"",""green"",""hori"",""left"",[-150,0],[0,150]]",diamond,green,hori,left,"[-150,0]","[0,150]",left,1,1.9613,,,,,,001,2025-03-10_20h03.32.977,SL_base_41,2021.2.3,Win32,60.24096386,,,31,0,31,0,1,,,,,,,,
,,"[""diamond"",""green"",""vert"",""up"",[0,-150],[-150,0]]",diamond,green,vert,up,"[0,-150]","[-150,0]",up,1,1.3942,,,,,,001,2025-03-10_20h03.32.977,SL_base_41,2021.2.3,Win32,60.24096386,,,32,0,32,0,1,,,,,,,,
,,"[""diamond"",""no_dis"",""vert"",""up"",[99999,99999],[-150,0]]",diamond,no_dis,vert,up,"[99999,99999]","[-150,0]",up,1,1.1803,,,,,,001,2025-03-10_20h03.32.977,SL_base_41,2021.2.3,Win32,60.24096386,,,33,0,33,0,1,,,,,,,,
,,"[""circle"",""red"",""hori"",""left"",[0,-150],[-106,106]]",circle,red,hori,left,"[0,-150]","[-106,106]",up,0,1.4345,,,,,,001,2025-03-10_20h03.32.977,SL_base_41,2021.2.3,Win32,60.24096386,,,34,0,34,0,1,,,,,,,,
,,"[""diamond"",""no_dis"",""hori"",""left"",[99999,99999],[-106,106]]",diamond,no_dis,hori,left,"[99999,99999]","[-106,106]",left,1,1.1676,,,,,,001,2025-03-10_20h03.32.977,SL_base_41,2021.2.3,Win32,60.24096386,,,35,0,35,0,1,,,,,,,,
,,"[""circle"",""red"",""vert"",""up"",[150,0],[106,-106]]",circle,red,vert,up,"[150,0]","[106,-106]",up,1,1.3263,,,,,,001,2025-03-10_20h03.32.977,SL_base_41,2021.2.3,Win32,60.24096386,,,36,0,36,0,1,,,,,,,,
,,"[""diamond"",""no_dis"",""vert"",""up"",[99999,99999],[0,150]]",diamond,no_dis,vert,up,"[99999,99999]","[0,150]",up,1,2.3928,,,,,,001,2025-03-10_20h03.32.977,SL_base_41,2021.2.3,Win32,60.24096386,,,37,0,37,0,1,,,,,,,,
,,"[""diamond"",""red"",""vert"",""up"",[-106,-106],[-150,0]]",diamond,red,vert,up,"[-106,-106]","[-150,0]",up,1,2.6842,,,,,,001,2025-03-10_20h03.32.977,SL_base_41,2021.2.3,Win32,60.24096386,,,38,0,38,0,1,,,,,,,,
,,"[""circle"",""no_dis"",""hori"",""left"",[99999,99999],[-106,106]]",circle,no_dis,hori,left,"[99999,99999]","[-106,106]",left,1,1.3842,,,,,,001,2025-03-10_20h03.32.977,SL_base_41,2021.2.3,Win32,60.24096386,,,39,0,39,0,1,,,,,,,,
,,"[""diamond"",""no_dis"",""vert"",""up"",[99999,99999],[106,-106]]",diamond,no_dis,vert,up,"[99999,99999]","[106,-106]",up,1,1.4559,,,,,,001,2025-03-10_20h03.32.977,SL_base_41,2021.2.3,Win32,60.24096386,,,40,0,40,0,1,,,,,,,,
,,"[""circle"",""red"",""hori"",""left"",[-150,0],[-106,-106]]",circle,red,hori,left,"[-150,0]","[-106,-106]",left,1,1.9564,,,,,,001,2025-03-10_20h03.32.977,SL_base_41,2021.2.3,Win32,60.24096386,,,41,0,41,0,1,,,,,,,,
,,"[""circle"",""red"",""hori"",""left"",[0,150],[106,106]]",circle,red,hori,left,"[0,150]","[106,106]",left,1,1.821,,,,,,001,2025-03-10_20h03.32.977,SL_base_41,2021.2.3,Win32,60.24096386,,,42,0,42,0,1,,,,,,,,
,,"[""circle"",""green"",""vert"",""up"",[150,0],[0,-150]]",circle,green,vert,up,"[150,0]","[0,-150]",up,1,1.2122,,,,,,001,2025-03-10_20h03.32.977,SL_base_41,2021.2.3,Win32,60.24096386,,,43,0,43,0,1,,,,,,,,
,,"[""diamond"",""no_dis"",""vert"",""up"",[99999,99999],[-106,106]]",diamond,no_dis,vert,up,"[99999,99999]","[-106,106]",up,1,1.5048,,,,,,001,2025-03-10_20h03.32.977,SL_base_41,2021.2.3,Win32,60.24096386,,,44,0,44,0,1,,,,,,,,
,,"[""diamond"",""green"",""vert"",""up"",[0,-150],[106,106]]",diamond,green,vert,up,"[0,-150]","[106,106]",up,1,1.4728,,,,,,001,2025-03-10_20h03.32.977,SL_base_41,2021.2.3,Win32,60.24096386,,,45,0,45,0,1,,,,,,,,
,,"[""diamond"",""red"",""hori"",""left"",[-106,-106],[150,0]]",diamond,red,hori,left,"[-106,-106]","[150,0]",left,1,2.7303,,,,,,001,2025-03-10_20h03.32.977,SL_base_41,2021.2.3,Win32,60.24096386,,,46,0,46,0,1,,,,,,,,
,,"[""circle"",""no_dis"",""vert"",""up"",[99999,99999],[0,150]]",circle,no_dis,vert,up,"[99999,99999]","[0,150]",up,1,0.9384,,,,,,001,2025-03-10_20h03.32.977,SL_base_41,2021.2.3,Win32,60.24096386,,,47,0,47,0,1,,,,,,,,
,,"[""diamond"",""no_dis"",""hori"",""left"",[99999,99999],[-150,0]]",diamond,no_dis,hori,left,"[99999,99999]","[-150,0]",left,1,2.0235,,,,,,001,2025-03-10_20h03.32.977,SL_base_41,2021.2.3,Win32,60.24096386,,,48,0,48,0,1,,,,,,,,
,,"[""circle"",""no_dis"",""hori"",""left"",[99999,99999],[-106,-106]]",circle,no_dis,hori,left,"[99999,99999]","[-106,-106]",left,1,0.987,,,,,,001,2025-03-10_20h03.32.977,SL_base_41,2021.2.3,Win32,60.24096386,,,49,0,49,0,1,,,,,,,,
,,"[""circle"",""green"",""hori"",""left"",[0,-150],[-106,106]]",circle,green,hori,left,"[0,-150]","[-106,106]",left,1,1.0839,,,,,,001,2025-03-10_20h03.32.977,SL_base_41,2021.2.3,Win32,60.24096386,,,50,0,50,0,1,,,,,,,,
,,"[""diamond"",""red"",""vert"",""up"",[-106,106],[-106,-106]]",diamond,red,vert,up,"[-106,106]","[-106,-106]",up,1,1.9165,,,,,,001,2025-03-10_20h03.32.977,SL_base_41,2021.2.3,Win32,60.24096386,,,51,0,51,0,1,,,,,,,,
,,"[""diamond"",""green"",""vert"",""up"",[0,150],[106,106]]",diamond,green,vert,up,"[0,150]","[106,106]",left,0,2.8511,,,,,,001,2025-03-10_20h03.32.977,SL_base_41,2021.2.3,Win32,60.24096386,,,52,0,52,0,1,,,,,,,,
,,"[""circle"",""no_dis"",""vert"",""up"",[99999,99999],[-150,0]]",circle,no_dis,vert,up,"[99999,99999]","[-150,0]",up,1,1.6928,,,,,,001,2025-03-10_20h03.32.977,SL_base_41,2021.2.3,Win32,60.24096386,,,53,0,53,0,1,,,,,,,,
,,"[""diamond"",""red"",""vert"",""up"",[0,-150],[150,0]]",diamond,red,vert,up,"[0,-150]","[150,0]",up,1,2.0338,,,,,,001,2025-03-10_20h03.32.977,SL_base_41,2021.2.3,Win32,60.24096386,,,54,0,54,0,1,,,,,,,,
,,"[""circle"",""green"",""hori"",""left"",[0,-150],[106,106]]",circle,green,hori,left,"[0,-150]","[106,106]",left,1,2.2167,,,,,,001,2025-03-10_20h03.32.977,SL_base_41,2021.2.3,Win32,60.24096386,,,55,0,55,0,1,,,,,,,,
,,"[""circle"",""red"",""hori"",""left"",[106,-106],[-150,0]]",circle,red,hori,left,"[106,-106]","[-150,0]",left,1,1.573,,,,,,001,2025-03-10_20h03.32.977,SL_base_41,2021.2.3,Win32,60.24096386,,,56,0,56,0,1,,,,,,,,
,,"[""circle"",""green"",""vert"",""up"",[150,0],[0,150]]",circle,green,vert,up,"[150,0]","[0,150]",up,1,1.1358,,,,,,001,2025-03-10_20h03.32.977,SL_base_41,2021.2.3,Win32,60.24096386,,,57,0,57,0,1,,,,,,,,
,,"[""circle"",""red"",""hori"",""left"",[150,0],[-106,-106]]",circle,red,hori,left,"[150,0]","[-106,-106]",left,1,1.9626,,,,,,001,2025-03-10_20h03.32.977,SL_base_41,2021.2.3,Win32,60.24096386,,,58,0,58,0,1,,,,,,,,
,,"[""circle"",""no_dis"",""vert"",""up"",[99999,99999],[106,-106]]",circle,no_dis,vert,up,"[99999,99999]","[106,-106]",up,1,1.3675,,,,,,001,2025-03-10_20h03.32.977,SL_base_41,2021.2.3,Win32,60.24096386,,,59,0,59,0,1,,,,,,,,
,,"[""circle"",""green"",""hori"",""left"",[-106,-106],[-106,106]]",circle,green,hori,left,"[-106,-106]","[-106,106]",left,1,2.2859,,,,,,001,2025-03-10_20h03.32.977,SL_base_41,2021.2.3,Win32,60.24096386,,,60,0,60,0,1,,,,,,,,
,,"[""circle"",""red"",""vert"",""up"",[0,150],[-150,0]]",circle,red,vert,up,"[0,150]","[-150,0]",up,1,1.0287,,,,,,001,2025-03-10_20h03.32.977,SL_base_41,2021.2.3,Win32,60.24096386,,,61,0,61,0,1,,,,,,,,
,,"[""diamond"",""red"",""hori"",""left"",[0,-150],[106,106]]",diamond,red,hori,left,"[0,-150]","[106,106]",left,1,1.4192,,,,,,001,2025-03-10_20h03.32.977,SL_base_41,2021.2.3,Win32,60.24096386,,,62,0,62,0,1,,,,,,,,
,,"[""diamond"",""green"",""hori"",""left"",[0,-150],[-106,-106]]",diamond,green,hori,left,"[0,-150]","[-106,-106]",left,1,2.0748,,,,,,001,2025-03-10_20h03.32.977,SL_base_41,2021.2.3,Win32,60.24096386,,,63,0,63,0,1,,,,,,,,
,,"[""diamond"",""no_dis"",""vert"",""up"",[99999,99999],[150,0]]",diamond,no_dis,vert,up,"[99999,99999]","[150,0]",up,1,1.3842,,,,,,001,2025-03-10_20h03.32.977,SL_base_41,2021.2.3,Win32,60.24096386,,,64,0,64,0,1,,,,,,,,
,,"[""circle"",""green"",""vert"",""up"",[0,-150],[-150,0]]",circle,green,vert,up,"[0,-150]","[-150,0]",up,1,1.4552,,,,,,001,2025-03-10_20h03.32.977,SL_base_41,2021.2.3,Win32,60.24096386,,,65,0,65,0,1,,,,,,,,
,,"[""diamond"",""red"",""hori"",""left"",[-150,0],[0,-150]]",diamond,red,hori,left,"[-150,0]","[0,-150]",left,1,1.3842,,,,,,001,2025-03-10_20h03.32.977,SL_base_41,2021.2.3,Win32,60.24096386,,,66,0,66,0,1,,,,,,,,
,,"[""diamond"",""green"",""hori"",""left"",[106,-106],[-106,106]]",diamond,green,hori,left,"[106,-106]","[-106,106]",left,1,1.2174,,,,,,001,2025-03-10_20h03.32.977,SL_base_41,2021.2.3,Win32,60.24096386,,,67,0,67,0,1,,,,,,,,
,,"[""diamond"",""red"",""vert"",""up"",[0,-150],[-106,-106]]",diamond,red,vert,up,"[0,-150]","[-106,-106]",up,1,1.3009,,,,,,001,2025-03-10_20h03.32.977,SL_base_41,2021.2.3,Win32,60.24096386,,,68,0,68,0,1,,,,,,,,
,,"[""diamond"",""red"",""hori"",""left"",[0,-150],[150,0]]",diamond,red,hori,left,"[0,-150]","[150,0]",left,1,1.1671,,,,,,001,2025-03-10_20h03.32.977,SL_base_41,2021.2.3,Win32,60.24096386,,,69,0,69,0,1,,,,,,,,
,,"[""diamond"",""no_dis"",""vert"",""up"",[99999,99999],[0,-150]]",diamond,no_dis,vert,up,"[99999,99999]","[0,-150]",up,1,1.5004,,,,,,001,2025-03-10_20h03.32.977,SL_base_41,2021.2.3,Win32,60.24096386,,,70,0,70,0,1,,,,,,,,
,,"[""diamond"",""red"",""vert"",""up"",[-106,-106],[150,0]]",diamond,red,vert,up,"[-106,-106]","[150,0]",up,1,1.3174,,,,,,001,2025-03-10_20h03.32.977,SL_base_41,2021.2.3,Win32,60.24096386,,,71,0,71,0,1,,,,,,,,
,,"[""diamond"",""green"",""hori"",""left"",[106,106],[0,-150]]",diamond,green,hori,left,"[106,106]","[0,-150]",left,1,1.7755,,,,,,001,2025-03-10_20h03.32.977,SL_base_41,2021.2.3,Win32,60.24096386,,,72,0,72,0,1,,,,,,,,
,,"[""diamond"",""red"",""hori"",""left"",[150,0],[-106,106]]",diamond,red,hori,left,"[150,0]","[-106,106]",left,1,0.9943,,,,,,001,2025-03-10_20h03.32.977,SL_base_41,2021.2.3,Win32,60.24096386,,,73,0,73,0,1,,,,,,,,
,,"[""diamond"",""no_dis"",""hori"",""left"",[99999,99999],[0,-150]]",diamond,no_dis,hori,left,"[99999,99999]","[0,-150]",left,1,1.1678,,,,,,001,2025-03-10_20h03.32.977,SL_base_41,2021.2.3,Win32,60.24096386,,,74,0,74,0,1,,,,,,,,
,,"[""diamond"",""green"",""vert"",""up"",[0,-150],[-106,-106]]",diamond,green,vert,up,"[0,-150]","[-106,-106]",up,1,1.2508,,,,,,001,2025-03-10_20h03.32.977,SL_base_41,2021.2.3,Win32,60.24096386,,,75,0,75,0,1,,,,,,,,
,,"[""diamond"",""no_dis"",""vert"",""up"",[99999,99999],[106,-106]]",diamond,no_dis,vert,up,"[99999,99999]","[106,-106]",up,1,1.0388,,,,,,001,2025-03-10_20h03.32.977,SL_base_41,2021.2.3,Win32,60.24096386,,,76,0,76,0,1,,,,,,,,
,,"[""diamond"",""green"",""vert"",""up"",[0,-150],[-106,-106]]",diamond,green,vert,up,"[0,-150]","[-106,-106]",up,1,1.1841,,,,,,001,2025-03-10_20h03.32.977,SL_base_41,2021.2.3,Win32,60.24096386,,,77,0,77,0,1,,,,,,,,
,,"[""diamond"",""red"",""vert"",""up"",[0,-150],[-106,-106]]",diamond,red,vert,up,"[0,-150]","[-106,-106]",up,1,1.0002,,,,,,001,2025-03-10_20h03.32.977,SL_base_41,2021.2.3,Win32,60.24096386,,,78,0,78,0,1,,,,,,,,
,,"[""circle"",""red"",""vert"",""up"",[-106,106],[0,-150]]",circle,red,vert,up,"[-106,106]","[0,-150]",up,1,0.8295,,,,,,001,2025-03-10_20h03.32.977,SL_base_41,2021.2.3,Win32,60.24096386,,,79,0,79,0,1,,,,,,,,
,,"[""circle"",""green"",""vert"",""up"",[106,-106],[150,0]]",circle,green,vert,up,"[106,-106]","[150,0]",up,1,2.1107,,,,,,001,2025-03-10_20h03.32.977,SL_base_41,2021.2.3,Win32,60.24096386,,,80,0,80,0,1,,,,,,,,
,,"[""diamond"",""green"",""hori"",""left"",[0,150],[-106,-106]]",diamond,green,hori,left,"[0,150]","[-106,-106]",left,1,1.9204,,,,,,001,2025-03-10_20h03.32.977,SL_base_41,2021.2.3,Win32,60.24096386,,,81,0,81,0,1,,,,,,,,
,,"[""diamond"",""green"",""hori"",""left"",[106,106],[-106,-106]]",diamond,green,hori,left,"[106,106]","[-106,-106]",left,1,1.1564,,,,,,001,2025-03-10_20h03.32.977,SL_base_41,2021.2.3,Win32,60.24096386,,,82,0,82,0,1,,,,,,,,
,,"[""diamond"",""no_dis"",""hori"",""left"",[99999,99999],[-106,-106]]",diamond,no_dis,hori,left,"[99999,99999]","[-106,-106]",left,1,0.8067,,,,,,001,2025-03-10_20h03.32.977,SL_base_41,2021.2.3,Win32,60.24096386,,,83,0,83,0,1,,,,,,,,
,,"[""diamond"",""no_dis"",""hori"",""left"",[99999,99999],[-106,-106]]",diamond,no_dis,hori,left,"[99999,99999]","[-106,-106]",left,1,1.2003,,,,,,001,2025-03-10_20h03.32.977,SL_base_41,2021.2.3,Win32,60.24096386,,,84,0,84,0,1,,,,,,,,
,,"[""circle"",""no_dis"",""vert"",""up"",[99999,99999],[-106,-106]]",circle,no_dis,vert,up,"[99999,99999]","[-106,-106]",up,1,1.6581,,,,,,001,2025-03-10_20h03.32.977,SL_base_41,2021.2.3,Win32,60.24096386,,,85,0,85,0,1,,,,,,,,
,,"[""diamond"",""red"",""vert"",""up"",[-150,0],[0,-150]]",diamond,red,vert,up,"[-150,0]","[0,-150]",up,1,2.0528,,,,,,001,2025-03-10_20h03.32.977,SL_base_41,2021.2.3,Win32,60.24096386,,,86,0,86,0,1,,,,,,,,
,,"[""diamond"",""red"",""vert"",""up"",[0,-150],[0,150]]",diamond,red,vert,up,"[0,-150]","[0,150]",up,1,2.3094,,,,,,001,2025-03-10_20h03.32.977,SL_base_41,2021.2.3,Win32,60.24096386,,,87,0,87,0,1,,,,,,,,
,,"[""circle"",""no_dis"",""hori"",""left"",[99999,99999],[106,106]]",circle,no_dis,hori,left,"[99999,99999]","[106,106]",left,1,1.8333,,,,,,001,2025-03-10_20h03.32.977,SL_base_41,2021.2.3,Win32,60.24096386,,,88,0,88,0,1,,,,,,,,
,,"[""diamond"",""red"",""hori"",""left"",[-150,0],[106,-106]]",diamond,red,hori,left,"[-150,0]","[106,-106]",left,1,1.6413,,,,,,001,2025-03-10_20h03.32.977,SL_base_41,2021.2.3,Win32,60.24096386,,,89,0,89,0,1,,,,,,,,
,,"[""circle"",""no_dis"",""vert"",""up"",[99999,99999],[-150,0]]",circle,no_dis,vert,up,"[99999,99999]","[-150,0]",up,1,1.9626,,,,,,001,2025-03-10_20h03.32.977,SL_base_41,2021.2.3,Win32,60.24096386,,,90,0,90,0,1,,,,,,,,
,,"[""diamond"",""no_dis"",""hori"",""left"",[99999,99999],[106,-106]]",diamond,no_dis,hori,left,"[99999,99999]","[106,-106]",left,1,1.526,,,,,,001,2025-03-10_20h03.32.977,SL_base_41,2021.2.3,Win32,60.24096386,,,91,0,91,0,1,,,,,,,,
,,"[""circle"",""red"",""vert"",""up"",[-106,106],[106,106]]",circle,red,vert,up,"[-106,106]","[106,106]",up,1,2.2274,,,,,,001,2025-03-10_20h03.32.977,SL_base_41,2021.2.3,Win32,60.24096386,,,92,0,92,0,1,,,,,,,,
,,"[""circle"",""no_dis"",""vert"",""up"",[99999,99999],[150,0]]",circle,no_dis,vert,up,"[99999,99999]","[150,0]",up,1,1.0118,,,,,,001,2025-03-10_20h03.32.977,SL_base_41,2021.2.3,Win32,60.24096386,,,93,0,93,0,1,,,,,,,,
,,"[""circle"",""red"",""vert"",""up"",[106,106],[-150,0]]",circle,red,vert,up,"[106,106]","[-150,0]",up,1,1.2333,,,,,,001,2025-03-10_20h03.32.977,SL_base_41,2021.2.3,Win32,60.24096386,,,94,0,94,0,1,,,,,,,,
,,"[""circle"",""no_dis"",""vert"",""up"",[99999,99999],[106,-106]]",circle,no_dis,vert,up,"[99999,99999]","[106,-106]",up,1,0.7698,,,,,,001,2025-03-10_20h03.32.977,SL_base_41,2021.2.3,Win32,60.24096386,,,95,0,95,0,1,,,,,,,,
,,"[""diamond"",""red"",""hori"",""left"",[0,-150],[0,150]]",diamond,red,hori,left,"[0,-150]","[0,150]",left,1,1.284,,,,,,001,2025-03-10_20h03.32.977,SL_base_41,2021.2.3,Win32,60.24096386,,,96,0,96,0,1,,,,,,,,
,,"[""circle"",""red"",""hori"",""left"",[0,-150],[106,-106]]",circle,red,hori,left,"[0,-150]","[106,-106]",left,1,1.8693,,,,,,001,2025-03-10_20h03.32.977,SL_base_41,2021.2.3,Win32,60.24096386,,,97,0,97,0,1,,,,,,,,
,,"[""circle"",""green"",""hori"",""left"",[-106,106],[0,150]]",circle,green,hori,left,"[-106,106]","[0,150]",left,1,1.1921,,,,,,001,2025-03-10_20h03.32.977,SL_base_41,2021.2.3,Win32,60.24096386,,,98,0,98,0,1,,,,,,,,
,,"[""circle"",""no_dis"",""hori"",""left"",[99999,99999],[0,150]]",circle,no_dis,hori,left,"[99999,99999]","[0,150]",left,1,0.8583,,,,,,001,2025-03-10_20h03.32.977,SL_base_41,2021.2.3,Win32,60.24096386,,,99,0,99,0,1,,,,,,,,
,,"[""diamond"",""red"",""hori"",""left"",[0,150],[-106,106]]",diamond,red,hori,left,"[0,150]","[-106,106]",left,1,2.4532,,,,,,001,2025-03-10_20h03.32.977,SL_base_41,2021.2.3,Win32,60.24096386,,,100,0,100,0,1,,,,,,,,
,,"[""circle"",""green"",""hori"",""left"",[0,150],[106,-106]]",circle,green,hori,left,"[0,150]","[106,-106]",left,1,1.4338,,,,,,001,2025-03-10_20h03.32.977,SL_base_41,2021.2.3,Win32,60.24096386,,,101,0,101,0,1,,,,,,,,
,,"[""circle"",""green"",""vert"",""up"",[106,106],[-150,0]]",circle,green,vert,up,"[106,106]","[-150,0]",up,1,1.1003,,,,,,001,2025-03-10_20h03.32.977,SL_base_41,2021.2.3,Win32,60.24096386,,,102,0,102,0,1,,,,,,,,
,,"[""circle"",""red"",""hori"",""left"",[106,-106],[0,-150]]",circle,red,hori,left,"[106,-106]","[0,-150]",left,1,1.4802,,,,,,001,2025-03-10_20h03.32.977,SL_base_41,2021.2.3,Win32,60.24096386,,,103,0,103,0,1,,,,,,,,
,,"[""circle"",""red"",""vert"",""up"",[0,-150],[106,-106]]",circle,red,vert,up,"[0,-150]","[106,-106]",up,1,1.1499,,,,,,001,2025-03-10_20h03.32.977,SL_base_41,2021.2.3,Win32,60.24096386,,,104,0,104,0,1,,,,,,,,
,,"[""circle"",""green"",""vert"",""up"",[106,-106],[-150,0]]",circle,green,vert,up,"[106,-106]","[-150,0]",up,1,1.0192,,,,,,001,2025-03-10_20h03.32.977,SL_base_41,2021.2.3,Win32,60.24096386,,,105,0,105,0,1,,,,,,,,
,,"[""circle"",""green"",""vert"",""up"",[150,0],[-106,106]]",circle,green,vert,up,"[150,0]","[-106,106]",up,1,0.8671,,,,,,001,2025-03-10_20h03.32.977,SL_base_41,2021.2.3,Win32,60.24096386,,,106,0,106,0,1,,,,,,,,
,,"[""circle"",""no_dis"",""hori"",""left"",[99999,99999],[150,0]]",circle,no_dis,hori,left,"[99999,99999]","[150,0]",left,1,1.5006,,,,,,001,2025-03-10_20h03.32.977,SL_base_41,2021.2.3,Win32,60.24096386,,,107,0,107,0,1,,,,,,,,
,,"[""diamond"",""no_dis"",""hori"",""left"",[99999,99999],[-106,106]]",diamond,no_dis,hori,left,"[99999,99999]","[-106,106]",left,1,2.1932,,,,,,001,2025-03-10_20h03.32.977,SL_base_41,2021.2.3,Win32,60.24096386,,,108,0,108,0,1,,,,,,,,
,,"[""diamond"",""red"",""vert"",""up"",[-106,-106],[-106,106]]",diamond,red,vert,up,"[-106,-106]","[-106,106]",up,1,1.3387,,,,,,001,2025-03-10_20h03.32.977,SL_base_41,2021.2.3,Win32,60.24096386,,,109,0,109,0,1,,,,,,,,
,,"[""diamond"",""green"",""hori"",""left"",[106,-106],[106,106]]",diamond,green,hori,left,"[106,-106]","[106,106]",left,1,2.3889,,,,,,001,2025-03-10_20h03.32.977,SL_base_41,2021.2.3,Win32,60.24096386,,,110,0,110,0,1,,,,,,,,
,,"[""diamond"",""red"",""hori"",""left"",[0,-150],[-150,0]]",diamond,red,hori,left,"[0,-150]","[-150,0]",left,1,1.2503,,,,,,001,2025-03-10_20h03.32.977,SL_base_41,2021.2.3,Win32,60.24096386,,,111,0,111,0,1,,,,,,,,
,,"[""diamond"",""green"",""hori"",""left"",[0,-150],[150,0]]",diamond,green,hori,left,"[0,-150]","[150,0]",left,1,1.3596,,,,,,001,2025-03-10_20h03.32.977,SL_base_41,2021.2.3,Win32,60.24096386,,,112,0,112,0,1,,,,,,,,
,,"[""diamond"",""red"",""vert"",""up"",[-150,0],[0,150]]",diamond,red,vert,up,"[-150,0]","[0,150]",up,1,1.0511,,,,,,001,2025-03-10_20h03.32.977,SL_base_41,2021.2.3,Win32,60.24096386,,,113,0,113,0,1,,,,,,,,
,,"[""circle"",""no_dis"",""vert"",""up"",[99999,99999],[106,106]]",circle,no_dis,vert,up,"[99999,99999]","[106,106]",up,1,1.3508,,,,,,001,2025-03-10_20h03.32.977,SL_base_41,2021.2.3,Win32,60.24096386,,,114,0,114,0,1,,,,,,,,
,,"[""circle"",""green"",""vert"",""up"",[0,-150],[-106,106]]",circle,green,vert,up,"[0,-150]","[-106,106]",up,1,2.0062,,,,,,001,2025-03-10_20h03.32.977,SL_base_41,2021.2.3,Win32,60.24096386,,,115,0,115,0,1,,,,,,,,
,,"[""circle"",""red"",""vert"",""up"",[-106,-106],[106,106]]",circle,red,vert,up,"[-106,-106]","[106,106]",up,1,0.879,,,,,,001,2025-03-10_20h03.32.977,SL_base_41,2021.2.3,Win32,60.24096386,,,116,0,116,0,1,,,,,,,,
,,"[""circle"",""green"",""hori"",""left"",[0,-150],[-106,-106]]",circle,green,hori,left,"[0,-150]","[-106,-106]",left,1,1.3842,,,,,,001,2025-03-10_20h03.32.977,SL_base_41,2021.2.3,Win32,60.24096386,,,117,0,117,0,1,,,,,,,,
,,"[""diamond"",""green"",""vert"",""up"",[-106,-106],[-150,0]]",diamond,green,vert,up,"[-106,-106]","[-150,0]",up,1,1.8033,,,,,,001,2025-03-10_20h03.32.977,SL_base_41,2021.2.3,Win32,60.24096386,,,118,0,118,0,1,,,,,,,,
,,"[""circle"",""red"",""hori"",""left"",[106,-106],[106,106]]",circle,red,hori,left,"[106,-106]","[106,106]",left,1,1.3598,,,,,,001,2025-03-10_20h03.32.977,SL_base_41,2021.2.3,Win32,60.24096386,,,119,0,119,0,1,,,,,,,,
,,"[""circle"",""green"",""hori"",""left"",[-106,106],[0,150]]",circle,green,hori,left,"[-106,106]","[0,150]",left,1,1.1166,,,,,,001,2025-03-10_20h03.32.977,SL_base_41,2021.2.3,Win32,60.24096386,,,120,0,120,0,1,,,,,,,,
,,"[""circle"",""no_dis"",""vert"",""up"",[99999,99999],[-150,0]]",circle,no_dis,vert,up,"[99999,99999]","[-150,0]",up,1,1.0828,,,,,,001,2025-03-10_20h03.32.977,SL_base_41,2021.2.3,Win32,60.24096386,,,121,0,121,0,1,,,,,,,,
,,"[""circle"",""no_dis"",""hori"",""left"",[99999,99999],[0,-150]]",circle,no_dis,hori,left,"[99999,99999]","[0,-150]",up,0,1.7009,,,,,,001,2025-03-10_20h03.32.977,SL_base_41,2021.2.3,Win32,60.24096386,,,122,0,122,0,1,,,,,,,,
,,"[""circle"",""no_dis"",""hori"",""left"",[99999,99999],[106,106]]",circle,no_dis,hori,left,"[99999,99999]","[106,106]",left,1,1.4297,,,,,,001,2025-03-10_20h03.32.977,SL_base_41,2021.2.3,Win32,60.24096386,,,123,0,123,0,1,,,,,,,,
,,"[""circle"",""green"",""vert"",""up"",[0,-150],[150,0]]",circle,green,vert,up,"[0,-150]","[150,0]",up,1,2.7237,,,,,,001,2025-03-10_20h03.32.977,SL_base_41,2021.2.3,Win32,60.24096386,,,124,0,124,0,1,,,,,,,,
,,"[""circle"",""green"",""vert"",""up"",[0,-150],[0,150]]",circle,green,vert,up,"[0,-150]","[0,150]",up,1,1.2168,,,,,,001,2025-03-10_20h03.32.977,SL_base_41,2021.2.3,Win32,60.24096386,,,125,0,125,0,1,,,,,,,,
,,"[""diamond"",""red"",""vert"",""up"",[0,-150],[0,150]]",diamond,red,vert,up,"[0,-150]","[0,150]",up,1,2.4838,,,,,,001,2025-03-10_20h03.32.977,SL_base_41,2021.2.3,Win32,60.24096386,,,126,0,126,0,1,,,,,,,,
,,"[""diamond"",""green"",""vert"",""up"",[-106,106],[106,-106]]",diamond,green,vert,up,"[-106,106]","[106,-106]",up,1,1.3534,,,,,,001,2025-03-10_20h03.32.977,SL_base_41,2021.2.3,Win32,60.24096386,,,127,0,127,0,1,,,,,,,,
,,,,,,,,,,,,,,,,,001,2025-03-10_20h03.32.977,SL_base_41,2021.2.3,Win32,60.24096386,,,,,,,,3,space,14.762,2,0,2,0,1
,,"[""diamond"",""green"",""hori"",""left"",[0,-150],[-106,-106]]",diamond,green,hori,left,"[0,-150]","[-106,-106]",left,1,2.384,,,,,,001,2025-03-10_20h03.32.977,SL_base_41,2021.2.3,Win32,60.24096386,,,0,0,0,0,1,,,,,,,,
,,"[""diamond"",""green"",""vert"",""up"",[0,-150],[-150,0]]",diamond,green,vert,up,"[0,-150]","[-150,0]",up,1,1.2489,,,,,,001,2025-03-10_20h03.32.977,SL_base_41,2021.2.3,Win32,60.24096386,,,1,0,1,0,1,,,,,,,,
,,"[""circle"",""red"",""vert"",""up"",[0,150],[-150,0]]",circle,red,vert,up,"[0,150]","[-150,0]",up,1,2.4361,,,,,,001,2025-03-10_20h03.32.977,SL_base_41,2021.2.3,Win32,60.24096386,,,2,0,2,0,1,,,,,,,,
,,"[""circle"",""no_dis"",""vert"",""up"",[99999,99999],[0,150]]",circle,no_dis,vert,up,"[99999,99999]","[0,150]",up,1,2.1887,,,,,,001,2025-03-10_20h03.32.977,SL_base_41,2021.2.3,Win32,60.24096386,,,3,0,3,0,1,,,,,,,,
,,"[""diamond"",""no_dis"",""vert"",""up"",[99999,99999],[0,-150]]",diamond,no_dis,vert,up,"[99999,99999]","[0,-150]",up,1,1.6327,,,,,,001,2025-03-10_20h03.32.977,SL_base_41,2021.2.3,Win32,60.24096386,,,4,0,4,0,1,,,,,,,,
,,"[""circle"",""green"",""vert"",""up"",[150,0],[-106,106]]",circle,green,vert,up,"[150,0]","[-106,106]",up,1,1.6429,,,,,,001,2025-03-10_20h03.32.977,SL_base_41,2021.2.3,Win32,60.24096386,,,5,0,5,0,1,,,,,,,,
,,"[""circle"",""green"",""vert"",""up"",[0,-150],[-106,106]]",circle,green,vert,up,"[0,-150]","[-106,106]",up,1,0.9166,,,,,,001,2025-03-10_20h03.32.977,SL_base_41,2021.2.3,Win32,60.24096386,,,6,0,6,0,1,,,,,,,,
,,"[""diamond"",""red"",""hori"",""left"",[0,-150],[-150,0]]",diamond,red,hori,left,"[0,-150]","[-150,0]",left,1,1.9422,,,,,,001,2025-03-10_20h03.32.977,SL_base_41,2021.2.3,Win32,60.24096386,,,7,0,7,0,1,,,,,,,,
,,"[""diamond"",""red"",""vert"",""up"",[0,-150],[0,150]]",diamond,red,vert,up,"[0,-150]","[0,150]",up,1,1.3928,,,,,,001,2025-03-10_20h03.32.977,SL_base_41,2021.2.3,Win32,60.24096386,,,8,0,8,0,1,,,,,,,,
,,"[""diamond"",""no_dis"",""vert"",""up"",[99999,99999],[-106,-106]]",diamond,no_dis,vert,up,"[99999,99999]","[-106,-106]",up,1,1.5007,,,,,,001,2025-03-10_20h03.32.977,SL_base_41,2021.2.3,Win32,60.24096386,,,9,0,9,0,1,,,,,,,,
,,"[""circle"",""green"",""vert"",""up"",[106,-106],[150,0]]",circle,green,vert,up,"[106,-106]","[150,0]",up,1,1.6586,,,,,,001,2025-03-10_20h03.32.977,SL_base_41,2021.2.3,Win32,60.24096386,,,10,0,10,0,1,,,,,,,,
,,"[""diamond"",""green"",""vert"",""up"",[-106,-106],[-150,0]]",diamond,green,vert,up,"[-106,-106]","[-150,0]",left,0,1.2212,,,,,,001,2025-03-10_20h03.32.977,SL_base_41,2021.2.3,Win32,60.24096386,,,11,0,11,0,1,,,,,,,,
,,"[""circle"",""red"",""hori"",""left"",[106,106],[-106,-106]]",circle,red,hori,left,"[106,106]","[-106,-106]",left,1,1.609,,,,,,001,2025-03-10_20h03.32.977,SL_base_41,2021.2.3,Win32,60.24096386,,,12,0,12,0,1,,,,,,,,
,,"[""diamond"",""red"",""hori"",""left"",[0,-150],[150,0]]",diamond,red,hori,left,"[0,-150]","[150,0]",left,1,1.8261,,,,,,001,2025-03-10_20h03.32.977,SL_base_41,2021.2.3,Win32,60.24096386,,,13,0,13,0,1,,,,,,,,
,,"[""diamond"",""red"",""hori"",""left"",[150,0],[-106,106]]",diamond,red,hori,left,"[150,0]","[-106,106]",left,1,1.3496,,,,,,001,2025-03-10_20h03.32.977,SL_base_41,2021.2.3,Win32,60.24096386,,,14,0,14,0,1,,,,,,,,
,,"[""diamond"",""red"",""vert"",""up"",[-106,-106],[-150,0]]",diamond,red,vert,up,"[-106,-106]","[-150,0]",up,1,1.5762,,,,,,001,2025-03-10_20h03.32.977,SL_base_41,2021.2.3,Win32,60.24096386,,,15,0,15,0,1,,,,,,,,
,,"[""diamond"",""no_dis"",""vert"",""up"",[99999,99999],[0,-150]]",diamond,no_dis,vert,up,"[99999,99999]","[0,-150]",up,1,2.4871,,,,,,001,2025-03-10_20h03.32.977,SL_base_41,2021.2.3,Win32,60.24096386,,,16,0,16,0,1,,,,,,,,
,,"[""diamond"",""red"",""vert"",""up"",[0,-150],[150,0]]",diamond,red,vert,up,"[0,-150]","[150,0]",up,1,2.2855,,,,,,001,2025-03-10_20h03.32.977,SL_base_41,2021.2.3,Win32,60.24096386,,,17,0,17,0,1,,,,,,,,
,,"[""diamond"",""red"",""hori"",""left"",[-106,-106],[150,0]]",diamond,red,hori,left,"[-106,-106]","[150,0]",up,0,1.781,,,,,,001,2025-03-10_20h03.32.977,SL_base_41,2021.2.3,Win32,60.24096386,,,18,0,18,0,1,,,,,,,,
,,"[""circle"",""no_dis"",""vert"",""up"",[99999,99999],[106,106]]",circle,no_dis,vert,up,"[99999,99999]","[106,106]",up,1,2.418,,,,,,001,2025-03-10_20h03.32.977,SL_base_41,2021.2.3,Win32,60.24096386,,,19,0,19,0,1,,,,,,,,
,,"[""diamond"",""red"",""vert"",""up"",[-106,106],[-106,-106]]",diamond,red,vert,up,"[-106,106]","[-106,-106]",up,1,1.2101,,,,,,001,2025-03-10_20h03.32.977,SL_base_41,2021.2.3,Win32,60.24096386,,,20,0,20,0,1,,,,,,,,
,,"[""circle"",""red"",""vert"",""up"",[106,106],[-150,0]]",circle,red,vert,up,"[106,106]","[-150,0]",up,1,0.9589,,,,,,001,2025-03-10_20h03.32.977,SL_base_41,2021.2.3,Win32,60.24096386,,,21,0,21,0,1,,,,,,,,
,,"[""circle"",""green"",""hori"",""left"",[0,-150],[106,106]]",circle,green,hori,left,"[0,-150]","[106,106]",left,1,1.5673,,,,,,001,2025-03-10_20h03.32.977,SL_base_41,2021.2.3,Win32,60.24096386,,,22,0,22,0,1,,,,,,,,
,,"[""diamond"",""no_dis"",""vert"",""up"",[99999,99999],[-150,0]]",diamond,no_dis,vert,up,"[99999,99999]","[-150,0]",up,1,1.0654,,,,,,001,2025-03-10_20h03.32.977,SL_base_41,2021.2.3,Win32,60.24096386,,,23,0,23,0,1,,,,,,,,
,,"[""circle"",""red"",""vert"",""up"",[0,-150],[106,-106]]",circle,red,vert,up,"[0,-150]","[106,-106]",up,1,1.8769,,,,,,001,2025-03-10_20h03.32.977,SL_base_41,2021.2.3,Win32,60.24096386,,,24,0,24,0,1,,,,,,,,
,,"[""diamond"",""no_dis"",""hori"",""left"",[99999,99999],[0,150]]",diamond,no_dis,hori,left,"[99999,99999]","[0,150]",left,1,1.7716,,,,,,001,2025-03-10_20h03.32.977,SL_base_41,2021.2.3,Win32,60.24096386,,,25,0,25,0,1,,,,,,,,
,,"[""circle"",""red"",""hori"",""left"",[106,-106],[-150,0]]",circle,red,hori,left,"[106,-106]","[-150,0]",left,1,1.9895,,,,,,001,2025-03-10_20h03.32.977,SL_base_41,2021.2.3,Win32,60.24096386,,,26,0,26,0,1,,,,,,,,
,,"[""diamond"",""green"",""vert"",""up"",[0,-150],[-106,-106]]",diamond,green,vert,up,"[0,-150]","[-106,-106]",up,1,2.0007,,,,,,001,2025-03-10_20h03.32.977,SL_base_41,2021.2.3,Win32,60.24096386,,,27,0,27,0,1,,,,,,,,
,,"[""circle"",""red"",""hori"",""left"",[106,-106],[0,-150]]",circle,red,hori,left,"[106,-106]","[0,-150]",left,1,2.239,,,,,,001,2025-03-10_20h03.32.977,SL_base_41,2021.2.3,Win32,60.24096386,,,28,0,28,0,1,,,,,,,,
,,"[""diamond"",""green"",""hori"",""left"",[-150,0],[0,150]]",diamond,green,hori,left,"[-150,0]","[0,150]",left,1,1.749,,,,,,001,2025-03-10_20h03.32.977,SL_base_41,2021.2.3,Win32,60.24096386,,,29,0,29,0,1,,,,,,,,
,,"[""circle"",""green"",""vert"",""up"",[150,0],[0,-150]]",circle,green,vert,up,"[150,0]","[0,-150]",up,1,1.3357,,,,,,001,2025-03-10_20h03.32.977,SL_base_41,2021.2.3,Win32,60.24096386,,,30,0,30,0,1,,,,,,,,
,,"[""circle"",""red"",""vert"",""up"",[-150,0],[106,106]]",circle,red,vert,up,"[-150,0]","[106,106]",up,1,2.1777,,,,,,001,2025-03-10_20h03.32.977,SL_base_41,2021.2.3,Win32,60.24096386,,,31,0,31,0,1,,,,,,,,
,,"[""circle"",""red"",""hori"",""left"",[0,-150],[-106,106]]",circle,red,hori,left,"[0,-150]","[-106,106]",up,0,1.4749,,,,,,001,2025-03-10_20h03.32.977,SL_base_41,2021.2.3,Win32,60.24096386,,,32,0,32,0,1,,,,,,,,
,,"[""diamond"",""green"",""hori"",""left"",[106,-106],[106,106]]",diamond,green,hori,left,"[106,-106]","[106,106]",left,1,1.6403,,,,,,001,2025-03-10_20h03.32.977,SL_base_41,2021.2.3,Win32,60.24096386,,,33,0,33,0,1,,,,,,,,
,,"[""diamond"",""green"",""hori"",""left"",[106,106],[150,0]]",diamond,green,hori,left,"[106,106]","[150,0]",left,1,1.2702,,,,,,001,2025-03-10_20h03.32.977,SL_base_41,2021.2.3,Win32,60.24096386,,,34,0,34,0,1,,,,,,,,
,,"[""circle"",""no_dis"",""vert"",""up"",[99999,99999],[-150,0]]",circle,no_dis,vert,up,"[99999,99999]","[-150,0]",up,1,0.9164,,,,,,001,2025-03-10_20h03.32.977,SL_base_41,2021.2.3,Win32,60.24096386,,,35,0,35,0,1,,,,,,,,
,,"[""circle"",""red"",""hori"",""left"",[106,-106],[106,106]]",circle,red,hori,left,"[106,-106]","[106,106]",left,1,1.3475,,,,,,001,2025-03-10_20h03.32.977,SL_base_41,2021.2.3,Win32,60.24096386,,,36,0,36,0,1,,,,,,,,
,,"[""diamond"",""no_dis"",""vert"",""up"",[99999,99999],[-106,106]]",diamond,no_dis,vert,up,"[99999,99999]","[-106,106]",up,1,2.016,,,,,,001,2025-03-10_20h03.32.977,SL_base_41,2021.2.3,Win32,60.24096386,,,37,0,37,0,1,,,,,,,,
,,"[""circle"",""green"",""hori"",""left"",[-106,-106],[-106,106]]",circle,green,hori,left,"[-106,-106]","[-106,106]",left,1,1.3679,,,,,,001,2025-03-10_20h03.32.977,SL_base_41,2021.2.3,Win32,60.24096386,,,38,0,38,0,1,,,,,,,,
,,"[""circle"",""no_dis"",""hori"",""left"",[99999,99999],[106,106]]",circle,no_dis,hori,left,"[99999,99999]","[106,106]",left,1,0.8664,,,,,,001,2025-03-10_20h03.32.977,SL_base_41,2021.2.3,Win32,60.24096386,,,39,0,39,0,1,,,,,,,,
,,"[""circle"",""red"",""hori"",""left"",[0,150],[106,106]]",circle,red,hori,left,"[0,150]","[106,106]",left,1,1.5121,,,,,,001,2025-03-10_20h03.32.977,SL_base_41,2021.2.3,Win32,60.24096386,,,40,0,40,0,1,,,,,,,,
,,"[""diamond"",""red"",""hori"",""left"",[-150,0],[0,-150]]",diamond,red,hori,left,"[-150,0]","[0,-150]",left,1,1.5837,,,,,,001,2025-03-10_20h03.32.977,SL_base_41,2021.2.3,Win32,60.24096386,,,41,0,41,0,1,,,,,,,,
,,"[""circle"",""red"",""hori"",""left"",[-150,0],[106,-106]]",circle,red,hori,left,"[-150,0]","[106,-106]",left,1,1.1031,,,,,,001,2025-03-10_20h03.32.977,SL_base_41,2021.2.3,Win32,60.24096386,,,42,0,42,0,1,,,,,,,,
,,"[""diamond"",""green"",""hori"",""left"",[106,106],[0,-150]]",diamond,green,hori,left,"[106,106]","[0,-150]",left,1,1.1609,,,,,,001,2025-03-10_20h03.32.977,SL_base_41,2021.2.3,Win32,60.24096386,,,43,0,43,0,1,,,,,,,,
,,"[""circle"",""no_dis"",""vert"",""up"",[99999,99999],[106,-106]]",circle,no_dis,vert,up,"[99999,99999]","[106,-106]",up,1,0.9896,,,,,,001,2025-03-10_20h03.32.977,SL_base_41,2021.2.3,Win32,60.24096386,,,44,0,44,0,1,,,,,,,,
,,"[""diamond"",""green"",""hori"",""left"",[106,-106],[-106,106]]",diamond,green,hori,left,"[106,-106]","[-106,106]",left,1,1.6998,,,,,,001,2025-03-10_20h03.32.977,SL_base_41,2021.2.3,Win32,60.24096386,,,45,0,45,0,1,,,,,,,,
,,"[""diamond"",""red"",""vert"",""up"",[-106,-106],[150,0]]",diamond,red,vert,up,"[-106,-106]","[150,0]",up,1,1.3166,,,,,,001,2025-03-10_20h03.32.977,SL_base_41,2021.2.3,Win32,60.24096386,,,46,0,46,0,1,,,,,,,,
,,"[""diamond"",""no_dis"",""vert"",""up"",[99999,99999],[106,-106]]",diamond,no_dis,vert,up,"[99999,99999]","[106,-106]",up,1,1.5546,,,,,,001,2025-03-10_20h03.32.977,SL_base_41,2021.2.3,Win32,60.24096386,,,47,0,47,0,1,,,,,,,,
,,"[""circle"",""green"",""hori"",""left"",[0,-150],[106,-106]]",circle,green,hori,left,"[0,-150]","[106,-106]",up,0,1.7724,,,,,,001,2025-03-10_20h03.32.977,SL_base_41,2021.2.3,Win32,60.24096386,,,48,0,48,0,1,,,,,,,,
,,"[""diamond"",""no_dis"",""hori"",""left"",[99999,99999],[-150,0]]",diamond,no_dis,hori,left,"[99999,99999]","[-150,0]",left,1,1.4822,,,,,,001,2025-03-10_20h03.32.977,SL_base_41,2021.2.3,Win32,60.24096386,,,49,0,49,0,1,,,,,,,,
,,"[""diamond"",""green"",""vert"",""up"",[-106,106],[106,-106]]",diamond,green,vert,up,"[-106,106]","[106,-106]",up,1,1.2702,,,,,,001,2025-03-10_20h03.32.977,SL_base_41,2021.2.3,Win32,60.24096386,,,50,0,50,0,1,,,,,,,,
,,"[""circle"",""red"",""vert"",""up"",[0,150],[-150,0]]",circle,red,vert,up,"[0,150]","[-150,0]",up,1,2.3942,,,,,,001,2025-03-10_20h03.32.977,SL_base_41,2021.2.3,Win32,60.24096386,,,51,0,51,0,1,,,,,,,,
,,"[""diamond"",""red"",""hori"",""left"",[106,-106],[150,0]]",diamond,red,hori,left,"[106,-106]","[150,0]",left,1,1.7833,,,,,,001,2025-03-10_20h03.32.977,SL_base_41,2021.2.3,Win32,60.24096386,,,52,0,52,0,1,,,,,,,,
,,"[""circle"",""red"",""vert"",""up"",[-106,106],[0,-150]]",circle,red,vert,up,"[-106,106]","[0,-150]",up,1,1.0513,,,,,,001,2025-03-10_20h03.32.977,SL_base_41,2021.2.3,Win32,60.24096386,,,53,0,53,0,1,,,,,,,,
,,"[""diamond"",""green"",""vert"",""up"",[0,150],[106,106]]",diamond,green,vert,up,"[0,150]","[106,106]",up,1,1.98,,,,,,001,2025-03-10_20h03.32.977,SL_base_41,2021.2.3,Win32,60.24096386,,,54,0,54,0,1,,,,,,,,
,,"[""circle"",""no_dis"",""hori"",""left"",[99999,99999],[-106,106]]",circle,no_dis,hori,left,"[99999,99999]","[-106,106]",left,1,1.2359,,,,,,001,2025-03-10_20h03.32.977,SL_base_41,2021.2.3,Win32,60.24096386,,,55,0,55,0,1,,,,,,,,
,,"[""diamond"",""no_dis"",""hori"",""left"",[99999,99999],[-106,-106]]",diamond,no_dis,hori,left,"[99999,99999]","[-106,-106]",left,1,1.3955,,,,,,001,2025-03-10_20h03.32.977,SL_base_41,2021.2.3,Win32,60.24096386,,,56,0,56,0,1,,,,,,,,
,,"[""circle"",""no_dis"",""hori"",""left"",[99999,99999],[150,0]]",circle,no_dis,hori,left,"[99999,99999]","[150,0]",left,1,0.867,,,,,,001,2025-03-10_20h03.32.977,SL_base_41,2021.2.3,Win32,60.24096386,,,57,0,57,0,1,,,,,,,,
,,"[""circle"",""green"",""vert"",""up"",[0,-150],[0,150]]",circle,green,vert,up,"[0,-150]","[0,150]",up,1,1.0632,,,,,,001,2025-03-10_20h03.32.977,SL_base_41,2021.2.3,Win32,60.24096386,,,58,0,58,0,1,,,,,,,,
,,"[""circle"",""no_dis"",""hori"",""left"",[99999,99999],[-106,106]]",circle,no_dis,hori,left,"[99999,99999]","[-106,106]",left,1,1.7696,,,,,,001,2025-03-10_20h03.32.977,SL_base_41,2021.2.3,Win32,60.24096386,,,59,0,59,0,1,,,,,,,,
,,"[""diamond"",""green"",""vert"",""up"",[0,-150],[106,106]]",diamond,green,vert,up,"[0,-150]","[106,106]",up,1,1.3217,,,,,,001,2025-03-10_20h03.32.977,SL_base_41,2021.2.3,Win32,60.24096386,,,60,0,60,0,1,,,,,,,,
