﻿key_resp.keys,key_resp.rt,trial_para,tar_shape,dis_color_condi,tar_line,cor_resp,dis_loc,tar_loc,resp.keys,resp.corr,resp.rt,trials.thisRepN,trials.thisTrialN,trials.thisN,trials.thisIndex,trials.ran,participant,date,expName,psychopyVersion,OS,frameRate,key_resp_2.keys,key_resp_2.rt,trials_2.thisRepN,trials_2.thisTrialN,trials_2.thisN,trials_2.thisIndex,trials_2.ran,block_num,key_resp_3.keys,key_resp_3.rt,trials_3.thisRepN,trials_3.thisTrialN,trials_3.thisN,trials_3.thisIndex,trials_3.ran
space,3.1945,"[""diamond"",""red"",""vert"",""up"",[-150,0],[106,106]]",diamond,red,vert,up,"[-150,0]","[106,106]",up,1,1.4018,0,0,0,0,1,001,2025-03-10_18h29.56.760,SL_base_41,2021.2.3,Win32,60.33910577,,,,,,,,,,,,,,,
,,"[""circle"",""green"",""vert"",""up"",[150,0],[-106,-106]]",circle,green,vert,up,"[150,0]","[-106,-106]",up,1,1.2256,1,0,1,0,1,001,2025-03-10_18h29.56.760,SL_base_41,2021.2.3,Win32,60.33910577,,,,,,,,,,,,,,,
,,"[""diamond"",""no_dis"",""vert"",""up"",[99999,99999],[-150,0]]",diamond,no_dis,vert,up,"[99999,99999]","[-150,0]",left,0,1.2772,2,0,2,0,1,001,2025-03-10_18h29.56.760,SL_base_41,2021.2.3,Win32,60.33910577,,,,,,,,,,,,,,,
,,"[""diamond"",""red"",""hori"",""left"",[0,150],[0,-150]]",diamond,red,hori,left,"[0,150]","[0,-150]",left,1,1.7135,3,0,3,0,1,001,2025-03-10_18h29.56.760,SL_base_41,2021.2.3,Win32,60.33910577,,,,,,,,,,,,,,,
,,"[""diamond"",""red"",""hori"",""left"",[0,-150],[150,0]]",diamond,red,hori,left,"[0,-150]","[150,0]",left,1,1.175,4,0,4,0,1,001,2025-03-10_18h29.56.760,SL_base_41,2021.2.3,Win32,60.33910577,,,,,,,,,,,,,,,
,,"[""diamond"",""green"",""vert"",""up"",[0,150],[106,106]]",diamond,green,vert,up,"[0,150]","[106,106]",up,1,0.8959,5,0,5,0,1,001,2025-03-10_18h29.56.760,SL_base_41,2021.2.3,Win32,60.33910577,,,,,,,,,,,,,,,
,,"[""diamond"",""red"",""hori"",""left"",[150,0],[-106,-106]]",diamond,red,hori,left,"[150,0]","[-106,-106]",left,1,1.0415,6,0,6,0,1,001,2025-03-10_18h29.56.760,SL_base_41,2021.2.3,Win32,60.33910577,,,,,,,,,,,,,,,
,,"[""circle"",""red"",""vert"",""up"",[0,150],[106,-106]]",circle,red,vert,up,"[0,150]","[106,-106]",up,1,1.0439,7,0,7,0,1,001,2025-03-10_18h29.56.760,SL_base_41,2021.2.3,Win32,60.33910577,,,,,,,,,,,,,,,
,,"[""diamond"",""no_dis"",""vert"",""up"",[99999,99999],[150,0]]",diamond,no_dis,vert,up,"[99999,99999]","[150,0]",up,1,1.5581,8,0,8,0,1,001,2025-03-10_18h29.56.760,SL_base_41,2021.2.3,Win32,60.33910577,,,,,,,,,,,,,,,
,,"[""circle"",""green"",""hori"",""left"",[0,150],[150,0]]",circle,green,hori,left,"[0,150]","[150,0]",left,1,1.3375,9,0,9,0,1,001,2025-03-10_18h29.56.760,SL_base_41,2021.2.3,Win32,60.33910577,,,,,,,,,,,,,,,
,,"[""diamond"",""red"",""vert"",""up"",[-150,0],[106,106]]",diamond,red,vert,up,"[-150,0]","[106,106]",up,1,0.9281,,,,,,001,2025-03-10_18h29.56.760,SL_base_41,2021.2.3,Win32,60.33910577,space,2.9777,0,0,0,0,1,,,,,,,,
,,"[""circle"",""green"",""vert"",""up"",[150,0],[-106,-106]]",circle,green,vert,up,"[150,0]","[-106,-106]",up,1,0.9111,,,,,,001,2025-03-10_18h29.56.760,SL_base_41,2021.2.3,Win32,60.33910577,,,1,0,1,0,1,,,,,,,,
,,"[""diamond"",""no_dis"",""vert"",""up"",[99999,99999],[-150,0]]",diamond,no_dis,vert,up,"[99999,99999]","[-150,0]",up,1,1.0835,,,,,,001,2025-03-10_18h29.56.760,SL_base_41,2021.2.3,Win32,60.33910577,,,2,0,2,0,1,,,,,,,,
,,"[""diamond"",""red"",""hori"",""left"",[0,150],[0,-150]]",diamond,red,hori,left,"[0,150]","[0,-150]",up,0,1.5323,,,,,,001,2025-03-10_18h29.56.760,SL_base_41,2021.2.3,Win32,60.33910577,,,3,0,3,0,1,,,,,,,,
,,"[""diamond"",""red"",""hori"",""left"",[0,-150],[150,0]]",diamond,red,hori,left,"[0,-150]","[150,0]",left,1,0.9918,,,,,,001,2025-03-10_18h29.56.760,SL_base_41,2021.2.3,Win32,60.33910577,,,4,0,4,0,1,,,,,,,,
,,"[""diamond"",""green"",""vert"",""up"",[0,150],[106,106]]",diamond,green,vert,up,"[0,150]","[106,106]",up,1,1.6754,,,,,,001,2025-03-10_18h29.56.760,SL_base_41,2021.2.3,Win32,60.33910577,,,5,0,5,0,1,,,,,,,,
,,"[""diamond"",""red"",""hori"",""left"",[150,0],[-106,-106]]",diamond,red,hori,left,"[150,0]","[-106,-106]",left,1,1.0435,,,,,,001,2025-03-10_18h29.56.760,SL_base_41,2021.2.3,Win32,60.33910577,,,6,0,6,0,1,,,,,,,,
,,"[""circle"",""red"",""vert"",""up"",[0,150],[106,-106]]",circle,red,vert,up,"[0,150]","[106,-106]",up,1,1.0024,,,,,,001,2025-03-10_18h29.56.760,SL_base_41,2021.2.3,Win32,60.33910577,,,7,0,7,0,1,,,,,,,,
,,"[""diamond"",""no_dis"",""vert"",""up"",[99999,99999],[150,0]]",diamond,no_dis,vert,up,"[99999,99999]","[150,0]",up,1,0.9571,,,,,,001,2025-03-10_18h29.56.760,SL_base_41,2021.2.3,Win32,60.33910577,,,8,0,8,0,1,,,,,,,,
,,"[""circle"",""green"",""hori"",""left"",[0,150],[150,0]]",circle,green,hori,left,"[0,150]","[150,0]",left,1,1.0628,,,,,,001,2025-03-10_18h29.56.760,SL_base_41,2021.2.3,Win32,60.33910577,,,9,0,9,0,1,,,,,,,,
,,"[""circle"",""no_dis"",""hori"",""left"",[99999,99999],[0,150]]",circle,no_dis,hori,left,"[99999,99999]","[0,150]",left,1,1.2493,,,,,,001,2025-03-10_18h29.56.760,SL_base_41,2021.2.3,Win32,60.33910577,,,10,0,10,0,1,,,,,,,,
,,"[""circle"",""no_dis"",""vert"",""up"",[99999,99999],[106,-106]]",circle,no_dis,vert,up,"[99999,99999]","[106,-106]",up,1,1.4319,,,,,,001,2025-03-10_18h29.56.760,SL_base_41,2021.2.3,Win32,60.33910577,,,11,0,11,0,1,,,,,,,,
,,"[""circle"",""green"",""hori"",""left"",[106,-106],[0,150]]",circle,green,hori,left,"[106,-106]","[0,150]",left,1,2.0513,,,,,,001,2025-03-10_18h29.56.760,SL_base_41,2021.2.3,Win32,60.33910577,,,12,0,12,0,1,,,,,,,,
,,"[""circle"",""green"",""vert"",""up"",[106,106],[0,-150]]",circle,green,vert,up,"[106,106]","[0,-150]",up,1,0.932,,,,,,001,2025-03-10_18h29.56.760,SL_base_41,2021.2.3,Win32,60.33910577,,,13,0,13,0,1,,,,,,,,
,,"[""diamond"",""no_dis"",""hori"",""left"",[99999,99999],[-106,106]]",diamond,no_dis,hori,left,"[99999,99999]","[-106,106]",left,1,0.8473,,,,,,001,2025-03-10_18h29.56.760,SL_base_41,2021.2.3,Win32,60.33910577,,,14,0,14,0,1,,,,,,,,
,,"[""circle"",""no_dis"",""hori"",""left"",[99999,99999],[0,150]]",circle,no_dis,hori,left,"[99999,99999]","[0,150]",left,1,1.6696,,,,,,001,2025-03-10_18h29.56.760,SL_base_41,2021.2.3,Win32,60.33910577,,,15,0,15,0,1,,,,,,,,
,,"[""diamond"",""red"",""vert"",""up"",[0,150],[106,106]]",diamond,red,vert,up,"[0,150]","[106,106]",up,1,1.0443,,,,,,001,2025-03-10_18h29.56.760,SL_base_41,2021.2.3,Win32,60.33910577,,,16,0,16,0,1,,,,,,,,
,,"[""circle"",""no_dis"",""hori"",""left"",[99999,99999],[-106,-106]]",circle,no_dis,hori,left,"[99999,99999]","[-106,-106]",left,1,0.8722,,,,,,001,2025-03-10_18h29.56.760,SL_base_41,2021.2.3,Win32,60.33910577,,,17,0,17,0,1,,,,,,,,
,,"[""diamond"",""red"",""vert"",""up"",[0,150],[106,106]]",diamond,red,vert,up,"[0,150]","[106,106]",up,1,0.9475,,,,,,001,2025-03-10_18h29.56.760,SL_base_41,2021.2.3,Win32,60.33910577,,,18,0,18,0,1,,,,,,,,
,,"[""diamond"",""green"",""vert"",""up"",[0,150],[150,0]]",diamond,green,vert,up,"[0,150]","[150,0]",up,1,0.9429,,,,,,001,2025-03-10_18h29.56.760,SL_base_41,2021.2.3,Win32,60.33910577,,,19,0,19,0,1,,,,,,,,
,,"[""circle"",""red"",""hori"",""left"",[106,106],[-106,-106]]",circle,red,hori,left,"[106,106]","[-106,-106]",left,1,0.8033,,,,,,001,2025-03-10_18h29.56.760,SL_base_41,2021.2.3,Win32,60.33910577,,,20,0,20,0,1,,,,,,,,
,,"[""circle"",""green"",""vert"",""up"",[0,150],[-106,-106]]",circle,green,vert,up,"[0,150]","[-106,-106]",up,1,0.7978,,,,,,001,2025-03-10_18h29.56.760,SL_base_41,2021.2.3,Win32,60.33910577,,,21,0,21,0,1,,,,,,,,
,,"[""diamond"",""red"",""vert"",""up"",[-106,-106],[106,106]]",diamond,red,vert,up,"[-106,-106]","[106,106]",up,1,0.8254,,,,,,001,2025-03-10_18h29.56.760,SL_base_41,2021.2.3,Win32,60.33910577,,,22,0,22,0,1,,,,,,,,
,,"[""circle"",""green"",""vert"",""up"",[-106,-106],[-150,0]]",circle,green,vert,up,"[-106,-106]","[-150,0]",up,1,0.8968,,,,,,001,2025-03-10_18h29.56.760,SL_base_41,2021.2.3,Win32,60.33910577,,,23,0,23,0,1,,,,,,,,
,,"[""diamond"",""red"",""hori"",""left"",[150,0],[106,106]]",diamond,red,hori,left,"[150,0]","[106,106]",left,1,0.8548,,,,,,001,2025-03-10_18h29.56.760,SL_base_41,2021.2.3,Win32,60.33910577,,,24,0,24,0,1,,,,,,,,
,,"[""circle"",""red"",""hori"",""left"",[106,-106],[-106,-106]]",circle,red,hori,left,"[106,-106]","[-106,-106]",left,1,0.9526,,,,,,001,2025-03-10_18h29.56.760,SL_base_41,2021.2.3,Win32,60.33910577,,,25,0,25,0,1,,,,,,,,
,,"[""diamond"",""red"",""hori"",""left"",[-106,106],[-150,0]]",diamond,red,hori,left,"[-106,106]","[-150,0]",up,0,0.9192,,,,,,001,2025-03-10_18h29.56.760,SL_base_41,2021.2.3,Win32,60.33910577,,,26,0,26,0,1,,,,,,,,
,,"[""diamond"",""no_dis"",""hori"",""left"",[99999,99999],[106,106]]",diamond,no_dis,hori,left,"[99999,99999]","[106,106]",left,1,0.729,,,,,,001,2025-03-10_18h29.56.760,SL_base_41,2021.2.3,Win32,60.33910577,,,27,0,27,0,1,,,,,,,,
,,"[""diamond"",""red"",""vert"",""up"",[150,0],[-106,106]]",diamond,red,vert,up,"[150,0]","[-106,106]",up,1,1.0596,,,,,,001,2025-03-10_18h29.56.760,SL_base_41,2021.2.3,Win32,60.33910577,,,28,0,28,0,1,,,,,,,,
,,"[""circle"",""red"",""vert"",""up"",[106,106],[0,150]]",circle,red,vert,up,"[106,106]","[0,150]",left,0,1.2357,,,,,,001,2025-03-10_18h29.56.760,SL_base_41,2021.2.3,Win32,60.33910577,,,29,0,29,0,1,,,,,,,,
,,"[""circle"",""no_dis"",""vert"",""up"",[99999,99999],[-106,-106]]",circle,no_dis,vert,up,"[99999,99999]","[-106,-106]",up,1,1.9513,,,,,,001,2025-03-10_18h29.56.760,SL_base_41,2021.2.3,Win32,60.33910577,,,30,0,30,0,1,,,,,,,,
,,"[""diamond"",""green"",""hori"",""left"",[0,150],[-106,-106]]",diamond,green,hori,left,"[0,150]","[-106,-106]",left,1,0.9773,,,,,,001,2025-03-10_18h29.56.760,SL_base_41,2021.2.3,Win32,60.33910577,,,31,0,31,0,1,,,,,,,,
,,"[""diamond"",""no_dis"",""vert"",""up"",[99999,99999],[-106,-106]]",diamond,no_dis,vert,up,"[99999,99999]","[-106,-106]",up,1,0.866,,,,,,001,2025-03-10_18h29.56.760,SL_base_41,2021.2.3,Win32,60.33910577,,,32,0,32,0,1,,,,,,,,
,,"[""diamond"",""red"",""vert"",""up"",[106,-106],[-106,-106]]",diamond,red,vert,up,"[106,-106]","[-106,-106]",up,1,0.8174,,,,,,001,2025-03-10_18h29.56.760,SL_base_41,2021.2.3,Win32,60.33910577,,,33,0,33,0,1,,,,,,,,
,,"[""circle"",""red"",""hori"",""left"",[0,150],[-150,0]]",circle,red,hori,left,"[0,150]","[-150,0]",left,1,0.8971,,,,,,001,2025-03-10_18h29.56.760,SL_base_41,2021.2.3,Win32,60.33910577,,,34,0,34,0,1,,,,,,,,
,,"[""diamond"",""no_dis"",""vert"",""up"",[99999,99999],[0,-150]]",diamond,no_dis,vert,up,"[99999,99999]","[0,-150]",,0,,,,,,,001,2025-03-10_18h29.56.760,SL_base_41,2021.2.3,Win32,60.33910577,,,35,0,35,0,1,,,,,,,,
,,"[""circle"",""green"",""vert"",""up"",[-106,106],[-106,-106]]",circle,green,vert,up,"[-106,106]","[-106,-106]",up,1,1.3482,,,,,,001,2025-03-10_18h29.56.760,SL_base_41,2021.2.3,Win32,60.33910577,,,36,0,36,0,1,,,,,,,,
,,"[""circle"",""red"",""vert"",""up"",[106,-106],[-106,106]]",circle,red,vert,up,"[106,-106]","[-106,106]",up,1,1.2343,,,,,,001,2025-03-10_18h29.56.760,SL_base_41,2021.2.3,Win32,60.33910577,,,37,0,37,0,1,,,,,,,,
,,"[""diamond"",""red"",""hori"",""left"",[106,106],[0,150]]",diamond,red,hori,left,"[106,106]","[0,150]",left,1,0.9456,,,,,,001,2025-03-10_18h29.56.760,SL_base_41,2021.2.3,Win32,60.33910577,,,38,0,38,0,1,,,,,,,,
,,"[""diamond"",""red"",""hori"",""left"",[0,150],[-106,-106]]",diamond,red,hori,left,"[0,150]","[-106,-106]",left,1,0.9298,,,,,,001,2025-03-10_18h29.56.760,SL_base_41,2021.2.3,Win32,60.33910577,,,39,0,39,0,1,,,,,,,,
,,"[""circle"",""no_dis"",""hori"",""left"",[99999,99999],[106,-106]]",circle,no_dis,hori,left,"[99999,99999]","[106,-106]",left,1,1.7358,,,,,,001,2025-03-10_18h29.56.760,SL_base_41,2021.2.3,Win32,60.33910577,,,40,0,40,0,1,,,,,,,,
,,"[""circle"",""red"",""vert"",""up"",[0,150],[0,-150]]",circle,red,vert,up,"[0,150]","[0,-150]",up,1,0.8376,,,,,,001,2025-03-10_18h29.56.760,SL_base_41,2021.2.3,Win32,60.33910577,,,41,0,41,0,1,,,,,,,,
,,"[""circle"",""green"",""vert"",""up"",[0,150],[-106,-106]]",circle,green,vert,up,"[0,150]","[-106,-106]",up,1,0.8296,,,,,,001,2025-03-10_18h29.56.760,SL_base_41,2021.2.3,Win32,60.33910577,,,42,0,42,0,1,,,,,,,,
,,"[""circle"",""red"",""hori"",""left"",[-106,106],[-106,-106]]",circle,red,hori,left,"[-106,106]","[-106,-106]",left,1,1.1039,,,,,,001,2025-03-10_18h29.56.760,SL_base_41,2021.2.3,Win32,60.33910577,,,43,0,43,0,1,,,,,,,,
,,"[""circle"",""green"",""hori"",""left"",[-106,-106],[150,0]]",circle,green,hori,left,"[-106,-106]","[150,0]",left,1,1.346,,,,,,001,2025-03-10_18h29.56.760,SL_base_41,2021.2.3,Win32,60.33910577,,,44,0,44,0,1,,,,,,,,
,,"[""diamond"",""green"",""hori"",""left"",[106,-106],[-150,0]]",diamond,green,hori,left,"[106,-106]","[-150,0]",left,1,0.8592,,,,,,001,2025-03-10_18h29.56.760,SL_base_41,2021.2.3,Win32,60.33910577,,,45,0,45,0,1,,,,,,,,
,,"[""circle"",""no_dis"",""hori"",""left"",[99999,99999],[106,106]]",circle,no_dis,hori,left,"[99999,99999]","[106,106]",left,1,0.7127,,,,,,001,2025-03-10_18h29.56.760,SL_base_41,2021.2.3,Win32,60.33910577,,,46,0,46,0,1,,,,,,,,
,,"[""diamond"",""green"",""vert"",""up"",[-150,0],[106,-106]]",diamond,green,vert,up,"[-150,0]","[106,-106]",up,1,1.5935,,,,,,001,2025-03-10_18h29.56.760,SL_base_41,2021.2.3,Win32,60.33910577,,,47,0,47,0,1,,,,,,,,
,,"[""diamond"",""no_dis"",""hori"",""left"",[99999,99999],[-106,-106]]",diamond,no_dis,hori,left,"[99999,99999]","[-106,-106]",left,1,0.8745,,,,,,001,2025-03-10_18h29.56.760,SL_base_41,2021.2.3,Win32,60.33910577,,,48,0,48,0,1,,,,,,,,
,,"[""diamond"",""green"",""hori"",""left"",[150,0],[106,-106]]",diamond,green,hori,left,"[150,0]","[106,-106]",left,1,0.9512,,,,,,001,2025-03-10_18h29.56.760,SL_base_41,2021.2.3,Win32,60.33910577,,,49,0,49,0,1,,,,,,,,
,,"[""diamond"",""red"",""vert"",""up"",[106,-106],[0,-150]]",diamond,red,vert,up,"[106,-106]","[0,-150]",up,1,0.8459,,,,,,001,2025-03-10_18h29.56.760,SL_base_41,2021.2.3,Win32,60.33910577,,,50,0,50,0,1,,,,,,,,
,,"[""diamond"",""no_dis"",""vert"",""up"",[99999,99999],[-106,-106]]",diamond,no_dis,vert,up,"[99999,99999]","[-106,-106]",up,1,0.7303,,,,,,001,2025-03-10_18h29.56.760,SL_base_41,2021.2.3,Win32,60.33910577,,,51,0,51,0,1,,,,,,,,
,,"[""circle"",""red"",""hori"",""left"",[-150,0],[150,0]]",circle,red,hori,left,"[-150,0]","[150,0]",left,1,1.0459,,,,,,001,2025-03-10_18h29.56.760,SL_base_41,2021.2.3,Win32,60.33910577,,,52,0,52,0,1,,,,,,,,
,,"[""circle"",""green"",""hori"",""left"",[0,-150],[-106,106]]",circle,green,hori,left,"[0,-150]","[-106,106]",left,1,1.262,,,,,,001,2025-03-10_18h29.56.760,SL_base_41,2021.2.3,Win32,60.33910577,,,53,0,53,0,1,,,,,,,,
,,"[""diamond"",""red"",""hori"",""left"",[0,150],[0,-150]]",diamond,red,hori,left,"[0,150]","[0,-150]",left,1,0.8174,,,,,,001,2025-03-10_18h29.56.760,SL_base_41,2021.2.3,Win32,60.33910577,,,54,0,54,0,1,,,,,,,,
,,"[""circle"",""no_dis"",""vert"",""up"",[99999,99999],[-106,106]]",circle,no_dis,vert,up,"[99999,99999]","[-106,106]",up,1,1.4781,,,,,,001,2025-03-10_18h29.56.760,SL_base_41,2021.2.3,Win32,60.33910577,,,55,0,55,0,1,,,,,,,,
,,"[""diamond"",""red"",""hori"",""left"",[-106,106],[0,150]]",diamond,red,hori,left,"[-106,106]","[0,150]",left,1,1.2614,,,,,,001,2025-03-10_18h29.56.760,SL_base_41,2021.2.3,Win32,60.33910577,,,56,0,56,0,1,,,,,,,,
,,"[""circle"",""no_dis"",""vert"",""up"",[99999,99999],[-106,106]]",circle,no_dis,vert,up,"[99999,99999]","[-106,106]",up,1,0.7465,,,,,,001,2025-03-10_18h29.56.760,SL_base_41,2021.2.3,Win32,60.33910577,,,57,0,57,0,1,,,,,,,,
,,"[""circle"",""red"",""hori"",""left"",[0,150],[106,106]]",circle,red,hori,left,"[0,150]","[106,106]",left,1,0.9464,,,,,,001,2025-03-10_18h29.56.760,SL_base_41,2021.2.3,Win32,60.33910577,,,58,0,58,0,1,,,,,,,,
,,"[""diamond"",""green"",""vert"",""up"",[0,150],[-106,106]]",diamond,green,vert,up,"[0,150]","[-106,106]",up,1,1.01,,,,,,001,2025-03-10_18h29.56.760,SL_base_41,2021.2.3,Win32,60.33910577,,,59,0,59,0,1,,,,,,,,
,,"[""diamond"",""green"",""vert"",""up"",[150,0],[0,150]]",diamond,green,vert,up,"[150,0]","[0,150]",up,1,0.8109,,,,,,001,2025-03-10_18h29.56.760,SL_base_41,2021.2.3,Win32,60.33910577,,,60,0,60,0,1,,,,,,,,
,,"[""circle"",""no_dis"",""hori"",""left"",[99999,99999],[0,150]]",circle,no_dis,hori,left,"[99999,99999]","[0,150]",up,0,0.9789,,,,,,001,2025-03-10_18h29.56.760,SL_base_41,2021.2.3,Win32,60.33910577,,,61,0,61,0,1,,,,,,,,
,,"[""diamond"",""no_dis"",""vert"",""up"",[99999,99999],[150,0]]",diamond,no_dis,vert,up,"[99999,99999]","[150,0]",up,1,1.0309,,,,,,001,2025-03-10_18h29.56.760,SL_base_41,2021.2.3,Win32,60.33910577,,,62,0,62,0,1,,,,,,,,
,,"[""circle"",""red"",""hori"",""left"",[0,150],[-106,106]]",circle,red,hori,left,"[0,150]","[-106,106]",left,1,0.9948,,,,,,001,2025-03-10_18h29.56.760,SL_base_41,2021.2.3,Win32,60.33910577,,,63,0,63,0,1,,,,,,,,
,,"[""diamond"",""green"",""vert"",""up"",[-150,0],[0,-150]]",diamond,green,vert,up,"[-150,0]","[0,-150]",up,1,1.3777,,,,,,001,2025-03-10_18h29.56.760,SL_base_41,2021.2.3,Win32,60.33910577,,,64,0,64,0,1,,,,,,,,
,,"[""circle"",""green"",""hori"",""left"",[-106,-106],[150,0]]",circle,green,hori,left,"[-106,-106]","[150,0]",left,1,1.0368,,,,,,001,2025-03-10_18h29.56.760,SL_base_41,2021.2.3,Win32,60.33910577,,,65,0,65,0,1,,,,,,,,
,,"[""diamond"",""green"",""hori"",""left"",[0,150],[106,106]]",diamond,green,hori,left,"[0,150]","[106,106]",left,1,1.4365,,,,,,001,2025-03-10_18h29.56.760,SL_base_41,2021.2.3,Win32,60.33910577,,,66,0,66,0,1,,,,,,,,
,,"[""diamond"",""no_dis"",""vert"",""up"",[99999,99999],[-106,106]]",diamond,no_dis,vert,up,"[99999,99999]","[-106,106]",up,1,1.3244,,,,,,001,2025-03-10_18h29.56.760,SL_base_41,2021.2.3,Win32,60.33910577,,,67,0,67,0,1,,,,,,,,
,,"[""diamond"",""no_dis"",""hori"",""left"",[99999,99999],[150,0]]",diamond,no_dis,hori,left,"[99999,99999]","[150,0]",left,1,0.8275,,,,,,001,2025-03-10_18h29.56.760,SL_base_41,2021.2.3,Win32,60.33910577,,,68,0,68,0,1,,,,,,,,
,,"[""diamond"",""green"",""vert"",""up"",[0,-150],[-150,0]]",diamond,green,vert,up,"[0,-150]","[-150,0]",up,1,1.0107,,,,,,001,2025-03-10_18h29.56.760,SL_base_41,2021.2.3,Win32,60.33910577,,,69,0,69,0,1,,,,,,,,
,,"[""circle"",""red"",""vert"",""up"",[0,-150],[0,150]]",circle,red,vert,up,"[0,-150]","[0,150]",left,0,0.7827,,,,,,001,2025-03-10_18h29.56.760,SL_base_41,2021.2.3,Win32,60.33910577,,,70,0,70,0,1,,,,,,,,
,,"[""circle"",""red"",""vert"",""up"",[0,150],[0,-150]]",circle,red,vert,up,"[0,150]","[0,-150]",up,1,0.8488,,,,,,001,2025-03-10_18h29.56.760,SL_base_41,2021.2.3,Win32,60.33910577,,,71,0,71,0,1,,,,,,,,
,,"[""diamond"",""red"",""vert"",""up"",[0,150],[-150,0]]",diamond,red,vert,up,"[0,150]","[-150,0]",up,1,1.1946,,,,,,001,2025-03-10_18h29.56.760,SL_base_41,2021.2.3,Win32,60.33910577,,,72,0,72,0,1,,,,,,,,
,,"[""diamond"",""red"",""hori"",""left"",[0,150],[106,-106]]",diamond,red,hori,left,"[0,150]","[106,-106]",left,1,1.1581,,,,,,001,2025-03-10_18h29.56.760,SL_base_41,2021.2.3,Win32,60.33910577,,,73,0,73,0,1,,,,,,,,
,,"[""circle"",""green"",""hori"",""left"",[0,150],[-106,106]]",circle,green,hori,left,"[0,150]","[-106,106]",left,1,1.7827,,,,,,001,2025-03-10_18h29.56.760,SL_base_41,2021.2.3,Win32,60.33910577,,,74,0,74,0,1,,,,,,,,
,,"[""circle"",""green"",""hori"",""left"",[0,150],[0,-150]]",circle,green,hori,left,"[0,150]","[0,-150]",left,1,1.6351,,,,,,001,2025-03-10_18h29.56.760,SL_base_41,2021.2.3,Win32,60.33910577,,,75,0,75,0,1,,,,,,,,
,,"[""circle"",""red"",""vert"",""up"",[0,150],[-106,106]]",circle,red,vert,up,"[0,150]","[-106,106]",up,1,1.2641,,,,,,001,2025-03-10_18h29.56.760,SL_base_41,2021.2.3,Win32,60.33910577,,,76,0,76,0,1,,,,,,,,
,,"[""diamond"",""no_dis"",""vert"",""up"",[99999,99999],[-150,0]]",diamond,no_dis,vert,up,"[99999,99999]","[-150,0]",up,1,1.0263,,,,,,001,2025-03-10_18h29.56.760,SL_base_41,2021.2.3,Win32,60.33910577,,,77,0,77,0,1,,,,,,,,
,,"[""diamond"",""green"",""hori"",""left"",[106,-106],[-150,0]]",diamond,green,hori,left,"[106,-106]","[-150,0]",left,1,1.1913,,,,,,001,2025-03-10_18h29.56.760,SL_base_41,2021.2.3,Win32,60.33910577,,,78,0,78,0,1,,,,,,,,
,,"[""diamond"",""red"",""vert"",""up"",[106,106],[106,-106]]",diamond,red,vert,up,"[106,106]","[106,-106]",up,1,2.3542,,,,,,001,2025-03-10_18h29.56.760,SL_base_41,2021.2.3,Win32,60.33910577,,,79,0,79,0,1,,,,,,,,
,,"[""circle"",""green"",""hori"",""left"",[-106,-106],[106,106]]",circle,green,hori,left,"[-106,-106]","[106,106]",left,1,0.8318,,,,,,001,2025-03-10_18h29.56.760,SL_base_41,2021.2.3,Win32,60.33910577,,,80,0,80,0,1,,,,,,,,
,,"[""diamond"",""no_dis"",""vert"",""up"",[99999,99999],[0,-150]]",diamond,no_dis,vert,up,"[99999,99999]","[0,-150]",up,1,0.8602,,,,,,001,2025-03-10_18h29.56.760,SL_base_41,2021.2.3,Win32,60.33910577,,,81,0,81,0,1,,,,,,,,
,,"[""circle"",""no_dis"",""hori"",""left"",[99999,99999],[150,0]]",circle,no_dis,hori,left,"[99999,99999]","[150,0]",left,1,0.93,,,,,,001,2025-03-10_18h29.56.760,SL_base_41,2021.2.3,Win32,60.33910577,,,82,0,82,0,1,,,,,,,,
,,"[""diamond"",""green"",""vert"",""up"",[0,150],[106,106]]",diamond,green,vert,up,"[0,150]","[106,106]",up,1,0.8783,,,,,,001,2025-03-10_18h29.56.760,SL_base_41,2021.2.3,Win32,60.33910577,,,83,0,83,0,1,,,,,,,,
,,"[""circle"",""red"",""hori"",""left"",[0,150],[106,-106]]",circle,red,hori,left,"[0,150]","[106,-106]",up,0,0.7456,,,,,,001,2025-03-10_18h29.56.760,SL_base_41,2021.2.3,Win32,60.33910577,,,84,0,84,0,1,,,,,,,,
,,"[""circle"",""red"",""hori"",""left"",[0,-150],[-150,0]]",circle,red,hori,left,"[0,-150]","[-150,0]",left,1,1.2325,,,,,,001,2025-03-10_18h29.56.760,SL_base_41,2021.2.3,Win32,60.33910577,,,85,0,85,0,1,,,,,,,,
,,"[""diamond"",""green"",""vert"",""up"",[0,150],[-150,0]]",diamond,green,vert,up,"[0,150]","[-150,0]",up,1,1.1834,,,,,,001,2025-03-10_18h29.56.760,SL_base_41,2021.2.3,Win32,60.33910577,,,86,0,86,0,1,,,,,,,,
,,"[""diamond"",""no_dis"",""hori"",""left"",[99999,99999],[-150,0]]",diamond,no_dis,hori,left,"[99999,99999]","[-150,0]",left,1,1.2145,,,,,,001,2025-03-10_18h29.56.760,SL_base_41,2021.2.3,Win32,60.33910577,,,87,0,87,0,1,,,,,,,,
,,"[""diamond"",""no_dis"",""hori"",""left"",[99999,99999],[0,150]]",diamond,no_dis,hori,left,"[99999,99999]","[0,150]",left,1,1.3085,,,,,,001,2025-03-10_18h29.56.760,SL_base_41,2021.2.3,Win32,60.33910577,,,88,0,88,0,1,,,,,,,,
,,"[""circle"",""green"",""vert"",""up"",[0,-150],[-106,106]]",circle,green,vert,up,"[0,-150]","[-106,106]",up,1,0.8138,,,,,,001,2025-03-10_18h29.56.760,SL_base_41,2021.2.3,Win32,60.33910577,,,89,0,89,0,1,,,,,,,,
,,"[""diamond"",""no_dis"",""hori"",""left"",[99999,99999],[-150,0]]",diamond,no_dis,hori,left,"[99999,99999]","[-150,0]",left,1,0.7593,,,,,,001,2025-03-10_18h29.56.760,SL_base_41,2021.2.3,Win32,60.33910577,,,90,0,90,0,1,,,,,,,,
,,"[""diamond"",""green"",""hori"",""left"",[-150,0],[106,-106]]",diamond,green,hori,left,"[-150,0]","[106,-106]",left,1,1.2696,,,,,,001,2025-03-10_18h29.56.760,SL_base_41,2021.2.3,Win32,60.33910577,,,91,0,91,0,1,,,,,,,,
,,"[""circle"",""no_dis"",""vert"",""up"",[99999,99999],[150,0]]",circle,no_dis,vert,up,"[99999,99999]","[150,0]",left,0,0.8129,,,,,,001,2025-03-10_18h29.56.760,SL_base_41,2021.2.3,Win32,60.33910577,,,92,0,92,0,1,,,,,,,,
,,"[""diamond"",""green"",""vert"",""up"",[-106,106],[150,0]]",diamond,green,vert,up,"[-106,106]","[150,0]",up,1,0.8351,,,,,,001,2025-03-10_18h29.56.760,SL_base_41,2021.2.3,Win32,60.33910577,,,93,0,93,0,1,,,,,,,,
,,"[""circle"",""red"",""hori"",""left"",[0,150],[-106,-106]]",circle,red,hori,left,"[0,150]","[-106,-106]",left,1,0.7976,,,,,,001,2025-03-10_18h29.56.760,SL_base_41,2021.2.3,Win32,60.33910577,,,94,0,94,0,1,,,,,,,,
,,"[""diamond"",""green"",""hori"",""left"",[150,0],[0,150]]",diamond,green,hori,left,"[150,0]","[0,150]",left,1,0.9955,,,,,,001,2025-03-10_18h29.56.760,SL_base_41,2021.2.3,Win32,60.33910577,,,95,0,95,0,1,,,,,,,,
,,"[""diamond"",""red"",""vert"",""up"",[0,150],[106,-106]]",diamond,red,vert,up,"[0,150]","[106,-106]",up,1,2.0979,,,,,,001,2025-03-10_18h29.56.760,SL_base_41,2021.2.3,Win32,60.33910577,,,96,0,96,0,1,,,,,,,,
,,"[""circle"",""no_dis"",""vert"",""up"",[99999,99999],[0,-150]]",circle,no_dis,vert,up,"[99999,99999]","[0,-150]",left,0,0.9512,,,,,,001,2025-03-10_18h29.56.760,SL_base_41,2021.2.3,Win32,60.33910577,,,97,0,97,0,1,,,,,,,,
,,"[""diamond"",""green"",""vert"",""up"",[0,150],[150,0]]",diamond,green,vert,up,"[0,150]","[150,0]",up,1,0.8432,,,,,,001,2025-03-10_18h29.56.760,SL_base_41,2021.2.3,Win32,60.33910577,,,98,0,98,0,1,,,,,,,,
,,"[""diamond"",""green"",""hori"",""left"",[0,150],[106,-106]]",diamond,green,hori,left,"[0,150]","[106,-106]",up,0,0.8219,,,,,,001,2025-03-10_18h29.56.760,SL_base_41,2021.2.3,Win32,60.33910577,,,99,0,99,0,1,,,,,,,,
,,"[""circle"",""red"",""vert"",""up"",[106,106],[150,0]]",circle,red,vert,up,"[106,106]","[150,0]",up,1,1.6675,,,,,,001,2025-03-10_18h29.56.760,SL_base_41,2021.2.3,Win32,60.33910577,,,100,0,100,0,1,,,,,,,,
,,"[""diamond"",""green"",""hori"",""left"",[150,0],[0,-150]]",diamond,green,hori,left,"[150,0]","[0,-150]",up,0,1.2954,,,,,,001,2025-03-10_18h29.56.760,SL_base_41,2021.2.3,Win32,60.33910577,,,101,0,101,0,1,,,,,,,,
,,"[""circle"",""green"",""vert"",""up"",[-106,-106],[150,0]]",circle,green,vert,up,"[-106,-106]","[150,0]",up,1,0.6635,,,,,,001,2025-03-10_18h29.56.760,SL_base_41,2021.2.3,Win32,60.33910577,,,102,0,102,0,1,,,,,,,,
,,"[""circle"",""no_dis"",""vert"",""up"",[99999,99999],[106,106]]",circle,no_dis,vert,up,"[99999,99999]","[106,106]",up,1,1.1126,,,,,,001,2025-03-10_18h29.56.760,SL_base_41,2021.2.3,Win32,60.33910577,,,103,0,103,0,1,,,,,,,,
,,"[""diamond"",""no_dis"",""hori"",""left"",[99999,99999],[-106,106]]",diamond,no_dis,hori,left,"[99999,99999]","[-106,106]",left,1,0.8431,,,,,,001,2025-03-10_18h29.56.760,SL_base_41,2021.2.3,Win32,60.33910577,,,104,0,104,0,1,,,,,,,,
,,"[""circle"",""no_dis"",""hori"",""left"",[99999,99999],[-150,0]]",circle,no_dis,hori,left,"[99999,99999]","[-150,0]",left,1,1.1154,,,,,,001,2025-03-10_18h29.56.760,SL_base_41,2021.2.3,Win32,60.33910577,,,105,0,105,0,1,,,,,,,,
,,"[""diamond"",""no_dis"",""vert"",""up"",[99999,99999],[0,150]]",diamond,no_dis,vert,up,"[99999,99999]","[0,150]",up,1,0.9707,,,,,,001,2025-03-10_18h29.56.760,SL_base_41,2021.2.3,Win32,60.33910577,,,106,0,106,0,1,,,,,,,,
,,"[""diamond"",""no_dis"",""hori"",""left"",[99999,99999],[106,106]]",diamond,no_dis,hori,left,"[99999,99999]","[106,106]",left,1,1.0777,,,,,,001,2025-03-10_18h29.56.760,SL_base_41,2021.2.3,Win32,60.33910577,,,107,0,107,0,1,,,,,,,,
,,"[""circle"",""red"",""vert"",""up"",[106,-106],[-106,106]]",circle,red,vert,up,"[106,-106]","[-106,106]",up,1,0.7782,,,,,,001,2025-03-10_18h29.56.760,SL_base_41,2021.2.3,Win32,60.33910577,,,108,0,108,0,1,,,,,,,,
,,"[""diamond"",""no_dis"",""hori"",""left"",[99999,99999],[106,106]]",diamond,no_dis,hori,left,"[99999,99999]","[106,106]",left,1,0.8628,,,,,,001,2025-03-10_18h29.56.760,SL_base_41,2021.2.3,Win32,60.33910577,,,109,0,109,0,1,,,,,,,,
,,"[""circle"",""red"",""vert"",""up"",[-106,106],[-106,-106]]",circle,red,vert,up,"[-106,106]","[-106,-106]",up,1,0.9383,,,,,,001,2025-03-10_18h29.56.760,SL_base_41,2021.2.3,Win32,60.33910577,,,110,0,110,0,1,,,,,,,,
,,"[""circle"",""green"",""hori"",""left"",[-106,106],[-106,-106]]",circle,green,hori,left,"[-106,106]","[-106,-106]",left,1,1.2622,,,,,,001,2025-03-10_18h29.56.760,SL_base_41,2021.2.3,Win32,60.33910577,,,111,0,111,0,1,,,,,,,,
,,"[""diamond"",""green"",""hori"",""left"",[106,106],[-106,106]]",diamond,green,hori,left,"[106,106]","[-106,106]",left,1,2.1965,,,,,,001,2025-03-10_18h29.56.760,SL_base_41,2021.2.3,Win32,60.33910577,,,112,0,112,0,1,,,,,,,,
,,"[""circle"",""no_dis"",""hori"",""left"",[99999,99999],[106,-106]]",circle,no_dis,hori,left,"[99999,99999]","[106,-106]",up,0,1.1311,,,,,,001,2025-03-10_18h29.56.760,SL_base_41,2021.2.3,Win32,60.33910577,,,113,0,113,0,1,,,,,,,,
,,"[""diamond"",""red"",""hori"",""left"",[0,-150],[-106,-106]]",diamond,red,hori,left,"[0,-150]","[-106,-106]",left,1,1.8921,,,,,,001,2025-03-10_18h29.56.760,SL_base_41,2021.2.3,Win32,60.33910577,,,114,0,114,0,1,,,,,,,,
,,"[""circle"",""red"",""vert"",""up"",[-150,0],[150,0]]",circle,red,vert,up,"[-150,0]","[150,0]",up,1,0.8944,,,,,,001,2025-03-10_18h29.56.760,SL_base_41,2021.2.3,Win32,60.33910577,,,115,0,115,0,1,,,,,,,,
,,"[""circle"",""no_dis"",""vert"",""up"",[99999,99999],[106,-106]]",circle,no_dis,vert,up,"[99999,99999]","[106,-106]",up,1,1.5476,,,,,,001,2025-03-10_18h29.56.760,SL_base_41,2021.2.3,Win32,60.33910577,,,116,0,116,0,1,,,,,,,,
,,"[""circle"",""red"",""hori"",""left"",[106,106],[106,-106]]",circle,red,hori,left,"[106,106]","[106,-106]",left,1,1.1706,,,,,,001,2025-03-10_18h29.56.760,SL_base_41,2021.2.3,Win32,60.33910577,,,117,0,117,0,1,,,,,,,,
,,"[""diamond"",""red"",""vert"",""up"",[-150,0],[150,0]]",diamond,red,vert,up,"[-150,0]","[150,0]",up,1,0.8291,,,,,,001,2025-03-10_18h29.56.760,SL_base_41,2021.2.3,Win32,60.33910577,,,118,0,118,0,1,,,,,,,,
,,"[""circle"",""no_dis"",""hori"",""left"",[99999,99999],[0,-150]]",circle,no_dis,hori,left,"[99999,99999]","[0,-150]",left,1,1.0787,,,,,,001,2025-03-10_18h29.56.760,SL_base_41,2021.2.3,Win32,60.33910577,,,119,0,119,0,1,,,,,,,,
,,"[""circle"",""green"",""hori"",""left"",[0,-150],[0,150]]",circle,green,hori,left,"[0,-150]","[0,150]",left,1,0.9282,,,,,,001,2025-03-10_18h29.56.760,SL_base_41,2021.2.3,Win32,60.33910577,,,120,0,120,0,1,,,,,,,,
,,"[""circle"",""green"",""hori"",""left"",[-150,0],[-106,-106]]",circle,green,hori,left,"[-150,0]","[-106,-106]",left,1,1.2625,,,,,,001,2025-03-10_18h29.56.760,SL_base_41,2021.2.3,Win32,60.33910577,,,121,0,121,0,1,,,,,,,,
,,"[""circle"",""green"",""vert"",""up"",[0,150],[-106,106]]",circle,green,vert,up,"[0,150]","[-106,106]",up,1,1.3521,,,,,,001,2025-03-10_18h29.56.760,SL_base_41,2021.2.3,Win32,60.33910577,,,122,0,122,0,1,,,,,,,,
,,"[""diamond"",""green"",""hori"",""left"",[-106,-106],[-150,0]]",diamond,green,hori,left,"[-106,-106]","[-150,0]",left,1,0.9297,,,,,,001,2025-03-10_18h29.56.760,SL_base_41,2021.2.3,Win32,60.33910577,,,123,0,123,0,1,,,,,,,,
,,"[""circle"",""no_dis"",""vert"",""up"",[99999,99999],[106,-106]]",circle,no_dis,vert,up,"[99999,99999]","[106,-106]",up,1,1.0901,,,,,,001,2025-03-10_18h29.56.760,SL_base_41,2021.2.3,Win32,60.33910577,,,124,0,124,0,1,,,,,,,,
,,"[""circle"",""green"",""vert"",""up"",[-106,106],[106,106]]",circle,green,vert,up,"[-106,106]","[106,106]",up,1,1.2847,,,,,,001,2025-03-10_18h29.56.760,SL_base_41,2021.2.3,Win32,60.33910577,,,125,0,125,0,1,,,,,,,,
,,"[""circle"",""green"",""vert"",""up"",[-106,-106],[0,150]]",circle,green,vert,up,"[-106,-106]","[0,150]",up,1,0.957,,,,,,001,2025-03-10_18h29.56.760,SL_base_41,2021.2.3,Win32,60.33910577,,,126,0,126,0,1,,,,,,,,
,,"[""circle"",""no_dis"",""vert"",""up"",[99999,99999],[0,-150]]",circle,no_dis,vert,up,"[99999,99999]","[0,-150]",up,1,0.834,,,,,,001,2025-03-10_18h29.56.760,SL_base_41,2021.2.3,Win32,60.33910577,,,127,0,127,0,1,,,,,,,,
,,,,,,,,,,,,,,,,,001,2025-03-10_18h29.56.760,SL_base_41,2021.2.3,Win32,60.33910577,,,,,,,,1,space,284.0549,0,0,0,0,1
,,"[""circle"",""green"",""vert"",""up"",[0,-150],[-106,106]]",circle,green,vert,up,"[0,-150]","[-106,106]",up,1,1.1441,,,,,,001,2025-03-10_18h29.56.760,SL_base_41,2021.2.3,Win32,60.33910577,,,0,0,0,0,1,,,,,,,,
,,"[""circle"",""no_dis"",""hori"",""left"",[99999,99999],[106,-106]]",circle,no_dis,hori,left,"[99999,99999]","[106,-106]",left,1,0.7678,,,,,,001,2025-03-10_18h29.56.760,SL_base_41,2021.2.3,Win32,60.33910577,,,1,0,1,0,1,,,,,,,,
,,"[""diamond"",""green"",""hori"",""left"",[0,150],[106,-106]]",diamond,green,hori,left,"[0,150]","[106,-106]",up,0,0.7794,,,,,,001,2025-03-10_18h29.56.760,SL_base_41,2021.2.3,Win32,60.33910577,,,2,0,2,0,1,,,,,,,,
,,"[""diamond"",""red"",""hori"",""left"",[150,0],[-106,-106]]",diamond,red,hori,left,"[150,0]","[-106,-106]",left,1,0.8197,,,,,,001,2025-03-10_18h29.56.760,SL_base_41,2021.2.3,Win32,60.33910577,,,3,0,3,0,1,,,,,,,,
,,"[""circle"",""no_dis"",""vert"",""up"",[99999,99999],[-106,106]]",circle,no_dis,vert,up,"[99999,99999]","[-106,106]",up,1,1.0459,,,,,,001,2025-03-10_18h29.56.760,SL_base_41,2021.2.3,Win32,60.33910577,,,4,0,4,0,1,,,,,,,,
,,"[""circle"",""green"",""hori"",""left"",[0,150],[-106,106]]",circle,green,hori,left,"[0,150]","[-106,106]",left,1,1.128,,,,,,001,2025-03-10_18h29.56.760,SL_base_41,2021.2.3,Win32,60.33910577,,,5,0,5,0,1,,,,,,,,
,,"[""circle"",""red"",""vert"",""up"",[0,150],[0,-150]]",circle,red,vert,up,"[0,150]","[0,-150]",up,1,1.5791,,,,,,001,2025-03-10_18h29.56.760,SL_base_41,2021.2.3,Win32,60.33910577,,,6,0,6,0,1,,,,,,,,
,,"[""circle"",""no_dis"",""hori"",""left"",[99999,99999],[150,0]]",circle,no_dis,hori,left,"[99999,99999]","[150,0]",left,1,0.704,,,,,,001,2025-03-10_18h29.56.760,SL_base_41,2021.2.3,Win32,60.33910577,,,7,0,7,0,1,,,,,,,,
,,"[""diamond"",""green"",""vert"",""up"",[-150,0],[0,-150]]",diamond,green,vert,up,"[-150,0]","[0,-150]",up,1,1.1932,,,,,,001,2025-03-10_18h29.56.760,SL_base_41,2021.2.3,Win32,60.33910577,,,8,0,8,0,1,,,,,,,,
,,"[""circle"",""red"",""vert"",""up"",[0,150],[106,-106]]",circle,red,vert,up,"[0,150]","[106,-106]",up,1,1.1454,,,,,,001,2025-03-10_18h29.56.760,SL_base_41,2021.2.3,Win32,60.33910577,,,9,0,9,0,1,,,,,,,,
,,"[""diamond"",""green"",""hori"",""left"",[150,0],[0,-150]]",diamond,green,hori,left,"[150,0]","[0,-150]",left,1,1.064,,,,,,001,2025-03-10_18h29.56.760,SL_base_41,2021.2.3,Win32,60.33910577,,,10,0,10,0,1,,,,,,,,
,,"[""circle"",""green"",""vert"",""up"",[0,150],[-106,106]]",circle,green,vert,up,"[0,150]","[-106,106]",up,1,1.3191,,,,,,001,2025-03-10_18h29.56.760,SL_base_41,2021.2.3,Win32,60.33910577,,,11,0,11,0,1,,,,,,,,
,,"[""diamond"",""no_dis"",""vert"",""up"",[99999,99999],[-150,0]]",diamond,no_dis,vert,up,"[99999,99999]","[-150,0]",up,1,0.7783,,,,,,001,2025-03-10_18h29.56.760,SL_base_41,2021.2.3,Win32,60.33910577,,,12,0,12,0,1,,,,,,,,
,,"[""circle"",""no_dis"",""vert"",""up"",[99999,99999],[-106,106]]",circle,no_dis,vert,up,"[99999,99999]","[-106,106]",up,1,1.2869,,,,,,001,2025-03-10_18h29.56.760,SL_base_41,2021.2.3,Win32,60.33910577,,,13,0,13,0,1,,,,,,,,
,,"[""circle"",""no_dis"",""hori"",""left"",[99999,99999],[0,150]]",circle,no_dis,hori,left,"[99999,99999]","[0,150]",left,1,0.6795,,,,,,001,2025-03-10_18h29.56.760,SL_base_41,2021.2.3,Win32,60.33910577,,,14,0,14,0,1,,,,,,,,
,,"[""circle"",""red"",""vert"",""up"",[-150,0],[150,0]]",circle,red,vert,up,"[-150,0]","[150,0]",up,1,0.9261,,,,,,001,2025-03-10_18h29.56.760,SL_base_41,2021.2.3,Win32,60.33910577,,,15,0,15,0,1,,,,,,,,
,,"[""diamond"",""no_dis"",""vert"",""up"",[99999,99999],[150,0]]",diamond,no_dis,vert,up,"[99999,99999]","[150,0]",up,1,1.1146,,,,,,001,2025-03-10_18h29.56.760,SL_base_41,2021.2.3,Win32,60.33910577,,,16,0,16,0,1,,,,,,,,
,,"[""circle"",""no_dis"",""hori"",""left"",[99999,99999],[-106,-106]]",circle,no_dis,hori,left,"[99999,99999]","[-106,-106]",left,1,0.7789,,,,,,001,2025-03-10_18h29.56.760,SL_base_41,2021.2.3,Win32,60.33910577,,,17,0,17,0,1,,,,,,,,
,,"[""circle"",""red"",""hori"",""left"",[0,150],[-106,-106]]",circle,red,hori,left,"[0,150]","[-106,-106]",left,1,0.7727,,,,,,001,2025-03-10_18h29.56.760,SL_base_41,2021.2.3,Win32,60.33910577,,,18,0,18,0,1,,,,,,,,
,,"[""diamond"",""red"",""hori"",""left"",[0,150],[0,-150]]",diamond,red,hori,left,"[0,150]","[0,-150]",left,1,1.3946,,,,,,001,2025-03-10_18h29.56.760,SL_base_41,2021.2.3,Win32,60.33910577,,,19,0,19,0,1,,,,,,,,
,,"[""diamond"",""no_dis"",""hori"",""left"",[99999,99999],[-106,-106]]",diamond,no_dis,hori,left,"[99999,99999]","[-106,-106]",left,1,0.7526,,,,,,001,2025-03-10_18h29.56.760,SL_base_41,2021.2.3,Win32,60.33910577,,,20,0,20,0,1,,,,,,,,
,,"[""circle"",""red"",""vert"",""up"",[0,150],[0,-150]]",circle,red,vert,up,"[0,150]","[0,-150]",up,1,1.1165,,,,,,001,2025-03-10_18h29.56.760,SL_base_41,2021.2.3,Win32,60.33910577,,,21,0,21,0,1,,,,,,,,
,,"[""diamond"",""green"",""hori"",""left"",[106,-106],[-150,0]]",diamond,green,hori,left,"[106,-106]","[-150,0]",left,1,0.9183,,,,,,001,2025-03-10_18h29.56.760,SL_base_41,2021.2.3,Win32,60.33910577,,,22,0,22,0,1,,,,,,,,
,,"[""diamond"",""green"",""hori"",""left"",[0,150],[-106,-106]]",diamond,green,hori,left,"[0,150]","[-106,-106]",left,1,0.9797,,,,,,001,2025-03-10_18h29.56.760,SL_base_41,2021.2.3,Win32,60.33910577,,,23,0,23,0,1,,,,,,,,
,,"[""circle"",""red"",""hori"",""left"",[-106,106],[-106,-106]]",circle,red,hori,left,"[-106,106]","[-106,-106]",left,1,0.8494,,,,,,001,2025-03-10_18h29.56.760,SL_base_41,2021.2.3,Win32,60.33910577,,,24,0,24,0,1,,,,,,,,
,,"[""circle"",""no_dis"",""vert"",""up"",[99999,99999],[150,0]]",circle,no_dis,vert,up,"[99999,99999]","[150,0]",up,1,1.098,,,,,,001,2025-03-10_18h29.56.760,SL_base_41,2021.2.3,Win32,60.33910577,,,25,0,25,0,1,,,,,,,,
,,"[""diamond"",""red"",""vert"",""up"",[0,150],[106,-106]]",diamond,red,vert,up,"[0,150]","[106,-106]",up,1,1.4105,,,,,,001,2025-03-10_18h29.56.760,SL_base_41,2021.2.3,Win32,60.33910577,,,26,0,26,0,1,,,,,,,,
,,"[""circle"",""red"",""hori"",""left"",[0,150],[-106,106]]",circle,red,hori,left,"[0,150]","[-106,106]",left,1,0.8358,,,,,,001,2025-03-10_18h29.56.760,SL_base_41,2021.2.3,Win32,60.33910577,,,27,0,27,0,1,,,,,,,,
,,"[""diamond"",""green"",""vert"",""up"",[0,150],[150,0]]",diamond,green,vert,up,"[0,150]","[150,0]",left,0,1.3149,,,,,,001,2025-03-10_18h29.56.760,SL_base_41,2021.2.3,Win32,60.33910577,,,28,0,28,0,1,,,,,,,,
,,"[""circle"",""red"",""hori"",""left"",[106,106],[106,-106]]",circle,red,hori,left,"[106,106]","[106,-106]",left,1,1.1312,,,,,,001,2025-03-10_18h29.56.760,SL_base_41,2021.2.3,Win32,60.33910577,,,29,0,29,0,1,,,,,,,,
,,"[""circle"",""green"",""vert"",""up"",[-106,106],[106,106]]",circle,green,vert,up,"[-106,106]","[106,106]",up,1,1.1815,,,,,,001,2025-03-10_18h29.56.760,SL_base_41,2021.2.3,Win32,60.33910577,,,30,0,30,0,1,,,,,,,,
,,"[""circle"",""green"",""vert"",""up"",[-106,-106],[0,150]]",circle,green,vert,up,"[-106,-106]","[0,150]",up,1,1.3299,,,,,,001,2025-03-10_18h29.56.760,SL_base_41,2021.2.3,Win32,60.33910577,,,31,0,31,0,1,,,,,,,,
,,"[""diamond"",""green"",""vert"",""up"",[150,0],[0,150]]",diamond,green,vert,up,"[150,0]","[0,150]",up,1,1.7635,,,,,,001,2025-03-10_18h29.56.760,SL_base_41,2021.2.3,Win32,60.33910577,,,32,0,32,0,1,,,,,,,,
,,"[""circle"",""green"",""vert"",""up"",[106,106],[0,-150]]",circle,green,vert,up,"[106,106]","[0,-150]",up,1,0.8794,,,,,,001,2025-03-10_18h29.56.760,SL_base_41,2021.2.3,Win32,60.33910577,,,33,0,33,0,1,,,,,,,,
,,"[""diamond"",""green"",""hori"",""left"",[-106,-106],[-150,0]]",diamond,green,hori,left,"[-106,-106]","[-150,0]",left,1,1.4841,,,,,,001,2025-03-10_18h29.56.760,SL_base_41,2021.2.3,Win32,60.33910577,,,34,0,34,0,1,,,,,,,,
,,"[""circle"",""red"",""hori"",""left"",[106,-106],[-106,-106]]",circle,red,hori,left,"[106,-106]","[-106,-106]",left,1,1.6479,,,,,,001,2025-03-10_18h29.56.760,SL_base_41,2021.2.3,Win32,60.33910577,,,35,0,35,0,1,,,,,,,,
,,"[""circle"",""red"",""hori"",""left"",[0,150],[106,106]]",circle,red,hori,left,"[0,150]","[106,106]",left,1,0.9131,,,,,,001,2025-03-10_18h29.56.760,SL_base_41,2021.2.3,Win32,60.33910577,,,36,0,36,0,1,,,,,,,,
,,"[""circle"",""red"",""vert"",""up"",[106,-106],[-106,106]]",circle,red,vert,up,"[106,-106]","[-106,106]",up,1,0.869,,,,,,001,2025-03-10_18h29.56.760,SL_base_41,2021.2.3,Win32,60.33910577,,,37,0,37,0,1,,,,,,,,
,,"[""circle"",""no_dis"",""vert"",""up"",[99999,99999],[0,-150]]",circle,no_dis,vert,up,"[99999,99999]","[0,-150]",up,1,0.7124,,,,,,001,2025-03-10_18h29.56.760,SL_base_41,2021.2.3,Win32,60.33910577,,,38,0,38,0,1,,,,,,,,
,,"[""diamond"",""no_dis"",""hori"",""left"",[99999,99999],[106,106]]",diamond,no_dis,hori,left,"[99999,99999]","[106,106]",left,1,1.2646,,,,,,001,2025-03-10_18h29.56.760,SL_base_41,2021.2.3,Win32,60.33910577,,,39,0,39,0,1,,,,,,,,
,,"[""diamond"",""red"",""vert"",""up"",[106,106],[106,-106]]",diamond,red,vert,up,"[106,106]","[106,-106]",up,1,1.1854,,,,,,001,2025-03-10_18h29.56.760,SL_base_41,2021.2.3,Win32,60.33910577,,,40,0,40,0,1,,,,,,,,
,,"[""circle"",""red"",""hori"",""left"",[0,-150],[-150,0]]",circle,red,hori,left,"[0,-150]","[-150,0]",left,1,1.0331,,,,,,001,2025-03-10_18h29.56.760,SL_base_41,2021.2.3,Win32,60.33910577,,,41,0,41,0,1,,,,,,,,
,,"[""diamond"",""no_dis"",""hori"",""left"",[99999,99999],[-106,106]]",diamond,no_dis,hori,left,"[99999,99999]","[-106,106]",left,1,1.184,,,,,,001,2025-03-10_18h29.56.760,SL_base_41,2021.2.3,Win32,60.33910577,,,42,0,42,0,1,,,,,,,,
,,"[""diamond"",""red"",""vert"",""up"",[-106,-106],[106,106]]",diamond,red,vert,up,"[-106,-106]","[106,106]",up,1,1.2233,,,,,,001,2025-03-10_18h29.56.760,SL_base_41,2021.2.3,Win32,60.33910577,,,43,0,43,0,1,,,,,,,,
,,"[""diamond"",""no_dis"",""hori"",""left"",[99999,99999],[-106,106]]",diamond,no_dis,hori,left,"[99999,99999]","[-106,106]",left,1,0.8939,,,,,,001,2025-03-10_18h29.56.760,SL_base_41,2021.2.3,Win32,60.33910577,,,44,0,44,0,1,,,,,,,,
,,"[""circle"",""green"",""vert"",""up"",[0,150],[-106,-106]]",circle,green,vert,up,"[0,150]","[-106,-106]",up,1,0.761,,,,,,001,2025-03-10_18h29.56.760,SL_base_41,2021.2.3,Win32,60.33910577,,,45,0,45,0,1,,,,,,,,
,,"[""diamond"",""green"",""hori"",""left"",[150,0],[0,150]]",diamond,green,hori,left,"[150,0]","[0,150]",up,0,1.066,,,,,,001,2025-03-10_18h29.56.760,SL_base_41,2021.2.3,Win32,60.33910577,,,46,0,46,0,1,,,,,,,,
,,"[""circle"",""red"",""vert"",""up"",[0,-150],[0,150]]",circle,red,vert,up,"[0,-150]","[0,150]",up,1,1.1031,,,,,,001,2025-03-10_18h29.56.760,SL_base_41,2021.2.3,Win32,60.33910577,,,47,0,47,0,1,,,,,,,,
,,"[""circle"",""red"",""hori"",""left"",[106,106],[-106,-106]]",circle,red,hori,left,"[106,106]","[-106,-106]",left,1,0.8132,,,,,,001,2025-03-10_18h29.56.760,SL_base_41,2021.2.3,Win32,60.33910577,,,48,0,48,0,1,,,,,,,,
,,"[""circle"",""no_dis"",""hori"",""left"",[99999,99999],[0,-150]]",circle,no_dis,hori,left,"[99999,99999]","[0,-150]",left,1,0.7937,,,,,,001,2025-03-10_18h29.56.760,SL_base_41,2021.2.3,Win32,60.33910577,,,49,0,49,0,1,,,,,,,,
,,"[""diamond"",""no_dis"",""vert"",""up"",[99999,99999],[0,-150]]",diamond,no_dis,vert,up,"[99999,99999]","[0,-150]",up,1,0.8766,,,,,,001,2025-03-10_18h29.56.760,SL_base_41,2021.2.3,Win32,60.33910577,,,50,0,50,0,1,,,,,,,,
,,"[""diamond"",""no_dis"",""hori"",""left"",[99999,99999],[106,106]]",diamond,no_dis,hori,left,"[99999,99999]","[106,106]",left,1,1.9509,,,,,,001,2025-03-10_18h29.56.760,SL_base_41,2021.2.3,Win32,60.33910577,,,51,0,51,0,1,,,,,,,,
,,"[""diamond"",""green"",""vert"",""up"",[0,150],[-150,0]]",diamond,green,vert,up,"[0,150]","[-150,0]",up,1,1.1976,,,,,,001,2025-03-10_18h29.56.760,SL_base_41,2021.2.3,Win32,60.33910577,,,52,0,52,0,1,,,,,,,,
,,"[""circle"",""no_dis"",""hori"",""left"",[99999,99999],[0,150]]",circle,no_dis,hori,left,"[99999,99999]","[0,150]",left,1,0.7851,,,,,,001,2025-03-10_18h29.56.760,SL_base_41,2021.2.3,Win32,60.33910577,,,53,0,53,0,1,,,,,,,,
,,"[""diamond"",""green"",""hori"",""left"",[150,0],[106,-106]]",diamond,green,hori,left,"[150,0]","[106,-106]",left,1,1.4629,,,,,,001,2025-03-10_18h29.56.760,SL_base_41,2021.2.3,Win32,60.33910577,,,54,0,54,0,1,,,,,,,,
,,"[""diamond"",""green"",""vert"",""up"",[0,150],[150,0]]",diamond,green,vert,up,"[0,150]","[150,0]",up,1,0.8687,,,,,,001,2025-03-10_18h29.56.760,SL_base_41,2021.2.3,Win32,60.33910577,,,55,0,55,0,1,,,,,,,,
,,"[""circle"",""green"",""hori"",""left"",[-106,-106],[150,0]]",circle,green,hori,left,"[-106,-106]","[150,0]",up,0,0.7322,,,,,,001,2025-03-10_18h29.56.760,SL_base_41,2021.2.3,Win32,60.33910577,,,56,0,56,0,1,,,,,,,,
,,"[""circle"",""no_dis"",""hori"",""left"",[99999,99999],[106,-106]]",circle,no_dis,hori,left,"[99999,99999]","[106,-106]",up,0,0.9307,,,,,,001,2025-03-10_18h29.56.760,SL_base_41,2021.2.3,Win32,60.33910577,,,57,0,57,0,1,,,,,,,,
,,"[""diamond"",""green"",""vert"",""up"",[0,150],[106,106]]",diamond,green,vert,up,"[0,150]","[106,106]",up,1,1.6793,,,,,,001,2025-03-10_18h29.56.760,SL_base_41,2021.2.3,Win32,60.33910577,,,58,0,58,0,1,,,,,,,,
,,"[""diamond"",""no_dis"",""hori"",""left"",[99999,99999],[0,150]]",diamond,no_dis,hori,left,"[99999,99999]","[0,150]",left,1,1.0161,,,,,,001,2025-03-10_18h29.56.760,SL_base_41,2021.2.3,Win32,60.33910577,,,59,0,59,0,1,,,,,,,,
,,"[""diamond"",""red"",""vert"",""up"",[-150,0],[106,106]]",diamond,red,vert,up,"[-150,0]","[106,106]",up,1,1.0022,,,,,,001,2025-03-10_18h29.56.760,SL_base_41,2021.2.3,Win32,60.33910577,,,60,0,60,0,1,,,,,,,,
,,"[""diamond"",""red"",""hori"",""left"",[0,150],[106,-106]]",diamond,red,hori,left,"[0,150]","[106,-106]",left,1,0.8765,,,,,,001,2025-03-10_18h29.56.760,SL_base_41,2021.2.3,Win32,60.33910577,,,61,0,61,0,1,,,,,,,,
,,"[""diamond"",""red"",""hori"",""left"",[0,-150],[150,0]]",diamond,red,hori,left,"[0,-150]","[150,0]",left,1,1.1879,,,,,,001,2025-03-10_18h29.56.760,SL_base_41,2021.2.3,Win32,60.33910577,,,62,0,62,0,1,,,,,,,,
,,"[""circle"",""no_dis"",""vert"",""up"",[99999,99999],[106,106]]",circle,no_dis,vert,up,"[99999,99999]","[106,106]",up,1,1.0541,,,,,,001,2025-03-10_18h29.56.760,SL_base_41,2021.2.3,Win32,60.33910577,,,63,0,63,0,1,,,,,,,,
,,"[""diamond"",""red"",""hori"",""left"",[106,106],[0,150]]",diamond,red,hori,left,"[106,106]","[0,150]",left,1,0.9923,,,,,,001,2025-03-10_18h29.56.760,SL_base_41,2021.2.3,Win32,60.33910577,,,64,0,64,0,1,,,,,,,,
,,"[""circle"",""green"",""vert"",""up"",[-106,-106],[-150,0]]",circle,green,vert,up,"[-106,-106]","[-150,0]",left,0,0.722,,,,,,001,2025-03-10_18h29.56.760,SL_base_41,2021.2.3,Win32,60.33910577,,,65,0,65,0,1,,,,,,,,
,,"[""diamond"",""no_dis"",""vert"",""up"",[99999,99999],[150,0]]",diamond,no_dis,vert,up,"[99999,99999]","[150,0]",up,1,0.7283,,,,,,001,2025-03-10_18h29.56.760,SL_base_41,2021.2.3,Win32,60.33910577,,,66,0,66,0,1,,,,,,,,
,,"[""circle"",""red"",""vert"",""up"",[106,-106],[-106,106]]",circle,red,vert,up,"[106,-106]","[-106,106]",up,1,1.0771,,,,,,001,2025-03-10_18h29.56.760,SL_base_41,2021.2.3,Win32,60.33910577,,,67,0,67,0,1,,,,,,,,
,,"[""circle"",""green"",""hori"",""left"",[0,150],[150,0]]",circle,green,hori,left,"[0,150]","[150,0]",left,1,0.7114,,,,,,001,2025-03-10_18h29.56.760,SL_base_41,2021.2.3,Win32,60.33910577,,,68,0,68,0,1,,,,,,,,
,,"[""diamond"",""red"",""hori"",""left"",[0,150],[0,-150]]",diamond,red,hori,left,"[0,150]","[0,-150]",left,1,0.7679,,,,,,001,2025-03-10_18h29.56.760,SL_base_41,2021.2.3,Win32,60.33910577,,,69,0,69,0,1,,,,,,,,
,,"[""diamond"",""green"",""hori"",""left"",[106,-106],[-150,0]]",diamond,green,hori,left,"[106,-106]","[-150,0]",left,1,0.9956,,,,,,001,2025-03-10_18h29.56.760,SL_base_41,2021.2.3,Win32,60.33910577,,,70,0,70,0,1,,,,,,,,
,,"[""diamond"",""no_dis"",""vert"",""up"",[99999,99999],[0,150]]",diamond,no_dis,vert,up,"[99999,99999]","[0,150]",up,1,0.9098,,,,,,001,2025-03-10_18h29.56.760,SL_base_41,2021.2.3,Win32,60.33910577,,,71,0,71,0,1,,,,,,,,
,,"[""circle"",""red"",""vert"",""up"",[106,106],[150,0]]",circle,red,vert,up,"[106,106]","[150,0]",up,1,0.9723,,,,,,001,2025-03-10_18h29.56.760,SL_base_41,2021.2.3,Win32,60.33910577,,,72,0,72,0,1,,,,,,,,
,,"[""diamond"",""green"",""vert"",""up"",[-106,106],[150,0]]",diamond,green,vert,up,"[-106,106]","[150,0]",up,1,1.0451,,,,,,001,2025-03-10_18h29.56.760,SL_base_41,2021.2.3,Win32,60.33910577,,,73,0,73,0,1,,,,,,,,
,,"[""circle"",""red"",""vert"",""up"",[106,106],[0,150]]",circle,red,vert,up,"[106,106]","[0,150]",up,1,1.5681,,,,,,001,2025-03-10_18h29.56.760,SL_base_41,2021.2.3,Win32,60.33910577,,,74,0,74,0,1,,,,,,,,
,,"[""circle"",""no_dis"",""vert"",""up"",[99999,99999],[-106,-106]]",circle,no_dis,vert,up,"[99999,99999]","[-106,-106]",up,1,0.8481,,,,,,001,2025-03-10_18h29.56.760,SL_base_41,2021.2.3,Win32,60.33910577,,,75,0,75,0,1,,,,,,,,
,,"[""circle"",""no_dis"",""vert"",""up"",[99999,99999],[106,-106]]",circle,no_dis,vert,up,"[99999,99999]","[106,-106]",up,1,0.9995,,,,,,001,2025-03-10_18h29.56.760,SL_base_41,2021.2.3,Win32,60.33910577,,,76,0,76,0,1,,,,,,,,
,,"[""diamond"",""no_dis"",""vert"",""up"",[99999,99999],[-150,0]]",diamond,no_dis,vert,up,"[99999,99999]","[-150,0]",up,1,0.7435,,,,,,001,2025-03-10_18h29.56.760,SL_base_41,2021.2.3,Win32,60.33910577,,,77,0,77,0,1,,,,,,,,
,,"[""diamond"",""green"",""vert"",""up"",[0,-150],[-150,0]]",diamond,green,vert,up,"[0,-150]","[-150,0]",up,1,0.9949,,,,,,001,2025-03-10_18h29.56.760,SL_base_41,2021.2.3,Win32,60.33910577,,,78,0,78,0,1,,,,,,,,
,,"[""circle"",""no_dis"",""vert"",""up"",[99999,99999],[106,-106]]",circle,no_dis,vert,up,"[99999,99999]","[106,-106]",up,1,0.8644,,,,,,001,2025-03-10_18h29.56.760,SL_base_41,2021.2.3,Win32,60.33910577,,,79,0,79,0,1,,,,,,,,
,,"[""diamond"",""red"",""hori"",""left"",[150,0],[106,106]]",diamond,red,hori,left,"[150,0]","[106,106]",left,1,1.1271,,,,,,001,2025-03-10_18h29.56.760,SL_base_41,2021.2.3,Win32,60.33910577,,,80,0,80,0,1,,,,,,,,
,,"[""diamond"",""red"",""vert"",""up"",[0,150],[106,106]]",diamond,red,vert,up,"[0,150]","[106,106]",up,1,1.3289,,,,,,001,2025-03-10_18h29.56.760,SL_base_41,2021.2.3,Win32,60.33910577,,,81,0,81,0,1,,,,,,,,
,,"[""diamond"",""green"",""hori"",""left"",[0,150],[106,106]]",diamond,green,hori,left,"[0,150]","[106,106]",left,1,1.0938,,,,,,001,2025-03-10_18h29.56.760,SL_base_41,2021.2.3,Win32,60.33910577,,,82,0,82,0,1,,,,,,,,
,,"[""circle"",""no_dis"",""vert"",""up"",[99999,99999],[0,-150]]",circle,no_dis,vert,up,"[99999,99999]","[0,-150]",up,1,0.7521,,,,,,001,2025-03-10_18h29.56.760,SL_base_41,2021.2.3,Win32,60.33910577,,,83,0,83,0,1,,,,,,,,
,,"[""circle"",""green"",""vert"",""up"",[0,150],[-106,-106]]",circle,green,vert,up,"[0,150]","[-106,-106]",up,1,1.0551,,,,,,001,2025-03-10_18h29.56.760,SL_base_41,2021.2.3,Win32,60.33910577,,,84,0,84,0,1,,,,,,,,
,,"[""diamond"",""red"",""vert"",""up"",[106,-106],[-106,-106]]",diamond,red,vert,up,"[106,-106]","[-106,-106]",up,1,1.2433,,,,,,001,2025-03-10_18h29.56.760,SL_base_41,2021.2.3,Win32,60.33910577,,,85,0,85,0,1,,,,,,,,
,,"[""circle"",""red"",""hori"",""left"",[0,150],[106,-106]]",circle,red,hori,left,"[0,150]","[106,-106]",left,1,0.7615,,,,,,001,2025-03-10_18h29.56.760,SL_base_41,2021.2.3,Win32,60.33910577,,,86,0,86,0,1,,,,,,,,
,,"[""diamond"",""green"",""vert"",""up"",[-150,0],[106,-106]]",diamond,green,vert,up,"[-150,0]","[106,-106]",up,1,0.8761,,,,,,001,2025-03-10_18h29.56.760,SL_base_41,2021.2.3,Win32,60.33910577,,,87,0,87,0,1,,,,,,,,
,,"[""diamond"",""red"",""vert"",""up"",[150,0],[-106,106]]",diamond,red,vert,up,"[150,0]","[-106,106]",up,1,0.83,,,,,,001,2025-03-10_18h29.56.760,SL_base_41,2021.2.3,Win32,60.33910577,,,88,0,88,0,1,,,,,,,,
,,"[""diamond"",""no_dis"",""hori"",""left"",[99999,99999],[150,0]]",diamond,no_dis,hori,left,"[99999,99999]","[150,0]",left,1,0.8944,,,,,,001,2025-03-10_18h29.56.760,SL_base_41,2021.2.3,Win32,60.33910577,,,89,0,89,0,1,,,,,,,,
,,"[""diamond"",""no_dis"",""vert"",""up"",[99999,99999],[-106,-106]]",diamond,no_dis,vert,up,"[99999,99999]","[-106,-106]",up,1,0.6678,,,,,,001,2025-03-10_18h29.56.760,SL_base_41,2021.2.3,Win32,60.33910577,,,90,0,90,0,1,,,,,,,,
,,"[""circle"",""red"",""vert"",""up"",[-106,106],[-106,-106]]",circle,red,vert,up,"[-106,106]","[-106,-106]",up,1,0.8621,,,,,,001,2025-03-10_18h29.56.760,SL_base_41,2021.2.3,Win32,60.33910577,,,91,0,91,0,1,,,,,,,,
,,"[""diamond"",""red"",""hori"",""left"",[-106,106],[-150,0]]",diamond,red,hori,left,"[-106,106]","[-150,0]",left,1,1.3598,,,,,,001,2025-03-10_18h29.56.760,SL_base_41,2021.2.3,Win32,60.33910577,,,92,0,92,0,1,,,,,,,,
,,"[""circle"",""no_dis"",""hori"",""left"",[99999,99999],[106,106]]",circle,no_dis,hori,left,"[99999,99999]","[106,106]",left,1,0.8698,,,,,,001,2025-03-10_18h29.56.760,SL_base_41,2021.2.3,Win32,60.33910577,,,93,0,93,0,1,,,,,,,,
,,"[""diamond"",""no_dis"",""hori"",""left"",[99999,99999],[106,106]]",diamond,no_dis,hori,left,"[99999,99999]","[106,106]",left,1,1.3785,,,,,,001,2025-03-10_18h29.56.760,SL_base_41,2021.2.3,Win32,60.33910577,,,94,0,94,0,1,,,,,,,,
,,"[""circle"",""green"",""vert"",""up"",[-106,106],[-106,-106]]",circle,green,vert,up,"[-106,106]","[-106,-106]",up,1,0.9052,,,,,,001,2025-03-10_18h29.56.760,SL_base_41,2021.2.3,Win32,60.33910577,,,95,0,95,0,1,,,,,,,,
,,"[""circle"",""green"",""hori"",""left"",[0,150],[0,-150]]",circle,green,hori,left,"[0,150]","[0,-150]",left,1,0.913,,,,,,001,2025-03-10_18h29.56.760,SL_base_41,2021.2.3,Win32,60.33910577,,,96,0,96,0,1,,,,,,,,
,,"[""diamond"",""red"",""vert"",""up"",[-150,0],[150,0]]",diamond,red,vert,up,"[-150,0]","[150,0]",up,1,0.8642,,,,,,001,2025-03-10_18h29.56.760,SL_base_41,2021.2.3,Win32,60.33910577,,,97,0,97,0,1,,,,,,,,
,,"[""circle"",""green"",""hori"",""left"",[0,-150],[-106,106]]",circle,green,hori,left,"[0,-150]","[-106,106]",left,1,0.8538,,,,,,001,2025-03-10_18h29.56.760,SL_base_41,2021.2.3,Win32,60.33910577,,,98,0,98,0,1,,,,,,,,
,,"[""circle"",""green"",""hori"",""left"",[-106,106],[-106,-106]]",circle,green,hori,left,"[-106,106]","[-106,-106]",left,1,0.9629,,,,,,001,2025-03-10_18h29.56.760,SL_base_41,2021.2.3,Win32,60.33910577,,,99,0,99,0,1,,,,,,,,
,,"[""circle"",""no_dis"",""vert"",""up"",[99999,99999],[106,-106]]",circle,no_dis,vert,up,"[99999,99999]","[106,-106]",left,0,0.9537,,,,,,001,2025-03-10_18h29.56.760,SL_base_41,2021.2.3,Win32,60.33910577,,,100,0,100,0,1,,,,,,,,
,,"[""diamond"",""red"",""hori"",""left"",[0,150],[-106,-106]]",diamond,red,hori,left,"[0,150]","[-106,-106]",left,1,0.7811,,,,,,001,2025-03-10_18h29.56.760,SL_base_41,2021.2.3,Win32,60.33910577,,,101,0,101,0,1,,,,,,,,
,,"[""circle"",""green"",""hori"",""left"",[0,-150],[0,150]]",circle,green,hori,left,"[0,-150]","[0,150]",left,1,0.9629,,,,,,001,2025-03-10_18h29.56.760,SL_base_41,2021.2.3,Win32,60.33910577,,,102,0,102,0,1,,,,,,,,
,,"[""diamond"",""no_dis"",""vert"",""up"",[99999,99999],[-106,-106]]",diamond,no_dis,vert,up,"[99999,99999]","[-106,-106]",up,1,1.4851,,,,,,001,2025-03-10_18h29.56.760,SL_base_41,2021.2.3,Win32,60.33910577,,,103,0,103,0,1,,,,,,,,
,,"[""diamond"",""red"",""hori"",""left"",[-106,106],[0,150]]",diamond,red,hori,left,"[-106,106]","[0,150]",left,1,1.6416,,,,,,001,2025-03-10_18h29.56.760,SL_base_41,2021.2.3,Win32,60.33910577,,,104,0,104,0,1,,,,,,,,
,,"[""diamond"",""red"",""vert"",""up"",[106,-106],[0,-150]]",diamond,red,vert,up,"[106,-106]","[0,-150]",up,1,0.9708,,,,,,001,2025-03-10_18h29.56.760,SL_base_41,2021.2.3,Win32,60.33910577,,,105,0,105,0,1,,,,,,,,
,,"[""circle"",""green"",""hori"",""left"",[106,-106],[0,150]]",circle,green,hori,left,"[106,-106]","[0,150]",left,1,1.2633,,,,,,001,2025-03-10_18h29.56.760,SL_base_41,2021.2.3,Win32,60.33910577,,,106,0,106,0,1,,,,,,,,
,,"[""diamond"",""no_dis"",""vert"",""up"",[99999,99999],[0,-150]]",diamond,no_dis,vert,up,"[99999,99999]","[0,-150]",up,1,1.2492,,,,,,001,2025-03-10_18h29.56.760,SL_base_41,2021.2.3,Win32,60.33910577,,,107,0,107,0,1,,,,,,,,
,,"[""circle"",""green"",""hori"",""left"",[-106,-106],[106,106]]",circle,green,hori,left,"[-106,-106]","[106,106]",left,1,0.7997,,,,,,001,2025-03-10_18h29.56.760,SL_base_41,2021.2.3,Win32,60.33910577,,,108,0,108,0,1,,,,,,,,
,,"[""circle"",""green"",""hori"",""left"",[-106,-106],[150,0]]",circle,green,hori,left,"[-106,-106]","[150,0]",left,1,1.2295,,,,,,001,2025-03-10_18h29.56.760,SL_base_41,2021.2.3,Win32,60.33910577,,,109,0,109,0,1,,,,,,,,
,,"[""diamond"",""red"",""vert"",""up"",[0,150],[-150,0]]",diamond,red,vert,up,"[0,150]","[-150,0]",up,1,1.3949,,,,,,001,2025-03-10_18h29.56.760,SL_base_41,2021.2.3,Win32,60.33910577,,,110,0,110,0,1,,,,,,,,
,,"[""circle"",""red"",""hori"",""left"",[0,150],[-150,0]]",circle,red,hori,left,"[0,150]","[-150,0]",left,1,1.193,,,,,,001,2025-03-10_18h29.56.760,SL_base_41,2021.2.3,Win32,60.33910577,,,111,0,111,0,1,,,,,,,,
,,"[""circle"",""red"",""hori"",""left"",[-150,0],[150,0]]",circle,red,hori,left,"[-150,0]","[150,0]",left,1,0.9149,,,,,,001,2025-03-10_18h29.56.760,SL_base_41,2021.2.3,Win32,60.33910577,,,112,0,112,0,1,,,,,,,,
,,"[""circle"",""green"",""hori"",""left"",[-150,0],[-106,-106]]",circle,green,hori,left,"[-150,0]","[-106,-106]",left,1,0.7633,,,,,,001,2025-03-10_18h29.56.760,SL_base_41,2021.2.3,Win32,60.33910577,,,113,0,113,0,1,,,,,,,,
,,"[""circle"",""no_dis"",""hori"",""left"",[99999,99999],[0,150]]",circle,no_dis,hori,left,"[99999,99999]","[0,150]",left,1,0.8037,,,,,,001,2025-03-10_18h29.56.760,SL_base_41,2021.2.3,Win32,60.33910577,,,114,0,114,0,1,,,,,,,,
,,"[""diamond"",""green"",""hori"",""left"",[106,106],[-106,106]]",diamond,green,hori,left,"[106,106]","[-106,106]",left,1,0.8487,,,,,,001,2025-03-10_18h29.56.760,SL_base_41,2021.2.3,Win32,60.33910577,,,115,0,115,0,1,,,,,,,,
,,"[""diamond"",""no_dis"",""hori"",""left"",[99999,99999],[-150,0]]",diamond,no_dis,hori,left,"[99999,99999]","[-150,0]",left,1,0.9973,,,,,,001,2025-03-10_18h29.56.760,SL_base_41,2021.2.3,Win32,60.33910577,,,116,0,116,0,1,,,,,,,,
,,"[""diamond"",""green"",""vert"",""up"",[0,150],[-106,106]]",diamond,green,vert,up,"[0,150]","[-106,106]",up,1,0.8594,,,,,,001,2025-03-10_18h29.56.760,SL_base_41,2021.2.3,Win32,60.33910577,,,117,0,117,0,1,,,,,,,,
,,"[""diamond"",""no_dis"",""vert"",""up"",[99999,99999],[-106,106]]",diamond,no_dis,vert,up,"[99999,99999]","[-106,106]",up,1,0.6272,,,,,,001,2025-03-10_18h29.56.760,SL_base_41,2021.2.3,Win32,60.33910577,,,118,0,118,0,1,,,,,,,,
,,"[""diamond"",""green"",""vert"",""up"",[0,150],[106,106]]",diamond,green,vert,up,"[0,150]","[106,106]",up,1,1.0624,,,,,,001,2025-03-10_18h29.56.760,SL_base_41,2021.2.3,Win32,60.33910577,,,119,0,119,0,1,,,,,,,,
,,"[""diamond"",""red"",""vert"",""up"",[0,150],[106,106]]",diamond,red,vert,up,"[0,150]","[106,106]",up,1,1.0208,,,,,,001,2025-03-10_18h29.56.760,SL_base_41,2021.2.3,Win32,60.33910577,,,120,0,120,0,1,,,,,,,,
,,"[""circle"",""red"",""vert"",""up"",[0,150],[-106,106]]",circle,red,vert,up,"[0,150]","[-106,106]",up,1,1.4316,,,,,,001,2025-03-10_18h29.56.760,SL_base_41,2021.2.3,Win32,60.33910577,,,121,0,121,0,1,,,,,,,,
,,"[""diamond"",""no_dis"",""hori"",""left"",[99999,99999],[-150,0]]",diamond,no_dis,hori,left,"[99999,99999]","[-150,0]",left,1,0.7681,,,,,,001,2025-03-10_18h29.56.760,SL_base_41,2021.2.3,Win32,60.33910577,,,122,0,122,0,1,,,,,,,,
,,"[""diamond"",""red"",""hori"",""left"",[0,-150],[-106,-106]]",diamond,red,hori,left,"[0,-150]","[-106,-106]",left,1,1.2118,,,,,,001,2025-03-10_18h29.56.760,SL_base_41,2021.2.3,Win32,60.33910577,,,123,0,123,0,1,,,,,,,,
,,"[""circle"",""no_dis"",""hori"",""left"",[99999,99999],[-150,0]]",circle,no_dis,hori,left,"[99999,99999]","[-150,0]",left,1,1.0205,,,,,,001,2025-03-10_18h29.56.760,SL_base_41,2021.2.3,Win32,60.33910577,,,124,0,124,0,1,,,,,,,,
,,"[""circle"",""green"",""vert"",""up"",[150,0],[-106,-106]]",circle,green,vert,up,"[150,0]","[-106,-106]",up,1,0.9008,,,,,,001,2025-03-10_18h29.56.760,SL_base_41,2021.2.3,Win32,60.33910577,,,125,0,125,0,1,,,,,,,,
,,"[""diamond"",""green"",""hori"",""left"",[-150,0],[106,-106]]",diamond,green,hori,left,"[-150,0]","[106,-106]",left,1,1.5166,,,,,,001,2025-03-10_18h29.56.760,SL_base_41,2021.2.3,Win32,60.33910577,,,126,0,126,0,1,,,,,,,,
,,"[""circle"",""green"",""vert"",""up"",[-106,-106],[150,0]]",circle,green,vert,up,"[-106,-106]","[150,0]",up,1,0.7556,,,,,,001,2025-03-10_18h29.56.760,SL_base_41,2021.2.3,Win32,60.33910577,,,127,0,127,0,1,,,,,,,,
,,,,,,,,,,,,,,,,,001,2025-03-10_18h29.56.760,SL_base_41,2021.2.3,Win32,60.33910577,,,,,,,,2,space,8.2706,1,0,1,0,1
,,"[""diamond"",""no_dis"",""vert"",""up"",[99999,99999],[0,150]]",diamond,no_dis,vert,up,"[99999,99999]","[0,150]",up,1,0.7634,,,,,,001,2025-03-10_18h29.56.760,SL_base_41,2021.2.3,Win32,60.33910577,,,0,0,0,0,1,,,,,,,,
,,"[""diamond"",""green"",""vert"",""up"",[0,-150],[-150,0]]",diamond,green,vert,up,"[0,-150]","[-150,0]",up,1,1.2662,,,,,,001,2025-03-10_18h29.56.760,SL_base_41,2021.2.3,Win32,60.33910577,,,1,0,1,0,1,,,,,,,,
,,"[""circle"",""green"",""vert"",""up"",[-106,-106],[0,150]]",circle,green,vert,up,"[-106,-106]","[0,150]",left,0,0.797,,,,,,001,2025-03-10_18h29.56.760,SL_base_41,2021.2.3,Win32,60.33910577,,,2,0,2,0,1,,,,,,,,
,,"[""circle"",""no_dis"",""hori"",""left"",[99999,99999],[0,150]]",circle,no_dis,hori,left,"[99999,99999]","[0,150]",left,1,0.832,,,,,,001,2025-03-10_18h29.56.760,SL_base_41,2021.2.3,Win32,60.33910577,,,3,0,3,0,1,,,,,,,,
,,"[""circle"",""red"",""hori"",""left"",[0,150],[106,-106]]",circle,red,hori,left,"[0,150]","[106,-106]",left,1,0.8728,,,,,,001,2025-03-10_18h29.56.760,SL_base_41,2021.2.3,Win32,60.33910577,,,4,0,4,0,1,,,,,,,,
,,"[""circle"",""green"",""vert"",""up"",[-106,-106],[150,0]]",circle,green,vert,up,"[-106,-106]","[150,0]",up,1,0.9641,,,,,,001,2025-03-10_18h29.56.760,SL_base_41,2021.2.3,Win32,60.33910577,,,5,0,5,0,1,,,,,,,,
,,"[""circle"",""no_dis"",""hori"",""left"",[99999,99999],[-150,0]]",circle,no_dis,hori,left,"[99999,99999]","[-150,0]",up,0,0.8713,,,,,,001,2025-03-10_18h29.56.760,SL_base_41,2021.2.3,Win32,60.33910577,,,6,0,6,0,1,,,,,,,,
,,"[""circle"",""red"",""vert"",""up"",[0,150],[0,-150]]",circle,red,vert,up,"[0,150]","[0,-150]",up,1,0.7961,,,,,,001,2025-03-10_18h29.56.760,SL_base_41,2021.2.3,Win32,60.33910577,,,7,0,7,0,1,,,,,,,,
,,"[""circle"",""green"",""vert"",""up"",[-106,-106],[-150,0]]",circle,green,vert,up,"[-106,-106]","[-150,0]",left,0,0.7685,,,,,,001,2025-03-10_18h29.56.760,SL_base_41,2021.2.3,Win32,60.33910577,,,8,0,8,0,1,,,,,,,,
,,"[""circle"",""red"",""hori"",""left"",[106,-106],[-106,-106]]",circle,red,hori,left,"[106,-106]","[-106,-106]",left,1,0.7473,,,,,,001,2025-03-10_18h29.56.760,SL_base_41,2021.2.3,Win32,60.33910577,,,9,0,9,0,1,,,,,,,,
,,"[""circle"",""red"",""vert"",""up"",[0,150],[106,-106]]",circle,red,vert,up,"[0,150]","[106,-106]",up,1,0.7338,,,,,,001,2025-03-10_18h29.56.760,SL_base_41,2021.2.3,Win32,60.33910577,,,10,0,10,0,1,,,,,,,,
,,"[""circle"",""no_dis"",""vert"",""up"",[99999,99999],[0,-150]]",circle,no_dis,vert,up,"[99999,99999]","[0,-150]",up,1,0.6476,,,,,,001,2025-03-10_18h29.56.760,SL_base_41,2021.2.3,Win32,60.33910577,,,11,0,11,0,1,,,,,,,,
,,"[""diamond"",""red"",""hori"",""left"",[150,0],[106,106]]",diamond,red,hori,left,"[150,0]","[106,106]",left,1,0.5948,,,,,,001,2025-03-10_18h29.56.760,SL_base_41,2021.2.3,Win32,60.33910577,,,12,0,12,0,1,,,,,,,,
,,"[""diamond"",""no_dis"",""hori"",""left"",[99999,99999],[-106,-106]]",diamond,no_dis,hori,left,"[99999,99999]","[-106,-106]",left,1,0.8176,,,,,,001,2025-03-10_18h29.56.760,SL_base_41,2021.2.3,Win32,60.33910577,,,13,0,13,0,1,,,,,,,,
,,"[""circle"",""green"",""vert"",""up"",[0,150],[-106,106]]",circle,green,vert,up,"[0,150]","[-106,106]",up,1,0.9461,,,,,,001,2025-03-10_18h29.56.760,SL_base_41,2021.2.3,Win32,60.33910577,,,14,0,14,0,1,,,,,,,,
,,"[""diamond"",""red"",""hori"",""left"",[0,150],[-106,-106]]",diamond,red,hori,left,"[0,150]","[-106,-106]",left,1,1.0723,,,,,,001,2025-03-10_18h29.56.760,SL_base_41,2021.2.3,Win32,60.33910577,,,15,0,15,0,1,,,,,,,,
,,"[""diamond"",""green"",""hori"",""left"",[106,-106],[-150,0]]",diamond,green,hori,left,"[106,-106]","[-150,0]",left,1,1.1725,,,,,,001,2025-03-10_18h29.56.760,SL_base_41,2021.2.3,Win32,60.33910577,,,16,0,16,0,1,,,,,,,,
,,"[""diamond"",""red"",""vert"",""up"",[-150,0],[106,106]]",diamond,red,vert,up,"[-150,0]","[106,106]",up,1,1.3172,,,,,,001,2025-03-10_18h29.56.760,SL_base_41,2021.2.3,Win32,60.33910577,,,17,0,17,0,1,,,,,,,,
,,"[""circle"",""no_dis"",""vert"",""up"",[99999,99999],[150,0]]",circle,no_dis,vert,up,"[99999,99999]","[150,0]",up,1,0.7637,,,,,,001,2025-03-10_18h29.56.760,SL_base_41,2021.2.3,Win32,60.33910577,,,18,0,18,0,1,,,,,,,,
,,"[""diamond"",""green"",""hori"",""left"",[150,0],[0,150]]",diamond,green,hori,left,"[150,0]","[0,150]",left,1,1.4278,,,,,,001,2025-03-10_18h29.56.760,SL_base_41,2021.2.3,Win32,60.33910577,,,19,0,19,0,1,,,,,,,,
,,"[""circle"",""green"",""hori"",""left"",[0,-150],[0,150]]",circle,green,hori,left,"[0,-150]","[0,150]",left,1,0.9479,,,,,,001,2025-03-10_18h29.56.760,SL_base_41,2021.2.3,Win32,60.33910577,,,20,0,20,0,1,,,,,,,,
,,"[""diamond"",""no_dis"",""hori"",""left"",[99999,99999],[150,0]]",diamond,no_dis,hori,left,"[99999,99999]","[150,0]",left,1,0.9728,,,,,,001,2025-03-10_18h29.56.760,SL_base_41,2021.2.3,Win32,60.33910577,,,21,0,21,0,1,,,,,,,,
,,"[""diamond"",""red"",""vert"",""up"",[0,150],[106,-106]]",diamond,red,vert,up,"[0,150]","[106,-106]",up,1,1.8611,,,,,,001,2025-03-10_18h29.56.760,SL_base_41,2021.2.3,Win32,60.33910577,,,22,0,22,0,1,,,,,,,,
,,"[""circle"",""no_dis"",""hori"",""left"",[99999,99999],[0,150]]",circle,no_dis,hori,left,"[99999,99999]","[0,150]",left,1,1.0821,,,,,,001,2025-03-10_18h29.56.760,SL_base_41,2021.2.3,Win32,60.33910577,,,23,0,23,0,1,,,,,,,,
,,"[""diamond"",""no_dis"",""vert"",""up"",[99999,99999],[-106,-106]]",diamond,no_dis,vert,up,"[99999,99999]","[-106,-106]",up,1,0.8186,,,,,,001,2025-03-10_18h29.56.760,SL_base_41,2021.2.3,Win32,60.33910577,,,24,0,24,0,1,,,,,,,,
,,"[""circle"",""red"",""vert"",""up"",[106,106],[150,0]]",circle,red,vert,up,"[106,106]","[150,0]",left,0,2.2917,,,,,,001,2025-03-10_18h29.56.760,SL_base_41,2021.2.3,Win32,60.33910577,,,25,0,25,0,1,,,,,,,,
,,"[""diamond"",""green"",""hori"",""left"",[0,150],[106,-106]]",diamond,green,hori,left,"[0,150]","[106,-106]",left,1,1.1458,,,,,,001,2025-03-10_18h29.56.760,SL_base_41,2021.2.3,Win32,60.33910577,,,26,0,26,0,1,,,,,,,,
,,"[""diamond"",""red"",""vert"",""up"",[0,150],[106,106]]",diamond,red,vert,up,"[0,150]","[106,106]",up,1,1.2758,,,,,,001,2025-03-10_18h29.56.760,SL_base_41,2021.2.3,Win32,60.33910577,,,27,0,27,0,1,,,,,,,,
,,"[""circle"",""red"",""vert"",""up"",[0,150],[0,-150]]",circle,red,vert,up,"[0,150]","[0,-150]",up,1,1.0283,,,,,,001,2025-03-10_18h29.56.760,SL_base_41,2021.2.3,Win32,60.33910577,,,28,0,28,0,1,,,,,,,,
,,"[""circle"",""red"",""vert"",""up"",[-106,106],[-106,-106]]",circle,red,vert,up,"[-106,106]","[-106,-106]",up,1,1.2465,,,,,,001,2025-03-10_18h29.56.760,SL_base_41,2021.2.3,Win32,60.33910577,,,29,0,29,0,1,,,,,,,,
,,"[""circle"",""green"",""vert"",""up"",[106,106],[0,-150]]",circle,green,vert,up,"[106,106]","[0,-150]",up,1,1.429,,,,,,001,2025-03-10_18h29.56.760,SL_base_41,2021.2.3,Win32,60.33910577,,,30,0,30,0,1,,,,,,,,
,,"[""circle"",""no_dis"",""vert"",""up"",[99999,99999],[-106,-106]]",circle,no_dis,vert,up,"[99999,99999]","[-106,-106]",up,1,0.7064,,,,,,001,2025-03-10_18h29.56.760,SL_base_41,2021.2.3,Win32,60.33910577,,,31,0,31,0,1,,,,,,,,
,,"[""circle"",""red"",""vert"",""up"",[-150,0],[150,0]]",circle,red,vert,up,"[-150,0]","[150,0]",up,1,0.9991,,,,,,001,2025-03-10_18h29.56.760,SL_base_41,2021.2.3,Win32,60.33910577,,,32,0,32,0,1,,,,,,,,
,,"[""diamond"",""green"",""hori"",""left"",[-106,-106],[-150,0]]",diamond,green,hori,left,"[-106,-106]","[-150,0]",left,1,0.9115,,,,,,001,2025-03-10_18h29.56.760,SL_base_41,2021.2.3,Win32,60.33910577,,,33,0,33,0,1,,,,,,,,
,,"[""diamond"",""green"",""vert"",""up"",[-150,0],[106,-106]]",diamond,green,vert,up,"[-150,0]","[106,-106]",up,1,0.9126,,,,,,001,2025-03-10_18h29.56.760,SL_base_41,2021.2.3,Win32,60.33910577,,,34,0,34,0,1,,,,,,,,
,,"[""circle"",""red"",""hori"",""left"",[106,106],[106,-106]]",circle,red,hori,left,"[106,106]","[106,-106]",left,1,0.9624,,,,,,001,2025-03-10_18h29.56.760,SL_base_41,2021.2.3,Win32,60.33910577,,,35,0,35,0,1,,,,,,,,
,,"[""circle"",""no_dis"",""vert"",""up"",[99999,99999],[-106,106]]",circle,no_dis,vert,up,"[99999,99999]","[-106,106]",up,1,1.5334,,,,,,001,2025-03-10_18h29.56.760,SL_base_41,2021.2.3,Win32,60.33910577,,,36,0,36,0,1,,,,,,,,
,,"[""diamond"",""red"",""vert"",""up"",[150,0],[-106,106]]",diamond,red,vert,up,"[150,0]","[-106,106]",left,0,0.6441,,,,,,001,2025-03-10_18h29.56.760,SL_base_41,2021.2.3,Win32,60.33910577,,,37,0,37,0,1,,,,,,,,
,,"[""diamond"",""green"",""vert"",""up"",[-106,106],[150,0]]",diamond,green,vert,up,"[-106,106]","[150,0]",up,1,0.7609,,,,,,001,2025-03-10_18h29.56.760,SL_base_41,2021.2.3,Win32,60.33910577,,,38,0,38,0,1,,,,,,,,
,,"[""circle"",""no_dis"",""hori"",""left"",[99999,99999],[-106,-106]]",circle,no_dis,hori,left,"[99999,99999]","[-106,-106]",left,1,0.6787,,,,,,001,2025-03-10_18h29.56.760,SL_base_41,2021.2.3,Win32,60.33910577,,,39,0,39,0,1,,,,,,,,
,,"[""circle"",""green"",""hori"",""left"",[0,150],[150,0]]",circle,green,hori,left,"[0,150]","[150,0]",left,1,0.7646,,,,,,001,2025-03-10_18h29.56.760,SL_base_41,2021.2.3,Win32,60.33910577,,,40,0,40,0,1,,,,,,,,
,,"[""diamond"",""no_dis"",""vert"",""up"",[99999,99999],[150,0]]",diamond,no_dis,vert,up,"[99999,99999]","[150,0]",up,1,0.7454,,,,,,001,2025-03-10_18h29.56.760,SL_base_41,2021.2.3,Win32,60.33910577,,,41,0,41,0,1,,,,,,,,
,,"[""circle"",""no_dis"",""vert"",""up"",[99999,99999],[106,106]]",circle,no_dis,vert,up,"[99999,99999]","[106,106]",up,1,0.6244,,,,,,001,2025-03-10_18h29.56.760,SL_base_41,2021.2.3,Win32,60.33910577,,,42,0,42,0,1,,,,,,,,
,,"[""diamond"",""no_dis"",""hori"",""left"",[99999,99999],[106,106]]",diamond,no_dis,hori,left,"[99999,99999]","[106,106]",left,1,1.1452,,,,,,001,2025-03-10_18h29.56.760,SL_base_41,2021.2.3,Win32,60.33910577,,,43,0,43,0,1,,,,,,,,
,,"[""circle"",""no_dis"",""vert"",""up"",[99999,99999],[-106,106]]",circle,no_dis,vert,up,"[99999,99999]","[-106,106]",up,1,0.9166,,,,,,001,2025-03-10_18h29.56.760,SL_base_41,2021.2.3,Win32,60.33910577,,,44,0,44,0,1,,,,,,,,
,,"[""diamond"",""green"",""hori"",""left"",[-150,0],[106,-106]]",diamond,green,hori,left,"[-150,0]","[106,-106]",left,1,0.7159,,,,,,001,2025-03-10_18h29.56.760,SL_base_41,2021.2.3,Win32,60.33910577,,,45,0,45,0,1,,,,,,,,
,,"[""diamond"",""red"",""vert"",""up"",[0,150],[106,106]]",diamond,red,vert,up,"[0,150]","[106,106]",up,1,1.2181,,,,,,001,2025-03-10_18h29.56.760,SL_base_41,2021.2.3,Win32,60.33910577,,,46,0,46,0,1,,,,,,,,
,,"[""diamond"",""green"",""hori"",""left"",[0,150],[106,106]]",diamond,green,hori,left,"[0,150]","[106,106]",left,1,0.9744,,,,,,001,2025-03-10_18h29.56.760,SL_base_41,2021.2.3,Win32,60.33910577,,,47,0,47,0,1,,,,,,,,
,,"[""diamond"",""no_dis"",""vert"",""up"",[99999,99999],[0,-150]]",diamond,no_dis,vert,up,"[99999,99999]","[0,-150]",up,1,0.7497,,,,,,001,2025-03-10_18h29.56.760,SL_base_41,2021.2.3,Win32,60.33910577,,,48,0,48,0,1,,,,,,,,
,,"[""diamond"",""green"",""hori"",""left"",[0,150],[-106,-106]]",diamond,green,hori,left,"[0,150]","[-106,-106]",left,1,0.8599,,,,,,001,2025-03-10_18h29.56.760,SL_base_41,2021.2.3,Win32,60.33910577,,,49,0,49,0,1,,,,,,,,
,,"[""diamond"",""red"",""vert"",""up"",[106,106],[106,-106]]",diamond,red,vert,up,"[106,106]","[106,-106]",up,1,0.9318,,,,,,001,2025-03-10_18h29.56.760,SL_base_41,2021.2.3,Win32,60.33910577,,,50,0,50,0,1,,,,,,,,
,,"[""circle"",""green"",""vert"",""up"",[0,150],[-106,-106]]",circle,green,vert,up,"[0,150]","[-106,-106]",up,1,1.455,,,,,,001,2025-03-10_18h29.56.760,SL_base_41,2021.2.3,Win32,60.33910577,,,51,0,51,0,1,,,,,,,,
,,"[""diamond"",""red"",""vert"",""up"",[106,-106],[0,-150]]",diamond,red,vert,up,"[106,-106]","[0,-150]",up,1,0.9113,,,,,,001,2025-03-10_18h29.56.760,SL_base_41,2021.2.3,Win32,60.33910577,,,52,0,52,0,1,,,,,,,,
,,"[""diamond"",""no_dis"",""hori"",""left"",[99999,99999],[-150,0]]",diamond,no_dis,hori,left,"[99999,99999]","[-150,0]",left,1,0.7134,,,,,,001,2025-03-10_18h29.56.760,SL_base_41,2021.2.3,Win32,60.33910577,,,53,0,53,0,1,,,,,,,,
,,"[""diamond"",""green"",""vert"",""up"",[0,150],[106,106]]",diamond,green,vert,up,"[0,150]","[106,106]",up,1,1.1176,,,,,,001,2025-03-10_18h29.56.760,SL_base_41,2021.2.3,Win32,60.33910577,,,54,0,54,0,1,,,,,,,,
,,"[""circle"",""green"",""hori"",""left"",[106,-106],[0,150]]",circle,green,hori,left,"[106,-106]","[0,150]",up,0,0.9846,,,,,,001,2025-03-10_18h29.56.760,SL_base_41,2021.2.3,Win32,60.33910577,,,55,0,55,0,1,,,,,,,,
,,"[""diamond"",""red"",""hori"",""left"",[0,-150],[150,0]]",diamond,red,hori,left,"[0,-150]","[150,0]",left,1,1.061,,,,,,001,2025-03-10_18h29.56.760,SL_base_41,2021.2.3,Win32,60.33910577,,,56,0,56,0,1,,,,,,,,
,,"[""circle"",""green"",""vert"",""up"",[0,-150],[-106,106]]",circle,green,vert,up,"[0,-150]","[-106,106]",up,1,0.7964,,,,,,001,2025-03-10_18h29.56.760,SL_base_41,2021.2.3,Win32,60.33910577,,,57,0,57,0,1,,,,,,,,
,,"[""circle"",""red"",""vert"",""up"",[0,-150],[0,150]]",circle,red,vert,up,"[0,-150]","[0,150]",up,1,1.8004,,,,,,001,2025-03-10_18h29.56.760,SL_base_41,2021.2.3,Win32,60.33910577,,,58,0,58,0,1,,,,,,,,
,,"[""diamond"",""red"",""hori"",""left"",[106,106],[0,150]]",diamond,red,hori,left,"[106,106]","[0,150]",left,1,0.7984,,,,,,001,2025-03-10_18h29.56.760,SL_base_41,2021.2.3,Win32,60.33910577,,,59,0,59,0,1,,,,,,,,
,,"[""circle"",""no_dis"",""vert"",""up"",[99999,99999],[106,-106]]",circle,no_dis,vert,up,"[99999,99999]","[106,-106]",up,1,1.4329,,,,,,001,2025-03-10_18h29.56.760,SL_base_41,2021.2.3,Win32,60.33910577,,,60,0,60,0,1,,,,,,,,
,,"[""circle"",""red"",""vert"",""up"",[106,106],[0,150]]",circle,red,vert,up,"[106,106]","[0,150]",up,1,1.1566,,,,,,001,2025-03-10_18h29.56.760,SL_base_41,2021.2.3,Win32,60.33910577,,,61,0,61,0,1,,,,,,,,
,,"[""circle"",""no_dis"",""vert"",""up"",[99999,99999],[0,-150]]",circle,no_dis,vert,up,"[99999,99999]","[0,-150]",up,1,1.018,,,,,,001,2025-03-10_18h29.56.760,SL_base_41,2021.2.3,Win32,60.33910577,,,62,0,62,0,1,,,,,,,,
,,"[""circle"",""no_dis"",""hori"",""left"",[99999,99999],[0,150]]",circle,no_dis,hori,left,"[99999,99999]","[0,150]",left,1,1.7558,,,,,,001,2025-03-10_18h29.56.760,SL_base_41,2021.2.3,Win32,60.33910577,,,63,0,63,0,1,,,,,,,,
,,"[""diamond"",""red"",""hori"",""left"",[0,150],[0,-150]]",diamond,red,hori,left,"[0,150]","[0,-150]",left,1,1.0457,,,,,,001,2025-03-10_18h29.56.760,SL_base_41,2021.2.3,Win32,60.33910577,,,64,0,64,0,1,,,,,,,,
,,"[""circle"",""green"",""vert"",""up"",[150,0],[-106,-106]]",circle,green,vert,up,"[150,0]","[-106,-106]",up,1,1.2136,,,,,,001,2025-03-10_18h29.56.760,SL_base_41,2021.2.3,Win32,60.33910577,,,65,0,65,0,1,,,,,,,,
,,"[""circle"",""red"",""vert"",""up"",[106,-106],[-106,106]]",circle,red,vert,up,"[106,-106]","[-106,106]",up,1,0.8631,,,,,,001,2025-03-10_18h29.56.760,SL_base_41,2021.2.3,Win32,60.33910577,,,66,0,66,0,1,,,,,,,,
,,"[""diamond"",""green"",""vert"",""up"",[0,150],[-106,106]]",diamond,green,vert,up,"[0,150]","[-106,106]",up,1,1.1417,,,,,,001,2025-03-10_18h29.56.760,SL_base_41,2021.2.3,Win32,60.33910577,,,67,0,67,0,1,,,,,,,,
,,"[""diamond"",""red"",""vert"",""up"",[0,150],[-150,0]]",diamond,red,vert,up,"[0,150]","[-150,0]",up,1,1.1093,,,,,,001,2025-03-10_18h29.56.760,SL_base_41,2021.2.3,Win32,60.33910577,,,68,0,68,0,1,,,,,,,,
,,"[""diamond"",""no_dis"",""hori"",""left"",[99999,99999],[-150,0]]",diamond,no_dis,hori,left,"[99999,99999]","[-150,0]",left,1,0.9673,,,,,,001,2025-03-10_18h29.56.760,SL_base_41,2021.2.3,Win32,60.33910577,,,69,0,69,0,1,,,,,,,,
,,"[""diamond"",""green"",""hori"",""left"",[150,0],[106,-106]]",diamond,green,hori,left,"[150,0]","[106,-106]",left,1,1.8382,,,,,,001,2025-03-10_18h29.56.760,SL_base_41,2021.2.3,Win32,60.33910577,,,70,0,70,0,1,,,,,,,,
,,"[""diamond"",""green"",""vert"",""up"",[0,150],[106,106]]",diamond,green,vert,up,"[0,150]","[106,106]",up,1,0.9934,,,,,,001,2025-03-10_18h29.56.760,SL_base_41,2021.2.3,Win32,60.33910577,,,71,0,71,0,1,,,,,,,,
,,"[""diamond"",""red"",""vert"",""up"",[-150,0],[150,0]]",diamond,red,vert,up,"[-150,0]","[150,0]",up,1,0.9339,,,,,,001,2025-03-10_18h29.56.760,SL_base_41,2021.2.3,Win32,60.33910577,,,72,0,72,0,1,,,,,,,,
,,"[""diamond"",""no_dis"",""hori"",""left"",[99999,99999],[-106,106]]",diamond,no_dis,hori,left,"[99999,99999]","[-106,106]",left,1,0.8013,,,,,,001,2025-03-10_18h29.56.760,SL_base_41,2021.2.3,Win32,60.33910577,,,73,0,73,0,1,,,,,,,,
,,"[""diamond"",""red"",""hori"",""left"",[0,150],[0,-150]]",diamond,red,hori,left,"[0,150]","[0,-150]",left,1,1.0146,,,,,,001,2025-03-10_18h29.56.760,SL_base_41,2021.2.3,Win32,60.33910577,,,74,0,74,0,1,,,,,,,,
,,"[""circle"",""red"",""hori"",""left"",[0,150],[-150,0]]",circle,red,hori,left,"[0,150]","[-150,0]",up,0,1.2461,,,,,,001,2025-03-10_18h29.56.760,SL_base_41,2021.2.3,Win32,60.33910577,,,75,0,75,0,1,,,,,,,,
,,"[""circle"",""red"",""vert"",""up"",[0,150],[-106,106]]",circle,red,vert,up,"[0,150]","[-106,106]",up,1,0.8649,,,,,,001,2025-03-10_18h29.56.760,SL_base_41,2021.2.3,Win32,60.33910577,,,76,0,76,0,1,,,,,,,,
,,"[""diamond"",""no_dis"",""vert"",""up"",[99999,99999],[-150,0]]",diamond,no_dis,vert,up,"[99999,99999]","[-150,0]",up,1,0.6846,,,,,,001,2025-03-10_18h29.56.760,SL_base_41,2021.2.3,Win32,60.33910577,,,77,0,77,0,1,,,,,,,,
,,"[""diamond"",""green"",""hori"",""left"",[106,-106],[-150,0]]",diamond,green,hori,left,"[106,-106]","[-150,0]",left,1,0.8826,,,,,,001,2025-03-10_18h29.56.760,SL_base_41,2021.2.3,Win32,60.33910577,,,78,0,78,0,1,,,,,,,,
,,"[""diamond"",""green"",""hori"",""left"",[106,106],[-106,106]]",diamond,green,hori,left,"[106,106]","[-106,106]",left,1,0.7784,,,,,,001,2025-03-10_18h29.56.760,SL_base_41,2021.2.3,Win32,60.33910577,,,79,0,79,0,1,,,,,,,,
,,"[""diamond"",""green"",""vert"",""up"",[-150,0],[0,-150]]",diamond,green,vert,up,"[-150,0]","[0,-150]",up,1,0.8924,,,,,,001,2025-03-10_18h29.56.760,SL_base_41,2021.2.3,Win32,60.33910577,,,80,0,80,0,1,,,,,,,,
,,"[""diamond"",""no_dis"",""vert"",""up"",[99999,99999],[-150,0]]",diamond,no_dis,vert,up,"[99999,99999]","[-150,0]",up,1,0.7928,,,,,,001,2025-03-10_18h29.56.760,SL_base_41,2021.2.3,Win32,60.33910577,,,81,0,81,0,1,,,,,,,,
,,"[""diamond"",""no_dis"",""vert"",""up"",[99999,99999],[-106,-106]]",diamond,no_dis,vert,up,"[99999,99999]","[-106,-106]",up,1,0.8663,,,,,,001,2025-03-10_18h29.56.760,SL_base_41,2021.2.3,Win32,60.33910577,,,82,0,82,0,1,,,,,,,,
,,"[""circle"",""green"",""hori"",""left"",[-106,-106],[106,106]]",circle,green,hori,left,"[-106,-106]","[106,106]",left,1,0.8732,,,,,,001,2025-03-10_18h29.56.760,SL_base_41,2021.2.3,Win32,60.33910577,,,83,0,83,0,1,,,,,,,,
,,"[""circle"",""green"",""vert"",""up"",[-106,106],[-106,-106]]",circle,green,vert,up,"[-106,106]","[-106,-106]",left,0,0.6505,,,,,,001,2025-03-10_18h29.56.760,SL_base_41,2021.2.3,Win32,60.33910577,,,84,0,84,0,1,,,,,,,,
,,"[""diamond"",""no_dis"",""hori"",""left"",[99999,99999],[106,106]]",diamond,no_dis,hori,left,"[99999,99999]","[106,106]",left,1,0.716,,,,,,001,2025-03-10_18h29.56.760,SL_base_41,2021.2.3,Win32,60.33910577,,,85,0,85,0,1,,,,,,,,
,,"[""diamond"",""green"",""vert"",""up"",[0,150],[-150,0]]",diamond,green,vert,up,"[0,150]","[-150,0]",up,1,0.8361,,,,,,001,2025-03-10_18h29.56.760,SL_base_41,2021.2.3,Win32,60.33910577,,,86,0,86,0,1,,,,,,,,
,,"[""circle"",""green"",""hori"",""left"",[0,-150],[-106,106]]",circle,green,hori,left,"[0,-150]","[-106,106]",left,1,1.3966,,,,,,001,2025-03-10_18h29.56.760,SL_base_41,2021.2.3,Win32,60.33910577,,,87,0,87,0,1,,,,,,,,
,,"[""circle"",""no_dis"",""hori"",""left"",[99999,99999],[106,106]]",circle,no_dis,hori,left,"[99999,99999]","[106,106]",left,1,0.9059,,,,,,001,2025-03-10_18h29.56.760,SL_base_41,2021.2.3,Win32,60.33910577,,,88,0,88,0,1,,,,,,,,
,,"[""diamond"",""no_dis"",""hori"",""left"",[99999,99999],[-106,106]]",diamond,no_dis,hori,left,"[99999,99999]","[-106,106]",left,1,1.3895,,,,,,001,2025-03-10_18h29.56.760,SL_base_41,2021.2.3,Win32,60.33910577,,,89,0,89,0,1,,,,,,,,
,,"[""circle"",""red"",""hori"",""left"",[0,-150],[-150,0]]",circle,red,hori,left,"[0,-150]","[-150,0]",up,0,0.9453,,,,,,001,2025-03-10_18h29.56.760,SL_base_41,2021.2.3,Win32,60.33910577,,,90,0,90,0,1,,,,,,,,
,,"[""diamond"",""no_dis"",""hori"",""left"",[99999,99999],[106,106]]",diamond,no_dis,hori,left,"[99999,99999]","[106,106]",up,0,2.7452,,,,,,001,2025-03-10_18h29.56.760,SL_base_41,2021.2.3,Win32,60.33910577,,,91,0,91,0,1,,,,,,,,
,,"[""diamond"",""red"",""hori"",""left"",[0,150],[106,-106]]",diamond,red,hori,left,"[0,150]","[106,-106]",left,1,0.8617,,,,,,001,2025-03-10_18h29.56.760,SL_base_41,2021.2.3,Win32,60.33910577,,,92,0,92,0,1,,,,,,,,
,,"[""diamond"",""red"",""hori"",""left"",[-106,106],[0,150]]",diamond,red,hori,left,"[-106,106]","[0,150]",left,1,0.9012,,,,,,001,2025-03-10_18h29.56.760,SL_base_41,2021.2.3,Win32,60.33910577,,,93,0,93,0,1,,,,,,,,
,,"[""diamond"",""red"",""hori"",""left"",[150,0],[-106,-106]]",diamond,red,hori,left,"[150,0]","[-106,-106]",left,1,1.0964,,,,,,001,2025-03-10_18h29.56.760,SL_base_41,2021.2.3,Win32,60.33910577,,,94,0,94,0,1,,,,,,,,
,,"[""diamond"",""green"",""hori"",""left"",[150,0],[0,-150]]",diamond,green,hori,left,"[150,0]","[0,-150]",up,0,0.8261,,,,,,001,2025-03-10_18h29.56.760,SL_base_41,2021.2.3,Win32,60.33910577,,,95,0,95,0,1,,,,,,,,
,,"[""circle"",""no_dis"",""vert"",""up"",[99999,99999],[106,-106]]",circle,no_dis,vert,up,"[99999,99999]","[106,-106]",up,1,1.3504,,,,,,001,2025-03-10_18h29.56.760,SL_base_41,2021.2.3,Win32,60.33910577,,,96,0,96,0,1,,,,,,,,
,,"[""circle"",""green"",""vert"",""up"",[-106,106],[106,106]]",circle,green,vert,up,"[-106,106]","[106,106]",up,1,1.5232,,,,,,001,2025-03-10_18h29.56.760,SL_base_41,2021.2.3,Win32,60.33910577,,,97,0,97,0,1,,,,,,,,
,,"[""circle"",""red"",""hori"",""left"",[106,106],[-106,-106]]",circle,red,hori,left,"[106,106]","[-106,-106]",left,1,0.8535,,,,,,001,2025-03-10_18h29.56.760,SL_base_41,2021.2.3,Win32,60.33910577,,,98,0,98,0,1,,,,,,,,
,,"[""circle"",""no_dis"",""hori"",""left"",[99999,99999],[106,-106]]",circle,no_dis,hori,left,"[99999,99999]","[106,-106]",left,1,0.7022,,,,,,001,2025-03-10_18h29.56.760,SL_base_41,2021.2.3,Win32,60.33910577,,,99,0,99,0,1,,,,,,,,
,,"[""diamond"",""green"",""vert"",""up"",[150,0],[0,150]]",diamond,green,vert,up,"[150,0]","[0,150]",up,1,0.9954,,,,,,001,2025-03-10_18h29.56.760,SL_base_41,2021.2.3,Win32,60.33910577,,,100,0,100,0,1,,,,,,,,
,,"[""diamond"",""no_dis"",""hori"",""left"",[99999,99999],[0,150]]",diamond,no_dis,hori,left,"[99999,99999]","[0,150]",left,1,0.7945,,,,,,001,2025-03-10_18h29.56.760,SL_base_41,2021.2.3,Win32,60.33910577,,,101,0,101,0,1,,,,,,,,
,,"[""circle"",""red"",""hori"",""left"",[0,150],[106,106]]",circle,red,hori,left,"[0,150]","[106,106]",left,1,0.9965,,,,,,001,2025-03-10_18h29.56.760,SL_base_41,2021.2.3,Win32,60.33910577,,,102,0,102,0,1,,,,,,,,
,,"[""circle"",""green"",""hori"",""left"",[0,150],[-106,106]]",circle,green,hori,left,"[0,150]","[-106,106]",left,1,0.9691,,,,,,001,2025-03-10_18h29.56.760,SL_base_41,2021.2.3,Win32,60.33910577,,,103,0,103,0,1,,,,,,,,
,,"[""circle"",""no_dis"",""hori"",""left"",[99999,99999],[150,0]]",circle,no_dis,hori,left,"[99999,99999]","[150,0]",left,1,1.4598,,,,,,001,2025-03-10_18h29.56.760,SL_base_41,2021.2.3,Win32,60.33910577,,,104,0,104,0,1,,,,,,,,
,,"[""diamond"",""red"",""hori"",""left"",[-106,106],[-150,0]]",diamond,red,hori,left,"[-106,106]","[-150,0]",left,1,1.1467,,,,,,001,2025-03-10_18h29.56.760,SL_base_41,2021.2.3,Win32,60.33910577,,,105,0,105,0,1,,,,,,,,
,,"[""diamond"",""green"",""vert"",""up"",[0,150],[150,0]]",diamond,green,vert,up,"[0,150]","[150,0]",up,1,0.9106,,,,,,001,2025-03-10_18h29.56.760,SL_base_41,2021.2.3,Win32,60.33910577,,,106,0,106,0,1,,,,,,,,
,,"[""circle"",""no_dis"",""hori"",""left"",[99999,99999],[0,-150]]",circle,no_dis,hori,left,"[99999,99999]","[0,-150]",left,1,1.4964,,,,,,001,2025-03-10_18h29.56.760,SL_base_41,2021.2.3,Win32,60.33910577,,,107,0,107,0,1,,,,,,,,
,,"[""diamond"",""red"",""vert"",""up"",[106,-106],[-106,-106]]",diamond,red,vert,up,"[106,-106]","[-106,-106]",up,1,1.0357,,,,,,001,2025-03-10_18h29.56.760,SL_base_41,2021.2.3,Win32,60.33910577,,,108,0,108,0,1,,,,,,,,
,,"[""diamond"",""no_dis"",""vert"",""up"",[99999,99999],[0,-150]]",diamond,no_dis,vert,up,"[99999,99999]","[0,-150]",up,1,0.9942,,,,,,001,2025-03-10_18h29.56.760,SL_base_41,2021.2.3,Win32,60.33910577,,,109,0,109,0,1,,,,,,,,
,,"[""circle"",""red"",""hori"",""left"",[0,150],[-106,106]]",circle,red,hori,left,"[0,150]","[-106,106]",left,1,1.0454,,,,,,001,2025-03-10_18h29.56.760,SL_base_41,2021.2.3,Win32,60.33910577,,,110,0,110,0,1,,,,,,,,
,,"[""diamond"",""no_dis"",""vert"",""up"",[99999,99999],[150,0]]",diamond,no_dis,vert,up,"[99999,99999]","[150,0]",up,1,0.7655,,,,,,001,2025-03-10_18h29.56.760,SL_base_41,2021.2.3,Win32,60.33910577,,,111,0,111,0,1,,,,,,,,
,,"[""circle"",""green"",""hori"",""left"",[0,150],[0,-150]]",circle,green,hori,left,"[0,150]","[0,-150]",left,1,1.0686,,,,,,001,2025-03-10_18h29.56.760,SL_base_41,2021.2.3,Win32,60.33910577,,,112,0,112,0,1,,,,,,,,
,,"[""diamond"",""no_dis"",""vert"",""up"",[99999,99999],[-106,106]]",diamond,no_dis,vert,up,"[99999,99999]","[-106,106]",up,1,0.6935,,,,,,001,2025-03-10_18h29.56.760,SL_base_41,2021.2.3,Win32,60.33910577,,,113,0,113,0,1,,,,,,,,
,,"[""circle"",""no_dis"",""vert"",""up"",[99999,99999],[106,-106]]",circle,no_dis,vert,up,"[99999,99999]","[106,-106]",up,1,0.7223,,,,,,001,2025-03-10_18h29.56.760,SL_base_41,2021.2.3,Win32,60.33910577,,,114,0,114,0,1,,,,,,,,
,,"[""circle"",""green"",""hori"",""left"",[-106,-106],[150,0]]",circle,green,hori,left,"[-106,-106]","[150,0]",left,1,0.7973,,,,,,001,2025-03-10_18h29.56.760,SL_base_41,2021.2.3,Win32,60.33910577,,,115,0,115,0,1,,,,,,,,
,,"[""circle"",""no_dis"",""hori"",""left"",[99999,99999],[106,-106]]",circle,no_dis,hori,left,"[99999,99999]","[106,-106]",left,1,0.7018,,,,,,001,2025-03-10_18h29.56.760,SL_base_41,2021.2.3,Win32,60.33910577,,,116,0,116,0,1,,,,,,,,
,,"[""diamond"",""red"",""hori"",""left"",[0,-150],[-106,-106]]",diamond,red,hori,left,"[0,-150]","[-106,-106]",up,0,0.8886,,,,,,001,2025-03-10_18h29.56.760,SL_base_41,2021.2.3,Win32,60.33910577,,,117,0,117,0,1,,,,,,,,
,,"[""diamond"",""green"",""vert"",""up"",[0,150],[150,0]]",diamond,green,vert,up,"[0,150]","[150,0]",up,1,0.828,,,,,,001,2025-03-10_18h29.56.760,SL_base_41,2021.2.3,Win32,60.33910577,,,118,0,118,0,1,,,,,,,,
,,"[""circle"",""green"",""hori"",""left"",[-150,0],[-106,-106]]",circle,green,hori,left,"[-150,0]","[-106,-106]",up,0,0.7848,,,,,,001,2025-03-10_18h29.56.760,SL_base_41,2021.2.3,Win32,60.33910577,,,119,0,119,0,1,,,,,,,,
,,"[""circle"",""green"",""vert"",""up"",[0,150],[-106,-106]]",circle,green,vert,up,"[0,150]","[-106,-106]",up,1,1.0635,,,,,,001,2025-03-10_18h29.56.760,SL_base_41,2021.2.3,Win32,60.33910577,,,120,0,120,0,1,,,,,,,,
,,"[""circle"",""red"",""vert"",""up"",[106,-106],[-106,106]]",circle,red,vert,up,"[106,-106]","[-106,106]",left,0,0.7814,,,,,,001,2025-03-10_18h29.56.760,SL_base_41,2021.2.3,Win32,60.33910577,,,121,0,121,0,1,,,,,,,,
,,"[""circle"",""red"",""hori"",""left"",[-106,106],[-106,-106]]",circle,red,hori,left,"[-106,106]","[-106,-106]",left,1,0.9632,,,,,,001,2025-03-10_18h29.56.760,SL_base_41,2021.2.3,Win32,60.33910577,,,122,0,122,0,1,,,,,,,,
,,"[""circle"",""green"",""hori"",""left"",[-106,106],[-106,-106]]",circle,green,hori,left,"[-106,106]","[-106,-106]",left,1,0.8512,,,,,,001,2025-03-10_18h29.56.760,SL_base_41,2021.2.3,Win32,60.33910577,,,123,0,123,0,1,,,,,,,,
,,"[""circle"",""red"",""hori"",""left"",[0,150],[-106,-106]]",circle,red,hori,left,"[0,150]","[-106,-106]",left,1,0.7628,,,,,,001,2025-03-10_18h29.56.760,SL_base_41,2021.2.3,Win32,60.33910577,,,124,0,124,0,1,,,,,,,,
,,"[""circle"",""green"",""hori"",""left"",[-106,-106],[150,0]]",circle,green,hori,left,"[-106,-106]","[150,0]",left,1,0.8379,,,,,,001,2025-03-10_18h29.56.760,SL_base_41,2021.2.3,Win32,60.33910577,,,125,0,125,0,1,,,,,,,,
,,"[""circle"",""red"",""hori"",""left"",[-150,0],[150,0]]",circle,red,hori,left,"[-150,0]","[150,0]",left,1,0.9349,,,,,,001,2025-03-10_18h29.56.760,SL_base_41,2021.2.3,Win32,60.33910577,,,126,0,126,0,1,,,,,,,,
,,"[""diamond"",""red"",""vert"",""up"",[-106,-106],[106,106]]",diamond,red,vert,up,"[-106,-106]","[106,106]",up,1,0.962,,,,,,001,2025-03-10_18h29.56.760,SL_base_41,2021.2.3,Win32,60.33910577,,,127,0,127,0,1,,,,,,,,
,,,,,,,,,,,,,,,,,001,2025-03-10_18h29.56.760,SL_base_41,2021.2.3,Win32,60.33910577,,,,,,,,3,space,1.5519,2,0,2,0,1
,,"[""circle"",""red"",""vert"",""up"",[106,-106],[-106,106]]",circle,red,vert,up,"[106,-106]","[-106,106]",up,1,0.9797,,,,,,001,2025-03-10_18h29.56.760,SL_base_41,2021.2.3,Win32,60.33910577,,,0,0,0,0,1,,,,,,,,
,,"[""diamond"",""green"",""vert"",""up"",[0,150],[106,106]]",diamond,green,vert,up,"[0,150]","[106,106]",up,1,0.9598,,,,,,001,2025-03-10_18h29.56.760,SL_base_41,2021.2.3,Win32,60.33910577,,,1,0,1,0,1,,,,,,,,
,,"[""circle"",""red"",""vert"",""up"",[-106,106],[-106,-106]]",circle,red,vert,up,"[-106,106]","[-106,-106]",up,1,0.846,,,,,,001,2025-03-10_18h29.56.760,SL_base_41,2021.2.3,Win32,60.33910577,,,2,0,2,0,1,,,,,,,,
,,"[""diamond"",""no_dis"",""hori"",""left"",[99999,99999],[106,106]]",diamond,no_dis,hori,left,"[99999,99999]","[106,106]",left,1,1.1285,,,,,,001,2025-03-10_18h29.56.760,SL_base_41,2021.2.3,Win32,60.33910577,,,3,0,3,0,1,,,,,,,,
,,"[""diamond"",""no_dis"",""hori"",""left"",[99999,99999],[-106,106]]",diamond,no_dis,hori,left,"[99999,99999]","[-106,106]",left,1,1.1536,,,,,,001,2025-03-10_18h29.56.760,SL_base_41,2021.2.3,Win32,60.33910577,,,4,0,4,0,1,,,,,,,,
,,"[""circle"",""no_dis"",""hori"",""left"",[99999,99999],[106,-106]]",circle,no_dis,hori,left,"[99999,99999]","[106,-106]",left,1,0.625,,,,,,001,2025-03-10_18h29.56.760,SL_base_41,2021.2.3,Win32,60.33910577,,,5,0,5,0,1,,,,,,,,
,,"[""diamond"",""red"",""vert"",""up"",[0,150],[-150,0]]",diamond,red,vert,up,"[0,150]","[-150,0]",up,1,0.7796,,,,,,001,2025-03-10_18h29.56.760,SL_base_41,2021.2.3,Win32,60.33910577,,,6,0,6,0,1,,,,,,,,
,,"[""circle"",""green"",""vert"",""up"",[0,150],[-106,-106]]",circle,green,vert,up,"[0,150]","[-106,-106]",up,1,0.7284,,,,,,001,2025-03-10_18h29.56.760,SL_base_41,2021.2.3,Win32,60.33910577,,,7,0,7,0,1,,,,,,,,
,,"[""circle"",""red"",""hori"",""left"",[0,-150],[-150,0]]",circle,red,hori,left,"[0,-150]","[-150,0]",left,1,1.0819,,,,,,001,2025-03-10_18h29.56.760,SL_base_41,2021.2.3,Win32,60.33910577,,,8,0,8,0,1,,,,,,,,
,,"[""circle"",""red"",""vert"",""up"",[-150,0],[150,0]]",circle,red,vert,up,"[-150,0]","[150,0]",up,1,0.7344,,,,,,001,2025-03-10_18h29.56.760,SL_base_41,2021.2.3,Win32,60.33910577,,,9,0,9,0,1,,,,,,,,
,,"[""diamond"",""red"",""vert"",""up"",[-150,0],[106,106]]",diamond,red,vert,up,"[-150,0]","[106,106]",up,1,1.071,,,,,,001,2025-03-10_18h29.56.760,SL_base_41,2021.2.3,Win32,60.33910577,,,10,0,10,0,1,,,,,,,,
,,"[""diamond"",""no_dis"",""hori"",""left"",[99999,99999],[150,0]]",diamond,no_dis,hori,left,"[99999,99999]","[150,0]",left,1,1.1663,,,,,,001,2025-03-10_18h29.56.760,SL_base_41,2021.2.3,Win32,60.33910577,,,11,0,11,0,1,,,,,,,,
,,"[""circle"",""no_dis"",""vert"",""up"",[99999,99999],[106,-106]]",circle,no_dis,vert,up,"[99999,99999]","[106,-106]",up,1,0.713,,,,,,001,2025-03-10_18h29.56.760,SL_base_41,2021.2.3,Win32,60.33910577,,,12,0,12,0,1,,,,,,,,
,,"[""circle"",""red"",""hori"",""left"",[-106,106],[-106,-106]]",circle,red,hori,left,"[-106,106]","[-106,-106]",left,1,1.2297,,,,,,001,2025-03-10_18h29.56.760,SL_base_41,2021.2.3,Win32,60.33910577,,,13,0,13,0,1,,,,,,,,
,,"[""diamond"",""red"",""hori"",""left"",[0,150],[-106,-106]]",diamond,red,hori,left,"[0,150]","[-106,-106]",up,0,1.0597,,,,,,001,2025-03-10_18h29.56.760,SL_base_41,2021.2.3,Win32,60.33910577,,,14,0,14,0,1,,,,,,,,
,,"[""circle"",""no_dis"",""hori"",""left"",[99999,99999],[150,0]]",circle,no_dis,hori,left,"[99999,99999]","[150,0]",left,1,0.9443,,,,,,001,2025-03-10_18h29.56.760,SL_base_41,2021.2.3,Win32,60.33910577,,,15,0,15,0,1,,,,,,,,
,,"[""circle"",""green"",""vert"",""up"",[0,150],[-106,-106]]",circle,green,vert,up,"[0,150]","[-106,-106]",up,1,0.7539,,,,,,001,2025-03-10_18h29.56.760,SL_base_41,2021.2.3,Win32,60.33910577,,,16,0,16,0,1,,,,,,,,
,,"[""diamond"",""green"",""hori"",""left"",[0,150],[106,106]]",diamond,green,hori,left,"[0,150]","[106,106]",left,1,1.2265,,,,,,001,2025-03-10_18h29.56.760,SL_base_41,2021.2.3,Win32,60.33910577,,,17,0,17,0,1,,,,,,,,
,,"[""circle"",""no_dis"",""vert"",""up"",[99999,99999],[-106,106]]",circle,no_dis,vert,up,"[99999,99999]","[-106,106]",up,1,0.8461,,,,,,001,2025-03-10_18h29.56.760,SL_base_41,2021.2.3,Win32,60.33910577,,,18,0,18,0,1,,,,,,,,
,,"[""diamond"",""red"",""hori"",""left"",[150,0],[-106,-106]]",diamond,red,hori,left,"[150,0]","[-106,-106]",left,1,0.7319,,,,,,001,2025-03-10_18h29.56.760,SL_base_41,2021.2.3,Win32,60.33910577,,,19,0,19,0,1,,,,,,,,
,,"[""circle"",""red"",""hori"",""left"",[106,106],[-106,-106]]",circle,red,hori,left,"[106,106]","[-106,-106]",left,1,0.7459,,,,,,001,2025-03-10_18h29.56.760,SL_base_41,2021.2.3,Win32,60.33910577,,,20,0,20,0,1,,,,,,,,
,,"[""diamond"",""no_dis"",""hori"",""left"",[99999,99999],[-106,106]]",diamond,no_dis,hori,left,"[99999,99999]","[-106,106]",up,0,0.8102,,,,,,001,2025-03-10_18h29.56.760,SL_base_41,2021.2.3,Win32,60.33910577,,,21,0,21,0,1,,,,,,,,
,,"[""diamond"",""red"",""hori"",""left"",[0,-150],[150,0]]",diamond,red,hori,left,"[0,-150]","[150,0]",left,1,1.3372,,,,,,001,2025-03-10_18h29.56.760,SL_base_41,2021.2.3,Win32,60.33910577,,,22,0,22,0,1,,,,,,,,
,,"[""diamond"",""green"",""hori"",""left"",[106,-106],[-150,0]]",diamond,green,hori,left,"[106,-106]","[-150,0]",left,1,1.0188,,,,,,001,2025-03-10_18h29.56.760,SL_base_41,2021.2.3,Win32,60.33910577,,,23,0,23,0,1,,,,,,,,
,,"[""diamond"",""no_dis"",""hori"",""left"",[99999,99999],[-106,-106]]",diamond,no_dis,hori,left,"[99999,99999]","[-106,-106]",left,1,0.8863,,,,,,001,2025-03-10_18h29.56.760,SL_base_41,2021.2.3,Win32,60.33910577,,,24,0,24,0,1,,,,,,,,
,,"[""diamond"",""no_dis"",""vert"",""up"",[99999,99999],[-150,0]]",diamond,no_dis,vert,up,"[99999,99999]","[-150,0]",up,1,0.812,,,,,,001,2025-03-10_18h29.56.760,SL_base_41,2021.2.3,Win32,60.33910577,,,25,0,25,0,1,,,,,,,,
,,"[""diamond"",""red"",""vert"",""up"",[150,0],[-106,106]]",diamond,red,vert,up,"[150,0]","[-106,106]",up,1,0.8129,,,,,,001,2025-03-10_18h29.56.760,SL_base_41,2021.2.3,Win32,60.33910577,,,26,0,26,0,1,,,,,,,,
,,"[""circle"",""green"",""vert"",""up"",[-106,106],[106,106]]",circle,green,vert,up,"[-106,106]","[106,106]",left,0,1.0009,,,,,,001,2025-03-10_18h29.56.760,SL_base_41,2021.2.3,Win32,60.33910577,,,27,0,27,0,1,,,,,,,,
,,"[""diamond"",""red"",""vert"",""up"",[0,150],[106,-106]]",diamond,red,vert,up,"[0,150]","[106,-106]",up,1,1.0955,,,,,,001,2025-03-10_18h29.56.760,SL_base_41,2021.2.3,Win32,60.33910577,,,28,0,28,0,1,,,,,,,,
,,"[""circle"",""no_dis"",""hori"",""left"",[99999,99999],[106,-106]]",circle,no_dis,hori,left,"[99999,99999]","[106,-106]",left,1,0.7281,,,,,,001,2025-03-10_18h29.56.760,SL_base_41,2021.2.3,Win32,60.33910577,,,29,0,29,0,1,,,,,,,,
,,"[""circle"",""no_dis"",""hori"",""left"",[99999,99999],[0,150]]",circle,no_dis,hori,left,"[99999,99999]","[0,150]",left,1,0.8619,,,,,,001,2025-03-10_18h29.56.760,SL_base_41,2021.2.3,Win32,60.33910577,,,30,0,30,0,1,,,,,,,,
,,"[""circle"",""red"",""hori"",""left"",[0,150],[-106,106]]",circle,red,hori,left,"[0,150]","[-106,106]",up,0,0.6968,,,,,,001,2025-03-10_18h29.56.760,SL_base_41,2021.2.3,Win32,60.33910577,,,31,0,31,0,1,,,,,,,,
,,"[""diamond"",""green"",""hori"",""left"",[150,0],[0,150]]",diamond,green,hori,left,"[150,0]","[0,150]",left,1,1.3779,,,,,,001,2025-03-10_18h29.56.760,SL_base_41,2021.2.3,Win32,60.33910577,,,32,0,32,0,1,,,,,,,,
,,"[""diamond"",""no_dis"",""vert"",""up"",[99999,99999],[-106,106]]",diamond,no_dis,vert,up,"[99999,99999]","[-106,106]",up,1,0.7773,,,,,,001,2025-03-10_18h29.56.760,SL_base_41,2021.2.3,Win32,60.33910577,,,33,0,33,0,1,,,,,,,,
,,"[""circle"",""green"",""vert"",""up"",[150,0],[-106,-106]]",circle,green,vert,up,"[150,0]","[-106,-106]",up,1,1.2703,,,,,,001,2025-03-10_18h29.56.760,SL_base_41,2021.2.3,Win32,60.33910577,,,34,0,34,0,1,,,,,,,,
,,"[""diamond"",""red"",""hori"",""left"",[150,0],[106,106]]",diamond,red,hori,left,"[150,0]","[106,106]",left,1,0.66,,,,,,001,2025-03-10_18h29.56.760,SL_base_41,2021.2.3,Win32,60.33910577,,,35,0,35,0,1,,,,,,,,
,,"[""circle"",""red"",""vert"",""up"",[0,150],[-106,106]]",circle,red,vert,up,"[0,150]","[-106,106]",up,1,0.7699,,,,,,001,2025-03-10_18h29.56.760,SL_base_41,2021.2.3,Win32,60.33910577,,,36,0,36,0,1,,,,,,,,
,,"[""circle"",""red"",""vert"",""up"",[0,150],[106,-106]]",circle,red,vert,up,"[0,150]","[106,-106]",up,1,1.3464,,,,,,001,2025-03-10_18h29.56.760,SL_base_41,2021.2.3,Win32,60.33910577,,,37,0,37,0,1,,,,,,,,
,,"[""diamond"",""no_dis"",""vert"",""up"",[99999,99999],[150,0]]",diamond,no_dis,vert,up,"[99999,99999]","[150,0]",left,0,1.0289,,,,,,001,2025-03-10_18h29.56.760,SL_base_41,2021.2.3,Win32,60.33910577,,,38,0,38,0,1,,,,,,,,
,,"[""circle"",""green"",""hori"",""left"",[-106,106],[-106,-106]]",circle,green,hori,left,"[-106,106]","[-106,-106]",left,1,0.9717,,,,,,001,2025-03-10_18h29.56.760,SL_base_41,2021.2.3,Win32,60.33910577,,,39,0,39,0,1,,,,,,,,
,,"[""circle"",""red"",""vert"",""up"",[0,150],[0,-150]]",circle,red,vert,up,"[0,150]","[0,-150]",up,1,1.0008,,,,,,001,2025-03-10_18h29.56.760,SL_base_41,2021.2.3,Win32,60.33910577,,,40,0,40,0,1,,,,,,,,
,,"[""diamond"",""green"",""vert"",""up"",[0,150],[-150,0]]",diamond,green,vert,up,"[0,150]","[-150,0]",up,1,1.2867,,,,,,001,2025-03-10_18h29.56.760,SL_base_41,2021.2.3,Win32,60.33910577,,,41,0,41,0,1,,,,,,,,
,,"[""circle"",""green"",""hori"",""left"",[-106,-106],[150,0]]",circle,green,hori,left,"[-106,-106]","[150,0]",left,1,0.7542,,,,,,001,2025-03-10_18h29.56.760,SL_base_41,2021.2.3,Win32,60.33910577,,,42,0,42,0,1,,,,,,,,
,,"[""diamond"",""green"",""vert"",""up"",[-150,0],[106,-106]]",diamond,green,vert,up,"[-150,0]","[106,-106]",up,1,1.329,,,,,,001,2025-03-10_18h29.56.760,SL_base_41,2021.2.3,Win32,60.33910577,,,43,0,43,0,1,,,,,,,,
,,"[""circle"",""red"",""hori"",""left"",[106,106],[106,-106]]",circle,red,hori,left,"[106,106]","[106,-106]",left,1,1.1038,,,,,,001,2025-03-10_18h29.56.760,SL_base_41,2021.2.3,Win32,60.33910577,,,44,0,44,0,1,,,,,,,,
,,"[""diamond"",""green"",""hori"",""left"",[106,106],[-106,106]]",diamond,green,hori,left,"[106,106]","[-106,106]",left,1,0.8996,,,,,,001,2025-03-10_18h29.56.760,SL_base_41,2021.2.3,Win32,60.33910577,,,45,0,45,0,1,,,,,,,,
,,"[""diamond"",""green"",""hori"",""left"",[-150,0],[106,-106]]",diamond,green,hori,left,"[-150,0]","[106,-106]",left,1,1.0509,,,,,,001,2025-03-10_18h29.56.760,SL_base_41,2021.2.3,Win32,60.33910577,,,46,0,46,0,1,,,,,,,,
,,"[""diamond"",""no_dis"",""vert"",""up"",[99999,99999],[-106,-106]]",diamond,no_dis,vert,up,"[99999,99999]","[-106,-106]",up,1,2.4026,,,,,,001,2025-03-10_18h29.56.760,SL_base_41,2021.2.3,Win32,60.33910577,,,47,0,47,0,1,,,,,,,,
,,"[""diamond"",""green"",""hori"",""left"",[0,150],[106,-106]]",diamond,green,hori,left,"[0,150]","[106,-106]",left,1,1.0162,,,,,,001,2025-03-10_18h29.56.760,SL_base_41,2021.2.3,Win32,60.33910577,,,48,0,48,0,1,,,,,,,,
,,"[""circle"",""green"",""hori"",""left"",[0,150],[-106,106]]",circle,green,hori,left,"[0,150]","[-106,106]",left,1,0.8712,,,,,,001,2025-03-10_18h29.56.760,SL_base_41,2021.2.3,Win32,60.33910577,,,49,0,49,0,1,,,,,,,,
,,"[""circle"",""no_dis"",""vert"",""up"",[99999,99999],[106,-106]]",circle,no_dis,vert,up,"[99999,99999]","[106,-106]",up,1,1.749,,,,,,001,2025-03-10_18h29.56.760,SL_base_41,2021.2.3,Win32,60.33910577,,,50,0,50,0,1,,,,,,,,
,,"[""diamond"",""no_dis"",""hori"",""left"",[99999,99999],[106,106]]",diamond,no_dis,hori,left,"[99999,99999]","[106,106]",left,1,0.7208,,,,,,001,2025-03-10_18h29.56.760,SL_base_41,2021.2.3,Win32,60.33910577,,,51,0,51,0,1,,,,,,,,
,,"[""diamond"",""no_dis"",""vert"",""up"",[99999,99999],[0,-150]]",diamond,no_dis,vert,up,"[99999,99999]","[0,-150]",up,1,0.6968,,,,,,001,2025-03-10_18h29.56.760,SL_base_41,2021.2.3,Win32,60.33910577,,,52,0,52,0,1,,,,,,,,
,,"[""diamond"",""green"",""hori"",""left"",[150,0],[106,-106]]",diamond,green,hori,left,"[150,0]","[106,-106]",left,1,0.9804,,,,,,001,2025-03-10_18h29.56.760,SL_base_41,2021.2.3,Win32,60.33910577,,,53,0,53,0,1,,,,,,,,
,,"[""circle"",""green"",""hori"",""left"",[106,-106],[0,150]]",circle,green,hori,left,"[106,-106]","[0,150]",left,1,0.78,,,,,,001,2025-03-10_18h29.56.760,SL_base_41,2021.2.3,Win32,60.33910577,,,54,0,54,0,1,,,,,,,,
,,"[""diamond"",""no_dis"",""vert"",""up"",[99999,99999],[-150,0]]",diamond,no_dis,vert,up,"[99999,99999]","[-150,0]",up,1,0.7374,,,,,,001,2025-03-10_18h29.56.760,SL_base_41,2021.2.3,Win32,60.33910577,,,55,0,55,0,1,,,,,,,,
,,"[""circle"",""red"",""vert"",""up"",[0,150],[0,-150]]",circle,red,vert,up,"[0,150]","[0,-150]",up,1,0.9306,,,,,,001,2025-03-10_18h29.56.760,SL_base_41,2021.2.3,Win32,60.33910577,,,56,0,56,0,1,,,,,,,,
,,"[""diamond"",""green"",""hori"",""left"",[106,-106],[-150,0]]",diamond,green,hori,left,"[106,-106]","[-150,0]",left,1,0.6278,,,,,,001,2025-03-10_18h29.56.760,SL_base_41,2021.2.3,Win32,60.33910577,,,57,0,57,0,1,,,,,,,,
,,"[""diamond"",""green"",""vert"",""up"",[0,150],[150,0]]",diamond,green,vert,up,"[0,150]","[150,0]",up,1,0.8605,,,,,,001,2025-03-10_18h29.56.760,SL_base_41,2021.2.3,Win32,60.33910577,,,58,0,58,0,1,,,,,,,,
,,"[""circle"",""no_dis"",""vert"",""up"",[99999,99999],[0,-150]]",circle,no_dis,vert,up,"[99999,99999]","[0,-150]",up,1,1.4189,,,,,,001,2025-03-10_18h29.56.760,SL_base_41,2021.2.3,Win32,60.33910577,,,59,0,59,0,1,,,,,,,,
,,"[""circle"",""no_dis"",""vert"",""up"",[99999,99999],[-106,-106]]",circle,no_dis,vert,up,"[99999,99999]","[-106,-106]",up,1,0.783,,,,,,001,2025-03-10_18h29.56.760,SL_base_41,2021.2.3,Win32,60.33910577,,,60,0,60,0,1,,,,,,,,
