﻿key_resp.keys,key_resp.rt,trial_para,tar_shape,dis_color_condi,tar_line,cor_resp,dis_loc,tar_loc,resp.keys,resp.corr,trials.thisRepN,trials.thisTrialN,trials.thisN,trials.thisIndex,trials.ran,participant,date,expName,psychopyVersion,OS,frameRate,resp.rt,key_resp_2.keys,key_resp_2.rt,trials_2.thisRepN,trials_2.thisTrialN,trials_2.thisN,trials_2.thisIndex,trials_2.ran,block_num,key_resp_3.keys,key_resp_3.rt,trials_3.thisRepN,trials_3.thisTrialN,trials_3.thisN,trials_3.thisIndex,trials_3.ran
space,41.1848,"[""circle"",""no_dis"",""hori"",""left"",[99999,99999],[-106,-106]]",circle,no_dis,hori,left,"[99999,99999]","[-106,-106]",,0,0,0,0,0,1,001,2025-03-10_17h18.50.548,SL_base_41,2021.2.3,Win32,60.24096386,,,,,,,,,,,,,,,,
,,"[""circle"",""no_dis"",""hori"",""left"",[99999,99999],[150,0]]",circle,no_dis,hori,left,"[99999,99999]","[150,0]",,0,1,0,1,0,1,001,2025-03-10_17h18.50.548,SL_base_41,2021.2.3,Win32,60.24096386,,,,,,,,,,,,,,,,
,,"[""diamond"",""no_dis"",""vert"",""up"",[99999,99999],[-106,-106]]",diamond,no_dis,vert,up,"[99999,99999]","[-106,-106]",,0,2,0,2,0,1,001,2025-03-10_17h18.50.548,SL_base_41,2021.2.3,Win32,60.24096386,,,,,,,,,,,,,,,,
,,"[""circle"",""green"",""vert"",""up"",[0,150],[150,0]]",circle,green,vert,up,"[0,150]","[150,0]",up,1,3,0,3,0,1,001,2025-03-10_17h18.50.548,SL_base_41,2021.2.3,Win32,60.24096386,2.4806,,,,,,,,,,,,,,,
,,"[""diamond"",""green"",""hori"",""left"",[0,150],[150,0]]",diamond,green,hori,left,"[0,150]","[150,0]",,0,4,0,4,0,1,001,2025-03-10_17h18.50.548,SL_base_41,2021.2.3,Win32,60.24096386,,,,,,,,,,,,,,,,
,,"[""diamond"",""green"",""hori"",""left"",[106,106],[-150,0]]",diamond,green,hori,left,"[106,106]","[-150,0]",up,0,5,0,5,0,1,001,2025-03-10_17h18.50.548,SL_base_41,2021.2.3,Win32,60.24096386,2.3327,,,,,,,,,,,,,,,
,,"[""diamond"",""red"",""vert"",""up"",[0,150],[106,106]]",diamond,red,vert,up,"[0,150]","[106,106]",up,1,6,0,6,0,1,001,2025-03-10_17h18.50.548,SL_base_41,2021.2.3,Win32,60.24096386,2.9541,,,,,,,,,,,,,,,
,,"[""diamond"",""red"",""hori"",""left"",[-150,0],[106,-106]]",diamond,red,hori,left,"[-150,0]","[106,-106]",,0,7,0,7,0,1,001,2025-03-10_17h18.50.548,SL_base_41,2021.2.3,Win32,60.24096386,,,,,,,,,,,,,,,,
,,"[""diamond"",""red"",""vert"",""up"",[106,-106],[0,150]]",diamond,red,vert,up,"[106,-106]","[0,150]",,0,8,0,8,0,1,001,2025-03-10_17h18.50.548,SL_base_41,2021.2.3,Win32,60.24096386,,,,,,,,,,,,,,,,
,,"[""circle"",""green"",""vert"",""up"",[-106,-106],[150,0]]",circle,green,vert,up,"[-106,-106]","[150,0]",,0,9,0,9,0,1,001,2025-03-10_17h18.50.548,SL_base_41,2021.2.3,Win32,60.24096386,,,,,,,,,,,,,,,,
,,"[""circle"",""no_dis"",""hori"",""left"",[99999,99999],[-106,-106]]",circle,no_dis,hori,left,"[99999,99999]","[-106,-106]",left,1,,,,,,001,2025-03-10_17h18.50.548,SL_base_41,2021.2.3,Win32,60.24096386,1.8637,space,28.6991,0,0,0,0,1,,,,,,,,
,,"[""circle"",""no_dis"",""hori"",""left"",[99999,99999],[150,0]]",circle,no_dis,hori,left,"[99999,99999]","[150,0]",left,1,,,,,,001,2025-03-10_17h18.50.548,SL_base_41,2021.2.3,Win32,60.24096386,1.5403,,,1,0,1,0,1,,,,,,,,
,,"[""diamond"",""no_dis"",""vert"",""up"",[99999,99999],[-106,-106]]",diamond,no_dis,vert,up,"[99999,99999]","[-106,-106]",up,1,,,,,,001,2025-03-10_17h18.50.548,SL_base_41,2021.2.3,Win32,60.24096386,1.6014,,,2,0,2,0,1,,,,,,,,
,,"[""circle"",""green"",""vert"",""up"",[0,150],[150,0]]",circle,green,vert,up,"[0,150]","[150,0]",left,0,,,,,,001,2025-03-10_17h18.50.548,SL_base_41,2021.2.3,Win32,60.24096386,1.5957,,,3,0,3,0,1,,,,,,,,
,,"[""diamond"",""green"",""hori"",""left"",[0,150],[150,0]]",diamond,green,hori,left,"[0,150]","[150,0]",left,1,,,,,,001,2025-03-10_17h18.50.548,SL_base_41,2021.2.3,Win32,60.24096386,2.1532,,,4,0,4,0,1,,,,,,,,
,,"[""diamond"",""green"",""hori"",""left"",[106,106],[-150,0]]",diamond,green,hori,left,"[106,106]","[-150,0]",left,1,,,,,,001,2025-03-10_17h18.50.548,SL_base_41,2021.2.3,Win32,60.24096386,1.8005,,,5,0,5,0,1,,,,,,,,
,,"[""diamond"",""red"",""vert"",""up"",[0,150],[106,106]]",diamond,red,vert,up,"[0,150]","[106,106]",up,1,,,,,,001,2025-03-10_17h18.50.548,SL_base_41,2021.2.3,Win32,60.24096386,1.6667,,,6,0,6,0,1,,,,,,,,
,,"[""diamond"",""red"",""hori"",""left"",[-150,0],[106,-106]]",diamond,red,hori,left,"[-150,0]","[106,-106]",left,1,,,,,,001,2025-03-10_17h18.50.548,SL_base_41,2021.2.3,Win32,60.24096386,1.8178,,,7,0,7,0,1,,,,,,,,
,,"[""diamond"",""red"",""vert"",""up"",[106,-106],[0,150]]",diamond,red,vert,up,"[106,-106]","[0,150]",up,1,,,,,,001,2025-03-10_17h18.50.548,SL_base_41,2021.2.3,Win32,60.24096386,2.2056,,,8,0,8,0,1,,,,,,,,
,,"[""circle"",""green"",""vert"",""up"",[-106,-106],[150,0]]",circle,green,vert,up,"[-106,-106]","[150,0]",left,0,,,,,,001,2025-03-10_17h18.50.548,SL_base_41,2021.2.3,Win32,60.24096386,1.9612,,,9,0,9,0,1,,,,,,,,
,,"[""circle"",""green"",""hori"",""left"",[106,106],[-150,0]]",circle,green,hori,left,"[106,106]","[-150,0]",left,1,,,,,,001,2025-03-10_17h18.50.548,SL_base_41,2021.2.3,Win32,60.24096386,1.7472,,,10,0,10,0,1,,,,,,,,
,,"[""diamond"",""green"",""hori"",""left"",[106,106],[-106,-106]]",diamond,green,hori,left,"[106,106]","[-106,-106]",left,1,,,,,,001,2025-03-10_17h18.50.548,SL_base_41,2021.2.3,Win32,60.24096386,2.0253,,,11,0,11,0,1,,,,,,,,
,,"[""circle"",""green"",""hori"",""left"",[150,0],[-106,106]]",circle,green,hori,left,"[150,0]","[-106,106]",up,0,,,,,,001,2025-03-10_17h18.50.548,SL_base_41,2021.2.3,Win32,60.24096386,2.0256,,,12,0,12,0,1,,,,,,,,
,,"[""circle"",""green"",""hori"",""left"",[106,106],[-106,-106]]",circle,green,hori,left,"[106,106]","[-106,-106]",left,1,,,,,,001,2025-03-10_17h18.50.548,SL_base_41,2021.2.3,Win32,60.24096386,2.2727,,,13,0,13,0,1,,,,,,,,
,,"[""diamond"",""no_dis"",""hori"",""left"",[99999,99999],[0,-150]]",diamond,no_dis,hori,left,"[99999,99999]","[0,-150]",left,1,,,,,,001,2025-03-10_17h18.50.548,SL_base_41,2021.2.3,Win32,60.24096386,0.5195,,,14,0,14,0,1,,,,,,,,
,,"[""circle"",""red"",""vert"",""up"",[106,106],[-150,0]]",circle,red,vert,up,"[106,106]","[-150,0]",up,1,,,,,,001,2025-03-10_17h18.50.548,SL_base_41,2021.2.3,Win32,60.24096386,1.4706,,,15,0,15,0,1,,,,,,,,
,,"[""diamond"",""green"",""hori"",""left"",[106,106],[0,150]]",diamond,green,hori,left,"[106,106]","[0,150]",left,1,,,,,,001,2025-03-10_17h18.50.548,SL_base_41,2021.2.3,Win32,60.24096386,2.7041,,,16,0,16,0,1,,,,,,,,
,,"[""circle"",""green"",""vert"",""up"",[106,106],[-106,106]]",circle,green,vert,up,"[106,106]","[-106,106]",up,1,,,,,,001,2025-03-10_17h18.50.548,SL_base_41,2021.2.3,Win32,60.24096386,2.1175,,,17,0,17,0,1,,,,,,,,
,,"[""diamond"",""red"",""hori"",""left"",[-106,106],[0,150]]",diamond,red,hori,left,"[-106,106]","[0,150]",left,1,,,,,,001,2025-03-10_17h18.50.548,SL_base_41,2021.2.3,Win32,60.24096386,2.3241,,,18,0,18,0,1,,,,,,,,
,,"[""diamond"",""red"",""vert"",""up"",[106,106],[-150,0]]",diamond,red,vert,up,"[106,106]","[-150,0]",up,1,,,,,,001,2025-03-10_17h18.50.548,SL_base_41,2021.2.3,Win32,60.24096386,1.5279,,,19,0,19,0,1,,,,,,,,
,,"[""circle"",""red"",""vert"",""up"",[106,106],[-150,0]]",circle,red,vert,up,"[106,106]","[-150,0]",up,1,,,,,,001,2025-03-10_17h18.50.548,SL_base_41,2021.2.3,Win32,60.24096386,2.712,,,20,0,20,0,1,,,,,,,,
,,"[""diamond"",""green"",""vert"",""up"",[150,0],[-150,0]]",diamond,green,vert,up,"[150,0]","[-150,0]",up,1,,,,,,001,2025-03-10_17h18.50.548,SL_base_41,2021.2.3,Win32,60.24096386,1.6504,,,21,0,21,0,1,,,,,,,,
,,"[""diamond"",""red"",""vert"",""up"",[106,106],[-150,0]]",diamond,red,vert,up,"[106,106]","[-150,0]",up,1,,,,,,001,2025-03-10_17h18.50.548,SL_base_41,2021.2.3,Win32,60.24096386,1.1165,,,22,0,22,0,1,,,,,,,,
,,"[""circle"",""green"",""hori"",""left"",[106,106],[-106,106]]",circle,green,hori,left,"[106,106]","[-106,106]",left,1,,,,,,001,2025-03-10_17h18.50.548,SL_base_41,2021.2.3,Win32,60.24096386,0.9604,,,23,0,23,0,1,,,,,,,,
,,"[""circle"",""no_dis"",""hori"",""left"",[99999,99999],[150,0]]",circle,no_dis,hori,left,"[99999,99999]","[150,0]",up,0,,,,,,001,2025-03-10_17h18.50.548,SL_base_41,2021.2.3,Win32,60.24096386,2.369,,,24,0,24,0,1,,,,,,,,
,,"[""diamond"",""green"",""vert"",""up"",[150,0],[-150,0]]",diamond,green,vert,up,"[150,0]","[-150,0]",up,1,,,,,,001,2025-03-10_17h18.50.548,SL_base_41,2021.2.3,Win32,60.24096386,1.7607,,,25,0,25,0,1,,,,,,,,
,,"[""diamond"",""no_dis"",""hori"",""left"",[99999,99999],[-106,106]]",diamond,no_dis,hori,left,"[99999,99999]","[-106,106]",left,1,,,,,,001,2025-03-10_17h18.50.548,SL_base_41,2021.2.3,Win32,60.24096386,1.465,,,26,0,26,0,1,,,,,,,,
,,"[""circle"",""no_dis"",""vert"",""up"",[99999,99999],[-106,-106]]",circle,no_dis,vert,up,"[99999,99999]","[-106,-106]",left,0,,,,,,001,2025-03-10_17h18.50.548,SL_base_41,2021.2.3,Win32,60.24096386,2.4009,,,27,0,27,0,1,,,,,,,,
,,"[""diamond"",""no_dis"",""vert"",""up"",[99999,99999],[0,-150]]",diamond,no_dis,vert,up,"[99999,99999]","[0,-150]",up,1,,,,,,001,2025-03-10_17h18.50.548,SL_base_41,2021.2.3,Win32,60.24096386,2.3296,,,28,0,28,0,1,,,,,,,,
,,"[""diamond"",""no_dis"",""hori"",""left"",[99999,99999],[106,-106]]",diamond,no_dis,hori,left,"[99999,99999]","[106,-106]",left,1,,,,,,001,2025-03-10_17h18.50.548,SL_base_41,2021.2.3,Win32,60.24096386,1.3234,,,29,0,29,0,1,,,,,,,,
,,"[""circle"",""red"",""hori"",""left"",[106,-106],[0,-150]]",circle,red,hori,left,"[106,-106]","[0,-150]",up,0,,,,,,001,2025-03-10_17h18.50.548,SL_base_41,2021.2.3,Win32,60.24096386,2.9168,,,30,0,30,0,1,,,,,,,,
,,"[""diamond"",""green"",""hori"",""left"",[150,0],[0,-150]]",diamond,green,hori,left,"[150,0]","[0,-150]",left,1,,,,,,001,2025-03-10_17h18.50.548,SL_base_41,2021.2.3,Win32,60.24096386,2.4495,,,31,0,31,0,1,,,,,,,,
,,"[""circle"",""red"",""vert"",""up"",[-150,0],[-106,106]]",circle,red,vert,up,"[-150,0]","[-106,106]",up,1,,,,,,001,2025-03-10_17h18.50.548,SL_base_41,2021.2.3,Win32,60.24096386,2.1914,,,32,0,32,0,1,,,,,,,,
,,"[""diamond"",""green"",""vert"",""up"",[106,106],[0,-150]]",diamond,green,vert,up,"[106,106]","[0,-150]",up,1,,,,,,001,2025-03-10_17h18.50.548,SL_base_41,2021.2.3,Win32,60.24096386,2.2827,,,33,0,33,0,1,,,,,,,,
,,"[""diamond"",""red"",""hori"",""left"",[106,-106],[-106,-106]]",diamond,red,hori,left,"[106,-106]","[-106,-106]",left,1,,,,,,001,2025-03-10_17h18.50.548,SL_base_41,2021.2.3,Win32,60.24096386,2.1334,,,34,0,34,0,1,,,,,,,,
,,"[""diamond"",""green"",""vert"",""up"",[-106,-106],[106,-106]]",diamond,green,vert,up,"[-106,-106]","[106,-106]",up,1,,,,,,001,2025-03-10_17h18.50.548,SL_base_41,2021.2.3,Win32,60.24096386,1.4842,,,35,0,35,0,1,,,,,,,,
,,"[""diamond"",""green"",""vert"",""up"",[150,0],[0,-150]]",diamond,green,vert,up,"[150,0]","[0,-150]",up,1,,,,,,001,2025-03-10_17h18.50.548,SL_base_41,2021.2.3,Win32,60.24096386,1.7861,,,36,0,36,0,1,,,,,,,,
,,"[""diamond"",""red"",""hori"",""left"",[150,0],[-106,-106]]",diamond,red,hori,left,"[150,0]","[-106,-106]",,0,,,,,,001,2025-03-10_17h18.50.548,SL_base_41,2021.2.3,Win32,60.24096386,,,,37,0,37,0,1,,,,,,,,
,,"[""diamond"",""green"",""vert"",""up"",[-106,106],[106,-106]]",diamond,green,vert,up,"[-106,106]","[106,-106]",up,1,,,,,,001,2025-03-10_17h18.50.548,SL_base_41,2021.2.3,Win32,60.24096386,1.4417,,,38,0,38,0,1,,,,,,,,
,,"[""circle"",""red"",""hori"",""left"",[0,-150],[-106,-106]]",circle,red,hori,left,"[0,-150]","[-106,-106]",left,1,,,,,,001,2025-03-10_17h18.50.548,SL_base_41,2021.2.3,Win32,60.24096386,2.695,,,39,0,39,0,1,,,,,,,,
,,"[""circle"",""no_dis"",""hori"",""left"",[99999,99999],[0,-150]]",circle,no_dis,hori,left,"[99999,99999]","[0,-150]",left,1,,,,,,001,2025-03-10_17h18.50.548,SL_base_41,2021.2.3,Win32,60.24096386,1.6849,,,40,0,40,0,1,,,,,,,,
,,"[""circle"",""green"",""vert"",""up"",[150,0],[0,-150]]",circle,green,vert,up,"[150,0]","[0,-150]",up,1,,,,,,001,2025-03-10_17h18.50.548,SL_base_41,2021.2.3,Win32,60.24096386,1.259,,,41,0,41,0,1,,,,,,,,
,,"[""diamond"",""red"",""vert"",""up"",[106,106],[-106,-106]]",diamond,red,vert,up,"[106,106]","[-106,-106]",up,1,,,,,,001,2025-03-10_17h18.50.548,SL_base_41,2021.2.3,Win32,60.24096386,1.642,,,42,0,42,0,1,,,,,,,,
,,"[""circle"",""green"",""hori"",""left"",[-106,-106],[0,-150]]",circle,green,hori,left,"[-106,-106]","[0,-150]",left,1,,,,,,001,2025-03-10_17h18.50.548,SL_base_41,2021.2.3,Win32,60.24096386,1.7837,,,43,0,43,0,1,,,,,,,,
,,"[""circle"",""no_dis"",""vert"",""up"",[99999,99999],[-150,0]]",circle,no_dis,vert,up,"[99999,99999]","[-150,0]",up,1,,,,,,001,2025-03-10_17h18.50.548,SL_base_41,2021.2.3,Win32,60.24096386,2.3275,,,44,0,44,0,1,,,,,,,,
,,"[""diamond"",""red"",""hori"",""left"",[-106,-106],[0,150]]",diamond,red,hori,left,"[-106,-106]","[0,150]",left,1,,,,,,001,2025-03-10_17h18.50.548,SL_base_41,2021.2.3,Win32,60.24096386,1.3665,,,45,0,45,0,1,,,,,,,,
,,"[""diamond"",""no_dis"",""hori"",""left"",[99999,99999],[-106,106]]",diamond,no_dis,hori,left,"[99999,99999]","[-106,106]",left,1,,,,,,001,2025-03-10_17h18.50.548,SL_base_41,2021.2.3,Win32,60.24096386,0.9707,,,46,0,46,0,1,,,,,,,,
,,"[""circle"",""green"",""hori"",""left"",[106,106],[-106,-106]]",circle,green,hori,left,"[106,106]","[-106,-106]",up,0,,,,,,001,2025-03-10_17h18.50.548,SL_base_41,2021.2.3,Win32,60.24096386,1.0116,,,47,0,47,0,1,,,,,,,,
,,"[""diamond"",""no_dis"",""vert"",""up"",[99999,99999],[-150,0]]",diamond,no_dis,vert,up,"[99999,99999]","[-150,0]",up,1,,,,,,001,2025-03-10_17h18.50.548,SL_base_41,2021.2.3,Win32,60.24096386,1.5024,,,48,0,48,0,1,,,,,,,,
,,"[""diamond"",""red"",""vert"",""up"",[-150,0],[106,-106]]",diamond,red,vert,up,"[-150,0]","[106,-106]",up,1,,,,,,001,2025-03-10_17h18.50.548,SL_base_41,2021.2.3,Win32,60.24096386,2.3339,,,49,0,49,0,1,,,,,,,,
,,"[""diamond"",""red"",""vert"",""up"",[-150,0],[0,150]]",diamond,red,vert,up,"[-150,0]","[0,150]",up,1,,,,,,001,2025-03-10_17h18.50.548,SL_base_41,2021.2.3,Win32,60.24096386,1.6983,,,50,0,50,0,1,,,,,,,,
,,"[""diamond"",""no_dis"",""hori"",""left"",[99999,99999],[0,-150]]",diamond,no_dis,hori,left,"[99999,99999]","[0,-150]",left,1,,,,,,001,2025-03-10_17h18.50.548,SL_base_41,2021.2.3,Win32,60.24096386,1.5615,,,51,0,51,0,1,,,,,,,,
,,"[""circle"",""no_dis"",""vert"",""up"",[99999,99999],[106,-106]]",circle,no_dis,vert,up,"[99999,99999]","[106,-106]",up,1,,,,,,001,2025-03-10_17h18.50.548,SL_base_41,2021.2.3,Win32,60.24096386,1.6722,,,52,0,52,0,1,,,,,,,,
,,"[""circle"",""green"",""vert"",""up"",[0,150],[150,0]]",circle,green,vert,up,"[0,150]","[150,0]",up,1,,,,,,001,2025-03-10_17h18.50.548,SL_base_41,2021.2.3,Win32,60.24096386,1.6876,,,53,0,53,0,1,,,,,,,,
,,"[""diamond"",""green"",""hori"",""left"",[106,106],[-106,-106]]",diamond,green,hori,left,"[106,106]","[-106,-106]",left,1,,,,,,001,2025-03-10_17h18.50.548,SL_base_41,2021.2.3,Win32,60.24096386,1.5171,,,54,0,54,0,1,,,,,,,,
,,"[""diamond"",""no_dis"",""vert"",""up"",[99999,99999],[-150,0]]",diamond,no_dis,vert,up,"[99999,99999]","[-150,0]",up,1,,,,,,001,2025-03-10_17h18.50.548,SL_base_41,2021.2.3,Win32,60.24096386,1.4158,,,55,0,55,0,1,,,,,,,,
,,"[""circle"",""red"",""vert"",""up"",[106,-106],[150,0]]",circle,red,vert,up,"[106,-106]","[150,0]",up,1,,,,,,001,2025-03-10_17h18.50.548,SL_base_41,2021.2.3,Win32,60.24096386,1.618,,,56,0,56,0,1,,,,,,,,
,,"[""circle"",""no_dis"",""vert"",""up"",[99999,99999],[0,-150]]",circle,no_dis,vert,up,"[99999,99999]","[0,-150]",up,1,,,,,,001,2025-03-10_17h18.50.548,SL_base_41,2021.2.3,Win32,60.24096386,1.2291,,,57,0,57,0,1,,,,,,,,
,,"[""circle"",""green"",""hori"",""left"",[106,106],[106,-106]]",circle,green,hori,left,"[106,106]","[106,-106]",left,1,,,,,,001,2025-03-10_17h18.50.548,SL_base_41,2021.2.3,Win32,60.24096386,1.3829,,,58,0,58,0,1,,,,,,,,
,,"[""diamond"",""green"",""vert"",""up"",[0,-150],[0,150]]",diamond,green,vert,up,"[0,-150]","[0,150]",up,1,,,,,,001,2025-03-10_17h18.50.548,SL_base_41,2021.2.3,Win32,60.24096386,2.268,,,59,0,59,0,1,,,,,,,,
,,"[""circle"",""red"",""hori"",""left"",[-106,106],[0,-150]]",circle,red,hori,left,"[-106,106]","[0,-150]",left,1,,,,,,001,2025-03-10_17h18.50.548,SL_base_41,2021.2.3,Win32,60.24096386,2.7769,,,60,0,60,0,1,,,,,,,,
,,"[""diamond"",""red"",""hori"",""left"",[106,106],[-106,-106]]",diamond,red,hori,left,"[106,106]","[-106,-106]",left,1,,,,,,001,2025-03-10_17h18.50.548,SL_base_41,2021.2.3,Win32,60.24096386,1.7247,,,61,0,61,0,1,,,,,,,,
,,"[""circle"",""red"",""hori"",""left"",[106,106],[150,0]]",circle,red,hori,left,"[106,106]","[150,0]",left,1,,,,,,001,2025-03-10_17h18.50.548,SL_base_41,2021.2.3,Win32,60.24096386,1.5708,,,62,0,62,0,1,,,,,,,,
,,"[""circle"",""red"",""vert"",""up"",[106,106],[-106,-106]]",circle,red,vert,up,"[106,106]","[-106,-106]",up,1,,,,,,001,2025-03-10_17h18.50.548,SL_base_41,2021.2.3,Win32,60.24096386,1.8179,,,63,0,63,0,1,,,,,,,,
,,"[""diamond"",""green"",""hori"",""left"",[0,-150],[-150,0]]",diamond,green,hori,left,"[0,-150]","[-150,0]",left,1,,,,,,001,2025-03-10_17h18.50.548,SL_base_41,2021.2.3,Win32,60.24096386,1.233,,,64,0,64,0,1,,,,,,,,
,,"[""circle"",""green"",""vert"",""up"",[106,106],[0,-150]]",circle,green,vert,up,"[106,106]","[0,-150]",up,1,,,,,,001,2025-03-10_17h18.50.548,SL_base_41,2021.2.3,Win32,60.24096386,1.0672,,,65,0,65,0,1,,,,,,,,
,,"[""circle"",""red"",""hori"",""left"",[106,106],[-106,-106]]",circle,red,hori,left,"[106,106]","[-106,-106]",left,1,,,,,,001,2025-03-10_17h18.50.548,SL_base_41,2021.2.3,Win32,60.24096386,1.403,,,66,0,66,0,1,,,,,,,,
,,"[""diamond"",""no_dis"",""hori"",""left"",[99999,99999],[-106,-106]]",diamond,no_dis,hori,left,"[99999,99999]","[-106,-106]",left,1,,,,,,001,2025-03-10_17h18.50.548,SL_base_41,2021.2.3,Win32,60.24096386,1.0827,,,67,0,67,0,1,,,,,,,,
,,"[""circle"",""no_dis"",""hori"",""left"",[99999,99999],[106,-106]]",circle,no_dis,hori,left,"[99999,99999]","[106,-106]",left,1,,,,,,001,2025-03-10_17h18.50.548,SL_base_41,2021.2.3,Win32,60.24096386,1.433,,,68,0,68,0,1,,,,,,,,
,,"[""diamond"",""green"",""vert"",""up"",[150,0],[106,106]]",diamond,green,vert,up,"[150,0]","[106,106]",up,1,,,,,,001,2025-03-10_17h18.50.548,SL_base_41,2021.2.3,Win32,60.24096386,1.5646,,,69,0,69,0,1,,,,,,,,
,,"[""diamond"",""green"",""vert"",""up"",[106,106],[106,-106]]",diamond,green,vert,up,"[106,106]","[106,-106]",up,1,,,,,,001,2025-03-10_17h18.50.548,SL_base_41,2021.2.3,Win32,60.24096386,1.6298,,,70,0,70,0,1,,,,,,,,
,,"[""diamond"",""no_dis"",""vert"",""up"",[99999,99999],[-106,-106]]",diamond,no_dis,vert,up,"[99999,99999]","[-106,-106]",up,1,,,,,,001,2025-03-10_17h18.50.548,SL_base_41,2021.2.3,Win32,60.24096386,1.2358,,,71,0,71,0,1,,,,,,,,
,,"[""circle"",""no_dis"",""hori"",""left"",[99999,99999],[-150,0]]",circle,no_dis,hori,left,"[99999,99999]","[-150,0]",up,0,,,,,,001,2025-03-10_17h18.50.548,SL_base_41,2021.2.3,Win32,60.24096386,0.6613,,,72,0,72,0,1,,,,,,,,
,,"[""diamond"",""green"",""hori"",""left"",[106,-106],[-106,-106]]",diamond,green,hori,left,"[106,-106]","[-106,-106]",left,1,,,,,,001,2025-03-10_17h18.50.548,SL_base_41,2021.2.3,Win32,60.24096386,2.6677,,,73,0,73,0,1,,,,,,,,
,,"[""circle"",""no_dis"",""vert"",""up"",[99999,99999],[106,-106]]",circle,no_dis,vert,up,"[99999,99999]","[106,-106]",up,1,,,,,,001,2025-03-10_17h18.50.548,SL_base_41,2021.2.3,Win32,60.24096386,1.4142,,,74,0,74,0,1,,,,,,,,
,,"[""diamond"",""no_dis"",""vert"",""up"",[99999,99999],[150,0]]",diamond,no_dis,vert,up,"[99999,99999]","[150,0]",up,1,,,,,,001,2025-03-10_17h18.50.548,SL_base_41,2021.2.3,Win32,60.24096386,2.073,,,75,0,75,0,1,,,,,,,,
,,"[""diamond"",""red"",""vert"",""up"",[-106,-106],[0,-150]]",diamond,red,vert,up,"[-106,-106]","[0,-150]",up,1,,,,,,001,2025-03-10_17h18.50.548,SL_base_41,2021.2.3,Win32,60.24096386,1.5344,,,76,0,76,0,1,,,,,,,,
,,"[""circle"",""no_dis"",""vert"",""up"",[99999,99999],[106,106]]",circle,no_dis,vert,up,"[99999,99999]","[106,106]",up,1,,,,,,001,2025-03-10_17h18.50.548,SL_base_41,2021.2.3,Win32,60.24096386,1.4919,,,77,0,77,0,1,,,,,,,,
,,"[""circle"",""red"",""hori"",""left"",[106,106],[150,0]]",circle,red,hori,left,"[106,106]","[150,0]",left,1,,,,,,001,2025-03-10_17h18.50.548,SL_base_41,2021.2.3,Win32,60.24096386,1.368,,,78,0,78,0,1,,,,,,,,
,,"[""circle"",""red"",""vert"",""up"",[106,106],[106,-106]]",circle,red,vert,up,"[106,106]","[106,-106]",up,1,,,,,,001,2025-03-10_17h18.50.548,SL_base_41,2021.2.3,Win32,60.24096386,1.4172,,,79,0,79,0,1,,,,,,,,
,,"[""circle"",""no_dis"",""vert"",""up"",[99999,99999],[-106,106]]",circle,no_dis,vert,up,"[99999,99999]","[-106,106]",up,1,,,,,,001,2025-03-10_17h18.50.548,SL_base_41,2021.2.3,Win32,60.24096386,1.1506,,,80,0,80,0,1,,,,,,,,
,,"[""circle"",""red"",""vert"",""up"",[-106,-106],[0,150]]",circle,red,vert,up,"[-106,-106]","[0,150]",up,1,,,,,,001,2025-03-10_17h18.50.548,SL_base_41,2021.2.3,Win32,60.24096386,0.9845,,,81,0,81,0,1,,,,,,,,
,,"[""diamond"",""green"",""hori"",""left"",[106,106],[0,-150]]",diamond,green,hori,left,"[106,106]","[0,-150]",left,1,,,,,,001,2025-03-10_17h18.50.548,SL_base_41,2021.2.3,Win32,60.24096386,2.2215,,,82,0,82,0,1,,,,,,,,
,,"[""circle"",""no_dis"",""hori"",""left"",[99999,99999],[-150,0]]",circle,no_dis,hori,left,"[99999,99999]","[-150,0]",up,0,,,,,,001,2025-03-10_17h18.50.548,SL_base_41,2021.2.3,Win32,60.24096386,1.4777,,,83,0,83,0,1,,,,,,,,
,,"[""diamond"",""no_dis"",""hori"",""left"",[99999,99999],[-106,106]]",diamond,no_dis,hori,left,"[99999,99999]","[-106,106]",left,1,,,,,,001,2025-03-10_17h18.50.548,SL_base_41,2021.2.3,Win32,60.24096386,1.7599,,,84,0,84,0,1,,,,,,,,
,,"[""diamond"",""no_dis"",""hori"",""left"",[99999,99999],[0,150]]",diamond,no_dis,hori,left,"[99999,99999]","[0,150]",left,1,,,,,,001,2025-03-10_17h18.50.548,SL_base_41,2021.2.3,Win32,60.24096386,2.0626,,,85,0,85,0,1,,,,,,,,
,,"[""circle"",""no_dis"",""hori"",""left"",[99999,99999],[106,106]]",circle,no_dis,hori,left,"[99999,99999]","[106,106]",left,1,,,,,,001,2025-03-10_17h18.50.548,SL_base_41,2021.2.3,Win32,60.24096386,1.9744,,,86,0,86,0,1,,,,,,,,
,,"[""circle"",""green"",""vert"",""up"",[106,-106],[-150,0]]",circle,green,vert,up,"[106,-106]","[-150,0]",up,1,,,,,,001,2025-03-10_17h18.50.548,SL_base_41,2021.2.3,Win32,60.24096386,1.4682,,,87,0,87,0,1,,,,,,,,
,,"[""diamond"",""green"",""vert"",""up"",[-106,106],[-106,-106]]",diamond,green,vert,up,"[-106,106]","[-106,-106]",up,1,,,,,,001,2025-03-10_17h18.50.548,SL_base_41,2021.2.3,Win32,60.24096386,1.7306,,,88,0,88,0,1,,,,,,,,
,,"[""diamond"",""no_dis"",""hori"",""left"",[99999,99999],[150,0]]",diamond,no_dis,hori,left,"[99999,99999]","[150,0]",left,1,,,,,,001,2025-03-10_17h18.50.548,SL_base_41,2021.2.3,Win32,60.24096386,1.0525,,,89,0,89,0,1,,,,,,,,
,,"[""diamond"",""red"",""vert"",""up"",[106,106],[-150,0]]",diamond,red,vert,up,"[106,106]","[-150,0]",up,1,,,,,,001,2025-03-10_17h18.50.548,SL_base_41,2021.2.3,Win32,60.24096386,1.0609,,,90,0,90,0,1,,,,,,,,
,,"[""circle"",""red"",""vert"",""up"",[106,106],[106,-106]]",circle,red,vert,up,"[106,106]","[106,-106]",up,1,,,,,,001,2025-03-10_17h18.50.548,SL_base_41,2021.2.3,Win32,60.24096386,1.9879,,,91,0,91,0,1,,,,,,,,
,,"[""circle"",""no_dis"",""vert"",""up"",[99999,99999],[106,106]]",circle,no_dis,vert,up,"[99999,99999]","[106,106]",up,1,,,,,,001,2025-03-10_17h18.50.548,SL_base_41,2021.2.3,Win32,60.24096386,0.8077,,,92,0,92,0,1,,,,,,,,
,,"[""circle"",""red"",""vert"",""up"",[0,150],[106,-106]]",circle,red,vert,up,"[0,150]","[106,-106]",up,1,,,,,,001,2025-03-10_17h18.50.548,SL_base_41,2021.2.3,Win32,60.24096386,0.7978,,,93,0,93,0,1,,,,,,,,
,,"[""circle"",""green"",""hori"",""left"",[0,-150],[150,0]]",circle,green,hori,left,"[0,-150]","[150,0]",up,0,,,,,,001,2025-03-10_17h18.50.548,SL_base_41,2021.2.3,Win32,60.24096386,1.3837,,,94,0,94,0,1,,,,,,,,
,,"[""diamond"",""red"",""hori"",""left"",[0,-150],[106,106]]",diamond,red,hori,left,"[0,-150]","[106,106]",,0,,,,,,001,2025-03-10_17h18.50.548,SL_base_41,2021.2.3,Win32,60.24096386,,,,95,0,95,0,1,,,,,,,,
,,"[""circle"",""red"",""hori"",""left"",[0,-150],[106,106]]",circle,red,hori,left,"[0,-150]","[106,106]",left,1,,,,,,001,2025-03-10_17h18.50.548,SL_base_41,2021.2.3,Win32,60.24096386,1.8881,,,96,0,96,0,1,,,,,,,,
,,"[""circle"",""red"",""hori"",""left"",[0,150],[106,-106]]",circle,red,hori,left,"[0,150]","[106,-106]",left,1,,,,,,001,2025-03-10_17h18.50.548,SL_base_41,2021.2.3,Win32,60.24096386,1.2205,,,97,0,97,0,1,,,,,,,,
,,"[""diamond"",""no_dis"",""hori"",""left"",[99999,99999],[0,150]]",diamond,no_dis,hori,left,"[99999,99999]","[0,150]",left,1,,,,,,001,2025-03-10_17h18.50.548,SL_base_41,2021.2.3,Win32,60.24096386,1.9436,,,98,0,98,0,1,,,,,,,,
,,"[""diamond"",""red"",""vert"",""up"",[106,-106],[106,106]]",diamond,red,vert,up,"[106,-106]","[106,106]",up,1,,,,,,001,2025-03-10_17h18.50.548,SL_base_41,2021.2.3,Win32,60.24096386,1.4675,,,99,0,99,0,1,,,,,,,,
,,"[""diamond"",""no_dis"",""vert"",""up"",[99999,99999],[150,0]]",diamond,no_dis,vert,up,"[99999,99999]","[150,0]",up,1,,,,,,001,2025-03-10_17h18.50.548,SL_base_41,2021.2.3,Win32,60.24096386,1.5,,,100,0,100,0,1,,,,,,,,
,,"[""diamond"",""green"",""hori"",""left"",[0,150],[0,-150]]",diamond,green,hori,left,"[0,150]","[0,-150]",left,1,,,,,,001,2025-03-10_17h18.50.548,SL_base_41,2021.2.3,Win32,60.24096386,1.1233,,,101,0,101,0,1,,,,,,,,
,,"[""diamond"",""red"",""vert"",""up"",[106,-106],[-106,-106]]",diamond,red,vert,up,"[106,-106]","[-106,-106]",up,1,,,,,,001,2025-03-10_17h18.50.548,SL_base_41,2021.2.3,Win32,60.24096386,1.8004,,,102,0,102,0,1,,,,,,,,
,,"[""circle"",""no_dis"",""vert"",""up"",[99999,99999],[-106,106]]",circle,no_dis,vert,up,"[99999,99999]","[-106,106]",up,1,,,,,,001,2025-03-10_17h18.50.548,SL_base_41,2021.2.3,Win32,60.24096386,1.7266,,,103,0,103,0,1,,,,,,,,
,,"[""diamond"",""no_dis"",""vert"",""up"",[99999,99999],[106,-106]]",diamond,no_dis,vert,up,"[99999,99999]","[106,-106]",up,1,,,,,,001,2025-03-10_17h18.50.548,SL_base_41,2021.2.3,Win32,60.24096386,1.2693,,,104,0,104,0,1,,,,,,,,
,,"[""diamond"",""red"",""hori"",""left"",[-150,0],[106,-106]]",diamond,red,hori,left,"[-150,0]","[106,-106]",left,1,,,,,,001,2025-03-10_17h18.50.548,SL_base_41,2021.2.3,Win32,60.24096386,1.1231,,,105,0,105,0,1,,,,,,,,
,,"[""circle"",""red"",""hori"",""left"",[106,106],[150,0]]",circle,red,hori,left,"[106,106]","[150,0]",left,1,,,,,,001,2025-03-10_17h18.50.548,SL_base_41,2021.2.3,Win32,60.24096386,1.2142,,,106,0,106,0,1,,,,,,,,
,,"[""circle"",""no_dis"",""vert"",""up"",[99999,99999],[0,150]]",circle,no_dis,vert,up,"[99999,99999]","[0,150]",up,1,,,,,,001,2025-03-10_17h18.50.548,SL_base_41,2021.2.3,Win32,60.24096386,0.904,,,107,0,107,0,1,,,,,,,,
,,"[""diamond"",""red"",""hori"",""left"",[-106,106],[150,0]]",diamond,red,hori,left,"[-106,106]","[150,0]",left,1,,,,,,001,2025-03-10_17h18.50.548,SL_base_41,2021.2.3,Win32,60.24096386,1.1672,,,108,0,108,0,1,,,,,,,,
,,"[""diamond"",""no_dis"",""vert"",""up"",[99999,99999],[0,150]]",diamond,no_dis,vert,up,"[99999,99999]","[0,150]",up,1,,,,,,001,2025-03-10_17h18.50.548,SL_base_41,2021.2.3,Win32,60.24096386,0.8358,,,109,0,109,0,1,,,,,,,,
,,"[""circle"",""green"",""vert"",""up"",[106,106],[-150,0]]",circle,green,vert,up,"[106,106]","[-150,0]",left,0,,,,,,001,2025-03-10_17h18.50.548,SL_base_41,2021.2.3,Win32,60.24096386,2.0103,,,110,0,110,0,1,,,,,,,,
,,"[""diamond"",""red"",""hori"",""left"",[-150,0],[-106,-106]]",diamond,red,hori,left,"[-150,0]","[-106,-106]",left,1,,,,,,001,2025-03-10_17h18.50.548,SL_base_41,2021.2.3,Win32,60.24096386,1.8602,,,111,0,111,0,1,,,,,,,,
,,"[""circle"",""green"",""vert"",""up"",[0,150],[106,106]]",circle,green,vert,up,"[0,150]","[106,106]",up,1,,,,,,001,2025-03-10_17h18.50.548,SL_base_41,2021.2.3,Win32,60.24096386,2.3193,,,112,0,112,0,1,,,,,,,,
,,"[""circle"",""green"",""vert"",""up"",[106,106],[-106,-106]]",circle,green,vert,up,"[106,106]","[-106,-106]",up,1,,,,,,001,2025-03-10_17h18.50.548,SL_base_41,2021.2.3,Win32,60.24096386,1.1733,,,113,0,113,0,1,,,,,,,,
,,"[""diamond"",""green"",""hori"",""left"",[106,106],[0,-150]]",diamond,green,hori,left,"[106,106]","[0,-150]",left,1,,,,,,001,2025-03-10_17h18.50.548,SL_base_41,2021.2.3,Win32,60.24096386,1.6509,,,114,0,114,0,1,,,,,,,,
,,"[""circle"",""green"",""hori"",""left"",[-106,106],[106,106]]",circle,green,hori,left,"[-106,106]","[106,106]",up,0,,,,,,001,2025-03-10_17h18.50.548,SL_base_41,2021.2.3,Win32,60.24096386,1.7996,,,115,0,115,0,1,,,,,,,,
,,"[""circle"",""no_dis"",""hori"",""left"",[99999,99999],[106,106]]",circle,no_dis,hori,left,"[99999,99999]","[106,106]",left,1,,,,,,001,2025-03-10_17h18.50.548,SL_base_41,2021.2.3,Win32,60.24096386,0.8849,,,116,0,116,0,1,,,,,,,,
,,"[""circle"",""red"",""vert"",""up"",[106,106],[0,-150]]",circle,red,vert,up,"[106,106]","[0,-150]",up,1,,,,,,001,2025-03-10_17h18.50.548,SL_base_41,2021.2.3,Win32,60.24096386,1.5484,,,117,0,117,0,1,,,,,,,,
,,"[""circle"",""red"",""vert"",""up"",[-106,106],[-106,-106]]",circle,red,vert,up,"[-106,106]","[-106,-106]",up,1,,,,,,001,2025-03-10_17h18.50.548,SL_base_41,2021.2.3,Win32,60.24096386,1.9558,,,118,0,118,0,1,,,,,,,,
,,"[""circle"",""no_dis"",""hori"",""left"",[99999,99999],[106,106]]",circle,no_dis,hori,left,"[99999,99999]","[106,106]",left,1,,,,,,001,2025-03-10_17h18.50.548,SL_base_41,2021.2.3,Win32,60.24096386,0.7964,,,119,0,119,0,1,,,,,,,,
,,"[""circle"",""green"",""vert"",""up"",[-150,0],[-106,106]]",circle,green,vert,up,"[-150,0]","[-106,106]",up,1,,,,,,001,2025-03-10_17h18.50.548,SL_base_41,2021.2.3,Win32,60.24096386,2.2566,,,120,0,120,0,1,,,,,,,,
,,"[""diamond"",""red"",""hori"",""left"",[0,-150],[150,0]]",diamond,red,hori,left,"[0,-150]","[150,0]",left,1,,,,,,001,2025-03-10_17h18.50.548,SL_base_41,2021.2.3,Win32,60.24096386,2.5497,,,121,0,121,0,1,,,,,,,,
,,"[""circle"",""green"",""hori"",""left"",[0,-150],[106,106]]",circle,green,hori,left,"[0,-150]","[106,106]",left,1,,,,,,001,2025-03-10_17h18.50.548,SL_base_41,2021.2.3,Win32,60.24096386,1.972,,,122,0,122,0,1,,,,,,,,
,,"[""circle"",""red"",""hori"",""left"",[-150,0],[-106,106]]",circle,red,hori,left,"[-150,0]","[-106,106]",left,1,,,,,,001,2025-03-10_17h18.50.548,SL_base_41,2021.2.3,Win32,60.24096386,1.143,,,123,0,123,0,1,,,,,,,,
,,"[""circle"",""green"",""hori"",""left"",[-106,106],[106,106]]",circle,green,hori,left,"[-106,106]","[106,106]",left,1,,,,,,001,2025-03-10_17h18.50.548,SL_base_41,2021.2.3,Win32,60.24096386,2.3034,,,124,0,124,0,1,,,,,,,,
,,"[""circle"",""red"",""hori"",""left"",[-106,-106],[106,106]]",circle,red,hori,left,"[-106,-106]","[106,106]",left,1,,,,,,001,2025-03-10_17h18.50.548,SL_base_41,2021.2.3,Win32,60.24096386,2.1282,,,125,0,125,0,1,,,,,,,,
,,"[""diamond"",""no_dis"",""vert"",""up"",[99999,99999],[0,150]]",diamond,no_dis,vert,up,"[99999,99999]","[0,150]",up,1,,,,,,001,2025-03-10_17h18.50.548,SL_base_41,2021.2.3,Win32,60.24096386,1.8639,,,126,0,126,0,1,,,,,,,,
,,"[""diamond"",""green"",""vert"",""up"",[-106,-106],[106,106]]",diamond,green,vert,up,"[-106,-106]","[106,106]",up,1,,,,,,001,2025-03-10_17h18.50.548,SL_base_41,2021.2.3,Win32,60.24096386,2.0705,,,127,0,127,0,1,,,,,,,,
,,,,,,,,,,,,,,,,001,2025-03-10_17h18.50.548,SL_base_41,2021.2.3,Win32,60.24096386,,,,,,,,,1,space,62.1689,0,0,0,0,1
,,"[""diamond"",""no_dis"",""vert"",""up"",[99999,99999],[-150,0]]",diamond,no_dis,vert,up,"[99999,99999]","[-150,0]",up,1,,,,,,001,2025-03-10_17h18.50.548,SL_base_41,2021.2.3,Win32,60.24096386,2.0177,,,0,0,0,0,1,,,,,,,,
,,"[""circle"",""red"",""hori"",""left"",[-106,-106],[106,106]]",circle,red,hori,left,"[-106,-106]","[106,106]",left,1,,,,,,001,2025-03-10_17h18.50.548,SL_base_41,2021.2.3,Win32,60.24096386,1.0514,,,1,0,1,0,1,,,,,,,,
,,"[""diamond"",""red"",""vert"",""up"",[-150,0],[106,-106]]",diamond,red,vert,up,"[-150,0]","[106,-106]",up,1,,,,,,001,2025-03-10_17h18.50.548,SL_base_41,2021.2.3,Win32,60.24096386,1.4461,,,2,0,2,0,1,,,,,,,,
,,"[""diamond"",""green"",""hori"",""left"",[106,106],[-150,0]]",diamond,green,hori,left,"[106,106]","[-150,0]",left,1,,,,,,001,2025-03-10_17h18.50.548,SL_base_41,2021.2.3,Win32,60.24096386,1.3859,,,3,0,3,0,1,,,,,,,,
,,"[""circle"",""green"",""vert"",""up"",[106,-106],[-150,0]]",circle,green,vert,up,"[106,-106]","[-150,0]",up,1,,,,,,001,2025-03-10_17h18.50.548,SL_base_41,2021.2.3,Win32,60.24096386,1.028,,,4,0,4,0,1,,,,,,,,
,,"[""circle"",""green"",""hori"",""left"",[106,106],[-106,-106]]",circle,green,hori,left,"[106,106]","[-106,-106]",left,1,,,,,,001,2025-03-10_17h18.50.548,SL_base_41,2021.2.3,Win32,60.24096386,1.0686,,,5,0,5,0,1,,,,,,,,
,,"[""circle"",""red"",""vert"",""up"",[-150,0],[-106,106]]",circle,red,vert,up,"[-150,0]","[-106,106]",up,1,,,,,,001,2025-03-10_17h18.50.548,SL_base_41,2021.2.3,Win32,60.24096386,1.3547,,,6,0,6,0,1,,,,,,,,
,,"[""diamond"",""red"",""hori"",""left"",[0,-150],[106,106]]",diamond,red,hori,left,"[0,-150]","[106,106]",left,1,,,,,,001,2025-03-10_17h18.50.548,SL_base_41,2021.2.3,Win32,60.24096386,1.4423,,,7,0,7,0,1,,,,,,,,
,,"[""circle"",""no_dis"",""hori"",""left"",[99999,99999],[-106,-106]]",circle,no_dis,hori,left,"[99999,99999]","[-106,-106]",left,1,,,,,,001,2025-03-10_17h18.50.548,SL_base_41,2021.2.3,Win32,60.24096386,1.0348,,,8,0,8,0,1,,,,,,,,
,,"[""circle"",""green"",""vert"",""up"",[106,106],[-106,106]]",circle,green,vert,up,"[106,106]","[-106,106]",up,1,,,,,,001,2025-03-10_17h18.50.548,SL_base_41,2021.2.3,Win32,60.24096386,0.919,,,9,0,9,0,1,,,,,,,,
,,"[""circle"",""green"",""hori"",""left"",[106,106],[-106,-106]]",circle,green,hori,left,"[106,106]","[-106,-106]",left,1,,,,,,001,2025-03-10_17h18.50.548,SL_base_41,2021.2.3,Win32,60.24096386,1.2642,,,10,0,10,0,1,,,,,,,,
,,"[""circle"",""red"",""vert"",""up"",[106,106],[0,-150]]",circle,red,vert,up,"[106,106]","[0,-150]",up,1,,,,,,001,2025-03-10_17h18.50.548,SL_base_41,2021.2.3,Win32,60.24096386,0.9669,,,11,0,11,0,1,,,,,,,,
,,"[""diamond"",""red"",""vert"",""up"",[106,-106],[0,150]]",diamond,red,vert,up,"[106,-106]","[0,150]",left,0,,,,,,001,2025-03-10_17h18.50.548,SL_base_41,2021.2.3,Win32,60.24096386,1.7279,,,12,0,12,0,1,,,,,,,,
,,"[""diamond"",""no_dis"",""vert"",""up"",[99999,99999],[-106,-106]]",diamond,no_dis,vert,up,"[99999,99999]","[-106,-106]",up,1,,,,,,001,2025-03-10_17h18.50.548,SL_base_41,2021.2.3,Win32,60.24096386,1.6764,,,13,0,13,0,1,,,,,,,,
,,"[""diamond"",""green"",""hori"",""left"",[0,150],[0,-150]]",diamond,green,hori,left,"[0,150]","[0,-150]",left,1,,,,,,001,2025-03-10_17h18.50.548,SL_base_41,2021.2.3,Win32,60.24096386,2.1195,,,14,0,14,0,1,,,,,,,,
,,"[""circle"",""red"",""vert"",""up"",[0,150],[106,-106]]",circle,red,vert,up,"[0,150]","[106,-106]",up,1,,,,,,001,2025-03-10_17h18.50.548,SL_base_41,2021.2.3,Win32,60.24096386,1.0414,,,15,0,15,0,1,,,,,,,,
,,"[""diamond"",""no_dis"",""hori"",""left"",[99999,99999],[-106,106]]",diamond,no_dis,hori,left,"[99999,99999]","[-106,106]",left,1,,,,,,001,2025-03-10_17h18.50.548,SL_base_41,2021.2.3,Win32,60.24096386,2.1352,,,16,0,16,0,1,,,,,,,,
,,"[""circle"",""red"",""hori"",""left"",[-106,106],[0,-150]]",circle,red,hori,left,"[-106,106]","[0,-150]",up,0,,,,,,001,2025-03-10_17h18.50.548,SL_base_41,2021.2.3,Win32,60.24096386,1.2203,,,17,0,17,0,1,,,,,,,,
,,"[""diamond"",""green"",""hori"",""left"",[106,-106],[-106,-106]]",diamond,green,hori,left,"[106,-106]","[-106,-106]",left,1,,,,,,001,2025-03-10_17h18.50.548,SL_base_41,2021.2.3,Win32,60.24096386,1.2165,,,18,0,18,0,1,,,,,,,,
,,"[""diamond"",""red"",""vert"",""up"",[-106,-106],[0,-150]]",diamond,red,vert,up,"[-106,-106]","[0,-150]",up,1,,,,,,001,2025-03-10_17h18.50.548,SL_base_41,2021.2.3,Win32,60.24096386,1.68,,,19,0,19,0,1,,,,,,,,
,,"[""diamond"",""no_dis"",""hori"",""left"",[99999,99999],[-106,106]]",diamond,no_dis,hori,left,"[99999,99999]","[-106,106]",left,1,,,,,,001,2025-03-10_17h18.50.548,SL_base_41,2021.2.3,Win32,60.24096386,1.3464,,,20,0,20,0,1,,,,,,,,
,,"[""diamond"",""green"",""hori"",""left"",[0,150],[150,0]]",diamond,green,hori,left,"[0,150]","[150,0]",up,0,,,,,,001,2025-03-10_17h18.50.548,SL_base_41,2021.2.3,Win32,60.24096386,1.3186,,,21,0,21,0,1,,,,,,,,
,,"[""circle"",""green"",""vert"",""up"",[106,106],[0,-150]]",circle,green,vert,up,"[106,106]","[0,-150]",up,1,,,,,,001,2025-03-10_17h18.50.548,SL_base_41,2021.2.3,Win32,60.24096386,1.3409,,,22,0,22,0,1,,,,,,,,
,,"[""circle"",""no_dis"",""vert"",""up"",[99999,99999],[-106,-106]]",circle,no_dis,vert,up,"[99999,99999]","[-106,-106]",up,1,,,,,,001,2025-03-10_17h18.50.548,SL_base_41,2021.2.3,Win32,60.24096386,1.3568,,,23,0,23,0,1,,,,,,,,
,,"[""diamond"",""green"",""hori"",""left"",[150,0],[0,-150]]",diamond,green,hori,left,"[150,0]","[0,-150]",left,1,,,,,,001,2025-03-10_17h18.50.548,SL_base_41,2021.2.3,Win32,60.24096386,1.3383,,,24,0,24,0,1,,,,,,,,
,,"[""circle"",""green"",""vert"",""up"",[0,150],[106,106]]",circle,green,vert,up,"[0,150]","[106,106]",up,1,,,,,,001,2025-03-10_17h18.50.548,SL_base_41,2021.2.3,Win32,60.24096386,1.687,,,25,0,25,0,1,,,,,,,,
,,"[""circle"",""red"",""hori"",""left"",[106,106],[150,0]]",circle,red,hori,left,"[106,106]","[150,0]",left,1,,,,,,001,2025-03-10_17h18.50.548,SL_base_41,2021.2.3,Win32,60.24096386,1.7674,,,26,0,26,0,1,,,,,,,,
,,"[""diamond"",""green"",""vert"",""up"",[150,0],[-150,0]]",diamond,green,vert,up,"[150,0]","[-150,0]",up,1,,,,,,001,2025-03-10_17h18.50.548,SL_base_41,2021.2.3,Win32,60.24096386,0.9999,,,27,0,27,0,1,,,,,,,,
,,"[""diamond"",""red"",""vert"",""up"",[106,106],[-150,0]]",diamond,red,vert,up,"[106,106]","[-150,0]",up,1,,,,,,001,2025-03-10_17h18.50.548,SL_base_41,2021.2.3,Win32,60.24096386,1.1682,,,28,0,28,0,1,,,,,,,,
,,"[""circle"",""no_dis"",""vert"",""up"",[99999,99999],[0,-150]]",circle,no_dis,vert,up,"[99999,99999]","[0,-150]",up,1,,,,,,001,2025-03-10_17h18.50.548,SL_base_41,2021.2.3,Win32,60.24096386,1.3101,,,29,0,29,0,1,,,,,,,,
,,"[""circle"",""green"",""vert"",""up"",[106,106],[-106,-106]]",circle,green,vert,up,"[106,106]","[-106,-106]",up,1,,,,,,001,2025-03-10_17h18.50.548,SL_base_41,2021.2.3,Win32,60.24096386,0.9501,,,30,0,30,0,1,,,,,,,,
,,"[""circle"",""red"",""hori"",""left"",[106,106],[150,0]]",circle,red,hori,left,"[106,106]","[150,0]",left,1,,,,,,001,2025-03-10_17h18.50.548,SL_base_41,2021.2.3,Win32,60.24096386,1.5345,,,31,0,31,0,1,,,,,,,,
,,"[""diamond"",""no_dis"",""vert"",""up"",[99999,99999],[0,150]]",diamond,no_dis,vert,up,"[99999,99999]","[0,150]",up,1,,,,,,001,2025-03-10_17h18.50.548,SL_base_41,2021.2.3,Win32,60.24096386,1.3011,,,32,0,32,0,1,,,,,,,,
,,"[""diamond"",""red"",""hori"",""left"",[106,106],[-106,-106]]",diamond,red,hori,left,"[106,106]","[-106,-106]",,0,,,,,,001,2025-03-10_17h18.50.548,SL_base_41,2021.2.3,Win32,60.24096386,,,,33,0,33,0,1,,,,,,,,
,,"[""diamond"",""no_dis"",""hori"",""left"",[99999,99999],[-106,-106]]",diamond,no_dis,hori,left,"[99999,99999]","[-106,-106]",left,1,,,,,,001,2025-03-10_17h18.50.548,SL_base_41,2021.2.3,Win32,60.24096386,2.1386,,,34,0,34,0,1,,,,,,,,
,,"[""circle"",""no_dis"",""hori"",""left"",[99999,99999],[106,106]]",circle,no_dis,hori,left,"[99999,99999]","[106,106]",left,1,,,,,,001,2025-03-10_17h18.50.548,SL_base_41,2021.2.3,Win32,60.24096386,1.2523,,,35,0,35,0,1,,,,,,,,
,,"[""diamond"",""red"",""vert"",""up"",[106,-106],[-106,-106]]",diamond,red,vert,up,"[106,-106]","[-106,-106]",left,0,,,,,,001,2025-03-10_17h18.50.548,SL_base_41,2021.2.3,Win32,60.24096386,1.2374,,,36,0,36,0,1,,,,,,,,
,,"[""diamond"",""red"",""vert"",""up"",[106,106],[-106,-106]]",diamond,red,vert,up,"[106,106]","[-106,-106]",up,1,,,,,,001,2025-03-10_17h18.50.548,SL_base_41,2021.2.3,Win32,60.24096386,1.7101,,,37,0,37,0,1,,,,,,,,
,,"[""circle"",""red"",""vert"",""up"",[-106,-106],[0,150]]",circle,red,vert,up,"[-106,-106]","[0,150]",left,0,,,,,,001,2025-03-10_17h18.50.548,SL_base_41,2021.2.3,Win32,60.24096386,1.105,,,38,0,38,0,1,,,,,,,,
,,"[""diamond"",""green"",""hori"",""left"",[106,106],[0,-150]]",diamond,green,hori,left,"[106,106]","[0,-150]",up,0,,,,,,001,2025-03-10_17h18.50.548,SL_base_41,2021.2.3,Win32,60.24096386,1.9789,,,39,0,39,0,1,,,,,,,,
,,"[""circle"",""no_dis"",""hori"",""left"",[99999,99999],[-150,0]]",circle,no_dis,hori,left,"[99999,99999]","[-150,0]",left,1,,,,,,001,2025-03-10_17h18.50.548,SL_base_41,2021.2.3,Win32,60.24096386,1.2279,,,40,0,40,0,1,,,,,,,,
,,"[""diamond"",""green"",""vert"",""up"",[150,0],[106,106]]",diamond,green,vert,up,"[150,0]","[106,106]",up,1,,,,,,001,2025-03-10_17h18.50.548,SL_base_41,2021.2.3,Win32,60.24096386,1.7019,,,41,0,41,0,1,,,,,,,,
,,"[""diamond"",""red"",""hori"",""left"",[150,0],[-106,-106]]",diamond,red,hori,left,"[150,0]","[-106,-106]",left,1,,,,,,001,2025-03-10_17h18.50.548,SL_base_41,2021.2.3,Win32,60.24096386,1.1331,,,42,0,42,0,1,,,,,,,,
,,"[""diamond"",""red"",""hori"",""left"",[-106,-106],[0,150]]",diamond,red,hori,left,"[-106,-106]","[0,150]",left,1,,,,,,001,2025-03-10_17h18.50.548,SL_base_41,2021.2.3,Win32,60.24096386,1.6338,,,43,0,43,0,1,,,,,,,,
,,"[""circle"",""red"",""vert"",""up"",[106,106],[106,-106]]",circle,red,vert,up,"[106,106]","[106,-106]",up,1,,,,,,001,2025-03-10_17h18.50.548,SL_base_41,2021.2.3,Win32,60.24096386,1.7892,,,44,0,44,0,1,,,,,,,,
,,"[""diamond"",""red"",""hori"",""left"",[0,-150],[150,0]]",diamond,red,hori,left,"[0,-150]","[150,0]",left,1,,,,,,001,2025-03-10_17h18.50.548,SL_base_41,2021.2.3,Win32,60.24096386,1.5803,,,45,0,45,0,1,,,,,,,,
,,"[""circle"",""red"",""hori"",""left"",[106,-106],[0,-150]]",circle,red,hori,left,"[106,-106]","[0,-150]",up,0,,,,,,001,2025-03-10_17h18.50.548,SL_base_41,2021.2.3,Win32,60.24096386,1.6009,,,46,0,46,0,1,,,,,,,,
,,"[""diamond"",""no_dis"",""hori"",""left"",[99999,99999],[150,0]]",diamond,no_dis,hori,left,"[99999,99999]","[150,0]",left,1,,,,,,001,2025-03-10_17h18.50.548,SL_base_41,2021.2.3,Win32,60.24096386,1.7073,,,47,0,47,0,1,,,,,,,,
,,"[""diamond"",""red"",""hori"",""left"",[106,-106],[-106,-106]]",diamond,red,hori,left,"[106,-106]","[-106,-106]",left,1,,,,,,001,2025-03-10_17h18.50.548,SL_base_41,2021.2.3,Win32,60.24096386,1.6396,,,48,0,48,0,1,,,,,,,,
,,"[""circle"",""no_dis"",""hori"",""left"",[99999,99999],[-150,0]]",circle,no_dis,hori,left,"[99999,99999]","[-150,0]",left,1,,,,,,001,2025-03-10_17h18.50.548,SL_base_41,2021.2.3,Win32,60.24096386,1.8883,,,49,0,49,0,1,,,,,,,,
,,"[""circle"",""red"",""hori"",""left"",[0,150],[106,-106]]",circle,red,hori,left,"[0,150]","[106,-106]",left,1,,,,,,001,2025-03-10_17h18.50.548,SL_base_41,2021.2.3,Win32,60.24096386,1.202,,,50,0,50,0,1,,,,,,,,
,,"[""diamond"",""no_dis"",""vert"",""up"",[99999,99999],[-106,-106]]",diamond,no_dis,vert,up,"[99999,99999]","[-106,-106]",up,1,,,,,,001,2025-03-10_17h18.50.548,SL_base_41,2021.2.3,Win32,60.24096386,1.42,,,51,0,51,0,1,,,,,,,,
,,"[""diamond"",""no_dis"",""vert"",""up"",[99999,99999],[0,-150]]",diamond,no_dis,vert,up,"[99999,99999]","[0,-150]",up,1,,,,,,001,2025-03-10_17h18.50.548,SL_base_41,2021.2.3,Win32,60.24096386,1.8413,,,52,0,52,0,1,,,,,,,,
,,"[""circle"",""red"",""vert"",""up"",[-106,106],[-106,-106]]",circle,red,vert,up,"[-106,106]","[-106,-106]",up,1,,,,,,001,2025-03-10_17h18.50.548,SL_base_41,2021.2.3,Win32,60.24096386,1.3173,,,53,0,53,0,1,,,,,,,,
,,"[""diamond"",""no_dis"",""hori"",""left"",[99999,99999],[0,150]]",diamond,no_dis,hori,left,"[99999,99999]","[0,150]",left,1,,,,,,001,2025-03-10_17h18.50.548,SL_base_41,2021.2.3,Win32,60.24096386,1.4437,,,54,0,54,0,1,,,,,,,,
,,"[""diamond"",""red"",""hori"",""left"",[-150,0],[-106,-106]]",diamond,red,hori,left,"[-150,0]","[-106,-106]",left,1,,,,,,001,2025-03-10_17h18.50.548,SL_base_41,2021.2.3,Win32,60.24096386,1.4667,,,55,0,55,0,1,,,,,,,,
,,"[""circle"",""green"",""hori"",""left"",[106,106],[106,-106]]",circle,green,hori,left,"[106,106]","[106,-106]",left,1,,,,,,001,2025-03-10_17h18.50.548,SL_base_41,2021.2.3,Win32,60.24096386,1.2039,,,56,0,56,0,1,,,,,,,,
,,"[""circle"",""no_dis"",""hori"",""left"",[99999,99999],[106,-106]]",circle,no_dis,hori,left,"[99999,99999]","[106,-106]",left,1,,,,,,001,2025-03-10_17h18.50.548,SL_base_41,2021.2.3,Win32,60.24096386,1.5045,,,57,0,57,0,1,,,,,,,,
,,"[""diamond"",""red"",""vert"",""up"",[106,-106],[106,106]]",diamond,red,vert,up,"[106,-106]","[106,106]",up,1,,,,,,001,2025-03-10_17h18.50.548,SL_base_41,2021.2.3,Win32,60.24096386,1.6495,,,58,0,58,0,1,,,,,,,,
,,"[""diamond"",""green"",""vert"",""up"",[-106,-106],[106,-106]]",diamond,green,vert,up,"[-106,-106]","[106,-106]",up,1,,,,,,001,2025-03-10_17h18.50.548,SL_base_41,2021.2.3,Win32,60.24096386,1.4599,,,59,0,59,0,1,,,,,,,,
,,"[""diamond"",""green"",""vert"",""up"",[-106,106],[-106,-106]]",diamond,green,vert,up,"[-106,106]","[-106,-106]",up,1,,,,,,001,2025-03-10_17h18.50.548,SL_base_41,2021.2.3,Win32,60.24096386,1.9344,,,60,0,60,0,1,,,,,,,,
,,"[""circle"",""no_dis"",""hori"",""left"",[99999,99999],[150,0]]",circle,no_dis,hori,left,"[99999,99999]","[150,0]",left,1,,,,,,001,2025-03-10_17h18.50.548,SL_base_41,2021.2.3,Win32,60.24096386,1.5752,,,61,0,61,0,1,,,,,,,,
,,"[""circle"",""red"",""hori"",""left"",[106,106],[150,0]]",circle,red,hori,left,"[106,106]","[150,0]",left,1,,,,,,001,2025-03-10_17h18.50.548,SL_base_41,2021.2.3,Win32,60.24096386,1.6838,,,62,0,62,0,1,,,,,,,,
,,"[""diamond"",""green"",""hori"",""left"",[106,106],[-106,-106]]",diamond,green,hori,left,"[106,106]","[-106,-106]",left,1,,,,,,001,2025-03-10_17h18.50.548,SL_base_41,2021.2.3,Win32,60.24096386,1.217,,,63,0,63,0,1,,,,,,,,
,,"[""circle"",""red"",""hori"",""left"",[-150,0],[-106,106]]",circle,red,hori,left,"[-150,0]","[-106,106]",left,1,,,,,,001,2025-03-10_17h18.50.548,SL_base_41,2021.2.3,Win32,60.24096386,2.2836,,,64,0,64,0,1,,,,,,,,
,,"[""circle"",""no_dis"",""vert"",""up"",[99999,99999],[-106,106]]",circle,no_dis,vert,up,"[99999,99999]","[-106,106]",up,1,,,,,,001,2025-03-10_17h18.50.548,SL_base_41,2021.2.3,Win32,60.24096386,1.5669,,,65,0,65,0,1,,,,,,,,
,,"[""circle"",""no_dis"",""vert"",""up"",[99999,99999],[-106,106]]",circle,no_dis,vert,up,"[99999,99999]","[-106,106]",up,1,,,,,,001,2025-03-10_17h18.50.548,SL_base_41,2021.2.3,Win32,60.24096386,1.2364,,,66,0,66,0,1,,,,,,,,
,,"[""circle"",""no_dis"",""vert"",""up"",[99999,99999],[-150,0]]",circle,no_dis,vert,up,"[99999,99999]","[-150,0]",left,0,,,,,,001,2025-03-10_17h18.50.548,SL_base_41,2021.2.3,Win32,60.24096386,1.1498,,,67,0,67,0,1,,,,,,,,
,,"[""diamond"",""green"",""vert"",""up"",[150,0],[-150,0]]",diamond,green,vert,up,"[150,0]","[-150,0]",up,1,,,,,,001,2025-03-10_17h18.50.548,SL_base_41,2021.2.3,Win32,60.24096386,0.9831,,,68,0,68,0,1,,,,,,,,
,,"[""circle"",""red"",""vert"",""up"",[106,106],[-150,0]]",circle,red,vert,up,"[106,106]","[-150,0]",up,1,,,,,,001,2025-03-10_17h18.50.548,SL_base_41,2021.2.3,Win32,60.24096386,1.221,,,69,0,69,0,1,,,,,,,,
,,"[""circle"",""green"",""vert"",""up"",[150,0],[0,-150]]",circle,green,vert,up,"[150,0]","[0,-150]",up,1,,,,,,001,2025-03-10_17h18.50.548,SL_base_41,2021.2.3,Win32,60.24096386,1.7677,,,70,0,70,0,1,,,,,,,,
,,"[""circle"",""no_dis"",""vert"",""up"",[99999,99999],[0,150]]",circle,no_dis,vert,up,"[99999,99999]","[0,150]",up,1,,,,,,001,2025-03-10_17h18.50.548,SL_base_41,2021.2.3,Win32,60.24096386,1.4714,,,71,0,71,0,1,,,,,,,,
,,"[""diamond"",""red"",""vert"",""up"",[-150,0],[0,150]]",diamond,red,vert,up,"[-150,0]","[0,150]",up,1,,,,,,001,2025-03-10_17h18.50.548,SL_base_41,2021.2.3,Win32,60.24096386,2.0672,,,72,0,72,0,1,,,,,,,,
,,"[""circle"",""no_dis"",""vert"",""up"",[99999,99999],[106,106]]",circle,no_dis,vert,up,"[99999,99999]","[106,106]",up,1,,,,,,001,2025-03-10_17h18.50.548,SL_base_41,2021.2.3,Win32,60.24096386,1.1618,,,73,0,73,0,1,,,,,,,,
,,"[""diamond"",""green"",""vert"",""up"",[106,106],[0,-150]]",diamond,green,vert,up,"[106,106]","[0,-150]",up,1,,,,,,001,2025-03-10_17h18.50.548,SL_base_41,2021.2.3,Win32,60.24096386,1.6996,,,74,0,74,0,1,,,,,,,,
,,"[""diamond"",""no_dis"",""hori"",""left"",[99999,99999],[0,-150]]",diamond,no_dis,hori,left,"[99999,99999]","[0,-150]",left,1,,,,,,001,2025-03-10_17h18.50.548,SL_base_41,2021.2.3,Win32,60.24096386,2.3675,,,75,0,75,0,1,,,,,,,,
,,"[""diamond"",""green"",""vert"",""up"",[-106,-106],[106,106]]",diamond,green,vert,up,"[-106,-106]","[106,106]",up,1,,,,,,001,2025-03-10_17h18.50.548,SL_base_41,2021.2.3,Win32,60.24096386,1.8516,,,76,0,76,0,1,,,,,,,,
,,"[""diamond"",""green"",""vert"",""up"",[-106,106],[106,-106]]",diamond,green,vert,up,"[-106,106]","[106,-106]",up,1,,,,,,001,2025-03-10_17h18.50.548,SL_base_41,2021.2.3,Win32,60.24096386,2.0667,,,77,0,77,0,1,,,,,,,,
,,"[""circle"",""red"",""vert"",""up"",[106,-106],[150,0]]",circle,red,vert,up,"[106,-106]","[150,0]",up,1,,,,,,001,2025-03-10_17h18.50.548,SL_base_41,2021.2.3,Win32,60.24096386,1.7428,,,78,0,78,0,1,,,,,,,,
,,"[""circle"",""no_dis"",""hori"",""left"",[99999,99999],[106,106]]",circle,no_dis,hori,left,"[99999,99999]","[106,106]",left,1,,,,,,001,2025-03-10_17h18.50.548,SL_base_41,2021.2.3,Win32,60.24096386,1.5402,,,79,0,79,0,1,,,,,,,,
,,"[""circle"",""green"",""hori"",""left"",[106,106],[-150,0]]",circle,green,hori,left,"[106,106]","[-150,0]",left,1,,,,,,001,2025-03-10_17h18.50.548,SL_base_41,2021.2.3,Win32,60.24096386,1.1394,,,80,0,80,0,1,,,,,,,,
,,"[""circle"",""green"",""vert"",""up"",[-150,0],[-106,106]]",circle,green,vert,up,"[-150,0]","[-106,106]",up,1,,,,,,001,2025-03-10_17h18.50.548,SL_base_41,2021.2.3,Win32,60.24096386,2.052,,,81,0,81,0,1,,,,,,,,
,,"[""circle"",""green"",""hori"",""left"",[-106,106],[106,106]]",circle,green,hori,left,"[-106,106]","[106,106]",,0,,,,,,001,2025-03-10_17h18.50.548,SL_base_41,2021.2.3,Win32,60.24096386,,,,82,0,82,0,1,,,,,,,,
,,"[""circle"",""green"",""hori"",""left"",[0,-150],[150,0]]",circle,green,hori,left,"[0,-150]","[150,0]",left,1,,,,,,001,2025-03-10_17h18.50.548,SL_base_41,2021.2.3,Win32,60.24096386,1.7568,,,83,0,83,0,1,,,,,,,,
,,"[""diamond"",""green"",""hori"",""left"",[0,-150],[-150,0]]",diamond,green,hori,left,"[0,-150]","[-150,0]",left,1,,,,,,001,2025-03-10_17h18.50.548,SL_base_41,2021.2.3,Win32,60.24096386,2.05,,,84,0,84,0,1,,,,,,,,
,,"[""circle"",""no_dis"",""hori"",""left"",[99999,99999],[106,106]]",circle,no_dis,hori,left,"[99999,99999]","[106,106]",left,1,,,,,,001,2025-03-10_17h18.50.548,SL_base_41,2021.2.3,Win32,60.24096386,1.8851,,,85,0,85,0,1,,,,,,,,
,,"[""circle"",""red"",""vert"",""up"",[106,106],[-150,0]]",circle,red,vert,up,"[106,106]","[-150,0]",up,1,,,,,,001,2025-03-10_17h18.50.548,SL_base_41,2021.2.3,Win32,60.24096386,2.0995,,,86,0,86,0,1,,,,,,,,
,,"[""diamond"",""green"",""hori"",""left"",[106,106],[-106,-106]]",diamond,green,hori,left,"[106,106]","[-106,-106]",left,1,,,,,,001,2025-03-10_17h18.50.548,SL_base_41,2021.2.3,Win32,60.24096386,2.4845,,,87,0,87,0,1,,,,,,,,
,,"[""circle"",""red"",""vert"",""up"",[106,106],[106,-106]]",circle,red,vert,up,"[106,106]","[106,-106]",,0,,,,,,001,2025-03-10_17h18.50.548,SL_base_41,2021.2.3,Win32,60.24096386,,,,88,0,88,0,1,,,,,,,,
,,"[""diamond"",""no_dis"",""hori"",""left"",[99999,99999],[0,150]]",diamond,no_dis,hori,left,"[99999,99999]","[0,150]",left,1,,,,,,001,2025-03-10_17h18.50.548,SL_base_41,2021.2.3,Win32,60.24096386,2.7557,,,89,0,89,0,1,,,,,,,,
,,"[""diamond"",""no_dis"",""hori"",""left"",[99999,99999],[-106,106]]",diamond,no_dis,hori,left,"[99999,99999]","[-106,106]",left,1,,,,,,001,2025-03-10_17h18.50.548,SL_base_41,2021.2.3,Win32,60.24096386,1.9553,,,90,0,90,0,1,,,,,,,,
,,"[""circle"",""no_dis"",""hori"",""left"",[99999,99999],[150,0]]",circle,no_dis,hori,left,"[99999,99999]","[150,0]",up,0,,,,,,001,2025-03-10_17h18.50.548,SL_base_41,2021.2.3,Win32,60.24096386,1.8894,,,91,0,91,0,1,,,,,,,,
,,"[""diamond"",""red"",""hori"",""left"",[-150,0],[106,-106]]",diamond,red,hori,left,"[-150,0]","[106,-106]",left,1,,,,,,001,2025-03-10_17h18.50.548,SL_base_41,2021.2.3,Win32,60.24096386,1.7465,,,92,0,92,0,1,,,,,,,,
,,"[""circle"",""green"",""hori"",""left"",[106,106],[-106,106]]",circle,green,hori,left,"[106,106]","[-106,106]",up,0,,,,,,001,2025-03-10_17h18.50.548,SL_base_41,2021.2.3,Win32,60.24096386,1.1399,,,93,0,93,0,1,,,,,,,,
,,"[""diamond"",""no_dis"",""vert"",""up"",[99999,99999],[150,0]]",diamond,no_dis,vert,up,"[99999,99999]","[150,0]",up,1,,,,,,001,2025-03-10_17h18.50.548,SL_base_41,2021.2.3,Win32,60.24096386,1.9508,,,94,0,94,0,1,,,,,,,,
,,"[""diamond"",""green"",""hori"",""left"",[106,106],[0,-150]]",diamond,green,hori,left,"[106,106]","[0,-150]",left,1,,,,,,001,2025-03-10_17h18.50.548,SL_base_41,2021.2.3,Win32,60.24096386,1.551,,,95,0,95,0,1,,,,,,,,
,,"[""circle"",""green"",""vert"",""up"",[106,106],[-150,0]]",circle,green,vert,up,"[106,106]","[-150,0]",up,1,,,,,,001,2025-03-10_17h18.50.548,SL_base_41,2021.2.3,Win32,60.24096386,1.3983,,,96,0,96,0,1,,,,,,,,
,,"[""diamond"",""no_dis"",""vert"",""up"",[99999,99999],[0,150]]",diamond,no_dis,vert,up,"[99999,99999]","[0,150]",up,1,,,,,,001,2025-03-10_17h18.50.548,SL_base_41,2021.2.3,Win32,60.24096386,2.3505,,,97,0,97,0,1,,,,,,,,
,,"[""diamond"",""red"",""hori"",""left"",[-106,106],[150,0]]",diamond,red,hori,left,"[-106,106]","[150,0]",left,1,,,,,,001,2025-03-10_17h18.50.548,SL_base_41,2021.2.3,Win32,60.24096386,1.1952,,,98,0,98,0,1,,,,,,,,
,,"[""diamond"",""red"",""vert"",""up"",[0,150],[106,106]]",diamond,red,vert,up,"[0,150]","[106,106]",left,0,,,,,,001,2025-03-10_17h18.50.548,SL_base_41,2021.2.3,Win32,60.24096386,2.8879,,,99,0,99,0,1,,,,,,,,
,,"[""circle"",""no_dis"",""vert"",""up"",[99999,99999],[106,-106]]",circle,no_dis,vert,up,"[99999,99999]","[106,-106]",up,1,,,,,,001,2025-03-10_17h18.50.548,SL_base_41,2021.2.3,Win32,60.24096386,1.256,,,100,0,100,0,1,,,,,,,,
,,"[""circle"",""green"",""hori"",""left"",[150,0],[-106,106]]",circle,green,hori,left,"[150,0]","[-106,106]",left,1,,,,,,001,2025-03-10_17h18.50.548,SL_base_41,2021.2.3,Win32,60.24096386,0.9663,,,101,0,101,0,1,,,,,,,,
,,"[""diamond"",""green"",""hori"",""left"",[106,106],[0,150]]",diamond,green,hori,left,"[106,106]","[0,150]",left,1,,,,,,001,2025-03-10_17h18.50.548,SL_base_41,2021.2.3,Win32,60.24096386,1.6851,,,102,0,102,0,1,,,,,,,,
,,"[""circle"",""no_dis"",""hori"",""left"",[99999,99999],[0,-150]]",circle,no_dis,hori,left,"[99999,99999]","[0,-150]",left,1,,,,,,001,2025-03-10_17h18.50.548,SL_base_41,2021.2.3,Win32,60.24096386,1.2741,,,103,0,103,0,1,,,,,,,,
,,"[""diamond"",""no_dis"",""hori"",""left"",[99999,99999],[0,-150]]",diamond,no_dis,hori,left,"[99999,99999]","[0,-150]",left,1,,,,,,001,2025-03-10_17h18.50.548,SL_base_41,2021.2.3,Win32,60.24096386,1.2461,,,104,0,104,0,1,,,,,,,,
,,"[""diamond"",""no_dis"",""vert"",""up"",[99999,99999],[-150,0]]",diamond,no_dis,vert,up,"[99999,99999]","[-150,0]",up,1,,,,,,001,2025-03-10_17h18.50.548,SL_base_41,2021.2.3,Win32,60.24096386,0.8835,,,105,0,105,0,1,,,,,,,,
,,"[""diamond"",""green"",""vert"",""up"",[0,-150],[0,150]]",diamond,green,vert,up,"[0,-150]","[0,150]",up,1,,,,,,001,2025-03-10_17h18.50.548,SL_base_41,2021.2.3,Win32,60.24096386,2.6221,,,106,0,106,0,1,,,,,,,,
,,"[""circle"",""green"",""hori"",""left"",[-106,106],[106,106]]",circle,green,hori,left,"[-106,106]","[106,106]",left,1,,,,,,001,2025-03-10_17h18.50.548,SL_base_41,2021.2.3,Win32,60.24096386,1.5058,,,107,0,107,0,1,,,,,,,,
,,"[""circle"",""red"",""hori"",""left"",[106,106],[-106,-106]]",circle,red,hori,left,"[106,106]","[-106,-106]",left,1,,,,,,001,2025-03-10_17h18.50.548,SL_base_41,2021.2.3,Win32,60.24096386,1.0588,,,108,0,108,0,1,,,,,,,,
,,"[""diamond"",""no_dis"",""hori"",""left"",[99999,99999],[106,-106]]",diamond,no_dis,hori,left,"[99999,99999]","[106,-106]",left,1,,,,,,001,2025-03-10_17h18.50.548,SL_base_41,2021.2.3,Win32,60.24096386,2.731,,,109,0,109,0,1,,,,,,,,
,,"[""diamond"",""red"",""vert"",""up"",[106,106],[-150,0]]",diamond,red,vert,up,"[106,106]","[-150,0]",up,1,,,,,,001,2025-03-10_17h18.50.548,SL_base_41,2021.2.3,Win32,60.24096386,1.0359,,,110,0,110,0,1,,,,,,,,
,,"[""diamond"",""red"",""vert"",""up"",[106,106],[-150,0]]",diamond,red,vert,up,"[106,106]","[-150,0]",up,1,,,,,,001,2025-03-10_17h18.50.548,SL_base_41,2021.2.3,Win32,60.24096386,1.6387,,,111,0,111,0,1,,,,,,,,
,,"[""diamond"",""no_dis"",""vert"",""up"",[99999,99999],[106,-106]]",diamond,no_dis,vert,up,"[99999,99999]","[106,-106]",up,1,,,,,,001,2025-03-10_17h18.50.548,SL_base_41,2021.2.3,Win32,60.24096386,1.4888,,,112,0,112,0,1,,,,,,,,
,,"[""circle"",""no_dis"",""vert"",""up"",[99999,99999],[106,106]]",circle,no_dis,vert,up,"[99999,99999]","[106,106]",up,1,,,,,,001,2025-03-10_17h18.50.548,SL_base_41,2021.2.3,Win32,60.24096386,1.7565,,,113,0,113,0,1,,,,,,,,
,,"[""circle"",""green"",""vert"",""up"",[0,150],[150,0]]",circle,green,vert,up,"[0,150]","[150,0]",up,1,,,,,,001,2025-03-10_17h18.50.548,SL_base_41,2021.2.3,Win32,60.24096386,1.3005,,,114,0,114,0,1,,,,,,,,
,,"[""diamond"",""no_dis"",""vert"",""up"",[99999,99999],[150,0]]",diamond,no_dis,vert,up,"[99999,99999]","[150,0]",up,1,,,,,,001,2025-03-10_17h18.50.548,SL_base_41,2021.2.3,Win32,60.24096386,1.1684,,,115,0,115,0,1,,,,,,,,
,,"[""circle"",""red"",""hori"",""left"",[0,-150],[106,106]]",circle,red,hori,left,"[0,-150]","[106,106]",left,1,,,,,,001,2025-03-10_17h18.50.548,SL_base_41,2021.2.3,Win32,60.24096386,1.3969,,,116,0,116,0,1,,,,,,,,
,,"[""diamond"",""red"",""hori"",""left"",[-150,0],[106,-106]]",diamond,red,hori,left,"[-150,0]","[106,-106]",up,0,,,,,,001,2025-03-10_17h18.50.548,SL_base_41,2021.2.3,Win32,60.24096386,1.0641,,,117,0,117,0,1,,,,,,,,
,,"[""diamond"",""green"",""vert"",""up"",[150,0],[0,-150]]",diamond,green,vert,up,"[150,0]","[0,-150]",up,1,,,,,,001,2025-03-10_17h18.50.548,SL_base_41,2021.2.3,Win32,60.24096386,1.6187,,,118,0,118,0,1,,,,,,,,
,,"[""circle"",""red"",""vert"",""up"",[106,106],[-106,-106]]",circle,red,vert,up,"[106,106]","[-106,-106]",up,1,,,,,,001,2025-03-10_17h18.50.548,SL_base_41,2021.2.3,Win32,60.24096386,1.7494,,,119,0,119,0,1,,,,,,,,
,,"[""circle"",""no_dis"",""vert"",""up"",[99999,99999],[106,-106]]",circle,no_dis,vert,up,"[99999,99999]","[106,-106]",up,1,,,,,,001,2025-03-10_17h18.50.548,SL_base_41,2021.2.3,Win32,60.24096386,1.162,,,120,0,120,0,1,,,,,,,,
,,"[""circle"",""green"",""vert"",""up"",[-106,-106],[150,0]]",circle,green,vert,up,"[-106,-106]","[150,0]",up,1,,,,,,001,2025-03-10_17h18.50.548,SL_base_41,2021.2.3,Win32,60.24096386,1.7305,,,121,0,121,0,1,,,,,,,,
,,"[""diamond"",""green"",""vert"",""up"",[106,106],[106,-106]]",diamond,green,vert,up,"[106,106]","[106,-106]",up,1,,,,,,001,2025-03-10_17h18.50.548,SL_base_41,2021.2.3,Win32,60.24096386,1.453,,,122,0,122,0,1,,,,,,,,
,,"[""diamond"",""red"",""hori"",""left"",[-106,106],[0,150]]",diamond,red,hori,left,"[-106,106]","[0,150]",left,1,,,,,,001,2025-03-10_17h18.50.548,SL_base_41,2021.2.3,Win32,60.24096386,1.4732,,,123,0,123,0,1,,,,,,,,
,,"[""circle"",""red"",""hori"",""left"",[0,-150],[-106,-106]]",circle,red,hori,left,"[0,-150]","[-106,-106]",up,0,,,,,,001,2025-03-10_17h18.50.548,SL_base_41,2021.2.3,Win32,60.24096386,1.3347,,,124,0,124,0,1,,,,,,,,
,,"[""circle"",""green"",""hori"",""left"",[0,-150],[106,106]]",circle,green,hori,left,"[0,-150]","[106,106]",left,1,,,,,,001,2025-03-10_17h18.50.548,SL_base_41,2021.2.3,Win32,60.24096386,1.673,,,125,0,125,0,1,,,,,,,,
,,"[""circle"",""green"",""vert"",""up"",[0,150],[150,0]]",circle,green,vert,up,"[0,150]","[150,0]",up,1,,,,,,001,2025-03-10_17h18.50.548,SL_base_41,2021.2.3,Win32,60.24096386,1.3034,,,126,0,126,0,1,,,,,,,,
,,"[""circle"",""green"",""hori"",""left"",[-106,-106],[0,-150]]",circle,green,hori,left,"[-106,-106]","[0,-150]",up,0,,,,,,001,2025-03-10_17h18.50.548,SL_base_41,2021.2.3,Win32,60.24096386,2.0178,,,127,0,127,0,1,,,,,,,,
,,,,,,,,,,,,,,,,001,2025-03-10_17h18.50.548,SL_base_41,2021.2.3,Win32,60.24096386,,,,,,,,,2,space,26.8469,1,0,1,0,1
,,"[""circle"",""no_dis"",""vert"",""up"",[99999,99999],[106,106]]",circle,no_dis,vert,up,"[99999,99999]","[106,106]",up,1,,,,,,001,2025-03-10_17h18.50.548,SL_base_41,2021.2.3,Win32,60.24096386,1.9434,,,0,0,0,0,1,,,,,,,,
,,"[""diamond"",""green"",""hori"",""left"",[106,-106],[-106,-106]]",diamond,green,hori,left,"[106,-106]","[-106,-106]",left,1,,,,,,001,2025-03-10_17h18.50.548,SL_base_41,2021.2.3,Win32,60.24096386,1.7845,,,1,0,1,0,1,,,,,,,,
,,"[""circle"",""no_dis"",""vert"",""up"",[99999,99999],[-150,0]]",circle,no_dis,vert,up,"[99999,99999]","[-150,0]",up,1,,,,,,001,2025-03-10_17h18.50.548,SL_base_41,2021.2.3,Win32,60.24096386,1.1173,,,2,0,2,0,1,,,,,,,,
,,"[""diamond"",""no_dis"",""vert"",""up"",[99999,99999],[-106,-106]]",diamond,no_dis,vert,up,"[99999,99999]","[-106,-106]",up,1,,,,,,001,2025-03-10_17h18.50.548,SL_base_41,2021.2.3,Win32,60.24096386,1.1846,,,3,0,3,0,1,,,,,,,,
,,"[""diamond"",""no_dis"",""vert"",""up"",[99999,99999],[0,150]]",diamond,no_dis,vert,up,"[99999,99999]","[0,150]",up,1,,,,,,001,2025-03-10_17h18.50.548,SL_base_41,2021.2.3,Win32,60.24096386,1.5843,,,4,0,4,0,1,,,,,,,,
,,"[""circle"",""green"",""vert"",""up"",[106,-106],[-150,0]]",circle,green,vert,up,"[106,-106]","[-150,0]",up,1,,,,,,001,2025-03-10_17h18.50.548,SL_base_41,2021.2.3,Win32,60.24096386,0.8455,,,5,0,5,0,1,,,,,,,,
,,"[""diamond"",""green"",""vert"",""up"",[150,0],[-150,0]]",diamond,green,vert,up,"[150,0]","[-150,0]",up,1,,,,,,001,2025-03-10_17h18.50.548,SL_base_41,2021.2.3,Win32,60.24096386,0.792,,,6,0,6,0,1,,,,,,,,
,,"[""diamond"",""red"",""vert"",""up"",[106,-106],[-106,-106]]",diamond,red,vert,up,"[106,-106]","[-106,-106]",up,1,,,,,,001,2025-03-10_17h18.50.548,SL_base_41,2021.2.3,Win32,60.24096386,1.0058,,,7,0,7,0,1,,,,,,,,
,,"[""circle"",""green"",""vert"",""up"",[106,106],[-106,-106]]",circle,green,vert,up,"[106,106]","[-106,-106]",up,1,,,,,,001,2025-03-10_17h18.50.548,SL_base_41,2021.2.3,Win32,60.24096386,0.9923,,,8,0,8,0,1,,,,,,,,
,,"[""circle"",""no_dis"",""hori"",""left"",[99999,99999],[-150,0]]",circle,no_dis,hori,left,"[99999,99999]","[-150,0]",left,1,,,,,,001,2025-03-10_17h18.50.548,SL_base_41,2021.2.3,Win32,60.24096386,1.1355,,,9,0,9,0,1,,,,,,,,
,,"[""diamond"",""no_dis"",""vert"",""up"",[99999,99999],[0,-150]]",diamond,no_dis,vert,up,"[99999,99999]","[0,-150]",up,1,,,,,,001,2025-03-10_17h18.50.548,SL_base_41,2021.2.3,Win32,60.24096386,2.4333,,,10,0,10,0,1,,,,,,,,
,,"[""circle"",""red"",""hori"",""left"",[-106,106],[0,-150]]",circle,red,hori,left,"[-106,106]","[0,-150]",left,1,,,,,,001,2025-03-10_17h18.50.548,SL_base_41,2021.2.3,Win32,60.24096386,1.3169,,,11,0,11,0,1,,,,,,,,
,,"[""diamond"",""red"",""vert"",""up"",[-150,0],[106,-106]]",diamond,red,vert,up,"[-150,0]","[106,-106]",up,1,,,,,,001,2025-03-10_17h18.50.548,SL_base_41,2021.2.3,Win32,60.24096386,1.4901,,,12,0,12,0,1,,,,,,,,
,,"[""circle"",""red"",""vert"",""up"",[106,106],[0,-150]]",circle,red,vert,up,"[106,106]","[0,-150]",up,1,,,,,,001,2025-03-10_17h18.50.548,SL_base_41,2021.2.3,Win32,60.24096386,1.067,,,13,0,13,0,1,,,,,,,,
,,"[""circle"",""red"",""hori"",""left"",[106,106],[150,0]]",circle,red,hori,left,"[106,106]","[150,0]",up,0,,,,,,001,2025-03-10_17h18.50.548,SL_base_41,2021.2.3,Win32,60.24096386,2.1265,,,14,0,14,0,1,,,,,,,,
,,"[""diamond"",""no_dis"",""vert"",""up"",[99999,99999],[-150,0]]",diamond,no_dis,vert,up,"[99999,99999]","[-150,0]",up,1,,,,,,001,2025-03-10_17h18.50.548,SL_base_41,2021.2.3,Win32,60.24096386,1.4668,,,15,0,15,0,1,,,,,,,,
,,"[""circle"",""green"",""vert"",""up"",[0,150],[106,106]]",circle,green,vert,up,"[0,150]","[106,106]",up,1,,,,,,001,2025-03-10_17h18.50.548,SL_base_41,2021.2.3,Win32,60.24096386,1.4671,,,16,0,16,0,1,,,,,,,,
,,"[""circle"",""no_dis"",""hori"",""left"",[99999,99999],[-150,0]]",circle,no_dis,hori,left,"[99999,99999]","[-150,0]",left,1,,,,,,001,2025-03-10_17h18.50.548,SL_base_41,2021.2.3,Win32,60.24096386,1.0377,,,17,0,17,0,1,,,,,,,,
,,"[""diamond"",""green"",""vert"",""up"",[106,106],[0,-150]]",diamond,green,vert,up,"[106,106]","[0,-150]",up,1,,,,,,001,2025-03-10_17h18.50.548,SL_base_41,2021.2.3,Win32,60.24096386,1.2504,,,18,0,18,0,1,,,,,,,,
,,"[""diamond"",""green"",""hori"",""left"",[0,-150],[-150,0]]",diamond,green,hori,left,"[0,-150]","[-150,0]",left,1,,,,,,001,2025-03-10_17h18.50.548,SL_base_41,2021.2.3,Win32,60.24096386,1.5246,,,19,0,19,0,1,,,,,,,,
,,"[""circle"",""green"",""vert"",""up"",[0,150],[150,0]]",circle,green,vert,up,"[0,150]","[150,0]",up,1,,,,,,001,2025-03-10_17h18.50.548,SL_base_41,2021.2.3,Win32,60.24096386,2.8629,,,20,0,20,0,1,,,,,,,,
,,"[""diamond"",""green"",""vert"",""up"",[0,-150],[0,150]]",diamond,green,vert,up,"[0,-150]","[0,150]",up,1,,,,,,001,2025-03-10_17h18.50.548,SL_base_41,2021.2.3,Win32,60.24096386,1.8696,,,21,0,21,0,1,,,,,,,,
,,"[""circle"",""green"",""vert"",""up"",[106,106],[0,-150]]",circle,green,vert,up,"[106,106]","[0,-150]",up,1,,,,,,001,2025-03-10_17h18.50.548,SL_base_41,2021.2.3,Win32,60.24096386,1.1331,,,22,0,22,0,1,,,,,,,,
,,"[""diamond"",""red"",""hori"",""left"",[0,-150],[150,0]]",diamond,red,hori,left,"[0,-150]","[150,0]",left,1,,,,,,001,2025-03-10_17h18.50.548,SL_base_41,2021.2.3,Win32,60.24096386,1.6832,,,23,0,23,0,1,,,,,,,,
,,"[""diamond"",""red"",""hori"",""left"",[-106,106],[0,150]]",diamond,red,hori,left,"[-106,106]","[0,150]",left,1,,,,,,001,2025-03-10_17h18.50.548,SL_base_41,2021.2.3,Win32,60.24096386,1.089,,,24,0,24,0,1,,,,,,,,
,,"[""diamond"",""red"",""hori"",""left"",[106,106],[-106,-106]]",diamond,red,hori,left,"[106,106]","[-106,-106]",left,1,,,,,,001,2025-03-10_17h18.50.548,SL_base_41,2021.2.3,Win32,60.24096386,1.2946,,,25,0,25,0,1,,,,,,,,
,,"[""circle"",""red"",""vert"",""up"",[106,106],[-106,-106]]",circle,red,vert,up,"[106,106]","[-106,-106]",up,1,,,,,,001,2025-03-10_17h18.50.548,SL_base_41,2021.2.3,Win32,60.24096386,1.013,,,26,0,26,0,1,,,,,,,,
,,"[""diamond"",""green"",""hori"",""left"",[106,106],[-106,-106]]",diamond,green,hori,left,"[106,106]","[-106,-106]",left,1,,,,,,001,2025-03-10_17h18.50.548,SL_base_41,2021.2.3,Win32,60.24096386,1.3661,,,27,0,27,0,1,,,,,,,,
,,"[""circle"",""green"",""vert"",""up"",[0,150],[150,0]]",circle,green,vert,up,"[0,150]","[150,0]",left,0,,,,,,001,2025-03-10_17h18.50.548,SL_base_41,2021.2.3,Win32,60.24096386,0.9567,,,28,0,28,0,1,,,,,,,,
,,"[""circle"",""no_dis"",""vert"",""up"",[99999,99999],[106,-106]]",circle,no_dis,vert,up,"[99999,99999]","[106,-106]",up,1,,,,,,001,2025-03-10_17h18.50.548,SL_base_41,2021.2.3,Win32,60.24096386,1.3003,,,29,0,29,0,1,,,,,,,,
,,"[""circle"",""no_dis"",""vert"",""up"",[99999,99999],[-106,106]]",circle,no_dis,vert,up,"[99999,99999]","[-106,106]",up,1,,,,,,001,2025-03-10_17h18.50.548,SL_base_41,2021.2.3,Win32,60.24096386,1.04,,,30,0,30,0,1,,,,,,,,
,,"[""diamond"",""green"",""vert"",""up"",[-106,106],[-106,-106]]",diamond,green,vert,up,"[-106,106]","[-106,-106]",,0,,,,,,001,2025-03-10_17h18.50.548,SL_base_41,2021.2.3,Win32,60.24096386,,,,31,0,31,0,1,,,,,,,,
,,"[""circle"",""green"",""vert"",""up"",[-150,0],[-106,106]]",circle,green,vert,up,"[-150,0]","[-106,106]",,0,,,,,,001,2025-03-10_17h18.50.548,SL_base_41,2021.2.3,Win32,60.24096386,,,,32,0,32,0,1,,,,,,,,
,,"[""circle"",""no_dis"",""vert"",""up"",[99999,99999],[0,150]]",circle,no_dis,vert,up,"[99999,99999]","[0,150]",up,1,,,,,,001,2025-03-10_17h18.50.548,SL_base_41,2021.2.3,Win32,60.24096386,2.0816,,,33,0,33,0,1,,,,,,,,
,,"[""circle"",""no_dis"",""vert"",""up"",[99999,99999],[106,-106]]",circle,no_dis,vert,up,"[99999,99999]","[106,-106]",up,1,,,,,,001,2025-03-10_17h18.50.548,SL_base_41,2021.2.3,Win32,60.24096386,1.2683,,,34,0,34,0,1,,,,,,,,
,,"[""diamond"",""green"",""hori"",""left"",[106,106],[0,150]]",diamond,green,hori,left,"[106,106]","[0,150]",up,0,,,,,,001,2025-03-10_17h18.50.548,SL_base_41,2021.2.3,Win32,60.24096386,1.8436,,,35,0,35,0,1,,,,,,,,
,,"[""circle"",""green"",""hori"",""left"",[150,0],[-106,106]]",circle,green,hori,left,"[150,0]","[-106,106]",up,0,,,,,,001,2025-03-10_17h18.50.548,SL_base_41,2021.2.3,Win32,60.24096386,1.5535,,,36,0,36,0,1,,,,,,,,
,,"[""circle"",""red"",""hori"",""left"",[0,-150],[106,106]]",circle,red,hori,left,"[0,-150]","[106,106]",left,1,,,,,,001,2025-03-10_17h18.50.548,SL_base_41,2021.2.3,Win32,60.24096386,1.6674,,,37,0,37,0,1,,,,,,,,
,,"[""circle"",""green"",""hori"",""left"",[-106,-106],[0,-150]]",circle,green,hori,left,"[-106,-106]","[0,-150]",left,1,,,,,,001,2025-03-10_17h18.50.548,SL_base_41,2021.2.3,Win32,60.24096386,1.2336,,,38,0,38,0,1,,,,,,,,
,,"[""diamond"",""green"",""vert"",""up"",[-106,-106],[106,106]]",diamond,green,vert,up,"[-106,-106]","[106,106]",up,1,,,,,,001,2025-03-10_17h18.50.548,SL_base_41,2021.2.3,Win32,60.24096386,2.2216,,,39,0,39,0,1,,,,,,,,
,,"[""circle"",""green"",""hori"",""left"",[0,-150],[106,106]]",circle,green,hori,left,"[0,-150]","[106,106]",left,1,,,,,,001,2025-03-10_17h18.50.548,SL_base_41,2021.2.3,Win32,60.24096386,1.848,,,40,0,40,0,1,,,,,,,,
,,"[""circle"",""green"",""hori"",""left"",[106,106],[106,-106]]",circle,green,hori,left,"[106,106]","[106,-106]",left,1,,,,,,001,2025-03-10_17h18.50.548,SL_base_41,2021.2.3,Win32,60.24096386,0.9827,,,41,0,41,0,1,,,,,,,,
,,"[""circle"",""red"",""hori"",""left"",[106,106],[150,0]]",circle,red,hori,left,"[106,106]","[150,0]",left,1,,,,,,001,2025-03-10_17h18.50.548,SL_base_41,2021.2.3,Win32,60.24096386,0.8102,,,42,0,42,0,1,,,,,,,,
,,"[""circle"",""no_dis"",""hori"",""left"",[99999,99999],[-106,-106]]",circle,no_dis,hori,left,"[99999,99999]","[-106,-106]",left,1,,,,,,001,2025-03-10_17h18.50.548,SL_base_41,2021.2.3,Win32,60.24096386,1.0175,,,43,0,43,0,1,,,,,,,,
,,"[""diamond"",""no_dis"",""hori"",""left"",[99999,99999],[0,-150]]",diamond,no_dis,hori,left,"[99999,99999]","[0,-150]",left,1,,,,,,001,2025-03-10_17h18.50.548,SL_base_41,2021.2.3,Win32,60.24096386,1.6832,,,44,0,44,0,1,,,,,,,,
,,"[""diamond"",""no_dis"",""hori"",""left"",[99999,99999],[0,-150]]",diamond,no_dis,hori,left,"[99999,99999]","[0,-150]",left,1,,,,,,001,2025-03-10_17h18.50.548,SL_base_41,2021.2.3,Win32,60.24096386,0.9175,,,45,0,45,0,1,,,,,,,,
,,"[""diamond"",""red"",""hori"",""left"",[-150,0],[106,-106]]",diamond,red,hori,left,"[-150,0]","[106,-106]",left,1,,,,,,001,2025-03-10_17h18.50.548,SL_base_41,2021.2.3,Win32,60.24096386,1.3497,,,46,0,46,0,1,,,,,,,,
,,"[""circle"",""no_dis"",""hori"",""left"",[99999,99999],[0,-150]]",circle,no_dis,hori,left,"[99999,99999]","[0,-150]",left,1,,,,,,001,2025-03-10_17h18.50.548,SL_base_41,2021.2.3,Win32,60.24096386,0.8374,,,47,0,47,0,1,,,,,,,,
,,"[""diamond"",""no_dis"",""hori"",""left"",[99999,99999],[106,-106]]",diamond,no_dis,hori,left,"[99999,99999]","[106,-106]",left,1,,,,,,001,2025-03-10_17h18.50.548,SL_base_41,2021.2.3,Win32,60.24096386,0.9213,,,48,0,48,0,1,,,,,,,,
,,"[""diamond"",""red"",""vert"",""up"",[-106,-106],[0,-150]]",diamond,red,vert,up,"[-106,-106]","[0,-150]",up,1,,,,,,001,2025-03-10_17h18.50.548,SL_base_41,2021.2.3,Win32,60.24096386,1.0509,,,49,0,49,0,1,,,,,,,,
,,"[""circle"",""no_dis"",""hori"",""left"",[99999,99999],[150,0]]",circle,no_dis,hori,left,"[99999,99999]","[150,0]",left,1,,,,,,001,2025-03-10_17h18.50.548,SL_base_41,2021.2.3,Win32,60.24096386,2.0234,,,50,0,50,0,1,,,,,,,,
,,"[""diamond"",""green"",""vert"",""up"",[106,106],[106,-106]]",diamond,green,vert,up,"[106,106]","[106,-106]",up,1,,,,,,001,2025-03-10_17h18.50.548,SL_base_41,2021.2.3,Win32,60.24096386,1.3104,,,51,0,51,0,1,,,,,,,,
,,"[""diamond"",""no_dis"",""vert"",""up"",[99999,99999],[0,150]]",diamond,no_dis,vert,up,"[99999,99999]","[0,150]",up,1,,,,,,001,2025-03-10_17h18.50.548,SL_base_41,2021.2.3,Win32,60.24096386,2.4659,,,52,0,52,0,1,,,,,,,,
,,"[""diamond"",""green"",""vert"",""up"",[150,0],[-150,0]]",diamond,green,vert,up,"[150,0]","[-150,0]",up,1,,,,,,001,2025-03-10_17h18.50.548,SL_base_41,2021.2.3,Win32,60.24096386,1.4805,,,53,0,53,0,1,,,,,,,,
,,"[""circle"",""red"",""hori"",""left"",[0,-150],[-106,-106]]",circle,red,hori,left,"[0,-150]","[-106,-106]",left,1,,,,,,001,2025-03-10_17h18.50.548,SL_base_41,2021.2.3,Win32,60.24096386,1.2004,,,54,0,54,0,1,,,,,,,,
,,"[""circle"",""no_dis"",""hori"",""left"",[99999,99999],[106,106]]",circle,no_dis,hori,left,"[99999,99999]","[106,106]",left,1,,,,,,001,2025-03-10_17h18.50.548,SL_base_41,2021.2.3,Win32,60.24096386,1.4852,,,55,0,55,0,1,,,,,,,,
,,"[""circle"",""red"",""hori"",""left"",[106,106],[-106,-106]]",circle,red,hori,left,"[106,106]","[-106,-106]",left,1,,,,,,001,2025-03-10_17h18.50.548,SL_base_41,2021.2.3,Win32,60.24096386,0.8297,,,56,0,56,0,1,,,,,,,,
,,"[""circle"",""no_dis"",""hori"",""left"",[99999,99999],[106,106]]",circle,no_dis,hori,left,"[99999,99999]","[106,106]",left,1,,,,,,001,2025-03-10_17h18.50.548,SL_base_41,2021.2.3,Win32,60.24096386,1.4496,,,57,0,57,0,1,,,,,,,,
,,"[""circle"",""red"",""hori"",""left"",[0,150],[106,-106]]",circle,red,hori,left,"[0,150]","[106,-106]",left,1,,,,,,001,2025-03-10_17h18.50.548,SL_base_41,2021.2.3,Win32,60.24096386,0.8302,,,58,0,58,0,1,,,,,,,,
,,"[""circle"",""red"",""hori"",""left"",[-150,0],[-106,106]]",circle,red,hori,left,"[-150,0]","[-106,106]",left,1,,,,,,001,2025-03-10_17h18.50.548,SL_base_41,2021.2.3,Win32,60.24096386,1.0503,,,59,0,59,0,1,,,,,,,,
,,"[""diamond"",""no_dis"",""hori"",""left"",[99999,99999],[-106,-106]]",diamond,no_dis,hori,left,"[99999,99999]","[-106,-106]",left,1,,,,,,001,2025-03-10_17h18.50.548,SL_base_41,2021.2.3,Win32,60.24096386,1.0429,,,60,0,60,0,1,,,,,,,,
,,"[""circle"",""red"",""vert"",""up"",[106,106],[106,-106]]",circle,red,vert,up,"[106,106]","[106,-106]",up,1,,,,,,001,2025-03-10_17h18.50.548,SL_base_41,2021.2.3,Win32,60.24096386,0.9077,,,61,0,61,0,1,,,,,,,,
,,"[""diamond"",""green"",""hori"",""left"",[150,0],[0,-150]]",diamond,green,hori,left,"[150,0]","[0,-150]",left,1,,,,,,001,2025-03-10_17h18.50.548,SL_base_41,2021.2.3,Win32,60.24096386,1.162,,,62,0,62,0,1,,,,,,,,
,,"[""circle"",""green"",""vert"",""up"",[106,106],[-106,106]]",circle,green,vert,up,"[106,106]","[-106,106]",up,1,,,,,,001,2025-03-10_17h18.50.548,SL_base_41,2021.2.3,Win32,60.24096386,1.2101,,,63,0,63,0,1,,,,,,,,
,,"[""diamond"",""no_dis"",""hori"",""left"",[99999,99999],[-106,106]]",diamond,no_dis,hori,left,"[99999,99999]","[-106,106]",left,1,,,,,,001,2025-03-10_17h18.50.548,SL_base_41,2021.2.3,Win32,60.24096386,1.334,,,64,0,64,0,1,,,,,,,,
,,"[""diamond"",""red"",""vert"",""up"",[106,-106],[0,150]]",diamond,red,vert,up,"[106,-106]","[0,150]",up,1,,,,,,001,2025-03-10_17h18.50.548,SL_base_41,2021.2.3,Win32,60.24096386,1.8667,,,65,0,65,0,1,,,,,,,,
,,"[""circle"",""green"",""hori"",""left"",[-106,106],[106,106]]",circle,green,hori,left,"[-106,106]","[106,106]",left,1,,,,,,001,2025-03-10_17h18.50.548,SL_base_41,2021.2.3,Win32,60.24096386,2.2051,,,66,0,66,0,1,,,,,,,,
,,"[""circle"",""red"",""vert"",""up"",[-106,-106],[0,150]]",circle,red,vert,up,"[-106,-106]","[0,150]",up,1,,,,,,001,2025-03-10_17h18.50.548,SL_base_41,2021.2.3,Win32,60.24096386,1.8721,,,67,0,67,0,1,,,,,,,,
,,"[""diamond"",""red"",""vert"",""up"",[106,106],[-150,0]]",diamond,red,vert,up,"[106,106]","[-150,0]",up,1,,,,,,001,2025-03-10_17h18.50.548,SL_base_41,2021.2.3,Win32,60.24096386,1.3668,,,68,0,68,0,1,,,,,,,,
,,"[""circle"",""no_dis"",""hori"",""left"",[99999,99999],[150,0]]",circle,no_dis,hori,left,"[99999,99999]","[150,0]",left,1,,,,,,001,2025-03-10_17h18.50.548,SL_base_41,2021.2.3,Win32,60.24096386,1.1145,,,69,0,69,0,1,,,,,,,,
,,"[""diamond"",""no_dis"",""vert"",""up"",[99999,99999],[150,0]]",diamond,no_dis,vert,up,"[99999,99999]","[150,0]",up,1,,,,,,001,2025-03-10_17h18.50.548,SL_base_41,2021.2.3,Win32,60.24096386,1.0921,,,70,0,70,0,1,,,,,,,,
,,"[""diamond"",""red"",""vert"",""up"",[0,150],[106,106]]",diamond,red,vert,up,"[0,150]","[106,106]",up,1,,,,,,001,2025-03-10_17h18.50.548,SL_base_41,2021.2.3,Win32,60.24096386,1.4279,,,71,0,71,0,1,,,,,,,,
,,"[""circle"",""red"",""vert"",""up"",[106,106],[-150,0]]",circle,red,vert,up,"[106,106]","[-150,0]",up,1,,,,,,001,2025-03-10_17h18.50.548,SL_base_41,2021.2.3,Win32,60.24096386,1.1542,,,72,0,72,0,1,,,,,,,,
,,"[""diamond"",""green"",""hori"",""left"",[106,106],[-106,-106]]",diamond,green,hori,left,"[106,106]","[-106,-106]",left,1,,,,,,001,2025-03-10_17h18.50.548,SL_base_41,2021.2.3,Win32,60.24096386,1.0678,,,73,0,73,0,1,,,,,,,,
,,"[""circle"",""green"",""vert"",""up"",[106,106],[-150,0]]",circle,green,vert,up,"[106,106]","[-150,0]",up,1,,,,,,001,2025-03-10_17h18.50.548,SL_base_41,2021.2.3,Win32,60.24096386,1.7299,,,74,0,74,0,1,,,,,,,,
,,"[""diamond"",""red"",""vert"",""up"",[106,106],[-150,0]]",diamond,red,vert,up,"[106,106]","[-150,0]",up,1,,,,,,001,2025-03-10_17h18.50.548,SL_base_41,2021.2.3,Win32,60.24096386,1.4331,,,75,0,75,0,1,,,,,,,,
,,"[""diamond"",""red"",""hori"",""left"",[0,-150],[106,106]]",diamond,red,hori,left,"[0,-150]","[106,106]",left,1,,,,,,001,2025-03-10_17h18.50.548,SL_base_41,2021.2.3,Win32,60.24096386,1.1631,,,76,0,76,0,1,,,,,,,,
,,"[""diamond"",""red"",""hori"",""left"",[106,-106],[-106,-106]]",diamond,red,hori,left,"[106,-106]","[-106,-106]",up,0,,,,,,001,2025-03-10_17h18.50.548,SL_base_41,2021.2.3,Win32,60.24096386,1.2338,,,77,0,77,0,1,,,,,,,,
,,"[""diamond"",""no_dis"",""hori"",""left"",[99999,99999],[-106,106]]",diamond,no_dis,hori,left,"[99999,99999]","[-106,106]",left,1,,,,,,001,2025-03-10_17h18.50.548,SL_base_41,2021.2.3,Win32,60.24096386,0.9465,,,78,0,78,0,1,,,,,,,,
,,"[""circle"",""green"",""hori"",""left"",[0,-150],[150,0]]",circle,green,hori,left,"[0,-150]","[150,0]",left,1,,,,,,001,2025-03-10_17h18.50.548,SL_base_41,2021.2.3,Win32,60.24096386,1.4662,,,79,0,79,0,1,,,,,,,,
,,"[""circle"",""green"",""hori"",""left"",[106,106],[-106,-106]]",circle,green,hori,left,"[106,106]","[-106,-106]",left,1,,,,,,001,2025-03-10_17h18.50.548,SL_base_41,2021.2.3,Win32,60.24096386,1.0468,,,80,0,80,0,1,,,,,,,,
,,"[""diamond"",""red"",""hori"",""left"",[-150,0],[106,-106]]",diamond,red,hori,left,"[-150,0]","[106,-106]",left,1,,,,,,001,2025-03-10_17h18.50.548,SL_base_41,2021.2.3,Win32,60.24096386,1.2829,,,81,0,81,0,1,,,,,,,,
,,"[""diamond"",""green"",""hori"",""left"",[0,150],[150,0]]",diamond,green,hori,left,"[0,150]","[150,0]",left,1,,,,,,001,2025-03-10_17h18.50.548,SL_base_41,2021.2.3,Win32,60.24096386,1.0995,,,82,0,82,0,1,,,,,,,,
,,"[""diamond"",""green"",""hori"",""left"",[106,106],[0,-150]]",diamond,green,hori,left,"[106,106]","[0,-150]",left,1,,,,,,001,2025-03-10_17h18.50.548,SL_base_41,2021.2.3,Win32,60.24096386,1.2669,,,83,0,83,0,1,,,,,,,,
,,"[""diamond"",""red"",""hori"",""left"",[-150,0],[-106,-106]]",diamond,red,hori,left,"[-150,0]","[-106,-106]",left,1,,,,,,001,2025-03-10_17h18.50.548,SL_base_41,2021.2.3,Win32,60.24096386,1.2804,,,84,0,84,0,1,,,,,,,,
,,"[""diamond"",""green"",""vert"",""up"",[-106,-106],[106,-106]]",diamond,green,vert,up,"[-106,-106]","[106,-106]",up,1,,,,,,001,2025-03-10_17h18.50.548,SL_base_41,2021.2.3,Win32,60.24096386,1.55,,,85,0,85,0,1,,,,,,,,
,,"[""diamond"",""red"",""hori"",""left"",[150,0],[-106,-106]]",diamond,red,hori,left,"[150,0]","[-106,-106]",left,1,,,,,,001,2025-03-10_17h18.50.548,SL_base_41,2021.2.3,Win32,60.24096386,1.0735,,,86,0,86,0,1,,,,,,,,
,,"[""diamond"",""green"",""hori"",""left"",[0,150],[0,-150]]",diamond,green,hori,left,"[0,150]","[0,-150]",left,1,,,,,,001,2025-03-10_17h18.50.548,SL_base_41,2021.2.3,Win32,60.24096386,1.0498,,,87,0,87,0,1,,,,,,,,
,,"[""circle"",""green"",""hori"",""left"",[106,106],[-106,106]]",circle,green,hori,left,"[106,106]","[-106,106]",left,1,,,,,,001,2025-03-10_17h18.50.548,SL_base_41,2021.2.3,Win32,60.24096386,0.9188,,,88,0,88,0,1,,,,,,,,
,,"[""diamond"",""green"",""vert"",""up"",[150,0],[106,106]]",diamond,green,vert,up,"[150,0]","[106,106]",up,1,,,,,,001,2025-03-10_17h18.50.548,SL_base_41,2021.2.3,Win32,60.24096386,1.0272,,,89,0,89,0,1,,,,,,,,
,,"[""diamond"",""red"",""hori"",""left"",[-106,-106],[0,150]]",diamond,red,hori,left,"[-106,-106]","[0,150]",left,1,,,,,,001,2025-03-10_17h18.50.548,SL_base_41,2021.2.3,Win32,60.24096386,1.1921,,,90,0,90,0,1,,,,,,,,
,,"[""circle"",""green"",""hori"",""left"",[-106,106],[106,106]]",circle,green,hori,left,"[-106,106]","[106,106]",left,1,,,,,,001,2025-03-10_17h18.50.548,SL_base_41,2021.2.3,Win32,60.24096386,0.6516,,,91,0,91,0,1,,,,,,,,
,,"[""diamond"",""green"",""vert"",""up"",[150,0],[0,-150]]",diamond,green,vert,up,"[150,0]","[0,-150]",up,1,,,,,,001,2025-03-10_17h18.50.548,SL_base_41,2021.2.3,Win32,60.24096386,1.0007,,,92,0,92,0,1,,,,,,,,
,,"[""circle"",""red"",""vert"",""up"",[0,150],[106,-106]]",circle,red,vert,up,"[0,150]","[106,-106]",up,1,,,,,,001,2025-03-10_17h18.50.548,SL_base_41,2021.2.3,Win32,60.24096386,1.8336,,,93,0,93,0,1,,,,,,,,
,,"[""diamond"",""no_dis"",""hori"",""left"",[99999,99999],[-106,106]]",diamond,no_dis,hori,left,"[99999,99999]","[-106,106]",left,1,,,,,,001,2025-03-10_17h18.50.548,SL_base_41,2021.2.3,Win32,60.24096386,0.8011,,,94,0,94,0,1,,,,,,,,
,,"[""circle"",""red"",""vert"",""up"",[106,106],[-150,0]]",circle,red,vert,up,"[106,106]","[-150,0]",up,1,,,,,,001,2025-03-10_17h18.50.548,SL_base_41,2021.2.3,Win32,60.24096386,0.8337,,,95,0,95,0,1,,,,,,,,
,,"[""diamond"",""no_dis"",""hori"",""left"",[99999,99999],[150,0]]",diamond,no_dis,hori,left,"[99999,99999]","[150,0]",left,1,,,,,,001,2025-03-10_17h18.50.548,SL_base_41,2021.2.3,Win32,60.24096386,0.8087,,,96,0,96,0,1,,,,,,,,
,,"[""diamond"",""no_dis"",""vert"",""up"",[99999,99999],[-150,0]]",diamond,no_dis,vert,up,"[99999,99999]","[-150,0]",up,1,,,,,,001,2025-03-10_17h18.50.548,SL_base_41,2021.2.3,Win32,60.24096386,0.6833,,,97,0,97,0,1,,,,,,,,
,,"[""circle"",""red"",""vert"",""up"",[-150,0],[-106,106]]",circle,red,vert,up,"[-150,0]","[-106,106]",left,0,,,,,,001,2025-03-10_17h18.50.548,SL_base_41,2021.2.3,Win32,60.24096386,1.2005,,,98,0,98,0,1,,,,,,,,
,,"[""circle"",""no_dis"",""vert"",""up"",[99999,99999],[0,-150]]",circle,no_dis,vert,up,"[99999,99999]","[0,-150]",left,0,,,,,,001,2025-03-10_17h18.50.548,SL_base_41,2021.2.3,Win32,60.24096386,1.4842,,,99,0,99,0,1,,,,,,,,
,,"[""diamond"",""green"",""hori"",""left"",[106,106],[0,-150]]",diamond,green,hori,left,"[106,106]","[0,-150]",left,1,,,,,,001,2025-03-10_17h18.50.548,SL_base_41,2021.2.3,Win32,60.24096386,1.63,,,100,0,100,0,1,,,,,,,,
,,"[""circle"",""no_dis"",""hori"",""left"",[99999,99999],[106,106]]",circle,no_dis,hori,left,"[99999,99999]","[106,106]",left,1,,,,,,001,2025-03-10_17h18.50.548,SL_base_41,2021.2.3,Win32,60.24096386,1.3336,,,101,0,101,0,1,,,,,,,,
,,"[""circle"",""red"",""hori"",""left"",[106,106],[150,0]]",circle,red,hori,left,"[106,106]","[150,0]",left,1,,,,,,001,2025-03-10_17h18.50.548,SL_base_41,2021.2.3,Win32,60.24096386,1.1202,,,102,0,102,0,1,,,,,,,,
,,"[""diamond"",""no_dis"",""hori"",""left"",[99999,99999],[0,150]]",diamond,no_dis,hori,left,"[99999,99999]","[0,150]",left,1,,,,,,001,2025-03-10_17h18.50.548,SL_base_41,2021.2.3,Win32,60.24096386,1.1495,,,103,0,103,0,1,,,,,,,,
,,"[""circle"",""red"",""hori"",""left"",[-106,-106],[106,106]]",circle,red,hori,left,"[-106,-106]","[106,106]",left,1,,,,,,001,2025-03-10_17h18.50.548,SL_base_41,2021.2.3,Win32,60.24096386,1.048,,,104,0,104,0,1,,,,,,,,
,,"[""diamond"",""red"",""vert"",""up"",[-150,0],[0,150]]",diamond,red,vert,up,"[-150,0]","[0,150]",up,1,,,,,,001,2025-03-10_17h18.50.548,SL_base_41,2021.2.3,Win32,60.24096386,1.1835,,,105,0,105,0,1,,,,,,,,
,,"[""diamond"",""green"",""vert"",""up"",[-106,106],[106,-106]]",diamond,green,vert,up,"[-106,106]","[106,-106]",left,0,,,,,,001,2025-03-10_17h18.50.548,SL_base_41,2021.2.3,Win32,60.24096386,1.1823,,,106,0,106,0,1,,,,,,,,
,,"[""circle"",""no_dis"",""vert"",""up"",[99999,99999],[-106,-106]]",circle,no_dis,vert,up,"[99999,99999]","[-106,-106]",up,1,,,,,,001,2025-03-10_17h18.50.548,SL_base_41,2021.2.3,Win32,60.24096386,1.058,,,107,0,107,0,1,,,,,,,,
,,"[""circle"",""red"",""hori"",""left"",[106,-106],[0,-150]]",circle,red,hori,left,"[106,-106]","[0,-150]",left,1,,,,,,001,2025-03-10_17h18.50.548,SL_base_41,2021.2.3,Win32,60.24096386,1.0013,,,108,0,108,0,1,,,,,,,,
,,"[""circle"",""no_dis"",""vert"",""up"",[99999,99999],[106,106]]",circle,no_dis,vert,up,"[99999,99999]","[106,106]",up,1,,,,,,001,2025-03-10_17h18.50.548,SL_base_41,2021.2.3,Win32,60.24096386,1.8751,,,109,0,109,0,1,,,,,,,,
,,"[""circle"",""green"",""vert"",""up"",[-106,-106],[150,0]]",circle,green,vert,up,"[-106,-106]","[150,0]",up,1,,,,,,001,2025-03-10_17h18.50.548,SL_base_41,2021.2.3,Win32,60.24096386,1.18,,,110,0,110,0,1,,,,,,,,
,,"[""diamond"",""red"",""hori"",""left"",[-106,106],[150,0]]",diamond,red,hori,left,"[-106,106]","[150,0]",left,1,,,,,,001,2025-03-10_17h18.50.548,SL_base_41,2021.2.3,Win32,60.24096386,1.7516,,,111,0,111,0,1,,,,,,,,
,,"[""diamond"",""red"",""vert"",""up"",[106,106],[-106,-106]]",diamond,red,vert,up,"[106,106]","[-106,-106]",up,1,,,,,,001,2025-03-10_17h18.50.548,SL_base_41,2021.2.3,Win32,60.24096386,1.1089,,,112,0,112,0,1,,,,,,,,
,,"[""circle"",""green"",""vert"",""up"",[150,0],[0,-150]]",circle,green,vert,up,"[150,0]","[0,-150]",up,1,,,,,,001,2025-03-10_17h18.50.548,SL_base_41,2021.2.3,Win32,60.24096386,1.2135,,,113,0,113,0,1,,,,,,,,
,,"[""diamond"",""no_dis"",""vert"",""up"",[99999,99999],[-106,-106]]",diamond,no_dis,vert,up,"[99999,99999]","[-106,-106]",up,1,,,,,,001,2025-03-10_17h18.50.548,SL_base_41,2021.2.3,Win32,60.24096386,1.7005,,,114,0,114,0,1,,,,,,,,
,,"[""circle"",""red"",""vert"",""up"",[-106,106],[-106,-106]]",circle,red,vert,up,"[-106,106]","[-106,-106]",up,1,,,,,,001,2025-03-10_17h18.50.548,SL_base_41,2021.2.3,Win32,60.24096386,1.5081,,,115,0,115,0,1,,,,,,,,
,,"[""diamond"",""no_dis"",""hori"",""left"",[99999,99999],[0,150]]",diamond,no_dis,hori,left,"[99999,99999]","[0,150]",left,1,,,,,,001,2025-03-10_17h18.50.548,SL_base_41,2021.2.3,Win32,60.24096386,1.5164,,,116,0,116,0,1,,,,,,,,
,,"[""diamond"",""green"",""hori"",""left"",[106,106],[-150,0]]",diamond,green,hori,left,"[106,106]","[-150,0]",left,1,,,,,,001,2025-03-10_17h18.50.548,SL_base_41,2021.2.3,Win32,60.24096386,1.1068,,,117,0,117,0,1,,,,,,,,
,,"[""diamond"",""no_dis"",""vert"",""up"",[99999,99999],[106,-106]]",diamond,no_dis,vert,up,"[99999,99999]","[106,-106]",up,1,,,,,,001,2025-03-10_17h18.50.548,SL_base_41,2021.2.3,Win32,60.24096386,0.812,,,118,0,118,0,1,,,,,,,,
,,"[""circle"",""green"",""hori"",""left"",[106,106],[-150,0]]",circle,green,hori,left,"[106,106]","[-150,0]",left,1,,,,,,001,2025-03-10_17h18.50.548,SL_base_41,2021.2.3,Win32,60.24096386,1.117,,,119,0,119,0,1,,,,,,,,
,,"[""circle"",""no_dis"",""vert"",""up"",[99999,99999],[-106,106]]",circle,no_dis,vert,up,"[99999,99999]","[-106,106]",left,0,,,,,,001,2025-03-10_17h18.50.548,SL_base_41,2021.2.3,Win32,60.24096386,0.9835,,,120,0,120,0,1,,,,,,,,
,,"[""circle"",""no_dis"",""hori"",""left"",[99999,99999],[106,-106]]",circle,no_dis,hori,left,"[99999,99999]","[106,-106]",left,1,,,,,,001,2025-03-10_17h18.50.548,SL_base_41,2021.2.3,Win32,60.24096386,1.0833,,,121,0,121,0,1,,,,,,,,
,,"[""circle"",""red"",""vert"",""up"",[106,-106],[150,0]]",circle,red,vert,up,"[106,-106]","[150,0]",up,1,,,,,,001,2025-03-10_17h18.50.548,SL_base_41,2021.2.3,Win32,60.24096386,1.1334,,,122,0,122,0,1,,,,,,,,
,,"[""diamond"",""red"",""vert"",""up"",[106,106],[-150,0]]",diamond,red,vert,up,"[106,106]","[-150,0]",up,1,,,,,,001,2025-03-10_17h18.50.548,SL_base_41,2021.2.3,Win32,60.24096386,1.233,,,123,0,123,0,1,,,,,,,,
,,"[""diamond"",""no_dis"",""vert"",""up"",[99999,99999],[150,0]]",diamond,no_dis,vert,up,"[99999,99999]","[150,0]",up,1,,,,,,001,2025-03-10_17h18.50.548,SL_base_41,2021.2.3,Win32,60.24096386,1.0827,,,124,0,124,0,1,,,,,,,,
,,"[""diamond"",""red"",""vert"",""up"",[106,-106],[106,106]]",diamond,red,vert,up,"[106,-106]","[106,106]",left,0,,,,,,001,2025-03-10_17h18.50.548,SL_base_41,2021.2.3,Win32,60.24096386,1.0047,,,125,0,125,0,1,,,,,,,,
,,"[""circle"",""red"",""vert"",""up"",[106,106],[106,-106]]",circle,red,vert,up,"[106,106]","[106,-106]",up,1,,,,,,001,2025-03-10_17h18.50.548,SL_base_41,2021.2.3,Win32,60.24096386,1.1841,,,126,0,126,0,1,,,,,,,,
,,"[""circle"",""green"",""hori"",""left"",[106,106],[-106,-106]]",circle,green,hori,left,"[106,106]","[-106,-106]",left,1,,,,,,001,2025-03-10_17h18.50.548,SL_base_41,2021.2.3,Win32,60.24096386,1.2006,,,127,0,127,0,1,,,,,,,,
,,,,,,,,,,,,,,,,001,2025-03-10_17h18.50.548,SL_base_41,2021.2.3,Win32,60.24096386,,,,,,,,,3,space,1.3006,2,0,2,0,1
,,"[""diamond"",""no_dis"",""vert"",""up"",[99999,99999],[106,-106]]",diamond,no_dis,vert,up,"[99999,99999]","[106,-106]",up,1,,,,,,001,2025-03-10_17h18.50.548,SL_base_41,2021.2.3,Win32,60.24096386,2.2328,,,0,0,0,0,1,,,,,,,,
,,"[""circle"",""green"",""hori"",""left"",[106,106],[-106,106]]",circle,green,hori,left,"[106,106]","[-106,106]",left,1,,,,,,001,2025-03-10_17h18.50.548,SL_base_41,2021.2.3,Win32,60.24096386,0.8379,,,1,0,1,0,1,,,,,,,,
,,"[""circle"",""red"",""vert"",""up"",[-150,0],[-106,106]]",circle,red,vert,up,"[-150,0]","[-106,106]",up,1,,,,,,001,2025-03-10_17h18.50.548,SL_base_41,2021.2.3,Win32,60.24096386,1.2694,,,2,0,2,0,1,,,,,,,,
,,"[""circle"",""no_dis"",""hori"",""left"",[99999,99999],[106,-106]]",circle,no_dis,hori,left,"[99999,99999]","[106,-106]",left,1,,,,,,001,2025-03-10_17h18.50.548,SL_base_41,2021.2.3,Win32,60.24096386,1.651,,,3,0,3,0,1,,,,,,,,
,,"[""circle"",""red"",""vert"",""up"",[-106,106],[-106,-106]]",circle,red,vert,up,"[-106,106]","[-106,-106]",up,1,,,,,,001,2025-03-10_17h18.50.548,SL_base_41,2021.2.3,Win32,60.24096386,1.0329,,,4,0,4,0,1,,,,,,,,
,,"[""diamond"",""green"",""vert"",""up"",[-106,-106],[106,-106]]",diamond,green,vert,up,"[-106,-106]","[106,-106]",left,0,,,,,,001,2025-03-10_17h18.50.548,SL_base_41,2021.2.3,Win32,60.24096386,1.2831,,,5,0,5,0,1,,,,,,,,
,,"[""diamond"",""green"",""vert"",""up"",[0,-150],[0,150]]",diamond,green,vert,up,"[0,-150]","[0,150]",up,1,,,,,,001,2025-03-10_17h18.50.548,SL_base_41,2021.2.3,Win32,60.24096386,1.16,,,6,0,6,0,1,,,,,,,,
,,"[""diamond"",""red"",""hori"",""left"",[106,-106],[-106,-106]]",diamond,red,hori,left,"[106,-106]","[-106,-106]",left,1,,,,,,001,2025-03-10_17h18.50.548,SL_base_41,2021.2.3,Win32,60.24096386,1.2203,,,7,0,7,0,1,,,,,,,,
,,"[""diamond"",""red"",""vert"",""up"",[0,150],[106,106]]",diamond,red,vert,up,"[0,150]","[106,106]",up,1,,,,,,001,2025-03-10_17h18.50.548,SL_base_41,2021.2.3,Win32,60.24096386,1.2719,,,8,0,8,0,1,,,,,,,,
,,"[""circle"",""green"",""vert"",""up"",[0,150],[150,0]]",circle,green,vert,up,"[0,150]","[150,0]",up,1,,,,,,001,2025-03-10_17h18.50.548,SL_base_41,2021.2.3,Win32,60.24096386,1.4048,,,9,0,9,0,1,,,,,,,,
,,"[""circle"",""green"",""hori"",""left"",[-106,-106],[0,-150]]",circle,green,hori,left,"[-106,-106]","[0,-150]",left,1,,,,,,001,2025-03-10_17h18.50.548,SL_base_41,2021.2.3,Win32,60.24096386,1.2989,,,10,0,10,0,1,,,,,,,,
,,"[""circle"",""red"",""vert"",""up"",[106,106],[106,-106]]",circle,red,vert,up,"[106,106]","[106,-106]",up,1,,,,,,001,2025-03-10_17h18.50.548,SL_base_41,2021.2.3,Win32,60.24096386,0.8179,,,11,0,11,0,1,,,,,,,,
,,"[""diamond"",""green"",""vert"",""up"",[150,0],[0,-150]]",diamond,green,vert,up,"[150,0]","[0,-150]",up,1,,,,,,001,2025-03-10_17h18.50.548,SL_base_41,2021.2.3,Win32,60.24096386,1.6669,,,12,0,12,0,1,,,,,,,,
,,"[""diamond"",""green"",""vert"",""up"",[150,0],[-150,0]]",diamond,green,vert,up,"[150,0]","[-150,0]",up,1,,,,,,001,2025-03-10_17h18.50.548,SL_base_41,2021.2.3,Win32,60.24096386,1.8384,,,13,0,13,0,1,,,,,,,,
,,"[""diamond"",""green"",""vert"",""up"",[-106,-106],[106,106]]",diamond,green,vert,up,"[-106,-106]","[106,106]",up,1,,,,,,001,2025-03-10_17h18.50.548,SL_base_41,2021.2.3,Win32,60.24096386,0.9835,,,14,0,14,0,1,,,,,,,,
,,"[""diamond"",""red"",""vert"",""up"",[-150,0],[106,-106]]",diamond,red,vert,up,"[-150,0]","[106,-106]",up,1,,,,,,001,2025-03-10_17h18.50.548,SL_base_41,2021.2.3,Win32,60.24096386,1.5407,,,15,0,15,0,1,,,,,,,,
,,"[""diamond"",""red"",""hori"",""left"",[-150,0],[-106,-106]]",diamond,red,hori,left,"[-150,0]","[-106,-106]",left,1,,,,,,001,2025-03-10_17h18.50.548,SL_base_41,2021.2.3,Win32,60.24096386,1.1565,,,16,0,16,0,1,,,,,,,,
,,"[""diamond"",""green"",""hori"",""left"",[106,106],[0,150]]",diamond,green,hori,left,"[106,106]","[0,150]",up,0,,,,,,001,2025-03-10_17h18.50.548,SL_base_41,2021.2.3,Win32,60.24096386,0.9168,,,17,0,17,0,1,,,,,,,,
,,"[""circle"",""red"",""hori"",""left"",[106,106],[150,0]]",circle,red,hori,left,"[106,106]","[150,0]",left,1,,,,,,001,2025-03-10_17h18.50.548,SL_base_41,2021.2.3,Win32,60.24096386,1.912,,,18,0,18,0,1,,,,,,,,
,,"[""diamond"",""green"",""hori"",""left"",[106,106],[-150,0]]",diamond,green,hori,left,"[106,106]","[-150,0]",left,1,,,,,,001,2025-03-10_17h18.50.548,SL_base_41,2021.2.3,Win32,60.24096386,0.8578,,,19,0,19,0,1,,,,,,,,
,,"[""diamond"",""red"",""hori"",""left"",[150,0],[-106,-106]]",diamond,red,hori,left,"[150,0]","[-106,-106]",left,1,,,,,,001,2025-03-10_17h18.50.548,SL_base_41,2021.2.3,Win32,60.24096386,2.2745,,,20,0,20,0,1,,,,,,,,
,,"[""circle"",""green"",""hori"",""left"",[106,106],[-150,0]]",circle,green,hori,left,"[106,106]","[-150,0]",up,0,,,,,,001,2025-03-10_17h18.50.548,SL_base_41,2021.2.3,Win32,60.24096386,1.9334,,,21,0,21,0,1,,,,,,,,
,,"[""circle"",""no_dis"",""hori"",""left"",[99999,99999],[106,106]]",circle,no_dis,hori,left,"[99999,99999]","[106,106]",left,1,,,,,,001,2025-03-10_17h18.50.548,SL_base_41,2021.2.3,Win32,60.24096386,1.4677,,,22,0,22,0,1,,,,,,,,
,,"[""circle"",""red"",""vert"",""up"",[106,106],[106,-106]]",circle,red,vert,up,"[106,106]","[106,-106]",up,1,,,,,,001,2025-03-10_17h18.50.548,SL_base_41,2021.2.3,Win32,60.24096386,1.0998,,,23,0,23,0,1,,,,,,,,
,,"[""circle"",""green"",""hori"",""left"",[106,106],[106,-106]]",circle,green,hori,left,"[106,106]","[106,-106]",left,1,,,,,,001,2025-03-10_17h18.50.548,SL_base_41,2021.2.3,Win32,60.24096386,1.1731,,,24,0,24,0,1,,,,,,,,
,,"[""circle"",""no_dis"",""vert"",""up"",[99999,99999],[-106,106]]",circle,no_dis,vert,up,"[99999,99999]","[-106,106]",up,1,,,,,,001,2025-03-10_17h18.50.548,SL_base_41,2021.2.3,Win32,60.24096386,2.1999,,,25,0,25,0,1,,,,,,,,
,,"[""diamond"",""red"",""hori"",""left"",[-106,106],[150,0]]",diamond,red,hori,left,"[-106,106]","[150,0]",left,1,,,,,,001,2025-03-10_17h18.50.548,SL_base_41,2021.2.3,Win32,60.24096386,0.9508,,,26,0,26,0,1,,,,,,,,
,,"[""diamond"",""no_dis"",""hori"",""left"",[99999,99999],[106,-106]]",diamond,no_dis,hori,left,"[99999,99999]","[106,-106]",left,1,,,,,,001,2025-03-10_17h18.50.548,SL_base_41,2021.2.3,Win32,60.24096386,1.7825,,,27,0,27,0,1,,,,,,,,
,,"[""circle"",""red"",""hori"",""left"",[106,106],[150,0]]",circle,red,hori,left,"[106,106]","[150,0]",left,1,,,,,,001,2025-03-10_17h18.50.548,SL_base_41,2021.2.3,Win32,60.24096386,1.4609,,,28,0,28,0,1,,,,,,,,
,,"[""diamond"",""no_dis"",""vert"",""up"",[99999,99999],[-106,-106]]",diamond,no_dis,vert,up,"[99999,99999]","[-106,-106]",left,0,,,,,,001,2025-03-10_17h18.50.548,SL_base_41,2021.2.3,Win32,60.24096386,2.1983,,,29,0,29,0,1,,,,,,,,
,,"[""diamond"",""red"",""vert"",""up"",[-150,0],[0,150]]",diamond,red,vert,up,"[-150,0]","[0,150]",up,1,,,,,,001,2025-03-10_17h18.50.548,SL_base_41,2021.2.3,Win32,60.24096386,1.6172,,,30,0,30,0,1,,,,,,,,
,,"[""circle"",""no_dis"",""vert"",""up"",[99999,99999],[106,-106]]",circle,no_dis,vert,up,"[99999,99999]","[106,-106]",up,1,,,,,,001,2025-03-10_17h18.50.548,SL_base_41,2021.2.3,Win32,60.24096386,2.1806,,,31,0,31,0,1,,,,,,,,
,,"[""diamond"",""green"",""vert"",""up"",[106,106],[106,-106]]",diamond,green,vert,up,"[106,106]","[106,-106]",up,1,,,,,,001,2025-03-10_17h18.50.548,SL_base_41,2021.2.3,Win32,60.24096386,1.0612,,,32,0,32,0,1,,,,,,,,
,,"[""diamond"",""red"",""vert"",""up"",[106,-106],[106,106]]",diamond,red,vert,up,"[106,-106]","[106,106]",up,1,,,,,,001,2025-03-10_17h18.50.548,SL_base_41,2021.2.3,Win32,60.24096386,1.2321,,,33,0,33,0,1,,,,,,,,
,,"[""diamond"",""green"",""vert"",""up"",[106,106],[0,-150]]",diamond,green,vert,up,"[106,106]","[0,-150]",up,1,,,,,,001,2025-03-10_17h18.50.548,SL_base_41,2021.2.3,Win32,60.24096386,1.2517,,,34,0,34,0,1,,,,,,,,
,,"[""circle"",""red"",""hori"",""left"",[0,150],[106,-106]]",circle,red,hori,left,"[0,150]","[106,-106]",left,1,,,,,,001,2025-03-10_17h18.50.548,SL_base_41,2021.2.3,Win32,60.24096386,1.8753,,,35,0,35,0,1,,,,,,,,
,,"[""diamond"",""green"",""hori"",""left"",[106,-106],[-106,-106]]",diamond,green,hori,left,"[106,-106]","[-106,-106]",left,1,,,,,,001,2025-03-10_17h18.50.548,SL_base_41,2021.2.3,Win32,60.24096386,2.1002,,,36,0,36,0,1,,,,,,,,
,,"[""diamond"",""no_dis"",""vert"",""up"",[99999,99999],[0,150]]",diamond,no_dis,vert,up,"[99999,99999]","[0,150]",up,1,,,,,,001,2025-03-10_17h18.50.548,SL_base_41,2021.2.3,Win32,60.24096386,1.0506,,,37,0,37,0,1,,,,,,,,
,,"[""diamond"",""no_dis"",""vert"",""up"",[99999,99999],[0,-150]]",diamond,no_dis,vert,up,"[99999,99999]","[0,-150]",up,1,,,,,,001,2025-03-10_17h18.50.548,SL_base_41,2021.2.3,Win32,60.24096386,1.2619,,,38,0,38,0,1,,,,,,,,
,,"[""diamond"",""red"",""hori"",""left"",[106,106],[-106,-106]]",diamond,red,hori,left,"[106,106]","[-106,-106]",left,1,,,,,,001,2025-03-10_17h18.50.548,SL_base_41,2021.2.3,Win32,60.24096386,1.328,,,39,0,39,0,1,,,,,,,,
,,"[""circle"",""red"",""vert"",""up"",[106,106],[-150,0]]",circle,red,vert,up,"[106,106]","[-150,0]",up,1,,,,,,001,2025-03-10_17h18.50.548,SL_base_41,2021.2.3,Win32,60.24096386,1.1172,,,40,0,40,0,1,,,,,,,,
,,"[""diamond"",""no_dis"",""hori"",""left"",[99999,99999],[0,-150]]",diamond,no_dis,hori,left,"[99999,99999]","[0,-150]",left,1,,,,,,001,2025-03-10_17h18.50.548,SL_base_41,2021.2.3,Win32,60.24096386,1.4791,,,41,0,41,0,1,,,,,,,,
,,"[""diamond"",""green"",""hori"",""left"",[0,150],[150,0]]",diamond,green,hori,left,"[0,150]","[150,0]",left,1,,,,,,001,2025-03-10_17h18.50.548,SL_base_41,2021.2.3,Win32,60.24096386,1.2755,,,42,0,42,0,1,,,,,,,,
,,"[""circle"",""no_dis"",""vert"",""up"",[99999,99999],[0,150]]",circle,no_dis,vert,up,"[99999,99999]","[0,150]",up,1,,,,,,001,2025-03-10_17h18.50.548,SL_base_41,2021.2.3,Win32,60.24096386,1.5384,,,43,0,43,0,1,,,,,,,,
,,"[""circle"",""red"",""hori"",""left"",[-150,0],[-106,106]]",circle,red,hori,left,"[-150,0]","[-106,106]",up,0,,,,,,001,2025-03-10_17h18.50.548,SL_base_41,2021.2.3,Win32,60.24096386,1.5671,,,44,0,44,0,1,,,,,,,,
,,"[""diamond"",""green"",""vert"",""up"",[150,0],[106,106]]",diamond,green,vert,up,"[150,0]","[106,106]",up,1,,,,,,001,2025-03-10_17h18.50.548,SL_base_41,2021.2.3,Win32,60.24096386,1.7334,,,45,0,45,0,1,,,,,,,,
,,"[""circle"",""green"",""vert"",""up"",[106,106],[-150,0]]",circle,green,vert,up,"[106,106]","[-150,0]",up,1,,,,,,001,2025-03-10_17h18.50.548,SL_base_41,2021.2.3,Win32,60.24096386,1.1176,,,46,0,46,0,1,,,,,,,,
,,"[""circle"",""red"",""vert"",""up"",[-106,-106],[0,150]]",circle,red,vert,up,"[-106,-106]","[0,150]",up,1,,,,,,001,2025-03-10_17h18.50.548,SL_base_41,2021.2.3,Win32,60.24096386,1.2057,,,47,0,47,0,1,,,,,,,,
,,"[""circle"",""no_dis"",""hori"",""left"",[99999,99999],[-150,0]]",circle,no_dis,hori,left,"[99999,99999]","[-150,0]",left,1,,,,,,001,2025-03-10_17h18.50.548,SL_base_41,2021.2.3,Win32,60.24096386,1.0015,,,48,0,48,0,1,,,,,,,,
,,"[""diamond"",""no_dis"",""hori"",""left"",[99999,99999],[0,-150]]",diamond,no_dis,hori,left,"[99999,99999]","[0,-150]",left,1,,,,,,001,2025-03-10_17h18.50.548,SL_base_41,2021.2.3,Win32,60.24096386,1.2877,,,49,0,49,0,1,,,,,,,,
,,"[""circle"",""green"",""vert"",""up"",[106,-106],[-150,0]]",circle,green,vert,up,"[106,-106]","[-150,0]",up,1,,,,,,001,2025-03-10_17h18.50.548,SL_base_41,2021.2.3,Win32,60.24096386,1.0669,,,50,0,50,0,1,,,,,,,,
,,"[""circle"",""green"",""hori"",""left"",[0,-150],[150,0]]",circle,green,hori,left,"[0,-150]","[150,0]",left,1,,,,,,001,2025-03-10_17h18.50.548,SL_base_41,2021.2.3,Win32,60.24096386,0.7938,,,51,0,51,0,1,,,,,,,,
,,"[""diamond"",""no_dis"",""hori"",""left"",[99999,99999],[-106,106]]",diamond,no_dis,hori,left,"[99999,99999]","[-106,106]",left,1,,,,,,001,2025-03-10_17h18.50.548,SL_base_41,2021.2.3,Win32,60.24096386,1.3645,,,52,0,52,0,1,,,,,,,,
,,"[""circle"",""green"",""vert"",""up"",[0,150],[150,0]]",circle,green,vert,up,"[0,150]","[150,0]",up,1,,,,,,001,2025-03-10_17h18.50.548,SL_base_41,2021.2.3,Win32,60.24096386,0.9345,,,53,0,53,0,1,,,,,,,,
,,"[""diamond"",""red"",""vert"",""up"",[106,-106],[-106,-106]]",diamond,red,vert,up,"[106,-106]","[-106,-106]",up,1,,,,,,001,2025-03-10_17h18.50.548,SL_base_41,2021.2.3,Win32,60.24096386,2.2596,,,54,0,54,0,1,,,,,,,,
,,"[""circle"",""no_dis"",""hori"",""left"",[99999,99999],[106,106]]",circle,no_dis,hori,left,"[99999,99999]","[106,106]",left,1,,,,,,001,2025-03-10_17h18.50.548,SL_base_41,2021.2.3,Win32,60.24096386,0.6912,,,55,0,55,0,1,,,,,,,,
,,"[""circle"",""no_dis"",""hori"",""left"",[99999,99999],[150,0]]",circle,no_dis,hori,left,"[99999,99999]","[150,0]",left,1,,,,,,001,2025-03-10_17h18.50.548,SL_base_41,2021.2.3,Win32,60.24096386,0.8667,,,56,0,56,0,1,,,,,,,,
,,"[""circle"",""green"",""vert"",""up"",[150,0],[0,-150]]",circle,green,vert,up,"[150,0]","[0,-150]",up,1,,,,,,001,2025-03-10_17h18.50.548,SL_base_41,2021.2.3,Win32,60.24096386,1.3163,,,57,0,57,0,1,,,,,,,,
,,"[""diamond"",""red"",""vert"",""up"",[106,106],[-150,0]]",diamond,red,vert,up,"[106,106]","[-150,0]",up,1,,,,,,001,2025-03-10_17h18.50.548,SL_base_41,2021.2.3,Win32,60.24096386,1.0748,,,58,0,58,0,1,,,,,,,,
,,"[""diamond"",""red"",""vert"",""up"",[106,-106],[0,150]]",diamond,red,vert,up,"[106,-106]","[0,150]",up,1,,,,,,001,2025-03-10_17h18.50.548,SL_base_41,2021.2.3,Win32,60.24096386,1.1167,,,59,0,59,0,1,,,,,,,,
,,"[""diamond"",""no_dis"",""vert"",""up"",[99999,99999],[-150,0]]",diamond,no_dis,vert,up,"[99999,99999]","[-150,0]",up,1,,,,,,001,2025-03-10_17h18.50.548,SL_base_41,2021.2.3,Win32,60.24096386,0.886,,,60,0,60,0,1,,,,,,,,
