﻿key_resp.keys,key_resp.rt,trial_para,tar_shape,dis_color_condi,tar_line,cor_resp,dis_loc,tar_loc,resp.keys,resp.corr,trials.thisRepN,trials.thisTrialN,trials.thisN,trials.thisIndex,trials.ran,participant,date,expName,psychopyVersion,OS,frameRate,resp.rt,key_resp_2.keys,key_resp_2.rt,trials_2.thisRepN,trials_2.thisTrialN,trials_2.thisN,trials_2.thisIndex,trials_2.ran,block_num,key_resp_3.keys,key_resp_3.rt,trials_3.thisRepN,trials_3.thisTrialN,trials_3.thisN,trials_3.thisIndex,trials_3.ran
space,22.5595,"[""circle"",""red"",""hori"",""left"",[0,150],[-150,0]]",circle,red,hori,left,"[0,150]","[-150,0]",,0,0,0,0,0,1,001,2025-03-17_12h44.40.837,SL_base_41,2021.2.3,Win32,59.88023952,,,,,,,,,,,,,,,,
,,"[""diamond"",""green"",""hori"",""left"",[0,150],[106,106]]",diamond,green,hori,left,"[0,150]","[106,106]",,0,1,0,1,0,1,001,2025-03-17_12h44.40.837,SL_base_41,2021.2.3,Win32,59.88023952,,,,,,,,,,,,,,,,
,,"[""circle"",""red"",""vert"",""up"",[-150,0],[0,150]]",circle,red,vert,up,"[-150,0]","[0,150]",,0,2,0,2,0,1,001,2025-03-17_12h44.40.837,SL_base_41,2021.2.3,Win32,59.88023952,,,,,,,,,,,,,,,,
,,"[""diamond"",""green"",""vert"",""up"",[106,-106],[-150,0]]",diamond,green,vert,up,"[106,-106]","[-150,0]",,0,3,0,3,0,1,001,2025-03-17_12h44.40.837,SL_base_41,2021.2.3,Win32,59.88023952,,,,,,,,,,,,,,,,
,,"[""circle"",""green"",""hori"",""left"",[-106,-106],[106,106]]",circle,green,hori,left,"[-106,-106]","[106,106]",,0,4,0,4,0,1,001,2025-03-17_12h44.40.837,SL_base_41,2021.2.3,Win32,59.88023952,,,,,,,,,,,,,,,,
,,"[""circle"",""red"",""hori"",""left"",[106,-106],[106,106]]",circle,red,hori,left,"[106,-106]","[106,106]",up,0,5,0,5,0,1,001,2025-03-17_12h44.40.837,SL_base_41,2021.2.3,Win32,59.88023952,1.6223,,,,,,,,,,,,,,,
,,"[""diamond"",""green"",""vert"",""up"",[-150,0],[0,-150]]",diamond,green,vert,up,"[-150,0]","[0,-150]",up,1,6,0,6,0,1,001,2025-03-17_12h44.40.837,SL_base_41,2021.2.3,Win32,59.88023952,1.1673,,,,,,,,,,,,,,,
,,"[""circle"",""no_dis"",""hori"",""left"",[99999,99999],[-150,0]]",circle,no_dis,hori,left,"[99999,99999]","[-150,0]",,0,7,0,7,0,1,001,2025-03-17_12h44.40.837,SL_base_41,2021.2.3,Win32,59.88023952,,,,,,,,,,,,,,,,
,,"[""diamond"",""red"",""hori"",""left"",[0,-150],[106,-106]]",diamond,red,hori,left,"[0,-150]","[106,-106]",,0,8,0,8,0,1,001,2025-03-17_12h44.40.837,SL_base_41,2021.2.3,Win32,59.88023952,,,,,,,,,,,,,,,,
,,"[""circle"",""no_dis"",""hori"",""left"",[99999,99999],[-106,-106]]",circle,no_dis,hori,left,"[99999,99999]","[-106,-106]",up,0,9,0,9,0,1,001,2025-03-17_12h44.40.837,SL_base_41,2021.2.3,Win32,59.88023952,2.7306,,,,,,,,,,,,,,,
,,"[""circle"",""red"",""hori"",""left"",[0,150],[-150,0]]",circle,red,hori,left,"[0,150]","[-150,0]",,0,,,,,,001,2025-03-17_12h44.40.837,SL_base_41,2021.2.3,Win32,59.88023952,,space,6.3874,0,0,0,0,1,,,,,,,,
,,"[""diamond"",""green"",""hori"",""left"",[0,150],[106,106]]",diamond,green,hori,left,"[0,150]","[106,106]",up,0,,,,,,001,2025-03-17_12h44.40.837,SL_base_41,2021.2.3,Win32,59.88023952,2.2362,,,1,0,1,0,1,,,,,,,,
,,"[""circle"",""red"",""vert"",""up"",[-150,0],[0,150]]",circle,red,vert,up,"[-150,0]","[0,150]",up,1,,,,,,001,2025-03-17_12h44.40.837,SL_base_41,2021.2.3,Win32,59.88023952,2.1567,,,2,0,2,0,1,,,,,,,,
,,"[""diamond"",""green"",""vert"",""up"",[106,-106],[-150,0]]",diamond,green,vert,up,"[106,-106]","[-150,0]",up,1,,,,,,001,2025-03-17_12h44.40.837,SL_base_41,2021.2.3,Win32,59.88023952,1.4106,,,3,0,3,0,1,,,,,,,,
,,"[""circle"",""green"",""hori"",""left"",[-106,-106],[106,106]]",circle,green,hori,left,"[-106,-106]","[106,106]",left,1,,,,,,001,2025-03-17_12h44.40.837,SL_base_41,2021.2.3,Win32,59.88023952,2.0296,,,4,0,4,0,1,,,,,,,,
,,"[""circle"",""red"",""hori"",""left"",[106,-106],[106,106]]",circle,red,hori,left,"[106,-106]","[106,106]",up,0,,,,,,001,2025-03-17_12h44.40.837,SL_base_41,2021.2.3,Win32,59.88023952,1.2048,,,5,0,5,0,1,,,,,,,,
,,"[""diamond"",""green"",""vert"",""up"",[-150,0],[0,-150]]",diamond,green,vert,up,"[-150,0]","[0,-150]",up,1,,,,,,001,2025-03-17_12h44.40.837,SL_base_41,2021.2.3,Win32,59.88023952,1.0197,,,6,0,6,0,1,,,,,,,,
,,"[""circle"",""no_dis"",""hori"",""left"",[99999,99999],[-150,0]]",circle,no_dis,hori,left,"[99999,99999]","[-150,0]",left,1,,,,,,001,2025-03-17_12h44.40.837,SL_base_41,2021.2.3,Win32,59.88023952,2.3201,,,7,0,7,0,1,,,,,,,,
,,"[""diamond"",""red"",""hori"",""left"",[0,-150],[106,-106]]",diamond,red,hori,left,"[0,-150]","[106,-106]",left,1,,,,,,001,2025-03-17_12h44.40.837,SL_base_41,2021.2.3,Win32,59.88023952,1.5448,,,8,0,8,0,1,,,,,,,,
,,"[""circle"",""no_dis"",""hori"",""left"",[99999,99999],[-106,-106]]",circle,no_dis,hori,left,"[99999,99999]","[-106,-106]",left,1,,,,,,001,2025-03-17_12h44.40.837,SL_base_41,2021.2.3,Win32,59.88023952,2.0532,,,9,0,9,0,1,,,,,,,,
,,"[""diamond"",""green"",""hori"",""left"",[106,106],[-150,0]]",diamond,green,hori,left,"[106,106]","[-150,0]",up,0,,,,,,001,2025-03-17_12h44.40.837,SL_base_41,2021.2.3,Win32,59.88023952,0.7983,,,10,0,10,0,1,,,,,,,,
,,"[""circle"",""no_dis"",""vert"",""up"",[99999,99999],[150,0]]",circle,no_dis,vert,up,"[99999,99999]","[150,0]",left,0,,,,,,001,2025-03-17_12h44.40.837,SL_base_41,2021.2.3,Win32,59.88023952,1.0396,,,11,0,11,0,1,,,,,,,,
,,"[""diamond"",""no_dis"",""hori"",""left"",[99999,99999],[106,-106]]",diamond,no_dis,hori,left,"[99999,99999]","[106,-106]",up,0,,,,,,001,2025-03-17_12h44.40.837,SL_base_41,2021.2.3,Win32,59.88023952,2.0711,,,12,0,12,0,1,,,,,,,,
,,"[""circle"",""no_dis"",""vert"",""up"",[99999,99999],[150,0]]",circle,no_dis,vert,up,"[99999,99999]","[150,0]",up,1,,,,,,001,2025-03-17_12h44.40.837,SL_base_41,2021.2.3,Win32,59.88023952,2.9634,,,13,0,13,0,1,,,,,,,,
,,"[""circle"",""green"",""vert"",""up"",[106,106],[-150,0]]",circle,green,vert,up,"[106,106]","[-150,0]",left,0,,,,,,001,2025-03-17_12h44.40.837,SL_base_41,2021.2.3,Win32,59.88023952,0.9305,,,14,0,14,0,1,,,,,,,,
,,"[""diamond"",""green"",""hori"",""left"",[106,106],[-106,106]]",diamond,green,hori,left,"[106,106]","[-106,106]",left,1,,,,,,001,2025-03-17_12h44.40.837,SL_base_41,2021.2.3,Win32,59.88023952,2.3621,,,15,0,15,0,1,,,,,,,,
,,"[""circle"",""green"",""hori"",""left"",[106,-106],[-150,0]]",circle,green,hori,left,"[106,-106]","[-150,0]",up,0,,,,,,001,2025-03-17_12h44.40.837,SL_base_41,2021.2.3,Win32,59.88023952,2.2636,,,16,0,16,0,1,,,,,,,,
,,"[""circle"",""no_dis"",""hori"",""left"",[99999,99999],[0,-150]]",circle,no_dis,hori,left,"[99999,99999]","[0,-150]",,0,,,,,,001,2025-03-17_12h44.40.837,SL_base_41,2021.2.3,Win32,59.88023952,,,,17,0,17,0,1,,,,,,,,
,,"[""diamond"",""no_dis"",""vert"",""up"",[99999,99999],[150,0]]",diamond,no_dis,vert,up,"[99999,99999]","[150,0]",up,1,,,,,,001,2025-03-17_12h44.40.837,SL_base_41,2021.2.3,Win32,59.88023952,1.8178,,,18,0,18,0,1,,,,,,,,
,,"[""diamond"",""green"",""hori"",""left"",[0,-150],[0,150]]",diamond,green,hori,left,"[0,-150]","[0,150]",left,1,,,,,,001,2025-03-17_12h44.40.837,SL_base_41,2021.2.3,Win32,59.88023952,1.8382,,,19,0,19,0,1,,,,,,,,
,,"[""diamond"",""no_dis"",""hori"",""left"",[99999,99999],[106,106]]",diamond,no_dis,hori,left,"[99999,99999]","[106,106]",left,1,,,,,,001,2025-03-17_12h44.40.837,SL_base_41,2021.2.3,Win32,59.88023952,1.9948,,,20,0,20,0,1,,,,,,,,
,,"[""circle"",""green"",""hori"",""left"",[106,106],[-106,106]]",circle,green,hori,left,"[106,106]","[-106,106]",up,0,,,,,,001,2025-03-17_12h44.40.837,SL_base_41,2021.2.3,Win32,59.88023952,1.1431,,,21,0,21,0,1,,,,,,,,
,,"[""diamond"",""red"",""vert"",""up"",[106,106],[-106,-106]]",diamond,red,vert,up,"[106,106]","[-106,-106]",up,1,,,,,,001,2025-03-17_12h44.40.837,SL_base_41,2021.2.3,Win32,59.88023952,1.8927,,,22,0,22,0,1,,,,,,,,
,,"[""diamond"",""red"",""vert"",""up"",[106,106],[150,0]]",diamond,red,vert,up,"[106,106]","[150,0]",up,1,,,,,,001,2025-03-17_12h44.40.837,SL_base_41,2021.2.3,Win32,59.88023952,2.1104,,,23,0,23,0,1,,,,,,,,
,,"[""circle"",""no_dis"",""vert"",""up"",[99999,99999],[150,0]]",circle,no_dis,vert,up,"[99999,99999]","[150,0]",left,0,,,,,,001,2025-03-17_12h44.40.837,SL_base_41,2021.2.3,Win32,59.88023952,2.2342,,,24,0,24,0,1,,,,,,,,
,,"[""diamond"",""red"",""hori"",""left"",[0,150],[-106,-106]]",diamond,red,hori,left,"[0,150]","[-106,-106]",left,1,,,,,,001,2025-03-17_12h44.40.837,SL_base_41,2021.2.3,Win32,59.88023952,1.9846,,,25,0,25,0,1,,,,,,,,
,,"[""circle"",""green"",""vert"",""up"",[106,106],[106,-106]]",circle,green,vert,up,"[106,106]","[106,-106]",left,0,,,,,,001,2025-03-17_12h44.40.837,SL_base_41,2021.2.3,Win32,59.88023952,1.4947,,,26,0,26,0,1,,,,,,,,
,,"[""circle"",""red"",""vert"",""up"",[-150,0],[-106,-106]]",circle,red,vert,up,"[-150,0]","[-106,-106]",left,0,,,,,,001,2025-03-17_12h44.40.837,SL_base_41,2021.2.3,Win32,59.88023952,1.2811,,,27,0,27,0,1,,,,,,,,
,,"[""circle"",""no_dis"",""vert"",""up"",[99999,99999],[-150,0]]",circle,no_dis,vert,up,"[99999,99999]","[-150,0]",up,1,,,,,,001,2025-03-17_12h44.40.837,SL_base_41,2021.2.3,Win32,59.88023952,1.9465,,,28,0,28,0,1,,,,,,,,
,,"[""diamond"",""red"",""vert"",""up"",[0,150],[106,106]]",diamond,red,vert,up,"[0,150]","[106,106]",left,0,,,,,,001,2025-03-17_12h44.40.837,SL_base_41,2021.2.3,Win32,59.88023952,1.8918,,,29,0,29,0,1,,,,,,,,
,,"[""diamond"",""red"",""vert"",""up"",[0,-150],[-106,-106]]",diamond,red,vert,up,"[0,-150]","[-106,-106]",up,1,,,,,,001,2025-03-17_12h44.40.837,SL_base_41,2021.2.3,Win32,59.88023952,1.5863,,,30,0,30,0,1,,,,,,,,
,,"[""circle"",""green"",""hori"",""left"",[106,106],[-150,0]]",circle,green,hori,left,"[106,106]","[-150,0]",up,0,,,,,,001,2025-03-17_12h44.40.837,SL_base_41,2021.2.3,Win32,59.88023952,1.0589,,,31,0,31,0,1,,,,,,,,
,,"[""diamond"",""green"",""vert"",""up"",[106,106],[150,0]]",diamond,green,vert,up,"[106,106]","[150,0]",up,1,,,,,,001,2025-03-17_12h44.40.837,SL_base_41,2021.2.3,Win32,59.88023952,1.5113,,,32,0,32,0,1,,,,,,,,
,,"[""diamond"",""no_dis"",""hori"",""left"",[99999,99999],[0,150]]",diamond,no_dis,hori,left,"[99999,99999]","[0,150]",left,1,,,,,,001,2025-03-17_12h44.40.837,SL_base_41,2021.2.3,Win32,59.88023952,1.2622,,,33,0,33,0,1,,,,,,,,
,,"[""circle"",""red"",""vert"",""up"",[106,106],[0,-150]]",circle,red,vert,up,"[106,106]","[0,-150]",up,1,,,,,,001,2025-03-17_12h44.40.837,SL_base_41,2021.2.3,Win32,59.88023952,1.1465,,,34,0,34,0,1,,,,,,,,
,,"[""circle"",""no_dis"",""hori"",""left"",[99999,99999],[106,-106]]",circle,no_dis,hori,left,"[99999,99999]","[106,-106]",left,1,,,,,,001,2025-03-17_12h44.40.837,SL_base_41,2021.2.3,Win32,59.88023952,1.2372,,,35,0,35,0,1,,,,,,,,
,,"[""circle"",""no_dis"",""hori"",""left"",[99999,99999],[106,106]]",circle,no_dis,hori,left,"[99999,99999]","[106,106]",up,0,,,,,,001,2025-03-17_12h44.40.837,SL_base_41,2021.2.3,Win32,59.88023952,1.1513,,,36,0,36,0,1,,,,,,,,
,,"[""circle"",""red"",""hori"",""left"",[-150,0],[0,-150]]",circle,red,hori,left,"[-150,0]","[0,-150]",left,1,,,,,,001,2025-03-17_12h44.40.837,SL_base_41,2021.2.3,Win32,59.88023952,1.3172,,,37,0,37,0,1,,,,,,,,
,,"[""diamond"",""green"",""vert"",""up"",[106,106],[0,150]]",diamond,green,vert,up,"[106,106]","[0,150]",up,1,,,,,,001,2025-03-17_12h44.40.837,SL_base_41,2021.2.3,Win32,59.88023952,1.5827,,,38,0,38,0,1,,,,,,,,
,,"[""diamond"",""green"",""hori"",""left"",[-106,106],[106,106]]",diamond,green,hori,left,"[-106,106]","[106,106]",left,1,,,,,,001,2025-03-17_12h44.40.837,SL_base_41,2021.2.3,Win32,59.88023952,1.75,,,39,0,39,0,1,,,,,,,,
,,"[""diamond"",""green"",""vert"",""up"",[106,-106],[-106,-106]]",diamond,green,vert,up,"[106,-106]","[-106,-106]",up,1,,,,,,001,2025-03-17_12h44.40.837,SL_base_41,2021.2.3,Win32,59.88023952,1.2254,,,40,0,40,0,1,,,,,,,,
,,"[""diamond"",""red"",""hori"",""left"",[-150,0],[106,106]]",diamond,red,hori,left,"[-150,0]","[106,106]",left,1,,,,,,001,2025-03-17_12h44.40.837,SL_base_41,2021.2.3,Win32,59.88023952,1.411,,,41,0,41,0,1,,,,,,,,
,,"[""circle"",""green"",""vert"",""up"",[0,150],[150,0]]",circle,green,vert,up,"[0,150]","[150,0]",left,0,,,,,,001,2025-03-17_12h44.40.837,SL_base_41,2021.2.3,Win32,59.88023952,1.1266,,,42,0,42,0,1,,,,,,,,
,,"[""circle"",""no_dis"",""hori"",""left"",[99999,99999],[-106,106]]",circle,no_dis,hori,left,"[99999,99999]","[-106,106]",left,1,,,,,,001,2025-03-17_12h44.40.837,SL_base_41,2021.2.3,Win32,59.88023952,0.8863,,,43,0,43,0,1,,,,,,,,
,,"[""diamond"",""no_dis"",""hori"",""left"",[99999,99999],[-106,-106]]",diamond,no_dis,hori,left,"[99999,99999]","[-106,-106]",up,0,,,,,,001,2025-03-17_12h44.40.837,SL_base_41,2021.2.3,Win32,59.88023952,2.0211,,,44,0,44,0,1,,,,,,,,
,,"[""circle"",""red"",""vert"",""up"",[106,106],[-150,0]]",circle,red,vert,up,"[106,106]","[-150,0]",up,1,,,,,,001,2025-03-17_12h44.40.837,SL_base_41,2021.2.3,Win32,59.88023952,1.1923,,,45,0,45,0,1,,,,,,,,
,,"[""diamond"",""green"",""hori"",""left"",[150,0],[106,106]]",diamond,green,hori,left,"[150,0]","[106,106]",left,1,,,,,,001,2025-03-17_12h44.40.837,SL_base_41,2021.2.3,Win32,59.88023952,2.5695,,,46,0,46,0,1,,,,,,,,
,,"[""diamond"",""no_dis"",""vert"",""up"",[99999,99999],[106,-106]]",diamond,no_dis,vert,up,"[99999,99999]","[106,-106]",up,1,,,,,,001,2025-03-17_12h44.40.837,SL_base_41,2021.2.3,Win32,59.88023952,1.085,,,47,0,47,0,1,,,,,,,,
,,"[""diamond"",""no_dis"",""vert"",""up"",[99999,99999],[-150,0]]",diamond,no_dis,vert,up,"[99999,99999]","[-150,0]",up,1,,,,,,001,2025-03-17_12h44.40.837,SL_base_41,2021.2.3,Win32,59.88023952,1.0658,,,48,0,48,0,1,,,,,,,,
,,"[""circle"",""green"",""vert"",""up"",[106,-106],[0,150]]",circle,green,vert,up,"[106,-106]","[0,150]",up,1,,,,,,001,2025-03-17_12h44.40.837,SL_base_41,2021.2.3,Win32,59.88023952,1.0044,,,49,0,49,0,1,,,,,,,,
,,"[""diamond"",""red"",""vert"",""up"",[106,106],[0,-150]]",diamond,red,vert,up,"[106,106]","[0,-150]",up,1,,,,,,001,2025-03-17_12h44.40.837,SL_base_41,2021.2.3,Win32,59.88023952,1.2668,,,50,0,50,0,1,,,,,,,,
,,"[""circle"",""green"",""vert"",""up"",[106,106],[150,0]]",circle,green,vert,up,"[106,106]","[150,0]",up,1,,,,,,001,2025-03-17_12h44.40.837,SL_base_41,2021.2.3,Win32,59.88023952,0.7267,,,51,0,51,0,1,,,,,,,,
,,"[""circle"",""red"",""hori"",""left"",[106,106],[150,0]]",circle,red,hori,left,"[106,106]","[150,0]",left,1,,,,,,001,2025-03-17_12h44.40.837,SL_base_41,2021.2.3,Win32,59.88023952,0.9013,,,52,0,52,0,1,,,,,,,,
,,"[""diamond"",""no_dis"",""vert"",""up"",[99999,99999],[0,-150]]",diamond,no_dis,vert,up,"[99999,99999]","[0,-150]",left,0,,,,,,001,2025-03-17_12h44.40.837,SL_base_41,2021.2.3,Win32,59.88023952,1.2186,,,53,0,53,0,1,,,,,,,,
,,"[""diamond"",""no_dis"",""vert"",""up"",[99999,99999],[-106,106]]",diamond,no_dis,vert,up,"[99999,99999]","[-106,106]",up,1,,,,,,001,2025-03-17_12h44.40.837,SL_base_41,2021.2.3,Win32,59.88023952,1.1984,,,54,0,54,0,1,,,,,,,,
,,"[""diamond"",""no_dis"",""hori"",""left"",[99999,99999],[-106,-106]]",diamond,no_dis,hori,left,"[99999,99999]","[-106,-106]",left,1,,,,,,001,2025-03-17_12h44.40.837,SL_base_41,2021.2.3,Win32,59.88023952,1.2915,,,55,0,55,0,1,,,,,,,,
,,"[""circle"",""no_dis"",""hori"",""left"",[99999,99999],[0,-150]]",circle,no_dis,hori,left,"[99999,99999]","[0,-150]",up,0,,,,,,001,2025-03-17_12h44.40.837,SL_base_41,2021.2.3,Win32,59.88023952,1.1853,,,56,0,56,0,1,,,,,,,,
,,"[""diamond"",""red"",""hori"",""left"",[0,150],[-106,106]]",diamond,red,hori,left,"[0,150]","[-106,106]",left,1,,,,,,001,2025-03-17_12h44.40.837,SL_base_41,2021.2.3,Win32,59.88023952,1.6798,,,57,0,57,0,1,,,,,,,,
,,"[""circle"",""red"",""vert"",""up"",[106,106],[-106,106]]",circle,red,vert,up,"[106,106]","[-106,106]",up,1,,,,,,001,2025-03-17_12h44.40.837,SL_base_41,2021.2.3,Win32,59.88023952,1.0587,,,58,0,58,0,1,,,,,,,,
,,"[""circle"",""red"",""hori"",""left"",[106,106],[-106,106]]",circle,red,hori,left,"[106,106]","[-106,106]",left,1,,,,,,001,2025-03-17_12h44.40.837,SL_base_41,2021.2.3,Win32,59.88023952,0.8728,,,59,0,59,0,1,,,,,,,,
,,"[""diamond"",""red"",""vert"",""up"",[0,-150],[106,-106]]",diamond,red,vert,up,"[0,-150]","[106,-106]",up,1,,,,,,001,2025-03-17_12h44.40.837,SL_base_41,2021.2.3,Win32,59.88023952,1.6548,,,60,0,60,0,1,,,,,,,,
,,"[""circle"",""no_dis"",""vert"",""up"",[99999,99999],[150,0]]",circle,no_dis,vert,up,"[99999,99999]","[150,0]",left,0,,,,,,001,2025-03-17_12h44.40.837,SL_base_41,2021.2.3,Win32,59.88023952,0.8866,,,61,0,61,0,1,,,,,,,,
,,"[""diamond"",""no_dis"",""vert"",""up"",[99999,99999],[106,106]]",diamond,no_dis,vert,up,"[99999,99999]","[106,106]",up,1,,,,,,001,2025-03-17_12h44.40.837,SL_base_41,2021.2.3,Win32,59.88023952,1.3221,,,62,0,62,0,1,,,,,,,,
,,"[""diamond"",""green"",""vert"",""up"",[0,-150],[-106,106]]",diamond,green,vert,up,"[0,-150]","[-106,106]",up,1,,,,,,001,2025-03-17_12h44.40.837,SL_base_41,2021.2.3,Win32,59.88023952,1.3958,,,63,0,63,0,1,,,,,,,,
,,"[""circle"",""green"",""vert"",""up"",[106,-106],[0,-150]]",circle,green,vert,up,"[106,-106]","[0,-150]",left,0,,,,,,001,2025-03-17_12h44.40.837,SL_base_41,2021.2.3,Win32,59.88023952,1.2506,,,64,0,64,0,1,,,,,,,,
,,"[""circle"",""no_dis"",""hori"",""left"",[99999,99999],[106,-106]]",circle,no_dis,hori,left,"[99999,99999]","[106,-106]",up,0,,,,,,001,2025-03-17_12h44.40.837,SL_base_41,2021.2.3,Win32,59.88023952,0.9147,,,65,0,65,0,1,,,,,,,,
,,"[""circle"",""red"",""vert"",""up"",[-106,-106],[106,-106]]",circle,red,vert,up,"[-106,-106]","[106,-106]",left,0,,,,,,001,2025-03-17_12h44.40.837,SL_base_41,2021.2.3,Win32,59.88023952,1.0932,,,66,0,66,0,1,,,,,,,,
,,"[""circle"",""red"",""hori"",""left"",[106,106],[0,-150]]",circle,red,hori,left,"[106,106]","[0,-150]",left,1,,,,,,001,2025-03-17_12h44.40.837,SL_base_41,2021.2.3,Win32,59.88023952,1.0069,,,67,0,67,0,1,,,,,,,,
,,"[""diamond"",""no_dis"",""hori"",""left"",[99999,99999],[0,150]]",diamond,no_dis,hori,left,"[99999,99999]","[0,150]",left,1,,,,,,001,2025-03-17_12h44.40.837,SL_base_41,2021.2.3,Win32,59.88023952,1.2906,,,68,0,68,0,1,,,,,,,,
,,"[""circle"",""no_dis"",""vert"",""up"",[99999,99999],[106,106]]",circle,no_dis,vert,up,"[99999,99999]","[106,106]",up,1,,,,,,001,2025-03-17_12h44.40.837,SL_base_41,2021.2.3,Win32,59.88023952,2.4227,,,69,0,69,0,1,,,,,,,,
,,"[""diamond"",""red"",""hori"",""left"",[-106,106],[-150,0]]",diamond,red,hori,left,"[-106,106]","[-150,0]",left,1,,,,,,001,2025-03-17_12h44.40.837,SL_base_41,2021.2.3,Win32,59.88023952,1.2534,,,70,0,70,0,1,,,,,,,,
,,"[""diamond"",""green"",""hori"",""left"",[0,150],[-150,0]]",diamond,green,hori,left,"[0,150]","[-150,0]",left,1,,,,,,001,2025-03-17_12h44.40.837,SL_base_41,2021.2.3,Win32,59.88023952,1.9303,,,71,0,71,0,1,,,,,,,,
,,"[""circle"",""green"",""vert"",""up"",[-150,0],[-106,106]]",circle,green,vert,up,"[-150,0]","[-106,106]",left,0,,,,,,001,2025-03-17_12h44.40.837,SL_base_41,2021.2.3,Win32,59.88023952,1.0214,,,72,0,72,0,1,,,,,,,,
,,"[""diamond"",""green"",""vert"",""up"",[106,106],[-106,106]]",diamond,green,vert,up,"[106,106]","[-106,106]",up,1,,,,,,001,2025-03-17_12h44.40.837,SL_base_41,2021.2.3,Win32,59.88023952,1.5471,,,73,0,73,0,1,,,,,,,,
,,"[""circle"",""red"",""hori"",""left"",[106,106],[-106,-106]]",circle,red,hori,left,"[106,106]","[-106,-106]",up,0,,,,,,001,2025-03-17_12h44.40.837,SL_base_41,2021.2.3,Win32,59.88023952,2.3596,,,74,0,74,0,1,,,,,,,,
,,"[""diamond"",""red"",""vert"",""up"",[106,106],[150,0]]",diamond,red,vert,up,"[106,106]","[150,0]",up,1,,,,,,001,2025-03-17_12h44.40.837,SL_base_41,2021.2.3,Win32,59.88023952,1.2542,,,75,0,75,0,1,,,,,,,,
,,"[""circle"",""green"",""hori"",""left"",[-106,-106],[0,-150]]",circle,green,hori,left,"[-106,-106]","[0,-150]",up,0,,,,,,001,2025-03-17_12h44.40.837,SL_base_41,2021.2.3,Win32,59.88023952,1.0691,,,76,0,76,0,1,,,,,,,,
,,"[""diamond"",""red"",""hori"",""left"",[150,0],[0,-150]]",diamond,red,hori,left,"[150,0]","[0,-150]",left,1,,,,,,001,2025-03-17_12h44.40.837,SL_base_41,2021.2.3,Win32,59.88023952,1.2538,,,77,0,77,0,1,,,,,,,,
,,"[""circle"",""red"",""vert"",""up"",[-106,106],[106,106]]",circle,red,vert,up,"[-106,106]","[106,106]",up,1,,,,,,001,2025-03-17_12h44.40.837,SL_base_41,2021.2.3,Win32,59.88023952,1.1288,,,78,0,78,0,1,,,,,,,,
,,"[""circle"",""red"",""vert"",""up"",[106,-106],[-150,0]]",circle,red,vert,up,"[106,-106]","[-150,0]",up,1,,,,,,001,2025-03-17_12h44.40.837,SL_base_41,2021.2.3,Win32,59.88023952,1.2415,,,79,0,79,0,1,,,,,,,,
,,"[""circle"",""no_dis"",""hori"",""left"",[99999,99999],[0,-150]]",circle,no_dis,hori,left,"[99999,99999]","[0,-150]",up,0,,,,,,001,2025-03-17_12h44.40.837,SL_base_41,2021.2.3,Win32,59.88023952,0.6968,,,80,0,80,0,1,,,,,,,,
,,"[""circle"",""red"",""vert"",""up"",[0,-150],[106,106]]",circle,red,vert,up,"[0,-150]","[106,106]",up,1,,,,,,001,2025-03-17_12h44.40.837,SL_base_41,2021.2.3,Win32,59.88023952,0.6979,,,81,0,81,0,1,,,,,,,,
,,"[""diamond"",""green"",""vert"",""up"",[-106,-106],[106,-106]]",diamond,green,vert,up,"[-106,-106]","[106,-106]",up,1,,,,,,001,2025-03-17_12h44.40.837,SL_base_41,2021.2.3,Win32,59.88023952,1.3209,,,82,0,82,0,1,,,,,,,,
,,"[""diamond"",""green"",""hori"",""left"",[150,0],[-106,106]]",diamond,green,hori,left,"[150,0]","[-106,106]",left,1,,,,,,001,2025-03-17_12h44.40.837,SL_base_41,2021.2.3,Win32,59.88023952,1.217,,,83,0,83,0,1,,,,,,,,
,,"[""circle"",""green"",""hori"",""left"",[-106,106],[-150,0]]",circle,green,hori,left,"[-106,106]","[-150,0]",left,1,,,,,,001,2025-03-17_12h44.40.837,SL_base_41,2021.2.3,Win32,59.88023952,0.8987,,,84,0,84,0,1,,,,,,,,
,,"[""circle"",""no_dis"",""vert"",""up"",[99999,99999],[-106,106]]",circle,no_dis,vert,up,"[99999,99999]","[-106,106]",up,1,,,,,,001,2025-03-17_12h44.40.837,SL_base_41,2021.2.3,Win32,59.88023952,1.0801,,,85,0,85,0,1,,,,,,,,
,,"[""circle"",""green"",""vert"",""up"",[106,106],[106,-106]]",circle,green,vert,up,"[106,106]","[106,-106]",up,1,,,,,,001,2025-03-17_12h44.40.837,SL_base_41,2021.2.3,Win32,59.88023952,0.7245,,,86,0,86,0,1,,,,,,,,
,,"[""diamond"",""red"",""hori"",""left"",[0,-150],[-150,0]]",diamond,red,hori,left,"[0,-150]","[-150,0]",left,1,,,,,,001,2025-03-17_12h44.40.837,SL_base_41,2021.2.3,Win32,59.88023952,0.9043,,,87,0,87,0,1,,,,,,,,
,,"[""circle"",""no_dis"",""vert"",""up"",[99999,99999],[-106,-106]]",circle,no_dis,vert,up,"[99999,99999]","[-106,-106]",left,0,,,,,,001,2025-03-17_12h44.40.837,SL_base_41,2021.2.3,Win32,59.88023952,0.8301,,,88,0,88,0,1,,,,,,,,
,,"[""diamond"",""red"",""hori"",""left"",[106,106],[150,0]]",diamond,red,hori,left,"[106,106]","[150,0]",left,1,,,,,,001,2025-03-17_12h44.40.837,SL_base_41,2021.2.3,Win32,59.88023952,1.6553,,,89,0,89,0,1,,,,,,,,
,,"[""diamond"",""no_dis"",""hori"",""left"",[99999,99999],[-106,-106]]",diamond,no_dis,hori,left,"[99999,99999]","[-106,-106]",left,1,,,,,,001,2025-03-17_12h44.40.837,SL_base_41,2021.2.3,Win32,59.88023952,1.5516,,,90,0,90,0,1,,,,,,,,
,,"[""diamond"",""red"",""hori"",""left"",[-106,106],[150,0]]",diamond,red,hori,left,"[-106,106]","[150,0]",left,1,,,,,,001,2025-03-17_12h44.40.837,SL_base_41,2021.2.3,Win32,59.88023952,1.1698,,,91,0,91,0,1,,,,,,,,
,,"[""circle"",""green"",""hori"",""left"",[106,106],[-106,106]]",circle,green,hori,left,"[106,106]","[-106,106]",up,0,,,,,,001,2025-03-17_12h44.40.837,SL_base_41,2021.2.3,Win32,59.88023952,1.076,,,92,0,92,0,1,,,,,,,,
,,"[""diamond"",""green"",""hori"",""left"",[0,-150],[106,106]]",diamond,green,hori,left,"[0,-150]","[106,106]",up,0,,,,,,001,2025-03-17_12h44.40.837,SL_base_41,2021.2.3,Win32,59.88023952,0.8877,,,93,0,93,0,1,,,,,,,,
,,"[""circle"",""red"",""vert"",""up"",[106,106],[-106,-106]]",circle,red,vert,up,"[106,106]","[-106,-106]",left,0,,,,,,001,2025-03-17_12h44.40.837,SL_base_41,2021.2.3,Win32,59.88023952,0.7757,,,94,0,94,0,1,,,,,,,,
,,"[""diamond"",""green"",""hori"",""left"",[-106,-106],[0,150]]",diamond,green,hori,left,"[-106,-106]","[0,150]",up,0,,,,,,001,2025-03-17_12h44.40.837,SL_base_41,2021.2.3,Win32,59.88023952,0.9305,,,95,0,95,0,1,,,,,,,,
,,"[""diamond"",""no_dis"",""hori"",""left"",[99999,99999],[106,106]]",diamond,no_dis,hori,left,"[99999,99999]","[106,106]",up,0,,,,,,001,2025-03-17_12h44.40.837,SL_base_41,2021.2.3,Win32,59.88023952,1.0521,,,96,0,96,0,1,,,,,,,,
,,"[""diamond"",""red"",""hori"",""left"",[106,106],[0,-150]]",diamond,red,hori,left,"[106,106]","[0,-150]",left,1,,,,,,001,2025-03-17_12h44.40.837,SL_base_41,2021.2.3,Win32,59.88023952,1.1953,,,97,0,97,0,1,,,,,,,,
,,"[""diamond"",""no_dis"",""vert"",""up"",[99999,99999],[-106,106]]",diamond,no_dis,vert,up,"[99999,99999]","[-106,106]",up,1,,,,,,001,2025-03-17_12h44.40.837,SL_base_41,2021.2.3,Win32,59.88023952,1.5062,,,98,0,98,0,1,,,,,,,,
,,"[""circle"",""no_dis"",""vert"",""up"",[99999,99999],[0,150]]",circle,no_dis,vert,up,"[99999,99999]","[0,150]",left,0,,,,,,001,2025-03-17_12h44.40.837,SL_base_41,2021.2.3,Win32,59.88023952,0.9821,,,99,0,99,0,1,,,,,,,,
,,"[""diamond"",""no_dis"",""vert"",""up"",[99999,99999],[0,-150]]",diamond,no_dis,vert,up,"[99999,99999]","[0,-150]",up,1,,,,,,001,2025-03-17_12h44.40.837,SL_base_41,2021.2.3,Win32,59.88023952,1.1186,,,100,0,100,0,1,,,,,,,,
,,"[""circle"",""red"",""hori"",""left"",[-106,106],[-106,-106]]",circle,red,hori,left,"[-106,106]","[-106,-106]",left,1,,,,,,001,2025-03-17_12h44.40.837,SL_base_41,2021.2.3,Win32,59.88023952,1.8551,,,101,0,101,0,1,,,,,,,,
,,"[""circle"",""green"",""hori"",""left"",[106,106],[106,-106]]",circle,green,hori,left,"[106,106]","[106,-106]",up,0,,,,,,001,2025-03-17_12h44.40.837,SL_base_41,2021.2.3,Win32,59.88023952,2.0539,,,102,0,102,0,1,,,,,,,,
,,"[""circle"",""red"",""vert"",""up"",[106,-106],[106,106]]",circle,red,vert,up,"[106,-106]","[106,106]",left,0,,,,,,001,2025-03-17_12h44.40.837,SL_base_41,2021.2.3,Win32,59.88023952,2.0477,,,103,0,103,0,1,,,,,,,,
,,"[""diamond"",""red"",""vert"",""up"",[-150,0],[150,0]]",diamond,red,vert,up,"[-150,0]","[150,0]",up,1,,,,,,001,2025-03-17_12h44.40.837,SL_base_41,2021.2.3,Win32,59.88023952,1.1763,,,104,0,104,0,1,,,,,,,,
,,"[""circle"",""green"",""hori"",""left"",[150,0],[106,-106]]",circle,green,hori,left,"[150,0]","[106,-106]",up,0,,,,,,001,2025-03-17_12h44.40.837,SL_base_41,2021.2.3,Win32,59.88023952,1.0017,,,105,0,105,0,1,,,,,,,,
,,"[""circle"",""no_dis"",""hori"",""left"",[99999,99999],[-150,0]]",circle,no_dis,hori,left,"[99999,99999]","[-150,0]",left,1,,,,,,001,2025-03-17_12h44.40.837,SL_base_41,2021.2.3,Win32,59.88023952,0.972,,,106,0,106,0,1,,,,,,,,
,,"[""circle"",""red"",""hori"",""left"",[150,0],[106,-106]]",circle,red,hori,left,"[150,0]","[106,-106]",up,0,,,,,,001,2025-03-17_12h44.40.837,SL_base_41,2021.2.3,Win32,59.88023952,1.0539,,,107,0,107,0,1,,,,,,,,
,,"[""circle"",""red"",""hori"",""left"",[-106,106],[-106,-106]]",circle,red,hori,left,"[-106,106]","[-106,-106]",up,0,,,,,,001,2025-03-17_12h44.40.837,SL_base_41,2021.2.3,Win32,59.88023952,1.2427,,,108,0,108,0,1,,,,,,,,
,,"[""diamond"",""no_dis"",""vert"",""up"",[99999,99999],[-106,106]]",diamond,no_dis,vert,up,"[99999,99999]","[-106,106]",up,1,,,,,,001,2025-03-17_12h44.40.837,SL_base_41,2021.2.3,Win32,59.88023952,1.4611,,,109,0,109,0,1,,,,,,,,
,,"[""diamond"",""red"",""vert"",""up"",[150,0],[0,-150]]",diamond,red,vert,up,"[150,0]","[0,-150]",left,0,,,,,,001,2025-03-17_12h44.40.837,SL_base_41,2021.2.3,Win32,59.88023952,1.4316,,,110,0,110,0,1,,,,,,,,
,,"[""circle"",""green"",""vert"",""up"",[106,106],[-106,106]]",circle,green,vert,up,"[106,106]","[-106,106]",up,1,,,,,,001,2025-03-17_12h44.40.837,SL_base_41,2021.2.3,Win32,59.88023952,0.8534,,,111,0,111,0,1,,,,,,,,
,,"[""circle"",""green"",""hori"",""left"",[106,106],[-150,0]]",circle,green,hori,left,"[106,106]","[-150,0]",up,0,,,,,,001,2025-03-17_12h44.40.837,SL_base_41,2021.2.3,Win32,59.88023952,1.6357,,,112,0,112,0,1,,,,,,,,
,,"[""circle"",""no_dis"",""vert"",""up"",[99999,99999],[-150,0]]",circle,no_dis,vert,up,"[99999,99999]","[-150,0]",up,1,,,,,,001,2025-03-17_12h44.40.837,SL_base_41,2021.2.3,Win32,59.88023952,0.6664,,,113,0,113,0,1,,,,,,,,
,,"[""diamond"",""green"",""vert"",""up"",[-106,-106],[0,-150]]",diamond,green,vert,up,"[-106,-106]","[0,-150]",up,1,,,,,,001,2025-03-17_12h44.40.837,SL_base_41,2021.2.3,Win32,59.88023952,1.4719,,,114,0,114,0,1,,,,,,,,
,,"[""circle"",""red"",""hori"",""left"",[-106,-106],[0,-150]]",circle,red,hori,left,"[-106,-106]","[0,-150]",left,1,,,,,,001,2025-03-17_12h44.40.837,SL_base_41,2021.2.3,Win32,59.88023952,1.1576,,,115,0,115,0,1,,,,,,,,
,,"[""circle"",""green"",""vert"",""up"",[-106,106],[106,106]]",circle,green,vert,up,"[-106,106]","[106,106]",left,0,,,,,,001,2025-03-17_12h44.40.837,SL_base_41,2021.2.3,Win32,59.88023952,0.8988,,,116,0,116,0,1,,,,,,,,
,,"[""diamond"",""red"",""vert"",""up"",[106,106],[-106,106]]",diamond,red,vert,up,"[106,106]","[-106,106]",up,1,,,,,,001,2025-03-17_12h44.40.837,SL_base_41,2021.2.3,Win32,59.88023952,1.2171,,,117,0,117,0,1,,,,,,,,
,,"[""diamond"",""no_dis"",""hori"",""left"",[99999,99999],[0,150]]",diamond,no_dis,hori,left,"[99999,99999]","[0,150]",left,1,,,,,,001,2025-03-17_12h44.40.837,SL_base_41,2021.2.3,Win32,59.88023952,1.0977,,,118,0,118,0,1,,,,,,,,
,,"[""diamond"",""green"",""vert"",""up"",[106,106],[0,150]]",diamond,green,vert,up,"[106,106]","[0,150]",up,1,,,,,,001,2025-03-17_12h44.40.837,SL_base_41,2021.2.3,Win32,59.88023952,0.7642,,,119,0,119,0,1,,,,,,,,
,,"[""diamond"",""red"",""vert"",""up"",[150,0],[0,-150]]",diamond,red,vert,up,"[150,0]","[0,-150]",up,1,,,,,,001,2025-03-17_12h44.40.837,SL_base_41,2021.2.3,Win32,59.88023952,1.519,,,120,0,120,0,1,,,,,,,,
,,"[""diamond"",""no_dis"",""vert"",""up"",[99999,99999],[106,-106]]",diamond,no_dis,vert,up,"[99999,99999]","[106,-106]",up,1,,,,,,001,2025-03-17_12h44.40.837,SL_base_41,2021.2.3,Win32,59.88023952,1.7099,,,121,0,121,0,1,,,,,,,,
,,"[""circle"",""green"",""vert"",""up"",[0,150],[106,106]]",circle,green,vert,up,"[0,150]","[106,106]",left,0,,,,,,001,2025-03-17_12h44.40.837,SL_base_41,2021.2.3,Win32,59.88023952,0.9551,,,122,0,122,0,1,,,,,,,,
,,"[""diamond"",""no_dis"",""hori"",""left"",[99999,99999],[0,150]]",diamond,no_dis,hori,left,"[99999,99999]","[0,150]",left,1,,,,,,001,2025-03-17_12h44.40.837,SL_base_41,2021.2.3,Win32,59.88023952,0.8328,,,123,0,123,0,1,,,,,,,,
,,"[""circle"",""green"",""hori"",""left"",[150,0],[0,-150]]",circle,green,hori,left,"[150,0]","[0,-150]",left,1,,,,,,001,2025-03-17_12h44.40.837,SL_base_41,2021.2.3,Win32,59.88023952,0.9222,,,124,0,124,0,1,,,,,,,,
,,"[""diamond"",""green"",""hori"",""left"",[-106,-106],[0,150]]",diamond,green,hori,left,"[-106,-106]","[0,150]",left,1,,,,,,001,2025-03-17_12h44.40.837,SL_base_41,2021.2.3,Win32,59.88023952,1.4632,,,125,0,125,0,1,,,,,,,,
,,"[""diamond"",""green"",""vert"",""up"",[-150,0],[150,0]]",diamond,green,vert,up,"[-150,0]","[150,0]",up,1,,,,,,001,2025-03-17_12h44.40.837,SL_base_41,2021.2.3,Win32,59.88023952,1.453,,,126,0,126,0,1,,,,,,,,
,,"[""diamond"",""red"",""hori"",""left"",[106,106],[150,0]]",diamond,red,hori,left,"[106,106]","[150,0]",left,1,,,,,,001,2025-03-17_12h44.40.837,SL_base_41,2021.2.3,Win32,59.88023952,2.2604,,,127,0,127,0,1,,,,,,,,
,,,,,,,,,,,,,,,,001,2025-03-17_12h44.40.837,SL_base_41,2021.2.3,Win32,59.88023952,,,,,,,,,1,space,2.0901,0,0,0,0,1
,,"[""circle"",""red"",""vert"",""up"",[-106,-106],[106,-106]]",circle,red,vert,up,"[-106,-106]","[106,-106]",left,0,,,,,,001,2025-03-17_12h44.40.837,SL_base_41,2021.2.3,Win32,59.88023952,1.549,,,0,0,0,0,1,,,,,,,,
,,"[""diamond"",""green"",""hori"",""left"",[0,150],[106,106]]",diamond,green,hori,left,"[0,150]","[106,106]",up,0,,,,,,001,2025-03-17_12h44.40.837,SL_base_41,2021.2.3,Win32,59.88023952,1.4584,,,1,0,1,0,1,,,,,,,,
,,"[""circle"",""green"",""vert"",""up"",[106,106],[106,-106]]",circle,green,vert,up,"[106,106]","[106,-106]",up,1,,,,,,001,2025-03-17_12h44.40.837,SL_base_41,2021.2.3,Win32,59.88023952,1.0156,,,2,0,2,0,1,,,,,,,,
,,"[""diamond"",""red"",""hori"",""left"",[106,106],[150,0]]",diamond,red,hori,left,"[106,106]","[150,0]",left,1,,,,,,001,2025-03-17_12h44.40.837,SL_base_41,2021.2.3,Win32,59.88023952,1.0068,,,3,0,3,0,1,,,,,,,,
,,"[""diamond"",""green"",""hori"",""left"",[106,106],[-106,106]]",diamond,green,hori,left,"[106,106]","[-106,106]",up,0,,,,,,001,2025-03-17_12h44.40.837,SL_base_41,2021.2.3,Win32,59.88023952,1.2661,,,4,0,4,0,1,,,,,,,,
,,"[""diamond"",""red"",""hori"",""left"",[106,106],[150,0]]",diamond,red,hori,left,"[106,106]","[150,0]",left,1,,,,,,001,2025-03-17_12h44.40.837,SL_base_41,2021.2.3,Win32,59.88023952,0.9275,,,5,0,5,0,1,,,,,,,,
,,"[""circle"",""green"",""hori"",""left"",[106,106],[-150,0]]",circle,green,hori,left,"[106,106]","[-150,0]",,0,,,,,,001,2025-03-17_12h44.40.837,SL_base_41,2021.2.3,Win32,59.88023952,,,,6,0,6,0,1,,,,,,,,
,,"[""diamond"",""red"",""hori"",""left"",[-106,106],[150,0]]",diamond,red,hori,left,"[-106,106]","[150,0]",up,0,,,,,,001,2025-03-17_12h44.40.837,SL_base_41,2021.2.3,Win32,59.88023952,1.3165,,,7,0,7,0,1,,,,,,,,
,,"[""diamond"",""green"",""hori"",""left"",[-106,106],[106,106]]",diamond,green,hori,left,"[-106,106]","[106,106]",up,0,,,,,,001,2025-03-17_12h44.40.837,SL_base_41,2021.2.3,Win32,59.88023952,0.932,,,8,0,8,0,1,,,,,,,,
,,"[""diamond"",""no_dis"",""hori"",""left"",[99999,99999],[0,150]]",diamond,no_dis,hori,left,"[99999,99999]","[0,150]",left,1,,,,,,001,2025-03-17_12h44.40.837,SL_base_41,2021.2.3,Win32,59.88023952,0.9668,,,9,0,9,0,1,,,,,,,,
,,"[""diamond"",""green"",""vert"",""up"",[-150,0],[150,0]]",diamond,green,vert,up,"[-150,0]","[150,0]",up,1,,,,,,001,2025-03-17_12h44.40.837,SL_base_41,2021.2.3,Win32,59.88023952,1.1499,,,10,0,10,0,1,,,,,,,,
,,"[""circle"",""no_dis"",""hori"",""left"",[99999,99999],[106,-106]]",circle,no_dis,hori,left,"[99999,99999]","[106,-106]",up,0,,,,,,001,2025-03-17_12h44.40.837,SL_base_41,2021.2.3,Win32,59.88023952,0.9164,,,11,0,11,0,1,,,,,,,,
,,"[""circle"",""no_dis"",""hori"",""left"",[99999,99999],[-150,0]]",circle,no_dis,hori,left,"[99999,99999]","[-150,0]",left,1,,,,,,001,2025-03-17_12h44.40.837,SL_base_41,2021.2.3,Win32,59.88023952,0.6943,,,12,0,12,0,1,,,,,,,,
,,"[""diamond"",""no_dis"",""hori"",""left"",[99999,99999],[0,150]]",diamond,no_dis,hori,left,"[99999,99999]","[0,150]",left,1,,,,,,001,2025-03-17_12h44.40.837,SL_base_41,2021.2.3,Win32,59.88023952,0.748,,,13,0,13,0,1,,,,,,,,
,,"[""circle"",""no_dis"",""vert"",""up"",[99999,99999],[106,106]]",circle,no_dis,vert,up,"[99999,99999]","[106,106]",left,0,,,,,,001,2025-03-17_12h44.40.837,SL_base_41,2021.2.3,Win32,59.88023952,0.6794,,,14,0,14,0,1,,,,,,,,
,,"[""diamond"",""red"",""hori"",""left"",[0,-150],[106,-106]]",diamond,red,hori,left,"[0,-150]","[106,-106]",up,0,,,,,,001,2025-03-17_12h44.40.837,SL_base_41,2021.2.3,Win32,59.88023952,1.8029,,,15,0,15,0,1,,,,,,,,
,,"[""diamond"",""red"",""vert"",""up"",[106,106],[-106,106]]",diamond,red,vert,up,"[106,106]","[-106,106]",up,1,,,,,,001,2025-03-17_12h44.40.837,SL_base_41,2021.2.3,Win32,59.88023952,1.012,,,16,0,16,0,1,,,,,,,,
,,"[""circle"",""green"",""hori"",""left"",[106,106],[106,-106]]",circle,green,hori,left,"[106,106]","[106,-106]",left,1,,,,,,001,2025-03-17_12h44.40.837,SL_base_41,2021.2.3,Win32,59.88023952,0.967,,,17,0,17,0,1,,,,,,,,
,,"[""circle"",""red"",""hori"",""left"",[-106,-106],[0,-150]]",circle,red,hori,left,"[-106,-106]","[0,-150]",up,0,,,,,,001,2025-03-17_12h44.40.837,SL_base_41,2021.2.3,Win32,59.88023952,1.0678,,,18,0,18,0,1,,,,,,,,
,,"[""diamond"",""no_dis"",""vert"",""up"",[99999,99999],[150,0]]",diamond,no_dis,vert,up,"[99999,99999]","[150,0]",up,1,,,,,,001,2025-03-17_12h44.40.837,SL_base_41,2021.2.3,Win32,59.88023952,1.1238,,,19,0,19,0,1,,,,,,,,
,,"[""circle"",""green"",""hori"",""left"",[-106,106],[-150,0]]",circle,green,hori,left,"[-106,106]","[-150,0]",left,1,,,,,,001,2025-03-17_12h44.40.837,SL_base_41,2021.2.3,Win32,59.88023952,0.8826,,,20,0,20,0,1,,,,,,,,
,,"[""diamond"",""red"",""hori"",""left"",[-106,106],[-150,0]]",diamond,red,hori,left,"[-106,106]","[-150,0]",left,1,,,,,,001,2025-03-17_12h44.40.837,SL_base_41,2021.2.3,Win32,59.88023952,1.1453,,,21,0,21,0,1,,,,,,,,
,,"[""diamond"",""no_dis"",""hori"",""left"",[99999,99999],[106,106]]",diamond,no_dis,hori,left,"[99999,99999]","[106,106]",up,0,,,,,,001,2025-03-17_12h44.40.837,SL_base_41,2021.2.3,Win32,59.88023952,1.2084,,,22,0,22,0,1,,,,,,,,
,,"[""circle"",""no_dis"",""vert"",""up"",[99999,99999],[-150,0]]",circle,no_dis,vert,up,"[99999,99999]","[-150,0]",left,0,,,,,,001,2025-03-17_12h44.40.837,SL_base_41,2021.2.3,Win32,59.88023952,0.7502,,,23,0,23,0,1,,,,,,,,
,,"[""diamond"",""green"",""hori"",""left"",[0,-150],[106,106]]",diamond,green,hori,left,"[0,-150]","[106,106]",up,0,,,,,,001,2025-03-17_12h44.40.837,SL_base_41,2021.2.3,Win32,59.88023952,1.0339,,,24,0,24,0,1,,,,,,,,
,,"[""circle"",""no_dis"",""hori"",""left"",[99999,99999],[0,-150]]",circle,no_dis,hori,left,"[99999,99999]","[0,-150]",left,1,,,,,,001,2025-03-17_12h44.40.837,SL_base_41,2021.2.3,Win32,59.88023952,0.7131,,,25,0,25,0,1,,,,,,,,
,,"[""diamond"",""no_dis"",""hori"",""left"",[99999,99999],[0,150]]",diamond,no_dis,hori,left,"[99999,99999]","[0,150]",left,1,,,,,,001,2025-03-17_12h44.40.837,SL_base_41,2021.2.3,Win32,59.88023952,0.9651,,,26,0,26,0,1,,,,,,,,
,,"[""diamond"",""no_dis"",""vert"",""up"",[99999,99999],[-106,106]]",diamond,no_dis,vert,up,"[99999,99999]","[-106,106]",up,1,,,,,,001,2025-03-17_12h44.40.837,SL_base_41,2021.2.3,Win32,59.88023952,1.1115,,,27,0,27,0,1,,,,,,,,
,,"[""diamond"",""red"",""hori"",""left"",[150,0],[0,-150]]",diamond,red,hori,left,"[150,0]","[0,-150]",up,0,,,,,,001,2025-03-17_12h44.40.837,SL_base_41,2021.2.3,Win32,59.88023952,1.0274,,,28,0,28,0,1,,,,,,,,
,,"[""diamond"",""red"",""vert"",""up"",[0,-150],[106,-106]]",diamond,red,vert,up,"[0,-150]","[106,-106]",up,1,,,,,,001,2025-03-17_12h44.40.837,SL_base_41,2021.2.3,Win32,59.88023952,1.3526,,,29,0,29,0,1,,,,,,,,
,,"[""circle"",""red"",""vert"",""up"",[-150,0],[0,150]]",circle,red,vert,up,"[-150,0]","[0,150]",left,0,,,,,,001,2025-03-17_12h44.40.837,SL_base_41,2021.2.3,Win32,59.88023952,1.2711,,,30,0,30,0,1,,,,,,,,
,,"[""circle"",""green"",""hori"",""left"",[106,106],[-106,106]]",circle,green,hori,left,"[106,106]","[-106,106]",up,0,,,,,,001,2025-03-17_12h44.40.837,SL_base_41,2021.2.3,Win32,59.88023952,0.896,,,31,0,31,0,1,,,,,,,,
,,"[""diamond"",""red"",""vert"",""up"",[150,0],[0,-150]]",diamond,red,vert,up,"[150,0]","[0,-150]",up,1,,,,,,001,2025-03-17_12h44.40.837,SL_base_41,2021.2.3,Win32,59.88023952,0.9465,,,32,0,32,0,1,,,,,,,,
,,"[""circle"",""red"",""vert"",""up"",[-106,106],[106,106]]",circle,red,vert,up,"[-106,106]","[106,106]",up,1,,,,,,001,2025-03-17_12h44.40.837,SL_base_41,2021.2.3,Win32,59.88023952,1.0669,,,33,0,33,0,1,,,,,,,,
,,"[""circle"",""green"",""vert"",""up"",[106,106],[150,0]]",circle,green,vert,up,"[106,106]","[150,0]",left,0,,,,,,001,2025-03-17_12h44.40.837,SL_base_41,2021.2.3,Win32,59.88023952,1.0477,,,34,0,34,0,1,,,,,,,,
,,"[""diamond"",""green"",""hori"",""left"",[0,-150],[0,150]]",diamond,green,hori,left,"[0,-150]","[0,150]",left,1,,,,,,001,2025-03-17_12h44.40.837,SL_base_41,2021.2.3,Win32,59.88023952,0.7636,,,35,0,35,0,1,,,,,,,,
,,"[""circle"",""no_dis"",""vert"",""up"",[99999,99999],[150,0]]",circle,no_dis,vert,up,"[99999,99999]","[150,0]",left,0,,,,,,001,2025-03-17_12h44.40.837,SL_base_41,2021.2.3,Win32,59.88023952,1.0803,,,36,0,36,0,1,,,,,,,,
,,"[""circle"",""no_dis"",""hori"",""left"",[99999,99999],[106,-106]]",circle,no_dis,hori,left,"[99999,99999]","[106,-106]",left,1,,,,,,001,2025-03-17_12h44.40.837,SL_base_41,2021.2.3,Win32,59.88023952,1.8761,,,37,0,37,0,1,,,,,,,,
,,"[""circle"",""red"",""vert"",""up"",[106,106],[-106,-106]]",circle,red,vert,up,"[106,106]","[-106,-106]",up,1,,,,,,001,2025-03-17_12h44.40.837,SL_base_41,2021.2.3,Win32,59.88023952,1.0834,,,38,0,38,0,1,,,,,,,,
,,"[""circle"",""red"",""hori"",""left"",[-150,0],[0,-150]]",circle,red,hori,left,"[-150,0]","[0,-150]",left,1,,,,,,001,2025-03-17_12h44.40.837,SL_base_41,2021.2.3,Win32,59.88023952,1.282,,,39,0,39,0,1,,,,,,,,
,,"[""diamond"",""no_dis"",""vert"",""up"",[99999,99999],[106,106]]",diamond,no_dis,vert,up,"[99999,99999]","[106,106]",up,1,,,,,,001,2025-03-17_12h44.40.837,SL_base_41,2021.2.3,Win32,59.88023952,1.2461,,,40,0,40,0,1,,,,,,,,
,,"[""circle"",""green"",""vert"",""up"",[106,-106],[0,-150]]",circle,green,vert,up,"[106,-106]","[0,-150]",up,1,,,,,,001,2025-03-17_12h44.40.837,SL_base_41,2021.2.3,Win32,59.88023952,1.0536,,,41,0,41,0,1,,,,,,,,
,,"[""circle"",""green"",""hori"",""left"",[106,106],[-106,106]]",circle,green,hori,left,"[106,106]","[-106,106]",left,1,,,,,,001,2025-03-17_12h44.40.837,SL_base_41,2021.2.3,Win32,59.88023952,0.9631,,,42,0,42,0,1,,,,,,,,
,,"[""circle"",""no_dis"",""hori"",""left"",[99999,99999],[0,-150]]",circle,no_dis,hori,left,"[99999,99999]","[0,-150]",up,0,,,,,,001,2025-03-17_12h44.40.837,SL_base_41,2021.2.3,Win32,59.88023952,0.7306,,,43,0,43,0,1,,,,,,,,
,,"[""circle"",""no_dis"",""vert"",""up"",[99999,99999],[0,150]]",circle,no_dis,vert,up,"[99999,99999]","[0,150]",left,0,,,,,,001,2025-03-17_12h44.40.837,SL_base_41,2021.2.3,Win32,59.88023952,1.1475,,,44,0,44,0,1,,,,,,,,
,,"[""circle"",""red"",""vert"",""up"",[106,-106],[106,106]]",circle,red,vert,up,"[106,-106]","[106,106]",up,1,,,,,,001,2025-03-17_12h44.40.837,SL_base_41,2021.2.3,Win32,59.88023952,1.3251,,,45,0,45,0,1,,,,,,,,
,,"[""diamond"",""red"",""vert"",""up"",[106,106],[150,0]]",diamond,red,vert,up,"[106,106]","[150,0]",up,1,,,,,,001,2025-03-17_12h44.40.837,SL_base_41,2021.2.3,Win32,59.88023952,1.4938,,,46,0,46,0,1,,,,,,,,
,,"[""diamond"",""no_dis"",""hori"",""left"",[99999,99999],[-106,-106]]",diamond,no_dis,hori,left,"[99999,99999]","[-106,-106]",left,1,,,,,,001,2025-03-17_12h44.40.837,SL_base_41,2021.2.3,Win32,59.88023952,2.1631,,,47,0,47,0,1,,,,,,,,
,,"[""diamond"",""green"",""hori"",""left"",[106,106],[-150,0]]",diamond,green,hori,left,"[106,106]","[-150,0]",left,1,,,,,,001,2025-03-17_12h44.40.837,SL_base_41,2021.2.3,Win32,59.88023952,1.2296,,,48,0,48,0,1,,,,,,,,
,,"[""diamond"",""green"",""vert"",""up"",[0,-150],[-106,106]]",diamond,green,vert,up,"[0,-150]","[-106,106]",up,1,,,,,,001,2025-03-17_12h44.40.837,SL_base_41,2021.2.3,Win32,59.88023952,0.9454,,,49,0,49,0,1,,,,,,,,
,,"[""circle"",""green"",""hori"",""left"",[150,0],[0,-150]]",circle,green,hori,left,"[150,0]","[0,-150]",up,0,,,,,,001,2025-03-17_12h44.40.837,SL_base_41,2021.2.3,Win32,59.88023952,1.0827,,,50,0,50,0,1,,,,,,,,
,,"[""diamond"",""no_dis"",""hori"",""left"",[99999,99999],[-106,-106]]",diamond,no_dis,hori,left,"[99999,99999]","[-106,-106]",left,1,,,,,,001,2025-03-17_12h44.40.837,SL_base_41,2021.2.3,Win32,59.88023952,1.6606,,,51,0,51,0,1,,,,,,,,
,,"[""diamond"",""no_dis"",""vert"",""up"",[99999,99999],[0,-150]]",diamond,no_dis,vert,up,"[99999,99999]","[0,-150]",left,0,,,,,,001,2025-03-17_12h44.40.837,SL_base_41,2021.2.3,Win32,59.88023952,1.1138,,,52,0,52,0,1,,,,,,,,
,,"[""circle"",""no_dis"",""vert"",""up"",[99999,99999],[150,0]]",circle,no_dis,vert,up,"[99999,99999]","[150,0]",up,1,,,,,,001,2025-03-17_12h44.40.837,SL_base_41,2021.2.3,Win32,59.88023952,0.7431,,,53,0,53,0,1,,,,,,,,
,,"[""diamond"",""green"",""hori"",""left"",[150,0],[106,106]]",diamond,green,hori,left,"[150,0]","[106,106]",left,1,,,,,,001,2025-03-17_12h44.40.837,SL_base_41,2021.2.3,Win32,59.88023952,1.377,,,54,0,54,0,1,,,,,,,,
,,"[""diamond"",""green"",""hori"",""left"",[150,0],[-106,106]]",diamond,green,hori,left,"[150,0]","[-106,106]",left,1,,,,,,001,2025-03-17_12h44.40.837,SL_base_41,2021.2.3,Win32,59.88023952,1.6613,,,55,0,55,0,1,,,,,,,,
,,"[""circle"",""green"",""vert"",""up"",[0,150],[106,106]]",circle,green,vert,up,"[0,150]","[106,106]",up,1,,,,,,001,2025-03-17_12h44.40.837,SL_base_41,2021.2.3,Win32,59.88023952,1.0473,,,56,0,56,0,1,,,,,,,,
,,"[""diamond"",""green"",""vert"",""up"",[106,-106],[-106,-106]]",diamond,green,vert,up,"[106,-106]","[-106,-106]",up,1,,,,,,001,2025-03-17_12h44.40.837,SL_base_41,2021.2.3,Win32,59.88023952,1.1855,,,57,0,57,0,1,,,,,,,,
,,"[""circle"",""green"",""hori"",""left"",[-106,-106],[106,106]]",circle,green,hori,left,"[-106,-106]","[106,106]",up,0,,,,,,001,2025-03-17_12h44.40.837,SL_base_41,2021.2.3,Win32,59.88023952,0.9198,,,58,0,58,0,1,,,,,,,,
,,"[""circle"",""green"",""hori"",""left"",[150,0],[106,-106]]",circle,green,hori,left,"[150,0]","[106,-106]",left,1,,,,,,001,2025-03-17_12h44.40.837,SL_base_41,2021.2.3,Win32,59.88023952,1.096,,,59,0,59,0,1,,,,,,,,
,,"[""circle"",""green"",""hori"",""left"",[-106,-106],[0,-150]]",circle,green,hori,left,"[-106,-106]","[0,-150]",left,1,,,,,,001,2025-03-17_12h44.40.837,SL_base_41,2021.2.3,Win32,59.88023952,0.8635,,,60,0,60,0,1,,,,,,,,
,,"[""diamond"",""green"",""hori"",""left"",[0,150],[-150,0]]",diamond,green,hori,left,"[0,150]","[-150,0]",left,1,,,,,,001,2025-03-17_12h44.40.837,SL_base_41,2021.2.3,Win32,59.88023952,1.494,,,61,0,61,0,1,,,,,,,,
,,"[""diamond"",""green"",""vert"",""up"",[106,106],[0,150]]",diamond,green,vert,up,"[106,106]","[0,150]",up,1,,,,,,001,2025-03-17_12h44.40.837,SL_base_41,2021.2.3,Win32,59.88023952,1.0718,,,62,0,62,0,1,,,,,,,,
,,"[""diamond"",""no_dis"",""hori"",""left"",[99999,99999],[106,-106]]",diamond,no_dis,hori,left,"[99999,99999]","[106,-106]",left,1,,,,,,001,2025-03-17_12h44.40.837,SL_base_41,2021.2.3,Win32,59.88023952,2.0299,,,63,0,63,0,1,,,,,,,,
,,"[""circle"",""green"",""vert"",""up"",[-150,0],[-106,106]]",circle,green,vert,up,"[-150,0]","[-106,106]",up,1,,,,,,001,2025-03-17_12h44.40.837,SL_base_41,2021.2.3,Win32,59.88023952,0.8044,,,64,0,64,0,1,,,,,,,,
,,"[""circle"",""green"",""vert"",""up"",[106,106],[106,-106]]",circle,green,vert,up,"[106,106]","[106,-106]",up,1,,,,,,001,2025-03-17_12h44.40.837,SL_base_41,2021.2.3,Win32,59.88023952,1.1841,,,65,0,65,0,1,,,,,,,,
,,"[""circle"",""red"",""hori"",""left"",[-106,106],[-106,-106]]",circle,red,hori,left,"[-106,106]","[-106,-106]",left,1,,,,,,001,2025-03-17_12h44.40.837,SL_base_41,2021.2.3,Win32,59.88023952,1.1389,,,66,0,66,0,1,,,,,,,,
,,"[""diamond"",""green"",""vert"",""up"",[106,106],[0,150]]",diamond,green,vert,up,"[106,106]","[0,150]",up,1,,,,,,001,2025-03-17_12h44.40.837,SL_base_41,2021.2.3,Win32,59.88023952,1.3885,,,67,0,67,0,1,,,,,,,,
,,"[""diamond"",""no_dis"",""vert"",""up"",[99999,99999],[0,-150]]",diamond,no_dis,vert,up,"[99999,99999]","[0,-150]",up,1,,,,,,001,2025-03-17_12h44.40.837,SL_base_41,2021.2.3,Win32,59.88023952,1.6608,,,68,0,68,0,1,,,,,,,,
,,"[""diamond"",""red"",""hori"",""left"",[0,150],[-106,106]]",diamond,red,hori,left,"[0,150]","[-106,106]",left,1,,,,,,001,2025-03-17_12h44.40.837,SL_base_41,2021.2.3,Win32,59.88023952,1.2653,,,69,0,69,0,1,,,,,,,,
,,"[""circle"",""red"",""hori"",""left"",[106,-106],[106,106]]",circle,red,hori,left,"[106,-106]","[106,106]",up,0,,,,,,001,2025-03-17_12h44.40.837,SL_base_41,2021.2.3,Win32,59.88023952,1.3511,,,70,0,70,0,1,,,,,,,,
,,"[""diamond"",""green"",""vert"",""up"",[106,-106],[-150,0]]",diamond,green,vert,up,"[106,-106]","[-150,0]",up,1,,,,,,001,2025-03-17_12h44.40.837,SL_base_41,2021.2.3,Win32,59.88023952,0.987,,,71,0,71,0,1,,,,,,,,
,,"[""circle"",""no_dis"",""hori"",""left"",[99999,99999],[106,106]]",circle,no_dis,hori,left,"[99999,99999]","[106,106]",left,1,,,,,,001,2025-03-17_12h44.40.837,SL_base_41,2021.2.3,Win32,59.88023952,1.1913,,,72,0,72,0,1,,,,,,,,
,,"[""circle"",""green"",""vert"",""up"",[-106,106],[106,106]]",circle,green,vert,up,"[-106,106]","[106,106]",left,0,,,,,,001,2025-03-17_12h44.40.837,SL_base_41,2021.2.3,Win32,59.88023952,1.3166,,,73,0,73,0,1,,,,,,,,
,,"[""circle"",""red"",""hori"",""left"",[106,106],[0,-150]]",circle,red,hori,left,"[106,106]","[0,-150]",left,1,,,,,,001,2025-03-17_12h44.40.837,SL_base_41,2021.2.3,Win32,59.88023952,1.3155,,,74,0,74,0,1,,,,,,,,
,,"[""circle"",""no_dis"",""vert"",""up"",[99999,99999],[-106,106]]",circle,no_dis,vert,up,"[99999,99999]","[-106,106]",left,0,,,,,,001,2025-03-17_12h44.40.837,SL_base_41,2021.2.3,Win32,59.88023952,0.8838,,,75,0,75,0,1,,,,,,,,
,,"[""circle"",""no_dis"",""hori"",""left"",[99999,99999],[-150,0]]",circle,no_dis,hori,left,"[99999,99999]","[-150,0]",up,0,,,,,,001,2025-03-17_12h44.40.837,SL_base_41,2021.2.3,Win32,59.88023952,0.9648,,,76,0,76,0,1,,,,,,,,
,,"[""circle"",""no_dis"",""hori"",""left"",[99999,99999],[-106,-106]]",circle,no_dis,hori,left,"[99999,99999]","[-106,-106]",left,1,,,,,,001,2025-03-17_12h44.40.837,SL_base_41,2021.2.3,Win32,59.88023952,0.8229,,,77,0,77,0,1,,,,,,,,
,,"[""diamond"",""red"",""hori"",""left"",[-150,0],[106,106]]",diamond,red,hori,left,"[-150,0]","[106,106]",up,0,,,,,,001,2025-03-17_12h44.40.837,SL_base_41,2021.2.3,Win32,59.88023952,0.788,,,78,0,78,0,1,,,,,,,,
,,"[""circle"",""no_dis"",""vert"",""up"",[99999,99999],[-106,-106]]",circle,no_dis,vert,up,"[99999,99999]","[-106,-106]",left,0,,,,,,001,2025-03-17_12h44.40.837,SL_base_41,2021.2.3,Win32,59.88023952,0.832,,,79,0,79,0,1,,,,,,,,
,,"[""diamond"",""no_dis"",""vert"",""up"",[99999,99999],[106,-106]]",diamond,no_dis,vert,up,"[99999,99999]","[106,-106]",up,1,,,,,,001,2025-03-17_12h44.40.837,SL_base_41,2021.2.3,Win32,59.88023952,0.7717,,,80,0,80,0,1,,,,,,,,
,,"[""circle"",""green"",""vert"",""up"",[106,-106],[0,150]]",circle,green,vert,up,"[106,-106]","[0,150]",left,0,,,,,,001,2025-03-17_12h44.40.837,SL_base_41,2021.2.3,Win32,59.88023952,1.3985,,,81,0,81,0,1,,,,,,,,
,,"[""circle"",""no_dis"",""vert"",""up"",[99999,99999],[150,0]]",circle,no_dis,vert,up,"[99999,99999]","[150,0]",left,0,,,,,,001,2025-03-17_12h44.40.837,SL_base_41,2021.2.3,Win32,59.88023952,1.057,,,82,0,82,0,1,,,,,,,,
,,"[""circle"",""green"",""vert"",""up"",[106,106],[-150,0]]",circle,green,vert,up,"[106,106]","[-150,0]",left,0,,,,,,001,2025-03-17_12h44.40.837,SL_base_41,2021.2.3,Win32,59.88023952,0.8559,,,83,0,83,0,1,,,,,,,,
,,"[""diamond"",""red"",""hori"",""left"",[0,-150],[-150,0]]",diamond,red,hori,left,"[0,-150]","[-150,0]",left,1,,,,,,001,2025-03-17_12h44.40.837,SL_base_41,2021.2.3,Win32,59.88023952,1.1287,,,84,0,84,0,1,,,,,,,,
,,"[""diamond"",""red"",""vert"",""up"",[0,150],[106,106]]",diamond,red,vert,up,"[0,150]","[106,106]",up,1,,,,,,001,2025-03-17_12h44.40.837,SL_base_41,2021.2.3,Win32,59.88023952,1.288,,,85,0,85,0,1,,,,,,,,
,,"[""diamond"",""green"",""vert"",""up"",[106,106],[150,0]]",diamond,green,vert,up,"[106,106]","[150,0]",up,1,,,,,,001,2025-03-17_12h44.40.837,SL_base_41,2021.2.3,Win32,59.88023952,1.4246,,,86,0,86,0,1,,,,,,,,
,,"[""circle"",""red"",""hori"",""left"",[-106,106],[-106,-106]]",circle,red,hori,left,"[-106,106]","[-106,-106]",up,0,,,,,,001,2025-03-17_12h44.40.837,SL_base_41,2021.2.3,Win32,59.88023952,1.0518,,,87,0,87,0,1,,,,,,,,
,,"[""diamond"",""no_dis"",""hori"",""left"",[99999,99999],[106,106]]",diamond,no_dis,hori,left,"[99999,99999]","[106,106]",left,1,,,,,,001,2025-03-17_12h44.40.837,SL_base_41,2021.2.3,Win32,59.88023952,2.143,,,88,0,88,0,1,,,,,,,,
,,"[""circle"",""no_dis"",""vert"",""up"",[99999,99999],[-150,0]]",circle,no_dis,vert,up,"[99999,99999]","[-150,0]",left,0,,,,,,001,2025-03-17_12h44.40.837,SL_base_41,2021.2.3,Win32,59.88023952,1.1618,,,89,0,89,0,1,,,,,,,,
,,"[""diamond"",""red"",""vert"",""up"",[0,-150],[-106,-106]]",diamond,red,vert,up,"[0,-150]","[-106,-106]",up,1,,,,,,001,2025-03-17_12h44.40.837,SL_base_41,2021.2.3,Win32,59.88023952,1.5676,,,90,0,90,0,1,,,,,,,,
,,"[""circle"",""red"",""hori"",""left"",[106,106],[150,0]]",circle,red,hori,left,"[106,106]","[150,0]",left,1,,,,,,001,2025-03-17_12h44.40.837,SL_base_41,2021.2.3,Win32,59.88023952,0.9615,,,91,0,91,0,1,,,,,,,,
,,"[""diamond"",""no_dis"",""vert"",""up"",[99999,99999],[-150,0]]",diamond,no_dis,vert,up,"[99999,99999]","[-150,0]",up,1,,,,,,001,2025-03-17_12h44.40.837,SL_base_41,2021.2.3,Win32,59.88023952,0.9138,,,92,0,92,0,1,,,,,,,,
,,"[""circle"",""no_dis"",""vert"",""up"",[99999,99999],[150,0]]",circle,no_dis,vert,up,"[99999,99999]","[150,0]",up,1,,,,,,001,2025-03-17_12h44.40.837,SL_base_41,2021.2.3,Win32,59.88023952,0.9145,,,93,0,93,0,1,,,,,,,,
,,"[""circle"",""no_dis"",""hori"",""left"",[99999,99999],[0,-150]]",circle,no_dis,hori,left,"[99999,99999]","[0,-150]",left,1,,,,,,001,2025-03-17_12h44.40.837,SL_base_41,2021.2.3,Win32,59.88023952,0.8156,,,94,0,94,0,1,,,,,,,,
,,"[""diamond"",""no_dis"",""vert"",""up"",[99999,99999],[-106,106]]",diamond,no_dis,vert,up,"[99999,99999]","[-106,106]",up,1,,,,,,001,2025-03-17_12h44.40.837,SL_base_41,2021.2.3,Win32,59.88023952,1.1489,,,95,0,95,0,1,,,,,,,,
,,"[""circle"",""green"",""hori"",""left"",[106,106],[-150,0]]",circle,green,hori,left,"[106,106]","[-150,0]",up,0,,,,,,001,2025-03-17_12h44.40.837,SL_base_41,2021.2.3,Win32,59.88023952,0.9503,,,96,0,96,0,1,,,,,,,,
,,"[""diamond"",""green"",""vert"",""up"",[-150,0],[0,-150]]",diamond,green,vert,up,"[-150,0]","[0,-150]",up,1,,,,,,001,2025-03-17_12h44.40.837,SL_base_41,2021.2.3,Win32,59.88023952,1.7693,,,97,0,97,0,1,,,,,,,,
,,"[""circle"",""red"",""vert"",""up"",[106,106],[0,-150]]",circle,red,vert,up,"[106,106]","[0,-150]",left,0,,,,,,001,2025-03-17_12h44.40.837,SL_base_41,2021.2.3,Win32,59.88023952,1.0882,,,98,0,98,0,1,,,,,,,,
,,"[""diamond"",""no_dis"",""vert"",""up"",[99999,99999],[106,-106]]",diamond,no_dis,vert,up,"[99999,99999]","[106,-106]",up,1,,,,,,001,2025-03-17_12h44.40.837,SL_base_41,2021.2.3,Win32,59.88023952,1.5146,,,99,0,99,0,1,,,,,,,,
,,"[""diamond"",""no_dis"",""vert"",""up"",[99999,99999],[-106,106]]",diamond,no_dis,vert,up,"[99999,99999]","[-106,106]",up,1,,,,,,001,2025-03-17_12h44.40.837,SL_base_41,2021.2.3,Win32,59.88023952,0.9287,,,100,0,100,0,1,,,,,,,,
,,"[""diamond"",""red"",""vert"",""up"",[106,106],[0,-150]]",diamond,red,vert,up,"[106,106]","[0,-150]",up,1,,,,,,001,2025-03-17_12h44.40.837,SL_base_41,2021.2.3,Win32,59.88023952,0.8981,,,101,0,101,0,1,,,,,,,,
,,"[""circle"",""red"",""hori"",""left"",[0,150],[-150,0]]",circle,red,hori,left,"[0,150]","[-150,0]",up,0,,,,,,001,2025-03-17_12h44.40.837,SL_base_41,2021.2.3,Win32,59.88023952,0.7878,,,102,0,102,0,1,,,,,,,,
,,"[""circle"",""red"",""vert"",""up"",[-150,0],[-106,-106]]",circle,red,vert,up,"[-150,0]","[-106,-106]",up,1,,,,,,001,2025-03-17_12h44.40.837,SL_base_41,2021.2.3,Win32,59.88023952,0.7558,,,103,0,103,0,1,,,,,,,,
,,"[""diamond"",""red"",""hori"",""left"",[0,150],[-106,-106]]",diamond,red,hori,left,"[0,150]","[-106,-106]",left,1,,,,,,001,2025-03-17_12h44.40.837,SL_base_41,2021.2.3,Win32,59.88023952,1.4469,,,104,0,104,0,1,,,,,,,,
,,"[""circle"",""green"",""vert"",""up"",[106,106],[-106,106]]",circle,green,vert,up,"[106,106]","[-106,106]",up,1,,,,,,001,2025-03-17_12h44.40.837,SL_base_41,2021.2.3,Win32,59.88023952,1.7077,,,105,0,105,0,1,,,,,,,,
,,"[""diamond"",""green"",""vert"",""up"",[106,106],[-106,106]]",diamond,green,vert,up,"[106,106]","[-106,106]",up,1,,,,,,001,2025-03-17_12h44.40.837,SL_base_41,2021.2.3,Win32,59.88023952,1.0031,,,106,0,106,0,1,,,,,,,,
,,"[""circle"",""red"",""hori"",""left"",[106,106],[-106,-106]]",circle,red,hori,left,"[106,106]","[-106,-106]",up,0,,,,,,001,2025-03-17_12h44.40.837,SL_base_41,2021.2.3,Win32,59.88023952,0.5804,,,107,0,107,0,1,,,,,,,,
,,"[""diamond"",""green"",""hori"",""left"",[-106,-106],[0,150]]",diamond,green,hori,left,"[-106,-106]","[0,150]",up,0,,,,,,001,2025-03-17_12h44.40.837,SL_base_41,2021.2.3,Win32,59.88023952,1.3971,,,108,0,108,0,1,,,,,,,,
,,"[""diamond"",""no_dis"",""hori"",""left"",[99999,99999],[-106,-106]]",diamond,no_dis,hori,left,"[99999,99999]","[-106,-106]",,0,,,,,,001,2025-03-17_12h44.40.837,SL_base_41,2021.2.3,Win32,59.88023952,,,,109,0,109,0,1,,,,,,,,
,,"[""diamond"",""red"",""vert"",""up"",[106,106],[-106,-106]]",diamond,red,vert,up,"[106,106]","[-106,-106]",up,1,,,,,,001,2025-03-17_12h44.40.837,SL_base_41,2021.2.3,Win32,59.88023952,0.9691,,,110,0,110,0,1,,,,,,,,
,,"[""circle"",""green"",""vert"",""up"",[0,150],[150,0]]",circle,green,vert,up,"[0,150]","[150,0]",left,0,,,,,,001,2025-03-17_12h44.40.837,SL_base_41,2021.2.3,Win32,59.88023952,1.1139,,,111,0,111,0,1,,,,,,,,
,,"[""circle"",""red"",""vert"",""up"",[106,106],[-150,0]]",circle,red,vert,up,"[106,106]","[-150,0]",up,1,,,,,,001,2025-03-17_12h44.40.837,SL_base_41,2021.2.3,Win32,59.88023952,0.8991,,,112,0,112,0,1,,,,,,,,
,,"[""diamond"",""red"",""vert"",""up"",[150,0],[0,-150]]",diamond,red,vert,up,"[150,0]","[0,-150]",up,1,,,,,,001,2025-03-17_12h44.40.837,SL_base_41,2021.2.3,Win32,59.88023952,1.9615,,,113,0,113,0,1,,,,,,,,
,,"[""diamond"",""no_dis"",""hori"",""left"",[99999,99999],[0,150]]",diamond,no_dis,hori,left,"[99999,99999]","[0,150]",left,1,,,,,,001,2025-03-17_12h44.40.837,SL_base_41,2021.2.3,Win32,59.88023952,0.9871,,,114,0,114,0,1,,,,,,,,
,,"[""diamond"",""red"",""hori"",""left"",[106,106],[0,-150]]",diamond,red,hori,left,"[106,106]","[0,-150]",left,1,,,,,,001,2025-03-17_12h44.40.837,SL_base_41,2021.2.3,Win32,59.88023952,1.1175,,,115,0,115,0,1,,,,,,,,
,,"[""circle"",""red"",""vert"",""up"",[106,-106],[-150,0]]",circle,red,vert,up,"[106,-106]","[-150,0]",up,1,,,,,,001,2025-03-17_12h44.40.837,SL_base_41,2021.2.3,Win32,59.88023952,1.13,,,116,0,116,0,1,,,,,,,,
,,"[""diamond"",""red"",""vert"",""up"",[-150,0],[150,0]]",diamond,red,vert,up,"[-150,0]","[150,0]",up,1,,,,,,001,2025-03-17_12h44.40.837,SL_base_41,2021.2.3,Win32,59.88023952,1.4329,,,117,0,117,0,1,,,,,,,,
,,"[""circle"",""green"",""hori"",""left"",[106,-106],[-150,0]]",circle,green,hori,left,"[106,-106]","[-150,0]",left,1,,,,,,001,2025-03-17_12h44.40.837,SL_base_41,2021.2.3,Win32,59.88023952,0.8544,,,118,0,118,0,1,,,,,,,,
,,"[""circle"",""red"",""hori"",""left"",[106,106],[-106,106]]",circle,red,hori,left,"[106,106]","[-106,106]",up,0,,,,,,001,2025-03-17_12h44.40.837,SL_base_41,2021.2.3,Win32,59.88023952,1.2258,,,119,0,119,0,1,,,,,,,,
,,"[""circle"",""red"",""hori"",""left"",[150,0],[106,-106]]",circle,red,hori,left,"[150,0]","[106,-106]",up,0,,,,,,001,2025-03-17_12h44.40.837,SL_base_41,2021.2.3,Win32,59.88023952,1.2586,,,120,0,120,0,1,,,,,,,,
,,"[""diamond"",""red"",""vert"",""up"",[106,106],[150,0]]",diamond,red,vert,up,"[106,106]","[150,0]",up,1,,,,,,001,2025-03-17_12h44.40.837,SL_base_41,2021.2.3,Win32,59.88023952,1.2119,,,121,0,121,0,1,,,,,,,,
,,"[""circle"",""red"",""vert"",""up"",[106,106],[-106,106]]",circle,red,vert,up,"[106,106]","[-106,106]",up,1,,,,,,001,2025-03-17_12h44.40.837,SL_base_41,2021.2.3,Win32,59.88023952,0.6404,,,122,0,122,0,1,,,,,,,,
,,"[""diamond"",""green"",""vert"",""up"",[-106,-106],[0,-150]]",diamond,green,vert,up,"[-106,-106]","[0,-150]",up,1,,,,,,001,2025-03-17_12h44.40.837,SL_base_41,2021.2.3,Win32,59.88023952,0.9985,,,123,0,123,0,1,,,,,,,,
,,"[""diamond"",""green"",""vert"",""up"",[-106,-106],[106,-106]]",diamond,green,vert,up,"[-106,-106]","[106,-106]",up,1,,,,,,001,2025-03-17_12h44.40.837,SL_base_41,2021.2.3,Win32,59.88023952,1.82,,,124,0,124,0,1,,,,,,,,
,,"[""circle"",""red"",""vert"",""up"",[0,-150],[106,106]]",circle,red,vert,up,"[0,-150]","[106,106]",up,1,,,,,,001,2025-03-17_12h44.40.837,SL_base_41,2021.2.3,Win32,59.88023952,0.9796,,,125,0,125,0,1,,,,,,,,
,,"[""circle"",""no_dis"",""hori"",""left"",[99999,99999],[-106,106]]",circle,no_dis,hori,left,"[99999,99999]","[-106,106]",up,0,,,,,,001,2025-03-17_12h44.40.837,SL_base_41,2021.2.3,Win32,59.88023952,0.9238,,,126,0,126,0,1,,,,,,,,
,,"[""diamond"",""green"",""hori"",""left"",[-106,-106],[0,150]]",diamond,green,hori,left,"[-106,-106]","[0,150]",left,1,,,,,,001,2025-03-17_12h44.40.837,SL_base_41,2021.2.3,Win32,59.88023952,1.3378,,,127,0,127,0,1,,,,,,,,
,,,,,,,,,,,,,,,,001,2025-03-17_12h44.40.837,SL_base_41,2021.2.3,Win32,59.88023952,,,,,,,,,2,space,2.4444,1,0,1,0,1
,,"[""diamond"",""red"",""hori"",""left"",[0,150],[-106,-106]]",diamond,red,hori,left,"[0,150]","[-106,-106]",left,1,,,,,,001,2025-03-17_12h44.40.837,SL_base_41,2021.2.3,Win32,59.88023952,2.1549,,,0,0,0,0,1,,,,,,,,
,,"[""diamond"",""red"",""hori"",""left"",[0,150],[-106,106]]",diamond,red,hori,left,"[0,150]","[-106,106]",left,1,,,,,,001,2025-03-17_12h44.40.837,SL_base_41,2021.2.3,Win32,59.88023952,1.1648,,,1,0,1,0,1,,,,,,,,
,,"[""diamond"",""green"",""vert"",""up"",[0,-150],[-106,106]]",diamond,green,vert,up,"[0,-150]","[-106,106]",up,1,,,,,,001,2025-03-17_12h44.40.837,SL_base_41,2021.2.3,Win32,59.88023952,0.9982,,,2,0,2,0,1,,,,,,,,
,,"[""circle"",""green"",""hori"",""left"",[106,106],[-150,0]]",circle,green,hori,left,"[106,106]","[-150,0]",up,0,,,,,,001,2025-03-17_12h44.40.837,SL_base_41,2021.2.3,Win32,59.88023952,0.9662,,,3,0,3,0,1,,,,,,,,
,,"[""circle"",""green"",""hori"",""left"",[150,0],[106,-106]]",circle,green,hori,left,"[150,0]","[106,-106]",up,0,,,,,,001,2025-03-17_12h44.40.837,SL_base_41,2021.2.3,Win32,59.88023952,0.6233,,,4,0,4,0,1,,,,,,,,
,,"[""diamond"",""green"",""hori"",""left"",[0,150],[106,106]]",diamond,green,hori,left,"[0,150]","[106,106]",left,1,,,,,,001,2025-03-17_12h44.40.837,SL_base_41,2021.2.3,Win32,59.88023952,2.1638,,,5,0,5,0,1,,,,,,,,
,,"[""diamond"",""red"",""hori"",""left"",[0,-150],[106,-106]]",diamond,red,hori,left,"[0,-150]","[106,-106]",left,1,,,,,,001,2025-03-17_12h44.40.837,SL_base_41,2021.2.3,Win32,59.88023952,1.6418,,,6,0,6,0,1,,,,,,,,
,,"[""circle"",""green"",""vert"",""up"",[0,150],[106,106]]",circle,green,vert,up,"[0,150]","[106,106]",left,0,,,,,,001,2025-03-17_12h44.40.837,SL_base_41,2021.2.3,Win32,59.88023952,1.0846,,,7,0,7,0,1,,,,,,,,
,,"[""circle"",""green"",""hori"",""left"",[-106,-106],[106,106]]",circle,green,hori,left,"[-106,-106]","[106,106]",left,1,,,,,,001,2025-03-17_12h44.40.837,SL_base_41,2021.2.3,Win32,59.88023952,0.741,,,8,0,8,0,1,,,,,,,,
,,"[""diamond"",""no_dis"",""hori"",""left"",[99999,99999],[106,106]]",diamond,no_dis,hori,left,"[99999,99999]","[106,106]",left,1,,,,,,001,2025-03-17_12h44.40.837,SL_base_41,2021.2.3,Win32,59.88023952,1.0712,,,9,0,9,0,1,,,,,,,,
,,"[""diamond"",""no_dis"",""vert"",""up"",[99999,99999],[0,-150]]",diamond,no_dis,vert,up,"[99999,99999]","[0,-150]",up,1,,,,,,001,2025-03-17_12h44.40.837,SL_base_41,2021.2.3,Win32,59.88023952,0.9511,,,10,0,10,0,1,,,,,,,,
,,"[""diamond"",""no_dis"",""hori"",""left"",[99999,99999],[-106,-106]]",diamond,no_dis,hori,left,"[99999,99999]","[-106,-106]",up,0,,,,,,001,2025-03-17_12h44.40.837,SL_base_41,2021.2.3,Win32,59.88023952,1.0898,,,11,0,11,0,1,,,,,,,,
,,"[""diamond"",""green"",""hori"",""left"",[106,106],[-150,0]]",diamond,green,hori,left,"[106,106]","[-150,0]",left,1,,,,,,001,2025-03-17_12h44.40.837,SL_base_41,2021.2.3,Win32,59.88023952,1.697,,,12,0,12,0,1,,,,,,,,
,,"[""diamond"",""red"",""hori"",""left"",[106,106],[150,0]]",diamond,red,hori,left,"[106,106]","[150,0]",left,1,,,,,,001,2025-03-17_12h44.40.837,SL_base_41,2021.2.3,Win32,59.88023952,1.2501,,,13,0,13,0,1,,,,,,,,
,,"[""circle"",""red"",""hori"",""left"",[106,106],[-106,106]]",circle,red,hori,left,"[106,106]","[-106,106]",left,1,,,,,,001,2025-03-17_12h44.40.837,SL_base_41,2021.2.3,Win32,59.88023952,0.797,,,14,0,14,0,1,,,,,,,,
,,"[""diamond"",""green"",""vert"",""up"",[106,106],[0,150]]",diamond,green,vert,up,"[106,106]","[0,150]",up,1,,,,,,001,2025-03-17_12h44.40.837,SL_base_41,2021.2.3,Win32,59.88023952,0.9177,,,15,0,15,0,1,,,,,,,,
,,"[""circle"",""no_dis"",""hori"",""left"",[99999,99999],[-150,0]]",circle,no_dis,hori,left,"[99999,99999]","[-150,0]",up,0,,,,,,001,2025-03-17_12h44.40.837,SL_base_41,2021.2.3,Win32,59.88023952,0.7284,,,16,0,16,0,1,,,,,,,,
,,"[""diamond"",""green"",""vert"",""up"",[-106,-106],[0,-150]]",diamond,green,vert,up,"[-106,-106]","[0,-150]",up,1,,,,,,001,2025-03-17_12h44.40.837,SL_base_41,2021.2.3,Win32,59.88023952,0.9547,,,17,0,17,0,1,,,,,,,,
,,"[""circle"",""red"",""vert"",""up"",[0,-150],[106,106]]",circle,red,vert,up,"[0,-150]","[106,106]",up,1,,,,,,001,2025-03-17_12h44.40.837,SL_base_41,2021.2.3,Win32,59.88023952,0.5974,,,18,0,18,0,1,,,,,,,,
,,"[""circle"",""red"",""vert"",""up"",[106,-106],[-150,0]]",circle,red,vert,up,"[106,-106]","[-150,0]",up,1,,,,,,001,2025-03-17_12h44.40.837,SL_base_41,2021.2.3,Win32,59.88023952,0.665,,,19,0,19,0,1,,,,,,,,
,,"[""diamond"",""no_dis"",""vert"",""up"",[99999,99999],[106,-106]]",diamond,no_dis,vert,up,"[99999,99999]","[106,-106]",up,1,,,,,,001,2025-03-17_12h44.40.837,SL_base_41,2021.2.3,Win32,59.88023952,1.3956,,,20,0,20,0,1,,,,,,,,
,,"[""circle"",""green"",""vert"",""up"",[0,150],[150,0]]",circle,green,vert,up,"[0,150]","[150,0]",up,1,,,,,,001,2025-03-17_12h44.40.837,SL_base_41,2021.2.3,Win32,59.88023952,1.0544,,,21,0,21,0,1,,,,,,,,
,,"[""diamond"",""no_dis"",""hori"",""left"",[99999,99999],[0,150]]",diamond,no_dis,hori,left,"[99999,99999]","[0,150]",left,1,,,,,,001,2025-03-17_12h44.40.837,SL_base_41,2021.2.3,Win32,59.88023952,1.3114,,,22,0,22,0,1,,,,,,,,
,,"[""circle"",""no_dis"",""hori"",""left"",[99999,99999],[-106,-106]]",circle,no_dis,hori,left,"[99999,99999]","[-106,-106]",left,1,,,,,,001,2025-03-17_12h44.40.837,SL_base_41,2021.2.3,Win32,59.88023952,0.9513,,,23,0,23,0,1,,,,,,,,
,,"[""circle"",""red"",""vert"",""up"",[106,106],[-106,-106]]",circle,red,vert,up,"[106,106]","[-106,-106]",up,1,,,,,,001,2025-03-17_12h44.40.837,SL_base_41,2021.2.3,Win32,59.88023952,0.7801,,,24,0,24,0,1,,,,,,,,
,,"[""diamond"",""red"",""vert"",""up"",[150,0],[0,-150]]",diamond,red,vert,up,"[150,0]","[0,-150]",up,1,,,,,,001,2025-03-17_12h44.40.837,SL_base_41,2021.2.3,Win32,59.88023952,2.0399,,,25,0,25,0,1,,,,,,,,
,,"[""diamond"",""no_dis"",""hori"",""left"",[99999,99999],[-106,-106]]",diamond,no_dis,hori,left,"[99999,99999]","[-106,-106]",left,1,,,,,,001,2025-03-17_12h44.40.837,SL_base_41,2021.2.3,Win32,59.88023952,2.196,,,26,0,26,0,1,,,,,,,,
,,"[""diamond"",""no_dis"",""vert"",""up"",[99999,99999],[-106,106]]",diamond,no_dis,vert,up,"[99999,99999]","[-106,106]",up,1,,,,,,001,2025-03-17_12h44.40.837,SL_base_41,2021.2.3,Win32,59.88023952,1.2775,,,27,0,27,0,1,,,,,,,,
,,"[""diamond"",""red"",""vert"",""up"",[0,150],[106,106]]",diamond,red,vert,up,"[0,150]","[106,106]",up,1,,,,,,001,2025-03-17_12h44.40.837,SL_base_41,2021.2.3,Win32,59.88023952,1.8949,,,28,0,28,0,1,,,,,,,,
,,"[""circle"",""no_dis"",""vert"",""up"",[99999,99999],[-150,0]]",circle,no_dis,vert,up,"[99999,99999]","[-150,0]",up,1,,,,,,001,2025-03-17_12h44.40.837,SL_base_41,2021.2.3,Win32,59.88023952,1.056,,,29,0,29,0,1,,,,,,,,
,,"[""diamond"",""green"",""vert"",""up"",[-150,0],[150,0]]",diamond,green,vert,up,"[-150,0]","[150,0]",up,1,,,,,,001,2025-03-17_12h44.40.837,SL_base_41,2021.2.3,Win32,59.88023952,1.3768,,,30,0,30,0,1,,,,,,,,
,,"[""circle"",""no_dis"",""vert"",""up"",[99999,99999],[106,106]]",circle,no_dis,vert,up,"[99999,99999]","[106,106]",left,0,,,,,,001,2025-03-17_12h44.40.837,SL_base_41,2021.2.3,Win32,59.88023952,0.8567,,,31,0,31,0,1,,,,,,,,
,,"[""circle"",""no_dis"",""vert"",""up"",[99999,99999],[0,150]]",circle,no_dis,vert,up,"[99999,99999]","[0,150]",up,1,,,,,,001,2025-03-17_12h44.40.837,SL_base_41,2021.2.3,Win32,59.88023952,1.2469,,,32,0,32,0,1,,,,,,,,
,,"[""diamond"",""no_dis"",""vert"",""up"",[99999,99999],[-106,106]]",diamond,no_dis,vert,up,"[99999,99999]","[-106,106]",up,1,,,,,,001,2025-03-17_12h44.40.837,SL_base_41,2021.2.3,Win32,59.88023952,1.2805,,,33,0,33,0,1,,,,,,,,
,,"[""circle"",""no_dis"",""vert"",""up"",[99999,99999],[-150,0]]",circle,no_dis,vert,up,"[99999,99999]","[-150,0]",left,0,,,,,,001,2025-03-17_12h44.40.837,SL_base_41,2021.2.3,Win32,59.88023952,0.9733,,,34,0,34,0,1,,,,,,,,
,,"[""circle"",""no_dis"",""hori"",""left"",[99999,99999],[106,-106]]",circle,no_dis,hori,left,"[99999,99999]","[106,-106]",up,0,,,,,,001,2025-03-17_12h44.40.837,SL_base_41,2021.2.3,Win32,59.88023952,0.6494,,,35,0,35,0,1,,,,,,,,
,,"[""circle"",""red"",""hori"",""left"",[106,106],[150,0]]",circle,red,hori,left,"[106,106]","[150,0]",left,1,,,,,,001,2025-03-17_12h44.40.837,SL_base_41,2021.2.3,Win32,59.88023952,0.715,,,36,0,36,0,1,,,,,,,,
,,"[""diamond"",""red"",""hori"",""left"",[106,106],[150,0]]",diamond,red,hori,left,"[106,106]","[150,0]",left,1,,,,,,001,2025-03-17_12h44.40.837,SL_base_41,2021.2.3,Win32,59.88023952,1.5703,,,37,0,37,0,1,,,,,,,,
,,"[""circle"",""no_dis"",""vert"",""up"",[99999,99999],[150,0]]",circle,no_dis,vert,up,"[99999,99999]","[150,0]",left,0,,,,,,001,2025-03-17_12h44.40.837,SL_base_41,2021.2.3,Win32,59.88023952,0.6483,,,38,0,38,0,1,,,,,,,,
,,"[""circle"",""green"",""vert"",""up"",[106,106],[-106,106]]",circle,green,vert,up,"[106,106]","[-106,106]",up,1,,,,,,001,2025-03-17_12h44.40.837,SL_base_41,2021.2.3,Win32,59.88023952,0.7839,,,39,0,39,0,1,,,,,,,,
,,"[""diamond"",""green"",""vert"",""up"",[-150,0],[0,-150]]",diamond,green,vert,up,"[-150,0]","[0,-150]",left,0,,,,,,001,2025-03-17_12h44.40.837,SL_base_41,2021.2.3,Win32,59.88023952,1.3656,,,40,0,40,0,1,,,,,,,,
,,"[""circle"",""green"",""vert"",""up"",[106,106],[106,-106]]",circle,green,vert,up,"[106,106]","[106,-106]",up,1,,,,,,001,2025-03-17_12h44.40.837,SL_base_41,2021.2.3,Win32,59.88023952,0.5359,,,41,0,41,0,1,,,,,,,,
,,"[""diamond"",""red"",""hori"",""left"",[150,0],[0,-150]]",diamond,red,hori,left,"[150,0]","[0,-150]",left,1,,,,,,001,2025-03-17_12h44.40.837,SL_base_41,2021.2.3,Win32,59.88023952,1.125,,,42,0,42,0,1,,,,,,,,
,,"[""circle"",""red"",""hori"",""left"",[106,106],[-106,-106]]",circle,red,hori,left,"[106,106]","[-106,-106]",up,0,,,,,,001,2025-03-17_12h44.40.837,SL_base_41,2021.2.3,Win32,59.88023952,0.715,,,43,0,43,0,1,,,,,,,,
,,"[""diamond"",""no_dis"",""hori"",""left"",[99999,99999],[0,150]]",diamond,no_dis,hori,left,"[99999,99999]","[0,150]",left,1,,,,,,001,2025-03-17_12h44.40.837,SL_base_41,2021.2.3,Win32,59.88023952,1.1059,,,44,0,44,0,1,,,,,,,,
,,"[""diamond"",""no_dis"",""vert"",""up"",[99999,99999],[-106,106]]",diamond,no_dis,vert,up,"[99999,99999]","[-106,106]",up,1,,,,,,001,2025-03-17_12h44.40.837,SL_base_41,2021.2.3,Win32,59.88023952,1.1534,,,45,0,45,0,1,,,,,,,,
,,"[""diamond"",""green"",""vert"",""up"",[106,106],[150,0]]",diamond,green,vert,up,"[106,106]","[150,0]",up,1,,,,,,001,2025-03-17_12h44.40.837,SL_base_41,2021.2.3,Win32,59.88023952,0.9693,,,46,0,46,0,1,,,,,,,,
,,"[""diamond"",""no_dis"",""vert"",""up"",[99999,99999],[106,106]]",diamond,no_dis,vert,up,"[99999,99999]","[106,106]",up,1,,,,,,001,2025-03-17_12h44.40.837,SL_base_41,2021.2.3,Win32,59.88023952,1.2297,,,47,0,47,0,1,,,,,,,,
,,"[""diamond"",""red"",""hori"",""left"",[-106,106],[150,0]]",diamond,red,hori,left,"[-106,106]","[150,0]",left,1,,,,,,001,2025-03-17_12h44.40.837,SL_base_41,2021.2.3,Win32,59.88023952,1.5445,,,48,0,48,0,1,,,,,,,,
,,"[""diamond"",""red"",""vert"",""up"",[106,106],[0,-150]]",diamond,red,vert,up,"[106,106]","[0,-150]",up,1,,,,,,001,2025-03-17_12h44.40.837,SL_base_41,2021.2.3,Win32,59.88023952,1.2719,,,49,0,49,0,1,,,,,,,,
,,"[""diamond"",""red"",""hori"",""left"",[-150,0],[106,106]]",diamond,red,hori,left,"[-150,0]","[106,106]",up,0,,,,,,001,2025-03-17_12h44.40.837,SL_base_41,2021.2.3,Win32,59.88023952,2.1152,,,50,0,50,0,1,,,,,,,,
,,"[""circle"",""red"",""vert"",""up"",[-150,0],[0,150]]",circle,red,vert,up,"[-150,0]","[0,150]",up,1,,,,,,001,2025-03-17_12h44.40.837,SL_base_41,2021.2.3,Win32,59.88023952,1.2006,,,51,0,51,0,1,,,,,,,,
,,"[""circle"",""no_dis"",""hori"",""left"",[99999,99999],[106,-106]]",circle,no_dis,hori,left,"[99999,99999]","[106,-106]",left,1,,,,,,001,2025-03-17_12h44.40.837,SL_base_41,2021.2.3,Win32,59.88023952,0.8177,,,52,0,52,0,1,,,,,,,,
,,"[""circle"",""red"",""vert"",""up"",[106,106],[0,-150]]",circle,red,vert,up,"[106,106]","[0,-150]",up,1,,,,,,001,2025-03-17_12h44.40.837,SL_base_41,2021.2.3,Win32,59.88023952,0.8975,,,53,0,53,0,1,,,,,,,,
,,"[""circle"",""no_dis"",""vert"",""up"",[99999,99999],[150,0]]",circle,no_dis,vert,up,"[99999,99999]","[150,0]",left,0,,,,,,001,2025-03-17_12h44.40.837,SL_base_41,2021.2.3,Win32,59.88023952,0.9008,,,54,0,54,0,1,,,,,,,,
,,"[""circle"",""no_dis"",""hori"",""left"",[99999,99999],[0,-150]]",circle,no_dis,hori,left,"[99999,99999]","[0,-150]",up,0,,,,,,001,2025-03-17_12h44.40.837,SL_base_41,2021.2.3,Win32,59.88023952,0.685,,,55,0,55,0,1,,,,,,,,
,,"[""diamond"",""green"",""vert"",""up"",[106,106],[-106,106]]",diamond,green,vert,up,"[106,106]","[-106,106]",up,1,,,,,,001,2025-03-17_12h44.40.837,SL_base_41,2021.2.3,Win32,59.88023952,1.1433,,,56,0,56,0,1,,,,,,,,
,,"[""circle"",""green"",""hori"",""left"",[-106,106],[-150,0]]",circle,green,hori,left,"[-106,106]","[-150,0]",up,0,,,,,,001,2025-03-17_12h44.40.837,SL_base_41,2021.2.3,Win32,59.88023952,1.1419,,,57,0,57,0,1,,,,,,,,
,,"[""circle"",""no_dis"",""vert"",""up"",[99999,99999],[150,0]]",circle,no_dis,vert,up,"[99999,99999]","[150,0]",up,1,,,,,,001,2025-03-17_12h44.40.837,SL_base_41,2021.2.3,Win32,59.88023952,0.8953,,,58,0,58,0,1,,,,,,,,
,,"[""circle"",""green"",""vert"",""up"",[-150,0],[-106,106]]",circle,green,vert,up,"[-150,0]","[-106,106]",left,0,,,,,,001,2025-03-17_12h44.40.837,SL_base_41,2021.2.3,Win32,59.88023952,0.9697,,,59,0,59,0,1,,,,,,,,
,,"[""diamond"",""green"",""hori"",""left"",[0,-150],[0,150]]",diamond,green,hori,left,"[0,-150]","[0,150]",up,0,,,,,,001,2025-03-17_12h44.40.837,SL_base_41,2021.2.3,Win32,59.88023952,1.1146,,,60,0,60,0,1,,,,,,,,
,,"[""circle"",""red"",""vert"",""up"",[-150,0],[-106,-106]]",circle,red,vert,up,"[-150,0]","[-106,-106]",up,1,,,,,,001,2025-03-17_12h44.40.837,SL_base_41,2021.2.3,Win32,59.88023952,0.6817,,,61,0,61,0,1,,,,,,,,
,,"[""diamond"",""red"",""vert"",""up"",[106,106],[-106,106]]",diamond,red,vert,up,"[106,106]","[-106,106]",left,0,,,,,,001,2025-03-17_12h44.40.837,SL_base_41,2021.2.3,Win32,59.88023952,1.2152,,,62,0,62,0,1,,,,,,,,
,,"[""circle"",""no_dis"",""hori"",""left"",[99999,99999],[-106,106]]",circle,no_dis,hori,left,"[99999,99999]","[-106,106]",up,0,,,,,,001,2025-03-17_12h44.40.837,SL_base_41,2021.2.3,Win32,59.88023952,0.914,,,63,0,63,0,1,,,,,,,,
,,"[""diamond"",""green"",""hori"",""left"",[150,0],[106,106]]",diamond,green,hori,left,"[150,0]","[106,106]",left,1,,,,,,001,2025-03-17_12h44.40.837,SL_base_41,2021.2.3,Win32,59.88023952,1.1947,,,64,0,64,0,1,,,,,,,,
,,"[""diamond"",""no_dis"",""vert"",""up"",[99999,99999],[-150,0]]",diamond,no_dis,vert,up,"[99999,99999]","[-150,0]",up,1,,,,,,001,2025-03-17_12h44.40.837,SL_base_41,2021.2.3,Win32,59.88023952,0.8965,,,65,0,65,0,1,,,,,,,,
,,"[""circle"",""red"",""hori"",""left"",[-106,106],[-106,-106]]",circle,red,hori,left,"[-106,106]","[-106,-106]",left,1,,,,,,001,2025-03-17_12h44.40.837,SL_base_41,2021.2.3,Win32,59.88023952,0.8948,,,66,0,66,0,1,,,,,,,,
,,"[""diamond"",""red"",""hori"",""left"",[-106,106],[-150,0]]",diamond,red,hori,left,"[-106,106]","[-150,0]",left,1,,,,,,001,2025-03-17_12h44.40.837,SL_base_41,2021.2.3,Win32,59.88023952,0.8008,,,67,0,67,0,1,,,,,,,,
,,"[""diamond"",""red"",""hori"",""left"",[106,106],[0,-150]]",diamond,red,hori,left,"[106,106]","[0,-150]",left,1,,,,,,001,2025-03-17_12h44.40.837,SL_base_41,2021.2.3,Win32,59.88023952,1.4937,,,68,0,68,0,1,,,,,,,,
,,"[""circle"",""green"",""hori"",""left"",[106,106],[-106,106]]",circle,green,hori,left,"[106,106]","[-106,106]",up,0,,,,,,001,2025-03-17_12h44.40.837,SL_base_41,2021.2.3,Win32,59.88023952,0.8088,,,69,0,69,0,1,,,,,,,,
,,"[""diamond"",""green"",""hori"",""left"",[0,-150],[106,106]]",diamond,green,hori,left,"[0,-150]","[106,106]",left,1,,,,,,001,2025-03-17_12h44.40.837,SL_base_41,2021.2.3,Win32,59.88023952,1.9386,,,70,0,70,0,1,,,,,,,,
,,"[""diamond"",""green"",""vert"",""up"",[-106,-106],[106,-106]]",diamond,green,vert,up,"[-106,-106]","[106,-106]",up,1,,,,,,001,2025-03-17_12h44.40.837,SL_base_41,2021.2.3,Win32,59.88023952,1.1998,,,71,0,71,0,1,,,,,,,,
,,"[""circle"",""red"",""vert"",""up"",[106,106],[-150,0]]",circle,red,vert,up,"[106,106]","[-150,0]",up,1,,,,,,001,2025-03-17_12h44.40.837,SL_base_41,2021.2.3,Win32,59.88023952,1.0889,,,72,0,72,0,1,,,,,,,,
,,"[""diamond"",""green"",""vert"",""up"",[106,-106],[-150,0]]",diamond,green,vert,up,"[106,-106]","[-150,0]",up,1,,,,,,001,2025-03-17_12h44.40.837,SL_base_41,2021.2.3,Win32,59.88023952,1.4452,,,73,0,73,0,1,,,,,,,,
,,"[""diamond"",""red"",""vert"",""up"",[-150,0],[150,0]]",diamond,red,vert,up,"[-150,0]","[150,0]",up,1,,,,,,001,2025-03-17_12h44.40.837,SL_base_41,2021.2.3,Win32,59.88023952,1.7304,,,74,0,74,0,1,,,,,,,,
,,"[""circle"",""green"",""hori"",""left"",[150,0],[0,-150]]",circle,green,hori,left,"[150,0]","[0,-150]",up,0,,,,,,001,2025-03-17_12h44.40.837,SL_base_41,2021.2.3,Win32,59.88023952,1.438,,,75,0,75,0,1,,,,,,,,
,,"[""diamond"",""green"",""vert"",""up"",[106,-106],[-106,-106]]",diamond,green,vert,up,"[106,-106]","[-106,-106]",up,1,,,,,,001,2025-03-17_12h44.40.837,SL_base_41,2021.2.3,Win32,59.88023952,1.5744,,,76,0,76,0,1,,,,,,,,
,,"[""circle"",""red"",""hori"",""left"",[-106,106],[-106,-106]]",circle,red,hori,left,"[-106,106]","[-106,-106]",left,1,,,,,,001,2025-03-17_12h44.40.837,SL_base_41,2021.2.3,Win32,59.88023952,1.4064,,,77,0,77,0,1,,,,,,,,
,,"[""diamond"",""no_dis"",""hori"",""left"",[99999,99999],[-106,-106]]",diamond,no_dis,hori,left,"[99999,99999]","[-106,-106]",left,1,,,,,,001,2025-03-17_12h44.40.837,SL_base_41,2021.2.3,Win32,59.88023952,1.5865,,,78,0,78,0,1,,,,,,,,
,,"[""circle"",""red"",""hori"",""left"",[150,0],[106,-106]]",circle,red,hori,left,"[150,0]","[106,-106]",left,1,,,,,,001,2025-03-17_12h44.40.837,SL_base_41,2021.2.3,Win32,59.88023952,1.6416,,,79,0,79,0,1,,,,,,,,
,,"[""diamond"",""no_dis"",""hori"",""left"",[99999,99999],[0,150]]",diamond,no_dis,hori,left,"[99999,99999]","[0,150]",left,1,,,,,,001,2025-03-17_12h44.40.837,SL_base_41,2021.2.3,Win32,59.88023952,1.2789,,,80,0,80,0,1,,,,,,,,
,,"[""circle"",""green"",""vert"",""up"",[106,-106],[0,150]]",circle,green,vert,up,"[106,-106]","[0,150]",up,1,,,,,,001,2025-03-17_12h44.40.837,SL_base_41,2021.2.3,Win32,59.88023952,1.0671,,,81,0,81,0,1,,,,,,,,
,,"[""diamond"",""red"",""vert"",""up"",[106,106],[150,0]]",diamond,red,vert,up,"[106,106]","[150,0]",up,1,,,,,,001,2025-03-17_12h44.40.837,SL_base_41,2021.2.3,Win32,59.88023952,1.4846,,,82,0,82,0,1,,,,,,,,
,,"[""diamond"",""green"",""hori"",""left"",[-106,-106],[0,150]]",diamond,green,hori,left,"[-106,-106]","[0,150]",left,1,,,,,,001,2025-03-17_12h44.40.837,SL_base_41,2021.2.3,Win32,59.88023952,1.4105,,,83,0,83,0,1,,,,,,,,
,,"[""circle"",""red"",""hori"",""left"",[0,150],[-150,0]]",circle,red,hori,left,"[0,150]","[-150,0]",left,1,,,,,,001,2025-03-17_12h44.40.837,SL_base_41,2021.2.3,Win32,59.88023952,0.9668,,,84,0,84,0,1,,,,,,,,
,,"[""circle"",""green"",""vert"",""up"",[106,106],[106,-106]]",circle,green,vert,up,"[106,106]","[106,-106]",left,0,,,,,,001,2025-03-17_12h44.40.837,SL_base_41,2021.2.3,Win32,59.88023952,1.957,,,85,0,85,0,1,,,,,,,,
,,"[""circle"",""green"",""vert"",""up"",[106,-106],[0,-150]]",circle,green,vert,up,"[106,-106]","[0,-150]",up,1,,,,,,001,2025-03-17_12h44.40.837,SL_base_41,2021.2.3,Win32,59.88023952,1.2046,,,86,0,86,0,1,,,,,,,,
,,"[""circle"",""no_dis"",""vert"",""up"",[99999,99999],[-106,-106]]",circle,no_dis,vert,up,"[99999,99999]","[-106,-106]",left,0,,,,,,001,2025-03-17_12h44.40.837,SL_base_41,2021.2.3,Win32,59.88023952,1.0473,,,87,0,87,0,1,,,,,,,,
,,"[""circle"",""red"",""hori"",""left"",[-106,-106],[0,-150]]",circle,red,hori,left,"[-106,-106]","[0,-150]",left,1,,,,,,001,2025-03-17_12h44.40.837,SL_base_41,2021.2.3,Win32,59.88023952,1.4759,,,88,0,88,0,1,,,,,,,,
,,"[""diamond"",""green"",""vert"",""up"",[106,106],[0,150]]",diamond,green,vert,up,"[106,106]","[0,150]",up,1,,,,,,001,2025-03-17_12h44.40.837,SL_base_41,2021.2.3,Win32,59.88023952,1.4489,,,89,0,89,0,1,,,,,,,,
,,"[""circle"",""no_dis"",""hori"",""left"",[99999,99999],[0,-150]]",circle,no_dis,hori,left,"[99999,99999]","[0,-150]",up,0,,,,,,001,2025-03-17_12h44.40.837,SL_base_41,2021.2.3,Win32,59.88023952,0.9486,,,90,0,90,0,1,,,,,,,,
,,"[""diamond"",""no_dis"",""vert"",""up"",[99999,99999],[0,-150]]",diamond,no_dis,vert,up,"[99999,99999]","[0,-150]",up,1,,,,,,001,2025-03-17_12h44.40.837,SL_base_41,2021.2.3,Win32,59.88023952,1.0933,,,91,0,91,0,1,,,,,,,,
,,"[""diamond"",""no_dis"",""vert"",""up"",[99999,99999],[150,0]]",diamond,no_dis,vert,up,"[99999,99999]","[150,0]",up,1,,,,,,001,2025-03-17_12h44.40.837,SL_base_41,2021.2.3,Win32,59.88023952,1.4963,,,92,0,92,0,1,,,,,,,,
,,"[""diamond"",""green"",""hori"",""left"",[-106,106],[106,106]]",diamond,green,hori,left,"[-106,106]","[106,106]",up,0,,,,,,001,2025-03-17_12h44.40.837,SL_base_41,2021.2.3,Win32,59.88023952,1.0286,,,93,0,93,0,1,,,,,,,,
,,"[""circle"",""red"",""hori"",""left"",[106,-106],[106,106]]",circle,red,hori,left,"[106,-106]","[106,106]",left,1,,,,,,001,2025-03-17_12h44.40.837,SL_base_41,2021.2.3,Win32,59.88023952,0.9222,,,94,0,94,0,1,,,,,,,,
,,"[""circle"",""green"",""hori"",""left"",[106,106],[-106,106]]",circle,green,hori,left,"[106,106]","[-106,106]",left,1,,,,,,001,2025-03-17_12h44.40.837,SL_base_41,2021.2.3,Win32,59.88023952,0.7652,,,95,0,95,0,1,,,,,,,,
,,"[""circle"",""green"",""hori"",""left"",[106,106],[106,-106]]",circle,green,hori,left,"[106,106]","[106,-106]",left,1,,,,,,001,2025-03-17_12h44.40.837,SL_base_41,2021.2.3,Win32,59.88023952,0.6245,,,96,0,96,0,1,,,,,,,,
,,"[""circle"",""no_dis"",""hori"",""left"",[99999,99999],[106,106]]",circle,no_dis,hori,left,"[99999,99999]","[106,106]",up,0,,,,,,001,2025-03-17_12h44.40.837,SL_base_41,2021.2.3,Win32,59.88023952,1.4188,,,97,0,97,0,1,,,,,,,,
,,"[""circle"",""red"",""vert"",""up"",[-106,-106],[106,-106]]",circle,red,vert,up,"[-106,-106]","[106,-106]",left,0,,,,,,001,2025-03-17_12h44.40.837,SL_base_41,2021.2.3,Win32,59.88023952,0.9416,,,98,0,98,0,1,,,,,,,,
,,"[""circle"",""red"",""vert"",""up"",[106,-106],[106,106]]",circle,red,vert,up,"[106,-106]","[106,106]",left,0,,,,,,001,2025-03-17_12h44.40.837,SL_base_41,2021.2.3,Win32,59.88023952,0.8309,,,99,0,99,0,1,,,,,,,,
,,"[""diamond"",""green"",""hori"",""left"",[106,106],[-106,106]]",diamond,green,hori,left,"[106,106]","[-106,106]",left,1,,,,,,001,2025-03-17_12h44.40.837,SL_base_41,2021.2.3,Win32,59.88023952,1.3631,,,100,0,100,0,1,,,,,,,,
,,"[""diamond"",""green"",""hori"",""left"",[-106,-106],[0,150]]",diamond,green,hori,left,"[-106,-106]","[0,150]",left,1,,,,,,001,2025-03-17_12h44.40.837,SL_base_41,2021.2.3,Win32,59.88023952,1.5721,,,101,0,101,0,1,,,,,,,,
,,"[""diamond"",""red"",""hori"",""left"",[0,-150],[-150,0]]",diamond,red,hori,left,"[0,-150]","[-150,0]",left,1,,,,,,001,2025-03-17_12h44.40.837,SL_base_41,2021.2.3,Win32,59.88023952,2.1507,,,102,0,102,0,1,,,,,,,,
,,"[""circle"",""red"",""hori"",""left"",[-150,0],[0,-150]]",circle,red,hori,left,"[-150,0]","[0,-150]",left,1,,,,,,001,2025-03-17_12h44.40.837,SL_base_41,2021.2.3,Win32,59.88023952,0.8964,,,103,0,103,0,1,,,,,,,,
,,"[""diamond"",""red"",""vert"",""up"",[150,0],[0,-150]]",diamond,red,vert,up,"[150,0]","[0,-150]",up,1,,,,,,001,2025-03-17_12h44.40.837,SL_base_41,2021.2.3,Win32,59.88023952,1.7969,,,104,0,104,0,1,,,,,,,,
,,"[""circle"",""green"",""vert"",""up"",[106,106],[-150,0]]",circle,green,vert,up,"[106,106]","[-150,0]",left,0,,,,,,001,2025-03-17_12h44.40.837,SL_base_41,2021.2.3,Win32,59.88023952,1.0238,,,105,0,105,0,1,,,,,,,,
,,"[""circle"",""red"",""vert"",""up"",[-106,106],[106,106]]",circle,red,vert,up,"[-106,106]","[106,106]",left,0,,,,,,001,2025-03-17_12h44.40.837,SL_base_41,2021.2.3,Win32,59.88023952,1.0093,,,106,0,106,0,1,,,,,,,,
,,"[""circle"",""green"",""vert"",""up"",[-106,106],[106,106]]",circle,green,vert,up,"[-106,106]","[106,106]",up,1,,,,,,001,2025-03-17_12h44.40.837,SL_base_41,2021.2.3,Win32,59.88023952,0.8307,,,107,0,107,0,1,,,,,,,,
,,"[""circle"",""green"",""hori"",""left"",[-106,-106],[0,-150]]",circle,green,hori,left,"[-106,-106]","[0,-150]",left,1,,,,,,001,2025-03-17_12h44.40.837,SL_base_41,2021.2.3,Win32,59.88023952,1.033,,,108,0,108,0,1,,,,,,,,
,,"[""diamond"",""green"",""hori"",""left"",[150,0],[-106,106]]",diamond,green,hori,left,"[150,0]","[-106,106]",left,1,,,,,,001,2025-03-17_12h44.40.837,SL_base_41,2021.2.3,Win32,59.88023952,1.5441,,,109,0,109,0,1,,,,,,,,
,,"[""diamond"",""green"",""hori"",""left"",[0,150],[-150,0]]",diamond,green,hori,left,"[0,150]","[-150,0]",left,1,,,,,,001,2025-03-17_12h44.40.837,SL_base_41,2021.2.3,Win32,59.88023952,1.3104,,,110,0,110,0,1,,,,,,,,
,,"[""circle"",""no_dis"",""vert"",""up"",[99999,99999],[-106,106]]",circle,no_dis,vert,up,"[99999,99999]","[-106,106]",left,0,,,,,,001,2025-03-17_12h44.40.837,SL_base_41,2021.2.3,Win32,59.88023952,0.7733,,,111,0,111,0,1,,,,,,,,
,,"[""circle"",""red"",""hori"",""left"",[106,106],[0,-150]]",circle,red,hori,left,"[106,106]","[0,-150]",up,0,,,,,,001,2025-03-17_12h44.40.837,SL_base_41,2021.2.3,Win32,59.88023952,0.7561,,,112,0,112,0,1,,,,,,,,
,,"[""diamond"",""no_dis"",""hori"",""left"",[99999,99999],[0,150]]",diamond,no_dis,hori,left,"[99999,99999]","[0,150]",left,1,,,,,,001,2025-03-17_12h44.40.837,SL_base_41,2021.2.3,Win32,59.88023952,1.5974,,,113,0,113,0,1,,,,,,,,
,,"[""circle"",""no_dis"",""vert"",""up"",[99999,99999],[150,0]]",circle,no_dis,vert,up,"[99999,99999]","[150,0]",left,0,,,,,,001,2025-03-17_12h44.40.837,SL_base_41,2021.2.3,Win32,59.88023952,1.0904,,,114,0,114,0,1,,,,,,,,
,,"[""diamond"",""red"",""vert"",""up"",[106,106],[-106,-106]]",diamond,red,vert,up,"[106,106]","[-106,-106]",up,1,,,,,,001,2025-03-17_12h44.40.837,SL_base_41,2021.2.3,Win32,59.88023952,1.4127,,,115,0,115,0,1,,,,,,,,
,,"[""diamond"",""no_dis"",""vert"",""up"",[99999,99999],[106,-106]]",diamond,no_dis,vert,up,"[99999,99999]","[106,-106]",up,1,,,,,,001,2025-03-17_12h44.40.837,SL_base_41,2021.2.3,Win32,59.88023952,1.1316,,,116,0,116,0,1,,,,,,,,
,,"[""diamond"",""red"",""vert"",""up"",[0,-150],[-106,-106]]",diamond,red,vert,up,"[0,-150]","[-106,-106]",up,1,,,,,,001,2025-03-17_12h44.40.837,SL_base_41,2021.2.3,Win32,59.88023952,1.5776,,,117,0,117,0,1,,,,,,,,
,,"[""diamond"",""red"",""vert"",""up"",[0,-150],[106,-106]]",diamond,red,vert,up,"[0,-150]","[106,-106]",up,1,,,,,,001,2025-03-17_12h44.40.837,SL_base_41,2021.2.3,Win32,59.88023952,1.7436,,,118,0,118,0,1,,,,,,,,
,,"[""circle"",""no_dis"",""hori"",""left"",[99999,99999],[0,-150]]",circle,no_dis,hori,left,"[99999,99999]","[0,-150]",left,1,,,,,,001,2025-03-17_12h44.40.837,SL_base_41,2021.2.3,Win32,59.88023952,1.3075,,,119,0,119,0,1,,,,,,,,
,,"[""circle"",""green"",""hori"",""left"",[106,-106],[-150,0]]",circle,green,hori,left,"[106,-106]","[-150,0]",up,0,,,,,,001,2025-03-17_12h44.40.837,SL_base_41,2021.2.3,Win32,59.88023952,1.7204,,,120,0,120,0,1,,,,,,,,
,,"[""diamond"",""no_dis"",""hori"",""left"",[99999,99999],[106,-106]]",diamond,no_dis,hori,left,"[99999,99999]","[106,-106]",up,0,,,,,,001,2025-03-17_12h44.40.837,SL_base_41,2021.2.3,Win32,59.88023952,1.9334,,,121,0,121,0,1,,,,,,,,
,,"[""circle"",""red"",""vert"",""up"",[106,106],[-106,106]]",circle,red,vert,up,"[106,106]","[-106,106]",up,1,,,,,,001,2025-03-17_12h44.40.837,SL_base_41,2021.2.3,Win32,59.88023952,1.2311,,,122,0,122,0,1,,,,,,,,
,,"[""diamond"",""red"",""vert"",""up"",[106,106],[150,0]]",diamond,red,vert,up,"[106,106]","[150,0]",up,1,,,,,,001,2025-03-17_12h44.40.837,SL_base_41,2021.2.3,Win32,59.88023952,1.8678,,,123,0,123,0,1,,,,,,,,
,,"[""circle"",""no_dis"",""hori"",""left"",[99999,99999],[-150,0]]",circle,no_dis,hori,left,"[99999,99999]","[-150,0]",up,0,,,,,,001,2025-03-17_12h44.40.837,SL_base_41,2021.2.3,Win32,59.88023952,1.781,,,124,0,124,0,1,,,,,,,,
,,"[""circle"",""green"",""vert"",""up"",[106,106],[150,0]]",circle,green,vert,up,"[106,106]","[150,0]",up,1,,,,,,001,2025-03-17_12h44.40.837,SL_base_41,2021.2.3,Win32,59.88023952,1.725,,,125,0,125,0,1,,,,,,,,
,,"[""circle"",""green"",""hori"",""left"",[106,106],[-150,0]]",circle,green,hori,left,"[106,106]","[-150,0]",left,1,,,,,,001,2025-03-17_12h44.40.837,SL_base_41,2021.2.3,Win32,59.88023952,1.5206,,,126,0,126,0,1,,,,,,,,
,,"[""diamond"",""no_dis"",""hori"",""left"",[99999,99999],[106,106]]",diamond,no_dis,hori,left,"[99999,99999]","[106,106]",left,1,,,,,,001,2025-03-17_12h44.40.837,SL_base_41,2021.2.3,Win32,59.88023952,1.7233,,,127,0,127,0,1,,,,,,,,
,,,,,,,,,,,,,,,,001,2025-03-17_12h44.40.837,SL_base_41,2021.2.3,Win32,59.88023952,,,,,,,,,3,space,2.1221,2,0,2,0,1
,,"[""circle"",""red"",""hori"",""left"",[-106,106],[-106,-106]]",circle,red,hori,left,"[-106,106]","[-106,-106]",up,0,,,,,,001,2025-03-17_12h44.40.837,SL_base_41,2021.2.3,Win32,59.88023952,1.4756,,,0,0,0,0,1,,,,,,,,
,,"[""diamond"",""red"",""vert"",""up"",[106,106],[150,0]]",diamond,red,vert,up,"[106,106]","[150,0]",up,1,,,,,,001,2025-03-17_12h44.40.837,SL_base_41,2021.2.3,Win32,59.88023952,1.3307,,,1,0,1,0,1,,,,,,,,
,,"[""diamond"",""green"",""hori"",""left"",[-106,-106],[0,150]]",diamond,green,hori,left,"[-106,-106]","[0,150]",left,1,,,,,,001,2025-03-17_12h44.40.837,SL_base_41,2021.2.3,Win32,59.88023952,1.4774,,,2,0,2,0,1,,,,,,,,
,,"[""diamond"",""red"",""vert"",""up"",[106,106],[150,0]]",diamond,red,vert,up,"[106,106]","[150,0]",up,1,,,,,,001,2025-03-17_12h44.40.837,SL_base_41,2021.2.3,Win32,59.88023952,0.7826,,,3,0,3,0,1,,,,,,,,
,,"[""diamond"",""red"",""hori"",""left"",[150,0],[0,-150]]",diamond,red,hori,left,"[150,0]","[0,-150]",left,1,,,,,,001,2025-03-17_12h44.40.837,SL_base_41,2021.2.3,Win32,59.88023952,1.4027,,,4,0,4,0,1,,,,,,,,
,,"[""diamond"",""green"",""vert"",""up"",[106,106],[0,150]]",diamond,green,vert,up,"[106,106]","[0,150]",up,1,,,,,,001,2025-03-17_12h44.40.837,SL_base_41,2021.2.3,Win32,59.88023952,0.8547,,,5,0,5,0,1,,,,,,,,
,,"[""diamond"",""no_dis"",""vert"",""up"",[99999,99999],[-150,0]]",diamond,no_dis,vert,up,"[99999,99999]","[-150,0]",left,0,,,,,,001,2025-03-17_12h44.40.837,SL_base_41,2021.2.3,Win32,59.88023952,1.3207,,,6,0,6,0,1,,,,,,,,
,,"[""circle"",""no_dis"",""vert"",""up"",[99999,99999],[-106,106]]",circle,no_dis,vert,up,"[99999,99999]","[-106,106]",left,0,,,,,,001,2025-03-17_12h44.40.837,SL_base_41,2021.2.3,Win32,59.88023952,0.9971,,,7,0,7,0,1,,,,,,,,
,,"[""circle"",""green"",""hori"",""left"",[106,106],[-106,106]]",circle,green,hori,left,"[106,106]","[-106,106]",up,0,,,,,,001,2025-03-17_12h44.40.837,SL_base_41,2021.2.3,Win32,59.88023952,0.6315,,,8,0,8,0,1,,,,,,,,
,,"[""circle"",""green"",""hori"",""left"",[106,106],[-150,0]]",circle,green,hori,left,"[106,106]","[-150,0]",up,0,,,,,,001,2025-03-17_12h44.40.837,SL_base_41,2021.2.3,Win32,59.88023952,1.1188,,,9,0,9,0,1,,,,,,,,
,,"[""circle"",""no_dis"",""hori"",""left"",[99999,99999],[106,-106]]",circle,no_dis,hori,left,"[99999,99999]","[106,-106]",left,1,,,,,,001,2025-03-17_12h44.40.837,SL_base_41,2021.2.3,Win32,59.88023952,0.7403,,,10,0,10,0,1,,,,,,,,
,,"[""diamond"",""red"",""hori"",""left"",[-106,106],[150,0]]",diamond,red,hori,left,"[-106,106]","[150,0]",left,1,,,,,,001,2025-03-17_12h44.40.837,SL_base_41,2021.2.3,Win32,59.88023952,1.2625,,,11,0,11,0,1,,,,,,,,
,,"[""diamond"",""green"",""hori"",""left"",[106,106],[-150,0]]",diamond,green,hori,left,"[106,106]","[-150,0]",left,1,,,,,,001,2025-03-17_12h44.40.837,SL_base_41,2021.2.3,Win32,59.88023952,1.7105,,,12,0,12,0,1,,,,,,,,
,,"[""circle"",""red"",""vert"",""up"",[106,-106],[-150,0]]",circle,red,vert,up,"[106,-106]","[-150,0]",left,0,,,,,,001,2025-03-17_12h44.40.837,SL_base_41,2021.2.3,Win32,59.88023952,0.8378,,,13,0,13,0,1,,,,,,,,
,,"[""diamond"",""green"",""hori"",""left"",[106,106],[-106,106]]",diamond,green,hori,left,"[106,106]","[-106,106]",up,0,,,,,,001,2025-03-17_12h44.40.837,SL_base_41,2021.2.3,Win32,59.88023952,1.3502,,,14,0,14,0,1,,,,,,,,
,,"[""diamond"",""no_dis"",""vert"",""up"",[99999,99999],[0,-150]]",diamond,no_dis,vert,up,"[99999,99999]","[0,-150]",up,1,,,,,,001,2025-03-17_12h44.40.837,SL_base_41,2021.2.3,Win32,59.88023952,1.3952,,,15,0,15,0,1,,,,,,,,
,,"[""circle"",""green"",""hori"",""left"",[106,106],[-106,106]]",circle,green,hori,left,"[106,106]","[-106,106]",up,0,,,,,,001,2025-03-17_12h44.40.837,SL_base_41,2021.2.3,Win32,59.88023952,0.9348,,,16,0,16,0,1,,,,,,,,
,,"[""diamond"",""green"",""vert"",""up"",[106,-106],[-150,0]]",diamond,green,vert,up,"[106,-106]","[-150,0]",up,1,,,,,,001,2025-03-17_12h44.40.837,SL_base_41,2021.2.3,Win32,59.88023952,1.4597,,,17,0,17,0,1,,,,,,,,
,,"[""diamond"",""green"",""vert"",""up"",[106,-106],[-106,-106]]",diamond,green,vert,up,"[106,-106]","[-106,-106]",up,1,,,,,,001,2025-03-17_12h44.40.837,SL_base_41,2021.2.3,Win32,59.88023952,1.4357,,,18,0,18,0,1,,,,,,,,
,,"[""circle"",""green"",""vert"",""up"",[106,106],[150,0]]",circle,green,vert,up,"[106,106]","[150,0]",left,0,,,,,,001,2025-03-17_12h44.40.837,SL_base_41,2021.2.3,Win32,59.88023952,1.2492,,,19,0,19,0,1,,,,,,,,
,,"[""diamond"",""red"",""hori"",""left"",[-106,106],[-150,0]]",diamond,red,hori,left,"[-106,106]","[-150,0]",left,1,,,,,,001,2025-03-17_12h44.40.837,SL_base_41,2021.2.3,Win32,59.88023952,1.5071,,,20,0,20,0,1,,,,,,,,
,,"[""diamond"",""green"",""hori"",""left"",[0,150],[-150,0]]",diamond,green,hori,left,"[0,150]","[-150,0]",left,1,,,,,,001,2025-03-17_12h44.40.837,SL_base_41,2021.2.3,Win32,59.88023952,1.1283,,,21,0,21,0,1,,,,,,,,
,,"[""diamond"",""no_dis"",""hori"",""left"",[99999,99999],[-106,-106]]",diamond,no_dis,hori,left,"[99999,99999]","[-106,-106]",left,1,,,,,,001,2025-03-17_12h44.40.837,SL_base_41,2021.2.3,Win32,59.88023952,2.2517,,,22,0,22,0,1,,,,,,,,
,,"[""diamond"",""red"",""hori"",""left"",[0,-150],[-150,0]]",diamond,red,hori,left,"[0,-150]","[-150,0]",left,1,,,,,,001,2025-03-17_12h44.40.837,SL_base_41,2021.2.3,Win32,59.88023952,1.2662,,,23,0,23,0,1,,,,,,,,
,,"[""circle"",""no_dis"",""hori"",""left"",[99999,99999],[0,-150]]",circle,no_dis,hori,left,"[99999,99999]","[0,-150]",up,0,,,,,,001,2025-03-17_12h44.40.837,SL_base_41,2021.2.3,Win32,59.88023952,0.7972,,,24,0,24,0,1,,,,,,,,
,,"[""diamond"",""no_dis"",""hori"",""left"",[99999,99999],[106,106]]",diamond,no_dis,hori,left,"[99999,99999]","[106,106]",left,1,,,,,,001,2025-03-17_12h44.40.837,SL_base_41,2021.2.3,Win32,59.88023952,1.7676,,,25,0,25,0,1,,,,,,,,
,,"[""circle"",""no_dis"",""vert"",""up"",[99999,99999],[-150,0]]",circle,no_dis,vert,up,"[99999,99999]","[-150,0]",up,1,,,,,,001,2025-03-17_12h44.40.837,SL_base_41,2021.2.3,Win32,59.88023952,1.1644,,,26,0,26,0,1,,,,,,,,
,,"[""diamond"",""red"",""hori"",""left"",[0,-150],[106,-106]]",diamond,red,hori,left,"[0,-150]","[106,-106]",left,1,,,,,,001,2025-03-17_12h44.40.837,SL_base_41,2021.2.3,Win32,59.88023952,2.2061,,,27,0,27,0,1,,,,,,,,
,,"[""circle"",""red"",""hori"",""left"",[106,106],[-106,106]]",circle,red,hori,left,"[106,106]","[-106,106]",left,1,,,,,,001,2025-03-17_12h44.40.837,SL_base_41,2021.2.3,Win32,59.88023952,1.9365,,,28,0,28,0,1,,,,,,,,
,,"[""circle"",""no_dis"",""hori"",""left"",[99999,99999],[-150,0]]",circle,no_dis,hori,left,"[99999,99999]","[-150,0]",up,0,,,,,,001,2025-03-17_12h44.40.837,SL_base_41,2021.2.3,Win32,59.88023952,1.5228,,,29,0,29,0,1,,,,,,,,
,,"[""diamond"",""red"",""vert"",""up"",[-150,0],[150,0]]",diamond,red,vert,up,"[-150,0]","[150,0]",up,1,,,,,,001,2025-03-17_12h44.40.837,SL_base_41,2021.2.3,Win32,59.88023952,1.8621,,,30,0,30,0,1,,,,,,,,
,,"[""diamond"",""green"",""vert"",""up"",[-150,0],[150,0]]",diamond,green,vert,up,"[-150,0]","[150,0]",up,1,,,,,,001,2025-03-17_12h44.40.837,SL_base_41,2021.2.3,Win32,59.88023952,0.9959,,,31,0,31,0,1,,,,,,,,
,,"[""circle"",""red"",""vert"",""up"",[106,-106],[106,106]]",circle,red,vert,up,"[106,-106]","[106,106]",up,1,,,,,,001,2025-03-17_12h44.40.837,SL_base_41,2021.2.3,Win32,59.88023952,1.3081,,,32,0,32,0,1,,,,,,,,
,,"[""circle"",""green"",""hori"",""left"",[-106,106],[-150,0]]",circle,green,hori,left,"[-106,106]","[-150,0]",up,0,,,,,,001,2025-03-17_12h44.40.837,SL_base_41,2021.2.3,Win32,59.88023952,0.7516,,,33,0,33,0,1,,,,,,,,
,,"[""circle"",""red"",""vert"",""up"",[106,106],[-106,106]]",circle,red,vert,up,"[106,106]","[-106,106]",left,0,,,,,,001,2025-03-17_12h44.40.837,SL_base_41,2021.2.3,Win32,59.88023952,1.0586,,,34,0,34,0,1,,,,,,,,
,,"[""diamond"",""red"",""hori"",""left"",[106,106],[0,-150]]",diamond,red,hori,left,"[106,106]","[0,-150]",left,1,,,,,,001,2025-03-17_12h44.40.837,SL_base_41,2021.2.3,Win32,59.88023952,1.845,,,35,0,35,0,1,,,,,,,,
,,"[""circle"",""no_dis"",""vert"",""up"",[99999,99999],[150,0]]",circle,no_dis,vert,up,"[99999,99999]","[150,0]",up,1,,,,,,001,2025-03-17_12h44.40.837,SL_base_41,2021.2.3,Win32,59.88023952,0.8412,,,36,0,36,0,1,,,,,,,,
,,"[""circle"",""no_dis"",""vert"",""up"",[99999,99999],[106,106]]",circle,no_dis,vert,up,"[99999,99999]","[106,106]",left,0,,,,,,001,2025-03-17_12h44.40.837,SL_base_41,2021.2.3,Win32,59.88023952,1.3726,,,37,0,37,0,1,,,,,,,,
,,"[""circle"",""green"",""vert"",""up"",[0,150],[150,0]]",circle,green,vert,up,"[0,150]","[150,0]",up,1,,,,,,001,2025-03-17_12h44.40.837,SL_base_41,2021.2.3,Win32,59.88023952,1.1828,,,38,0,38,0,1,,,,,,,,
,,"[""diamond"",""red"",""vert"",""up"",[0,-150],[-106,-106]]",diamond,red,vert,up,"[0,-150]","[-106,-106]",up,1,,,,,,001,2025-03-17_12h44.40.837,SL_base_41,2021.2.3,Win32,59.88023952,1.5294,,,39,0,39,0,1,,,,,,,,
,,"[""diamond"",""green"",""vert"",""up"",[0,-150],[-106,106]]",diamond,green,vert,up,"[0,-150]","[-106,106]",up,1,,,,,,001,2025-03-17_12h44.40.837,SL_base_41,2021.2.3,Win32,59.88023952,1.4691,,,40,0,40,0,1,,,,,,,,
,,"[""diamond"",""red"",""vert"",""up"",[0,150],[106,106]]",diamond,red,vert,up,"[0,150]","[106,106]",up,1,,,,,,001,2025-03-17_12h44.40.837,SL_base_41,2021.2.3,Win32,59.88023952,1.6627,,,41,0,41,0,1,,,,,,,,
,,"[""circle"",""green"",""vert"",""up"",[-106,106],[106,106]]",circle,green,vert,up,"[-106,106]","[106,106]",up,1,,,,,,001,2025-03-17_12h44.40.837,SL_base_41,2021.2.3,Win32,59.88023952,0.9862,,,42,0,42,0,1,,,,,,,,
,,"[""circle"",""no_dis"",""hori"",""left"",[99999,99999],[-106,106]]",circle,no_dis,hori,left,"[99999,99999]","[-106,106]",up,0,,,,,,001,2025-03-17_12h44.40.837,SL_base_41,2021.2.3,Win32,59.88023952,0.7707,,,43,0,43,0,1,,,,,,,,
,,"[""diamond"",""green"",""hori"",""left"",[0,150],[106,106]]",diamond,green,hori,left,"[0,150]","[106,106]",left,1,,,,,,001,2025-03-17_12h44.40.837,SL_base_41,2021.2.3,Win32,59.88023952,2.2945,,,44,0,44,0,1,,,,,,,,
,,"[""circle"",""green"",""hori"",""left"",[150,0],[106,-106]]",circle,green,hori,left,"[150,0]","[106,-106]",up,0,,,,,,001,2025-03-17_12h44.40.837,SL_base_41,2021.2.3,Win32,59.88023952,0.8853,,,45,0,45,0,1,,,,,,,,
,,"[""diamond"",""no_dis"",""vert"",""up"",[99999,99999],[0,-150]]",diamond,no_dis,vert,up,"[99999,99999]","[0,-150]",up,1,,,,,,001,2025-03-17_12h44.40.837,SL_base_41,2021.2.3,Win32,59.88023952,1.2308,,,46,0,46,0,1,,,,,,,,
,,"[""diamond"",""no_dis"",""vert"",""up"",[99999,99999],[106,-106]]",diamond,no_dis,vert,up,"[99999,99999]","[106,-106]",up,1,,,,,,001,2025-03-17_12h44.40.837,SL_base_41,2021.2.3,Win32,59.88023952,0.997,,,47,0,47,0,1,,,,,,,,
,,"[""diamond"",""red"",""vert"",""up"",[106,106],[-106,-106]]",diamond,red,vert,up,"[106,106]","[-106,-106]",up,1,,,,,,001,2025-03-17_12h44.40.837,SL_base_41,2021.2.3,Win32,59.88023952,1.4271,,,48,0,48,0,1,,,,,,,,
,,"[""circle"",""red"",""vert"",""up"",[106,106],[-106,-106]]",circle,red,vert,up,"[106,106]","[-106,-106]",left,0,,,,,,001,2025-03-17_12h44.40.837,SL_base_41,2021.2.3,Win32,59.88023952,1.2814,,,49,0,49,0,1,,,,,,,,
,,"[""circle"",""red"",""hori"",""left"",[-150,0],[0,-150]]",circle,red,hori,left,"[-150,0]","[0,-150]",up,0,,,,,,001,2025-03-17_12h44.40.837,SL_base_41,2021.2.3,Win32,59.88023952,1.2711,,,50,0,50,0,1,,,,,,,,
,,"[""circle"",""red"",""hori"",""left"",[106,106],[-106,-106]]",circle,red,hori,left,"[106,106]","[-106,-106]",up,0,,,,,,001,2025-03-17_12h44.40.837,SL_base_41,2021.2.3,Win32,59.88023952,0.8893,,,51,0,51,0,1,,,,,,,,
,,"[""diamond"",""green"",""hori"",""left"",[150,0],[-106,106]]",diamond,green,hori,left,"[150,0]","[-106,106]",left,1,,,,,,001,2025-03-17_12h44.40.837,SL_base_41,2021.2.3,Win32,59.88023952,1.7391,,,52,0,52,0,1,,,,,,,,
,,"[""diamond"",""green"",""vert"",""up"",[106,106],[-106,106]]",diamond,green,vert,up,"[106,106]","[-106,106]",up,1,,,,,,001,2025-03-17_12h44.40.837,SL_base_41,2021.2.3,Win32,59.88023952,1.3987,,,53,0,53,0,1,,,,,,,,
,,"[""circle"",""no_dis"",""hori"",""left"",[99999,99999],[0,-150]]",circle,no_dis,hori,left,"[99999,99999]","[0,-150]",left,1,,,,,,001,2025-03-17_12h44.40.837,SL_base_41,2021.2.3,Win32,59.88023952,1.6298,,,54,0,54,0,1,,,,,,,,
,,"[""diamond"",""no_dis"",""hori"",""left"",[99999,99999],[106,-106]]",diamond,no_dis,hori,left,"[99999,99999]","[106,-106]",left,1,,,,,,001,2025-03-17_12h44.40.837,SL_base_41,2021.2.3,Win32,59.88023952,1.3493,,,55,0,55,0,1,,,,,,,,
,,"[""circle"",""no_dis"",""hori"",""left"",[99999,99999],[-106,-106]]",circle,no_dis,hori,left,"[99999,99999]","[-106,-106]",up,0,,,,,,001,2025-03-17_12h44.40.837,SL_base_41,2021.2.3,Win32,59.88023952,1.1301,,,56,0,56,0,1,,,,,,,,
,,"[""circle"",""red"",""vert"",""up"",[-106,-106],[106,-106]]",circle,red,vert,up,"[-106,-106]","[106,-106]",up,1,,,,,,001,2025-03-17_12h44.40.837,SL_base_41,2021.2.3,Win32,59.88023952,0.8076,,,57,0,57,0,1,,,,,,,,
,,"[""diamond"",""no_dis"",""vert"",""up"",[99999,99999],[-106,106]]",diamond,no_dis,vert,up,"[99999,99999]","[-106,106]",up,1,,,,,,001,2025-03-17_12h44.40.837,SL_base_41,2021.2.3,Win32,59.88023952,0.8118,,,58,0,58,0,1,,,,,,,,
,,"[""circle"",""no_dis"",""hori"",""left"",[99999,99999],[106,106]]",circle,no_dis,hori,left,"[99999,99999]","[106,106]",up,0,,,,,,001,2025-03-17_12h44.40.837,SL_base_41,2021.2.3,Win32,59.88023952,0.6052,,,59,0,59,0,1,,,,,,,,
,,"[""circle"",""green"",""vert"",""up"",[-150,0],[-106,106]]",circle,green,vert,up,"[-150,0]","[-106,106]",up,1,,,,,,001,2025-03-17_12h44.40.837,SL_base_41,2021.2.3,Win32,59.88023952,1.1318,,,60,0,60,0,1,,,,,,,,
