﻿key_resp.keys,key_resp.rt,trial_para,tar_shape,dis_color_condi,tar_line,cor_resp,dis_loc,tar_loc,resp.keys,resp.corr,resp.rt,trials.thisRepN,trials.thisTrialN,trials.thisN,trials.thisIndex,trials.ran,participant,date,expName,psychopyVersion,OS,frameRate,key_resp_2.keys,key_resp_2.rt,trials_2.thisRepN,trials_2.thisTrialN,trials_2.thisN,trials_2.thisIndex,trials_2.ran,block_num,key_resp_3.keys,key_resp_3.rt,trials_3.thisRepN,trials_3.thisTrialN,trials_3.thisN,trials_3.thisIndex,trials_3.ran
space,17.315,"[""circle"",""green"",""vert"",""up"",[-150,0],[0,150]]",circle,green,vert,up,"[-150,0]","[0,150]",up,1,2.4971,0,0,0,0,1,001,2025-03-17_13h42.52.342,SL_base_41,2021.2.3,Win32,54.64480874,,,,,,,,,,,,,,,
,,"[""circle"",""no_dis"",""vert"",""up"",[99999,99999],[-150,0]]",circle,no_dis,vert,up,"[99999,99999]","[-150,0]",,0,,1,0,1,0,1,001,2025-03-17_13h42.52.342,SL_base_41,2021.2.3,Win32,54.64480874,,,,,,,,,,,,,,,
,,"[""diamond"",""no_dis"",""hori"",""left"",[99999,99999],[-106,106]]",diamond,no_dis,hori,left,"[99999,99999]","[-106,106]",left,1,1.4277,2,0,2,0,1,001,2025-03-17_13h42.52.342,SL_base_41,2021.2.3,Win32,54.64480874,,,,,,,,,,,,,,,
,,"[""circle"",""green"",""hori"",""left"",[-106,-106],[150,0]]",circle,green,hori,left,"[-106,-106]","[150,0]",,0,,3,0,3,0,1,001,2025-03-17_13h42.52.342,SL_base_41,2021.2.3,Win32,54.64480874,,,,,,,,,,,,,,,
,,"[""circle"",""green"",""vert"",""up"",[0,150],[150,0]]",circle,green,vert,up,"[0,150]","[150,0]",left,0,1.2978,4,0,4,0,1,001,2025-03-17_13h42.52.342,SL_base_41,2021.2.3,Win32,54.64480874,,,,,,,,,,,,,,,
,,"[""circle"",""no_dis"",""vert"",""up"",[99999,99999],[0,150]]",circle,no_dis,vert,up,"[99999,99999]","[0,150]",up,1,1.4736,5,0,5,0,1,001,2025-03-17_13h42.52.342,SL_base_41,2021.2.3,Win32,54.64480874,,,,,,,,,,,,,,,
,,"[""diamond"",""red"",""vert"",""up"",[0,150],[-150,0]]",diamond,red,vert,up,"[0,150]","[-150,0]",up,1,1.9644,6,0,6,0,1,001,2025-03-17_13h42.52.342,SL_base_41,2021.2.3,Win32,54.64480874,,,,,,,,,,,,,,,
,,"[""circle"",""green"",""hori"",""left"",[-106,-106],[106,-106]]",circle,green,hori,left,"[-106,-106]","[106,-106]",left,1,2.0912,7,0,7,0,1,001,2025-03-17_13h42.52.342,SL_base_41,2021.2.3,Win32,54.64480874,,,,,,,,,,,,,,,
,,"[""circle"",""red"",""vert"",""up"",[106,-106],[106,106]]",circle,red,vert,up,"[106,-106]","[106,106]",up,1,1.6373,8,0,8,0,1,001,2025-03-17_13h42.52.342,SL_base_41,2021.2.3,Win32,54.64480874,,,,,,,,,,,,,,,
,,"[""circle"",""green"",""hori"",""left"",[106,-106],[0,150]]",circle,green,hori,left,"[106,-106]","[0,150]",left,1,1.4368,9,0,9,0,1,001,2025-03-17_13h42.52.342,SL_base_41,2021.2.3,Win32,54.64480874,,,,,,,,,,,,,,,
,,"[""circle"",""green"",""vert"",""up"",[-150,0],[0,150]]",circle,green,vert,up,"[-150,0]","[0,150]",up,1,1.473,,,,,,001,2025-03-17_13h42.52.342,SL_base_41,2021.2.3,Win32,54.64480874,space,4.5294,0,0,0,0,1,,,,,,,,
,,"[""circle"",""no_dis"",""vert"",""up"",[99999,99999],[-150,0]]",circle,no_dis,vert,up,"[99999,99999]","[-150,0]",up,1,1.037,,,,,,001,2025-03-17_13h42.52.342,SL_base_41,2021.2.3,Win32,54.64480874,,,1,0,1,0,1,,,,,,,,
,,"[""diamond"",""no_dis"",""hori"",""left"",[99999,99999],[-106,106]]",diamond,no_dis,hori,left,"[99999,99999]","[-106,106]",left,1,1.8185,,,,,,001,2025-03-17_13h42.52.342,SL_base_41,2021.2.3,Win32,54.64480874,,,2,0,2,0,1,,,,,,,,
,,"[""circle"",""green"",""hori"",""left"",[-106,-106],[150,0]]",circle,green,hori,left,"[-106,-106]","[150,0]",left,1,1.9282,,,,,,001,2025-03-17_13h42.52.342,SL_base_41,2021.2.3,Win32,54.64480874,,,3,0,3,0,1,,,,,,,,
,,"[""circle"",""green"",""vert"",""up"",[0,150],[150,0]]",circle,green,vert,up,"[0,150]","[150,0]",up,1,1.6737,,,,,,001,2025-03-17_13h42.52.342,SL_base_41,2021.2.3,Win32,54.64480874,,,4,0,4,0,1,,,,,,,,
,,"[""circle"",""no_dis"",""vert"",""up"",[99999,99999],[0,150]]",circle,no_dis,vert,up,"[99999,99999]","[0,150]",up,1,1.427,,,,,,001,2025-03-17_13h42.52.342,SL_base_41,2021.2.3,Win32,54.64480874,,,5,0,5,0,1,,,,,,,,
,,"[""diamond"",""red"",""vert"",""up"",[0,150],[-150,0]]",diamond,red,vert,up,"[0,150]","[-150,0]",up,1,1.6004,,,,,,001,2025-03-17_13h42.52.342,SL_base_41,2021.2.3,Win32,54.64480874,,,6,0,6,0,1,,,,,,,,
,,"[""circle"",""green"",""hori"",""left"",[-106,-106],[106,-106]]",circle,green,hori,left,"[-106,-106]","[106,-106]",left,1,2.2557,,,,,,001,2025-03-17_13h42.52.342,SL_base_41,2021.2.3,Win32,54.64480874,,,7,0,7,0,1,,,,,,,,
,,"[""circle"",""red"",""vert"",""up"",[106,-106],[106,106]]",circle,red,vert,up,"[106,-106]","[106,106]",up,1,1.8554,,,,,,001,2025-03-17_13h42.52.342,SL_base_41,2021.2.3,Win32,54.64480874,,,8,0,8,0,1,,,,,,,,
,,"[""circle"",""green"",""hori"",""left"",[106,-106],[0,150]]",circle,green,hori,left,"[106,-106]","[0,150]",left,1,1.6203,,,,,,001,2025-03-17_13h42.52.342,SL_base_41,2021.2.3,Win32,54.64480874,,,9,0,9,0,1,,,,,,,,
,,"[""circle"",""no_dis"",""vert"",""up"",[99999,99999],[-150,0]]",circle,no_dis,vert,up,"[99999,99999]","[-150,0]",up,1,1.2376,,,,,,001,2025-03-17_13h42.52.342,SL_base_41,2021.2.3,Win32,54.64480874,,,10,0,10,0,1,,,,,,,,
,,"[""circle"",""no_dis"",""hori"",""left"",[99999,99999],[-106,-106]]",circle,no_dis,hori,left,"[99999,99999]","[-106,-106]",left,1,1.4434,,,,,,001,2025-03-17_13h42.52.342,SL_base_41,2021.2.3,Win32,54.64480874,,,11,0,11,0,1,,,,,,,,
,,"[""diamond"",""green"",""vert"",""up"",[0,150],[-106,106]]",diamond,green,vert,up,"[0,150]","[-106,106]",up,1,1.9347,,,,,,001,2025-03-17_13h42.52.342,SL_base_41,2021.2.3,Win32,54.64480874,,,12,0,12,0,1,,,,,,,,
,,"[""circle"",""no_dis"",""vert"",""up"",[99999,99999],[-106,106]]",circle,no_dis,vert,up,"[99999,99999]","[-106,106]",up,1,1.709,,,,,,001,2025-03-17_13h42.52.342,SL_base_41,2021.2.3,Win32,54.64480874,,,13,0,13,0,1,,,,,,,,
,,"[""circle"",""no_dis"",""hori"",""left"",[99999,99999],[106,-106]]",circle,no_dis,hori,left,"[99999,99999]","[106,-106]",left,1,1.6382,,,,,,001,2025-03-17_13h42.52.342,SL_base_41,2021.2.3,Win32,54.64480874,,,14,0,14,0,1,,,,,,,,
,,"[""circle"",""green"",""vert"",""up"",[0,-150],[-150,0]]",circle,green,vert,up,"[0,-150]","[-150,0]",up,1,1.6727,,,,,,001,2025-03-17_13h42.52.342,SL_base_41,2021.2.3,Win32,54.64480874,,,15,0,15,0,1,,,,,,,,
,,"[""diamond"",""no_dis"",""hori"",""left"",[99999,99999],[0,-150]]",diamond,no_dis,hori,left,"[99999,99999]","[0,-150]",left,1,1.9646,,,,,,001,2025-03-17_13h42.52.342,SL_base_41,2021.2.3,Win32,54.64480874,,,16,0,16,0,1,,,,,,,,
,,"[""circle"",""green"",""vert"",""up"",[150,0],[106,-106]]",circle,green,vert,up,"[150,0]","[106,-106]",up,1,2.0988,,,,,,001,2025-03-17_13h42.52.342,SL_base_41,2021.2.3,Win32,54.64480874,,,17,0,17,0,1,,,,,,,,
,,"[""circle"",""green"",""hori"",""left"",[-106,106],[0,-150]]",circle,green,hori,left,"[-106,106]","[0,-150]",left,1,1.4194,,,,,,001,2025-03-17_13h42.52.342,SL_base_41,2021.2.3,Win32,54.64480874,,,18,0,18,0,1,,,,,,,,
,,"[""circle"",""green"",""vert"",""up"",[0,-150],[106,-106]]",circle,green,vert,up,"[0,-150]","[106,-106]",up,1,2.1454,,,,,,001,2025-03-17_13h42.52.342,SL_base_41,2021.2.3,Win32,54.64480874,,,19,0,19,0,1,,,,,,,,
,,"[""circle"",""red"",""vert"",""up"",[0,150],[106,106]]",circle,red,vert,up,"[0,150]","[106,106]",up,1,1.7641,,,,,,001,2025-03-17_13h42.52.342,SL_base_41,2021.2.3,Win32,54.64480874,,,20,0,20,0,1,,,,,,,,
,,"[""circle"",""no_dis"",""hori"",""left"",[99999,99999],[0,150]]",circle,no_dis,hori,left,"[99999,99999]","[0,150]",left,1,1.4181,,,,,,001,2025-03-17_13h42.52.342,SL_base_41,2021.2.3,Win32,54.64480874,,,21,0,21,0,1,,,,,,,,
,,"[""diamond"",""no_dis"",""vert"",""up"",[99999,99999],[-106,-106]]",diamond,no_dis,vert,up,"[99999,99999]","[-106,-106]",up,1,1.7643,,,,,,001,2025-03-17_13h42.52.342,SL_base_41,2021.2.3,Win32,54.64480874,,,22,0,22,0,1,,,,,,,,
,,"[""diamond"",""red"",""vert"",""up"",[0,150],[106,-106]]",diamond,red,vert,up,"[0,150]","[106,-106]",up,1,1.9653,,,,,,001,2025-03-17_13h42.52.342,SL_base_41,2021.2.3,Win32,54.64480874,,,23,0,23,0,1,,,,,,,,
,,"[""diamond"",""no_dis"",""vert"",""up"",[99999,99999],[106,106]]",diamond,no_dis,vert,up,"[99999,99999]","[106,106]",up,1,2.3334,,,,,,001,2025-03-17_13h42.52.342,SL_base_41,2021.2.3,Win32,54.64480874,,,24,0,24,0,1,,,,,,,,
,,"[""diamond"",""green"",""vert"",""up"",[0,150],[0,-150]]",diamond,green,vert,up,"[0,150]","[0,-150]",up,1,1.679,,,,,,001,2025-03-17_13h42.52.342,SL_base_41,2021.2.3,Win32,54.64480874,,,25,0,25,0,1,,,,,,,,
,,"[""circle"",""red"",""hori"",""left"",[-106,-106],[0,150]]",circle,red,hori,left,"[-106,-106]","[0,150]",,0,,,,,,,001,2025-03-17_13h42.52.342,SL_base_41,2021.2.3,Win32,54.64480874,,,26,0,26,0,1,,,,,,,,
,,"[""diamond"",""green"",""hori"",""left"",[-106,-106],[0,150]]",diamond,green,hori,left,"[-106,-106]","[0,150]",left,1,1.51,,,,,,001,2025-03-17_13h42.52.342,SL_base_41,2021.2.3,Win32,54.64480874,,,27,0,27,0,1,,,,,,,,
,,"[""circle"",""no_dis"",""hori"",""left"",[99999,99999],[-106,-106]]",circle,no_dis,hori,left,"[99999,99999]","[-106,-106]",left,1,1.7832,,,,,,001,2025-03-17_13h42.52.342,SL_base_41,2021.2.3,Win32,54.64480874,,,28,0,28,0,1,,,,,,,,
,,"[""circle"",""red"",""vert"",""up"",[0,150],[-106,106]]",circle,red,vert,up,"[0,150]","[-106,106]",up,1,1.6192,,,,,,001,2025-03-17_13h42.52.342,SL_base_41,2021.2.3,Win32,54.64480874,,,29,0,29,0,1,,,,,,,,
,,"[""circle"",""red"",""vert"",""up"",[0,150],[150,0]]",circle,red,vert,up,"[0,150]","[150,0]",up,1,2.0438,,,,,,001,2025-03-17_13h42.52.342,SL_base_41,2021.2.3,Win32,54.64480874,,,30,0,30,0,1,,,,,,,,
,,"[""diamond"",""green"",""hori"",""left"",[0,150],[-150,0]]",diamond,green,hori,left,"[0,150]","[-150,0]",up,0,2.5646,,,,,,001,2025-03-17_13h42.52.342,SL_base_41,2021.2.3,Win32,54.64480874,,,31,0,31,0,1,,,,,,,,
,,"[""diamond"",""red"",""hori"",""left"",[106,-106],[0,-150]]",diamond,red,hori,left,"[106,-106]","[0,-150]",,0,,,,,,,001,2025-03-17_13h42.52.342,SL_base_41,2021.2.3,Win32,54.64480874,,,32,0,32,0,1,,,,,,,,
,,"[""diamond"",""no_dis"",""vert"",""up"",[99999,99999],[150,0]]",diamond,no_dis,vert,up,"[99999,99999]","[150,0]",up,1,2.2914,,,,,,001,2025-03-17_13h42.52.342,SL_base_41,2021.2.3,Win32,54.64480874,,,33,0,33,0,1,,,,,,,,
,,"[""diamond"",""green"",""vert"",""up"",[-106,106],[-150,0]]",diamond,green,vert,up,"[-106,106]","[-150,0]",up,1,1.8556,,,,,,001,2025-03-17_13h42.52.342,SL_base_41,2021.2.3,Win32,54.64480874,,,34,0,34,0,1,,,,,,,,
,,"[""circle"",""red"",""hori"",""left"",[106,-106],[106,106]]",circle,red,hori,left,"[106,-106]","[106,106]",left,1,2.0755,,,,,,001,2025-03-17_13h42.52.342,SL_base_41,2021.2.3,Win32,54.64480874,,,35,0,35,0,1,,,,,,,,
,,"[""circle"",""green"",""vert"",""up"",[150,0],[-106,-106]]",circle,green,vert,up,"[150,0]","[-106,-106]",up,1,2.0004,,,,,,001,2025-03-17_13h42.52.342,SL_base_41,2021.2.3,Win32,54.64480874,,,36,0,36,0,1,,,,,,,,
,,"[""diamond"",""red"",""hori"",""left"",[0,150],[0,-150]]",diamond,red,hori,left,"[0,150]","[0,-150]",left,1,1.6931,,,,,,001,2025-03-17_13h42.52.342,SL_base_41,2021.2.3,Win32,54.64480874,,,37,0,37,0,1,,,,,,,,
,,"[""diamond"",""red"",""vert"",""up"",[150,0],[-106,106]]",diamond,red,vert,up,"[150,0]","[-106,106]",up,1,1.1506,,,,,,001,2025-03-17_13h42.52.342,SL_base_41,2021.2.3,Win32,54.64480874,,,38,0,38,0,1,,,,,,,,
,,"[""diamond"",""red"",""hori"",""left"",[0,150],[-150,0]]",diamond,red,hori,left,"[0,150]","[-150,0]",left,1,1.3462,,,,,,001,2025-03-17_13h42.52.342,SL_base_41,2021.2.3,Win32,54.64480874,,,39,0,39,0,1,,,,,,,,
,,"[""diamond"",""green"",""hori"",""left"",[0,150],[106,-106]]",diamond,green,hori,left,"[0,150]","[106,-106]",left,1,2.382,,,,,,001,2025-03-17_13h42.52.342,SL_base_41,2021.2.3,Win32,54.64480874,,,40,0,40,0,1,,,,,,,,
,,"[""diamond"",""green"",""hori"",""left"",[-106,-106],[106,106]]",diamond,green,hori,left,"[-106,-106]","[106,106]",left,1,1.7627,,,,,,001,2025-03-17_13h42.52.342,SL_base_41,2021.2.3,Win32,54.64480874,,,41,0,41,0,1,,,,,,,,
,,"[""circle"",""red"",""vert"",""up"",[-150,0],[-106,-106]]",circle,red,vert,up,"[-150,0]","[-106,-106]",up,1,2.5477,,,,,,001,2025-03-17_13h42.52.342,SL_base_41,2021.2.3,Win32,54.64480874,,,42,0,42,0,1,,,,,,,,
,,"[""circle"",""green"",""hori"",""left"",[0,-150],[-150,0]]",circle,green,hori,left,"[0,-150]","[-150,0]",left,1,1.9277,,,,,,001,2025-03-17_13h42.52.342,SL_base_41,2021.2.3,Win32,54.64480874,,,43,0,43,0,1,,,,,,,,
,,"[""diamond"",""red"",""hori"",""left"",[150,0],[-150,0]]",diamond,red,hori,left,"[150,0]","[-150,0]",left,1,1.601,,,,,,001,2025-03-17_13h42.52.342,SL_base_41,2021.2.3,Win32,54.64480874,,,44,0,44,0,1,,,,,,,,
,,"[""diamond"",""green"",""vert"",""up"",[0,-150],[0,150]]",diamond,green,vert,up,"[0,-150]","[0,150]",up,1,1.9172,,,,,,001,2025-03-17_13h42.52.342,SL_base_41,2021.2.3,Win32,54.64480874,,,45,0,45,0,1,,,,,,,,
,,"[""diamond"",""green"",""hori"",""left"",[0,150],[-106,106]]",diamond,green,hori,left,"[0,150]","[-106,106]",up,0,1.7353,,,,,,001,2025-03-17_13h42.52.342,SL_base_41,2021.2.3,Win32,54.64480874,,,46,0,46,0,1,,,,,,,,
,,"[""circle"",""no_dis"",""vert"",""up"",[99999,99999],[150,0]]",circle,no_dis,vert,up,"[99999,99999]","[150,0]",up,1,1.7101,,,,,,001,2025-03-17_13h42.52.342,SL_base_41,2021.2.3,Win32,54.64480874,,,47,0,47,0,1,,,,,,,,
,,"[""diamond"",""no_dis"",""vert"",""up"",[99999,99999],[-150,0]]",diamond,no_dis,vert,up,"[99999,99999]","[-150,0]",up,1,2.2421,,,,,,001,2025-03-17_13h42.52.342,SL_base_41,2021.2.3,Win32,54.64480874,,,48,0,48,0,1,,,,,,,,
,,"[""diamond"",""green"",""hori"",""left"",[106,106],[-150,0]]",diamond,green,hori,left,"[106,106]","[-150,0]",left,1,1.5641,,,,,,001,2025-03-17_13h42.52.342,SL_base_41,2021.2.3,Win32,54.64480874,,,49,0,49,0,1,,,,,,,,
,,"[""circle"",""red"",""hori"",""left"",[-150,0],[0,-150]]",circle,red,hori,left,"[-150,0]","[0,-150]",left,1,1.7828,,,,,,001,2025-03-17_13h42.52.342,SL_base_41,2021.2.3,Win32,54.64480874,,,50,0,50,0,1,,,,,,,,
,,"[""diamond"",""no_dis"",""vert"",""up"",[99999,99999],[0,150]]",diamond,no_dis,vert,up,"[99999,99999]","[0,150]",up,1,1.348,,,,,,001,2025-03-17_13h42.52.342,SL_base_41,2021.2.3,Win32,54.64480874,,,51,0,51,0,1,,,,,,,,
,,"[""diamond"",""no_dis"",""hori"",""left"",[99999,99999],[106,106]]",diamond,no_dis,hori,left,"[99999,99999]","[106,106]",left,1,1.1635,,,,,,001,2025-03-17_13h42.52.342,SL_base_41,2021.2.3,Win32,54.64480874,,,52,0,52,0,1,,,,,,,,
,,"[""circle"",""red"",""hori"",""left"",[-106,106],[0,-150]]",circle,red,hori,left,"[-106,106]","[0,-150]",left,1,1.9633,,,,,,001,2025-03-17_13h42.52.342,SL_base_41,2021.2.3,Win32,54.64480874,,,53,0,53,0,1,,,,,,,,
,,"[""circle"",""green"",""hori"",""left"",[0,150],[106,-106]]",circle,green,hori,left,"[0,150]","[106,-106]",left,1,1.8729,,,,,,001,2025-03-17_13h42.52.342,SL_base_41,2021.2.3,Win32,54.64480874,,,54,0,54,0,1,,,,,,,,
,,"[""circle"",""red"",""vert"",""up"",[0,150],[-106,-106]]",circle,red,vert,up,"[0,150]","[-106,-106]",up,1,1.8722,,,,,,001,2025-03-17_13h42.52.342,SL_base_41,2021.2.3,Win32,54.64480874,,,55,0,55,0,1,,,,,,,,
,,"[""diamond"",""red"",""vert"",""up"",[0,150],[150,0]]",diamond,red,vert,up,"[0,150]","[150,0]",up,1,2.1668,,,,,,001,2025-03-17_13h42.52.342,SL_base_41,2021.2.3,Win32,54.64480874,,,56,0,56,0,1,,,,,,,,
,,"[""circle"",""no_dis"",""vert"",""up"",[99999,99999],[106,106]]",circle,no_dis,vert,up,"[99999,99999]","[106,106]",up,1,2.5112,,,,,,001,2025-03-17_13h42.52.342,SL_base_41,2021.2.3,Win32,54.64480874,,,57,0,57,0,1,,,,,,,,
,,"[""circle"",""no_dis"",""hori"",""left"",[99999,99999],[-106,106]]",circle,no_dis,hori,left,"[99999,99999]","[-106,106]",left,1,2.273,,,,,,001,2025-03-17_13h42.52.342,SL_base_41,2021.2.3,Win32,54.64480874,,,58,0,58,0,1,,,,,,,,
,,"[""circle"",""green"",""hori"",""left"",[-106,106],[150,0]]",circle,green,hori,left,"[-106,106]","[150,0]",left,1,2.0053,,,,,,001,2025-03-17_13h42.52.342,SL_base_41,2021.2.3,Win32,54.64480874,,,59,0,59,0,1,,,,,,,,
,,"[""circle"",""no_dis"",""hori"",""left"",[99999,99999],[-106,-106]]",circle,no_dis,hori,left,"[99999,99999]","[-106,-106]",left,1,1.7652,,,,,,001,2025-03-17_13h42.52.342,SL_base_41,2021.2.3,Win32,54.64480874,,,60,0,60,0,1,,,,,,,,
,,"[""circle"",""red"",""vert"",""up"",[106,-106],[106,106]]",circle,red,vert,up,"[106,-106]","[106,106]",up,1,1.5825,,,,,,001,2025-03-17_13h42.52.342,SL_base_41,2021.2.3,Win32,54.64480874,,,61,0,61,0,1,,,,,,,,
,,"[""circle"",""no_dis"",""vert"",""up"",[99999,99999],[-106,106]]",circle,no_dis,vert,up,"[99999,99999]","[-106,106]",up,1,1.1826,,,,,,001,2025-03-17_13h42.52.342,SL_base_41,2021.2.3,Win32,54.64480874,,,62,0,62,0,1,,,,,,,,
,,"[""circle"",""red"",""hori"",""left"",[-150,0],[-106,106]]",circle,red,hori,left,"[-150,0]","[-106,106]",left,1,2.0191,,,,,,001,2025-03-17_13h42.52.342,SL_base_41,2021.2.3,Win32,54.64480874,,,63,0,63,0,1,,,,,,,,
,,"[""diamond"",""no_dis"",""hori"",""left"",[99999,99999],[106,-106]]",diamond,no_dis,hori,left,"[99999,99999]","[106,-106]",left,1,1.6964,,,,,,001,2025-03-17_13h42.52.342,SL_base_41,2021.2.3,Win32,54.64480874,,,64,0,64,0,1,,,,,,,,
,,"[""circle"",""green"",""hori"",""left"",[-106,106],[150,0]]",circle,green,hori,left,"[-106,106]","[150,0]",left,1,1.7101,,,,,,001,2025-03-17_13h42.52.342,SL_base_41,2021.2.3,Win32,54.64480874,,,65,0,65,0,1,,,,,,,,
,,"[""diamond"",""no_dis"",""hori"",""left"",[99999,99999],[-150,0]]",diamond,no_dis,hori,left,"[99999,99999]","[-150,0]",left,1,1.3097,,,,,,001,2025-03-17_13h42.52.342,SL_base_41,2021.2.3,Win32,54.64480874,,,66,0,66,0,1,,,,,,,,
,,"[""diamond"",""green"",""vert"",""up"",[-106,-106],[106,106]]",diamond,green,vert,up,"[-106,-106]","[106,106]",up,1,1.565,,,,,,001,2025-03-17_13h42.52.342,SL_base_41,2021.2.3,Win32,54.64480874,,,67,0,67,0,1,,,,,,,,
,,"[""diamond"",""no_dis"",""hori"",""left"",[99999,99999],[106,-106]]",diamond,no_dis,hori,left,"[99999,99999]","[106,-106]",left,1,1.4929,,,,,,001,2025-03-17_13h42.52.342,SL_base_41,2021.2.3,Win32,54.64480874,,,68,0,68,0,1,,,,,,,,
,,"[""diamond"",""green"",""vert"",""up"",[0,-150],[-106,-106]]",diamond,green,vert,up,"[0,-150]","[-106,-106]",up,1,1.4256,,,,,,001,2025-03-17_13h42.52.342,SL_base_41,2021.2.3,Win32,54.64480874,,,69,0,69,0,1,,,,,,,,
,,"[""circle"",""red"",""hori"",""left"",[-106,106],[106,-106]]",circle,red,hori,left,"[-106,106]","[106,-106]",left,1,1.4552,,,,,,001,2025-03-17_13h42.52.342,SL_base_41,2021.2.3,Win32,54.64480874,,,70,0,70,0,1,,,,,,,,
,,"[""circle"",""green"",""vert"",""up"",[0,150],[-150,0]]",circle,green,vert,up,"[0,150]","[-150,0]",up,1,1.7828,,,,,,001,2025-03-17_13h42.52.342,SL_base_41,2021.2.3,Win32,54.64480874,,,71,0,71,0,1,,,,,,,,
,,"[""diamond"",""green"",""vert"",""up"",[0,150],[106,106]]",diamond,green,vert,up,"[0,150]","[106,106]",up,1,1.5277,,,,,,001,2025-03-17_13h42.52.342,SL_base_41,2021.2.3,Win32,54.64480874,,,72,0,72,0,1,,,,,,,,
,,"[""diamond"",""red"",""hori"",""left"",[106,106],[150,0]]",diamond,red,hori,left,"[106,106]","[150,0]",left,1,1.4364,,,,,,001,2025-03-17_13h42.52.342,SL_base_41,2021.2.3,Win32,54.64480874,,,73,0,73,0,1,,,,,,,,
,,"[""diamond"",""red"",""vert"",""up"",[0,150],[0,-150]]",diamond,red,vert,up,"[0,150]","[0,-150]",up,1,1.2917,,,,,,001,2025-03-17_13h42.52.342,SL_base_41,2021.2.3,Win32,54.64480874,,,74,0,74,0,1,,,,,,,,
,,"[""circle"",""no_dis"",""hori"",""left"",[99999,99999],[106,106]]",circle,no_dis,hori,left,"[99999,99999]","[106,106]",left,1,2.1513,,,,,,001,2025-03-17_13h42.52.342,SL_base_41,2021.2.3,Win32,54.64480874,,,75,0,75,0,1,,,,,,,,
,,"[""circle"",""red"",""vert"",""up"",[0,150],[-106,-106]]",circle,red,vert,up,"[0,150]","[-106,-106]",up,1,1.3095,,,,,,001,2025-03-17_13h42.52.342,SL_base_41,2021.2.3,Win32,54.64480874,,,76,0,76,0,1,,,,,,,,
,,"[""circle"",""green"",""vert"",""up"",[0,150],[106,106]]",circle,green,vert,up,"[0,150]","[106,106]",up,1,1.1876,,,,,,001,2025-03-17_13h42.52.342,SL_base_41,2021.2.3,Win32,54.64480874,,,77,0,77,0,1,,,,,,,,
,,"[""diamond"",""red"",""hori"",""left"",[0,150],[0,-150]]",diamond,red,hori,left,"[0,150]","[0,-150]",left,1,1.2385,,,,,,001,2025-03-17_13h42.52.342,SL_base_41,2021.2.3,Win32,54.64480874,,,78,0,78,0,1,,,,,,,,
,,"[""circle"",""red"",""vert"",""up"",[150,0],[-150,0]]",circle,red,vert,up,"[150,0]","[-150,0]",up,1,2.1644,,,,,,001,2025-03-17_13h42.52.342,SL_base_41,2021.2.3,Win32,54.64480874,,,79,0,79,0,1,,,,,,,,
,,"[""diamond"",""red"",""hori"",""left"",[0,150],[150,0]]",diamond,red,hori,left,"[0,150]","[150,0]",left,1,1.3281,,,,,,001,2025-03-17_13h42.52.342,SL_base_41,2021.2.3,Win32,54.64480874,,,80,0,80,0,1,,,,,,,,
,,"[""diamond"",""red"",""hori"",""left"",[0,150],[-150,0]]",diamond,red,hori,left,"[0,150]","[-150,0]",left,1,1.2199,,,,,,001,2025-03-17_13h42.52.342,SL_base_41,2021.2.3,Win32,54.64480874,,,81,0,81,0,1,,,,,,,,
,,"[""circle"",""red"",""hori"",""left"",[0,150],[150,0]]",circle,red,hori,left,"[0,150]","[150,0]",left,1,1.4735,,,,,,001,2025-03-17_13h42.52.342,SL_base_41,2021.2.3,Win32,54.64480874,,,82,0,82,0,1,,,,,,,,
,,"[""circle"",""green"",""vert"",""up"",[150,0],[-106,-106]]",circle,green,vert,up,"[150,0]","[-106,-106]",up,1,2.6237,,,,,,001,2025-03-17_13h42.52.342,SL_base_41,2021.2.3,Win32,54.64480874,,,83,0,83,0,1,,,,,,,,
,,"[""diamond"",""green"",""hori"",""left"",[0,150],[106,-106]]",diamond,green,hori,left,"[0,150]","[106,-106]",up,0,2.2411,,,,,,001,2025-03-17_13h42.52.342,SL_base_41,2021.2.3,Win32,54.64480874,,,84,0,84,0,1,,,,,,,,
,,"[""circle"",""no_dis"",""vert"",""up"",[99999,99999],[-106,-106]]",circle,no_dis,vert,up,"[99999,99999]","[-106,-106]",up,1,2.946,,,,,,001,2025-03-17_13h42.52.342,SL_base_41,2021.2.3,Win32,54.64480874,,,85,0,85,0,1,,,,,,,,
,,"[""diamond"",""no_dis"",""vert"",""up"",[99999,99999],[0,-150]]",diamond,no_dis,vert,up,"[99999,99999]","[0,-150]",up,1,2.3465,,,,,,001,2025-03-17_13h42.52.342,SL_base_41,2021.2.3,Win32,54.64480874,,,86,0,86,0,1,,,,,,,,
,,"[""circle"",""no_dis"",""vert"",""up"",[99999,99999],[106,-106]]",circle,no_dis,vert,up,"[99999,99999]","[106,-106]",,0,,,,,,,001,2025-03-17_13h42.52.342,SL_base_41,2021.2.3,Win32,54.64480874,,,87,0,87,0,1,,,,,,,,
,,"[""diamond"",""green"",""hori"",""left"",[150,0],[-106,-106]]",diamond,green,hori,left,"[150,0]","[-106,-106]",left,1,2.0377,,,,,,001,2025-03-17_13h42.52.342,SL_base_41,2021.2.3,Win32,54.64480874,,,88,0,88,0,1,,,,,,,,
,,"[""diamond"",""green"",""vert"",""up"",[-150,0],[0,150]]",diamond,green,vert,up,"[-150,0]","[0,150]",up,1,1.8941,,,,,,001,2025-03-17_13h42.52.342,SL_base_41,2021.2.3,Win32,54.64480874,,,89,0,89,0,1,,,,,,,,
,,"[""circle"",""green"",""hori"",""left"",[106,-106],[-106,106]]",circle,green,hori,left,"[106,-106]","[-106,106]",left,1,1.8548,,,,,,001,2025-03-17_13h42.52.342,SL_base_41,2021.2.3,Win32,54.64480874,,,90,0,90,0,1,,,,,,,,
,,"[""diamond"",""no_dis"",""hori"",""left"",[99999,99999],[0,-150]]",diamond,no_dis,hori,left,"[99999,99999]","[0,-150]",left,1,1.4016,,,,,,001,2025-03-17_13h42.52.342,SL_base_41,2021.2.3,Win32,54.64480874,,,91,0,91,0,1,,,,,,,,
,,"[""circle"",""red"",""vert"",""up"",[-106,106],[150,0]]",circle,red,vert,up,"[-106,106]","[150,0]",up,1,1.2904,,,,,,001,2025-03-17_13h42.52.342,SL_base_41,2021.2.3,Win32,54.64480874,,,92,0,92,0,1,,,,,,,,
,,"[""diamond"",""green"",""hori"",""left"",[-106,-106],[-150,0]]",diamond,green,hori,left,"[-106,-106]","[-150,0]",left,1,1.3826,,,,,,001,2025-03-17_13h42.52.342,SL_base_41,2021.2.3,Win32,54.64480874,,,93,0,93,0,1,,,,,,,,
,,"[""diamond"",""green"",""hori"",""left"",[0,150],[106,106]]",diamond,green,hori,left,"[0,150]","[106,106]",left,1,1.7277,,,,,,001,2025-03-17_13h42.52.342,SL_base_41,2021.2.3,Win32,54.64480874,,,94,0,94,0,1,,,,,,,,
,,"[""diamond"",""red"",""vert"",""up"",[106,106],[150,0]]",diamond,red,vert,up,"[106,106]","[150,0]",up,1,1.8918,,,,,,001,2025-03-17_13h42.52.342,SL_base_41,2021.2.3,Win32,54.64480874,,,95,0,95,0,1,,,,,,,,
,,"[""diamond"",""red"",""vert"",""up"",[0,-150],[150,0]]",diamond,red,vert,up,"[0,-150]","[150,0]",up,1,1.2555,,,,,,001,2025-03-17_13h42.52.342,SL_base_41,2021.2.3,Win32,54.64480874,,,96,0,96,0,1,,,,,,,,
,,"[""circle"",""green"",""hori"",""left"",[-150,0],[0,150]]",circle,green,hori,left,"[-150,0]","[0,150]",up,0,1.4913,,,,,,001,2025-03-17_13h42.52.342,SL_base_41,2021.2.3,Win32,54.64480874,,,97,0,97,0,1,,,,,,,,
,,"[""circle"",""red"",""hori"",""left"",[106,106],[-150,0]]",circle,red,hori,left,"[106,106]","[-150,0]",left,1,1.9255,,,,,,001,2025-03-17_13h42.52.342,SL_base_41,2021.2.3,Win32,54.64480874,,,98,0,98,0,1,,,,,,,,
,,"[""circle"",""green"",""hori"",""left"",[0,150],[106,106]]",circle,green,hori,left,"[0,150]","[106,106]",left,1,1.9349,,,,,,001,2025-03-17_13h42.52.342,SL_base_41,2021.2.3,Win32,54.64480874,,,99,0,99,0,1,,,,,,,,
,,"[""diamond"",""green"",""hori"",""left"",[0,-150],[106,-106]]",diamond,green,hori,left,"[0,-150]","[106,-106]",left,1,1.5637,,,,,,001,2025-03-17_13h42.52.342,SL_base_41,2021.2.3,Win32,54.64480874,,,100,0,100,0,1,,,,,,,,
,,"[""diamond"",""red"",""hori"",""left"",[106,106],[150,0]]",diamond,red,hori,left,"[106,106]","[150,0]",left,1,1.8004,,,,,,001,2025-03-17_13h42.52.342,SL_base_41,2021.2.3,Win32,54.64480874,,,101,0,101,0,1,,,,,,,,
,,"[""circle"",""red"",""hori"",""left"",[0,150],[0,-150]]",circle,red,hori,left,"[0,150]","[0,-150]",left,1,2.2774,,,,,,001,2025-03-17_13h42.52.342,SL_base_41,2021.2.3,Win32,54.64480874,,,102,0,102,0,1,,,,,,,,
,,"[""diamond"",""red"",""hori"",""left"",[0,150],[106,106]]",diamond,red,hori,left,"[0,150]","[106,106]",left,1,1.3526,,,,,,001,2025-03-17_13h42.52.342,SL_base_41,2021.2.3,Win32,54.64480874,,,103,0,103,0,1,,,,,,,,
,,"[""circle"",""red"",""vert"",""up"",[0,-150],[106,-106]]",circle,red,vert,up,"[0,-150]","[106,-106]",up,1,2.1832,,,,,,001,2025-03-17_13h42.52.342,SL_base_41,2021.2.3,Win32,54.64480874,,,104,0,104,0,1,,,,,,,,
,,"[""circle"",""no_dis"",""vert"",""up"",[99999,99999],[106,106]]",circle,no_dis,vert,up,"[99999,99999]","[106,106]",up,1,2.0008,,,,,,001,2025-03-17_13h42.52.342,SL_base_41,2021.2.3,Win32,54.64480874,,,105,0,105,0,1,,,,,,,,
,,"[""circle"",""no_dis"",""hori"",""left"",[99999,99999],[-150,0]]",circle,no_dis,hori,left,"[99999,99999]","[-150,0]",left,1,1.1688,,,,,,001,2025-03-17_13h42.52.342,SL_base_41,2021.2.3,Win32,54.64480874,,,106,0,106,0,1,,,,,,,,
,,"[""diamond"",""no_dis"",""hori"",""left"",[99999,99999],[150,0]]",diamond,no_dis,hori,left,"[99999,99999]","[150,0]",left,1,1.1277,,,,,,001,2025-03-17_13h42.52.342,SL_base_41,2021.2.3,Win32,54.64480874,,,107,0,107,0,1,,,,,,,,
,,"[""diamond"",""no_dis"",""vert"",""up"",[99999,99999],[0,150]]",diamond,no_dis,vert,up,"[99999,99999]","[0,150]",up,1,1.0541,,,,,,001,2025-03-17_13h42.52.342,SL_base_41,2021.2.3,Win32,54.64480874,,,108,0,108,0,1,,,,,,,,
,,"[""circle"",""red"",""hori"",""left"",[106,-106],[-150,0]]",circle,red,hori,left,"[106,-106]","[-150,0]",up,0,0.8771,,,,,,001,2025-03-17_13h42.52.342,SL_base_41,2021.2.3,Win32,54.64480874,,,109,0,109,0,1,,,,,,,,
,,"[""diamond"",""red"",""hori"",""left"",[106,-106],[106,106]]",diamond,red,hori,left,"[106,-106]","[106,106]",left,1,2.2625,,,,,,001,2025-03-17_13h42.52.342,SL_base_41,2021.2.3,Win32,54.64480874,,,110,0,110,0,1,,,,,,,,
,,"[""diamond"",""no_dis"",""hori"",""left"",[99999,99999],[0,-150]]",diamond,no_dis,hori,left,"[99999,99999]","[0,-150]",left,1,1.3649,,,,,,001,2025-03-17_13h42.52.342,SL_base_41,2021.2.3,Win32,54.64480874,,,111,0,111,0,1,,,,,,,,
,,"[""diamond"",""green"",""vert"",""up"",[0,150],[-106,106]]",diamond,green,vert,up,"[0,150]","[-106,106]",up,1,1.3638,,,,,,001,2025-03-17_13h42.52.342,SL_base_41,2021.2.3,Win32,54.64480874,,,112,0,112,0,1,,,,,,,,
,,"[""diamond"",""green"",""vert"",""up"",[-106,106],[150,0]]",diamond,green,vert,up,"[-106,106]","[150,0]",up,1,0.9827,,,,,,001,2025-03-17_13h42.52.342,SL_base_41,2021.2.3,Win32,54.64480874,,,113,0,113,0,1,,,,,,,,
,,"[""diamond"",""red"",""vert"",""up"",[150,0],[106,106]]",diamond,red,vert,up,"[150,0]","[106,106]",up,1,1.2005,,,,,,001,2025-03-17_13h42.52.342,SL_base_41,2021.2.3,Win32,54.64480874,,,114,0,114,0,1,,,,,,,,
,,"[""diamond"",""red"",""vert"",""up"",[-150,0],[-106,-106]]",diamond,red,vert,up,"[-150,0]","[-106,-106]",up,1,1.0371,,,,,,001,2025-03-17_13h42.52.342,SL_base_41,2021.2.3,Win32,54.64480874,,,115,0,115,0,1,,,,,,,,
,,"[""diamond"",""green"",""vert"",""up"",[-150,0],[106,106]]",diamond,green,vert,up,"[-150,0]","[106,106]",up,1,1.0718,,,,,,001,2025-03-17_13h42.52.342,SL_base_41,2021.2.3,Win32,54.64480874,,,116,0,116,0,1,,,,,,,,
,,"[""diamond"",""no_dis"",""vert"",""up"",[99999,99999],[0,-150]]",diamond,no_dis,vert,up,"[99999,99999]","[0,-150]",up,1,1.6182,,,,,,001,2025-03-17_13h42.52.342,SL_base_41,2021.2.3,Win32,54.64480874,,,117,0,117,0,1,,,,,,,,
,,"[""circle"",""no_dis"",""hori"",""left"",[99999,99999],[106,-106]]",circle,no_dis,hori,left,"[99999,99999]","[106,-106]",left,1,1.4595,,,,,,001,2025-03-17_13h42.52.342,SL_base_41,2021.2.3,Win32,54.64480874,,,118,0,118,0,1,,,,,,,,
,,"[""diamond"",""no_dis"",""vert"",""up"",[99999,99999],[-106,106]]",diamond,no_dis,vert,up,"[99999,99999]","[-106,106]",up,1,0.9462,,,,,,001,2025-03-17_13h42.52.342,SL_base_41,2021.2.3,Win32,54.64480874,,,119,0,119,0,1,,,,,,,,
,,"[""circle"",""green"",""vert"",""up"",[106,106],[-106,-106]]",circle,green,vert,up,"[106,106]","[-106,-106]",up,1,2.0189,,,,,,001,2025-03-17_13h42.52.342,SL_base_41,2021.2.3,Win32,54.64480874,,,120,0,120,0,1,,,,,,,,
,,"[""diamond"",""no_dis"",""vert"",""up"",[99999,99999],[150,0]]",diamond,no_dis,vert,up,"[99999,99999]","[150,0]",up,1,1.3143,,,,,,001,2025-03-17_13h42.52.342,SL_base_41,2021.2.3,Win32,54.64480874,,,121,0,121,0,1,,,,,,,,
,,"[""circle"",""no_dis"",""hori"",""left"",[99999,99999],[0,150]]",circle,no_dis,hori,left,"[99999,99999]","[0,150]",left,1,1.6189,,,,,,001,2025-03-17_13h42.52.342,SL_base_41,2021.2.3,Win32,54.64480874,,,122,0,122,0,1,,,,,,,,
,,"[""circle"",""green"",""vert"",""up"",[-106,-106],[0,150]]",circle,green,vert,up,"[-106,-106]","[0,150]",up,1,1.6013,,,,,,001,2025-03-17_13h42.52.342,SL_base_41,2021.2.3,Win32,54.64480874,,,123,0,123,0,1,,,,,,,,
,,"[""diamond"",""no_dis"",""hori"",""left"",[99999,99999],[150,0]]",diamond,no_dis,hori,left,"[99999,99999]","[150,0]",left,1,1.4013,,,,,,001,2025-03-17_13h42.52.342,SL_base_41,2021.2.3,Win32,54.64480874,,,124,0,124,0,1,,,,,,,,
,,"[""circle"",""red"",""hori"",""left"",[0,150],[106,-106]]",circle,red,hori,left,"[0,150]","[106,-106]",left,1,1.1633,,,,,,001,2025-03-17_13h42.52.342,SL_base_41,2021.2.3,Win32,54.64480874,,,125,0,125,0,1,,,,,,,,
,,"[""diamond"",""red"",""vert"",""up"",[106,106],[-150,0]]",diamond,red,vert,up,"[106,106]","[-150,0]",up,1,1.183,,,,,,001,2025-03-17_13h42.52.342,SL_base_41,2021.2.3,Win32,54.64480874,,,126,0,126,0,1,,,,,,,,
,,"[""diamond"",""red"",""vert"",""up"",[106,106],[106,-106]]",diamond,red,vert,up,"[106,106]","[106,-106]",up,1,0.9507,,,,,,001,2025-03-17_13h42.52.342,SL_base_41,2021.2.3,Win32,54.64480874,,,127,0,127,0,1,,,,,,,,
,,,,,,,,,,,,,,,,,001,2025-03-17_13h42.52.342,SL_base_41,2021.2.3,Win32,54.64480874,,,,,,,,1,space,10.098,0,0,0,0,1
,,"[""circle"",""green"",""vert"",""up"",[-150,0],[0,150]]",circle,green,vert,up,"[-150,0]","[0,150]",up,1,1.5464,,,,,,001,2025-03-17_13h42.52.342,SL_base_41,2021.2.3,Win32,54.64480874,,,0,0,0,0,1,,,,,,,,
,,"[""diamond"",""red"",""vert"",""up"",[106,106],[150,0]]",diamond,red,vert,up,"[106,106]","[150,0]",up,1,1.2921,,,,,,001,2025-03-17_13h42.52.342,SL_base_41,2021.2.3,Win32,54.64480874,,,1,0,1,0,1,,,,,,,,
,,"[""circle"",""red"",""hori"",""left"",[-106,-106],[0,150]]",circle,red,hori,left,"[-106,-106]","[0,150]",left,1,1.6919,,,,,,001,2025-03-17_13h42.52.342,SL_base_41,2021.2.3,Win32,54.64480874,,,2,0,2,0,1,,,,,,,,
,,"[""diamond"",""green"",""vert"",""up"",[0,150],[106,106]]",diamond,green,vert,up,"[0,150]","[106,106]",up,1,1.3641,,,,,,001,2025-03-17_13h42.52.342,SL_base_41,2021.2.3,Win32,54.64480874,,,3,0,3,0,1,,,,,,,,
,,"[""diamond"",""red"",""hori"",""left"",[150,0],[-150,0]]",diamond,red,hori,left,"[150,0]","[-150,0]",left,1,1.1106,,,,,,001,2025-03-17_13h42.52.342,SL_base_41,2021.2.3,Win32,54.64480874,,,4,0,4,0,1,,,,,,,,
,,"[""diamond"",""no_dis"",""hori"",""left"",[99999,99999],[106,-106]]",diamond,no_dis,hori,left,"[99999,99999]","[106,-106]",left,1,0.946,,,,,,001,2025-03-17_13h42.52.342,SL_base_41,2021.2.3,Win32,54.64480874,,,5,0,5,0,1,,,,,,,,
,,"[""circle"",""no_dis"",""hori"",""left"",[99999,99999],[106,-106]]",circle,no_dis,hori,left,"[99999,99999]","[106,-106]",left,1,1.5093,,,,,,001,2025-03-17_13h42.52.342,SL_base_41,2021.2.3,Win32,54.64480874,,,6,0,6,0,1,,,,,,,,
,,"[""circle"",""no_dis"",""hori"",""left"",[99999,99999],[-106,106]]",circle,no_dis,hori,left,"[99999,99999]","[-106,106]",left,1,1.073,,,,,,001,2025-03-17_13h42.52.342,SL_base_41,2021.2.3,Win32,54.64480874,,,7,0,7,0,1,,,,,,,,
,,"[""diamond"",""green"",""hori"",""left"",[0,150],[106,-106]]",diamond,green,hori,left,"[0,150]","[106,-106]",left,1,1.11,,,,,,001,2025-03-17_13h42.52.342,SL_base_41,2021.2.3,Win32,54.64480874,,,8,0,8,0,1,,,,,,,,
,,"[""circle"",""green"",""hori"",""left"",[0,150],[106,-106]]",circle,green,hori,left,"[0,150]","[106,-106]",left,1,1.3097,,,,,,001,2025-03-17_13h42.52.342,SL_base_41,2021.2.3,Win32,54.64480874,,,9,0,9,0,1,,,,,,,,
,,"[""circle"",""no_dis"",""hori"",""left"",[99999,99999],[-106,-106]]",circle,no_dis,hori,left,"[99999,99999]","[-106,-106]",left,1,1.4196,,,,,,001,2025-03-17_13h42.52.342,SL_base_41,2021.2.3,Win32,54.64480874,,,10,0,10,0,1,,,,,,,,
,,"[""diamond"",""no_dis"",""vert"",""up"",[99999,99999],[-150,0]]",diamond,no_dis,vert,up,"[99999,99999]","[-150,0]",up,1,1.2919,,,,,,001,2025-03-17_13h42.52.342,SL_base_41,2021.2.3,Win32,54.64480874,,,11,0,11,0,1,,,,,,,,
,,"[""diamond"",""no_dis"",""hori"",""left"",[99999,99999],[150,0]]",diamond,no_dis,hori,left,"[99999,99999]","[150,0]",left,1,0.9642,,,,,,001,2025-03-17_13h42.52.342,SL_base_41,2021.2.3,Win32,54.64480874,,,12,0,12,0,1,,,,,,,,
,,"[""diamond"",""red"",""hori"",""left"",[0,150],[0,-150]]",diamond,red,hori,left,"[0,150]","[0,-150]",left,1,1.3858,,,,,,001,2025-03-17_13h42.52.342,SL_base_41,2021.2.3,Win32,54.64480874,,,13,0,13,0,1,,,,,,,,
,,"[""diamond"",""no_dis"",""vert"",""up"",[99999,99999],[150,0]]",diamond,no_dis,vert,up,"[99999,99999]","[150,0]",up,1,0.876,,,,,,001,2025-03-17_13h42.52.342,SL_base_41,2021.2.3,Win32,54.64480874,,,14,0,14,0,1,,,,,,,,
,,"[""diamond"",""green"",""vert"",""up"",[0,-150],[0,150]]",diamond,green,vert,up,"[0,-150]","[0,150]",up,1,1.4214,,,,,,001,2025-03-17_13h42.52.342,SL_base_41,2021.2.3,Win32,54.64480874,,,15,0,15,0,1,,,,,,,,
,,"[""circle"",""red"",""vert"",""up"",[0,-150],[106,-106]]",circle,red,vert,up,"[0,-150]","[106,-106]",up,1,0.9093,,,,,,001,2025-03-17_13h42.52.342,SL_base_41,2021.2.3,Win32,54.64480874,,,16,0,16,0,1,,,,,,,,
,,"[""circle"",""no_dis"",""vert"",""up"",[99999,99999],[-150,0]]",circle,no_dis,vert,up,"[99999,99999]","[-150,0]",up,1,1.3644,,,,,,001,2025-03-17_13h42.52.342,SL_base_41,2021.2.3,Win32,54.64480874,,,17,0,17,0,1,,,,,,,,
,,"[""diamond"",""no_dis"",""hori"",""left"",[99999,99999],[106,106]]",diamond,no_dis,hori,left,"[99999,99999]","[106,106]",left,1,0.9822,,,,,,001,2025-03-17_13h42.52.342,SL_base_41,2021.2.3,Win32,54.64480874,,,18,0,18,0,1,,,,,,,,
,,"[""diamond"",""no_dis"",""hori"",""left"",[99999,99999],[-150,0]]",diamond,no_dis,hori,left,"[99999,99999]","[-150,0]",left,1,1.0365,,,,,,001,2025-03-17_13h42.52.342,SL_base_41,2021.2.3,Win32,54.64480874,,,19,0,19,0,1,,,,,,,,
,,"[""circle"",""no_dis"",""hori"",""left"",[99999,99999],[-150,0]]",circle,no_dis,hori,left,"[99999,99999]","[-150,0]",left,1,1.51,,,,,,001,2025-03-17_13h42.52.342,SL_base_41,2021.2.3,Win32,54.64480874,,,20,0,20,0,1,,,,,,,,
,,"[""diamond"",""red"",""hori"",""left"",[0,150],[150,0]]",diamond,red,hori,left,"[0,150]","[150,0]",left,1,1.5825,,,,,,001,2025-03-17_13h42.52.342,SL_base_41,2021.2.3,Win32,54.64480874,,,21,0,21,0,1,,,,,,,,
,,"[""circle"",""green"",""vert"",""up"",[0,-150],[106,-106]]",circle,green,vert,up,"[0,-150]","[106,-106]",up,1,1.6544,,,,,,001,2025-03-17_13h42.52.342,SL_base_41,2021.2.3,Win32,54.64480874,,,22,0,22,0,1,,,,,,,,
,,"[""circle"",""no_dis"",""hori"",""left"",[99999,99999],[0,150]]",circle,no_dis,hori,left,"[99999,99999]","[0,150]",left,1,1.2916,,,,,,001,2025-03-17_13h42.52.342,SL_base_41,2021.2.3,Win32,54.64480874,,,23,0,23,0,1,,,,,,,,
,,"[""circle"",""green"",""hori"",""left"",[-106,106],[150,0]]",circle,green,hori,left,"[-106,106]","[150,0]",left,1,1.1287,,,,,,001,2025-03-17_13h42.52.342,SL_base_41,2021.2.3,Win32,54.64480874,,,24,0,24,0,1,,,,,,,,
,,"[""circle"",""green"",""vert"",""up"",[0,150],[150,0]]",circle,green,vert,up,"[0,150]","[150,0]",up,1,1.0243,,,,,,001,2025-03-17_13h42.52.342,SL_base_41,2021.2.3,Win32,54.64480874,,,25,0,25,0,1,,,,,,,,
,,"[""circle"",""green"",""hori"",""left"",[-106,106],[0,-150]]",circle,green,hori,left,"[-106,106]","[0,-150]",left,1,1.7102,,,,,,001,2025-03-17_13h42.52.342,SL_base_41,2021.2.3,Win32,54.64480874,,,26,0,26,0,1,,,,,,,,
,,"[""diamond"",""green"",""vert"",""up"",[-150,0],[106,106]]",diamond,green,vert,up,"[-150,0]","[106,106]",up,1,0.9279,,,,,,001,2025-03-17_13h42.52.342,SL_base_41,2021.2.3,Win32,54.64480874,,,27,0,27,0,1,,,,,,,,
,,"[""diamond"",""no_dis"",""vert"",""up"",[99999,99999],[-106,-106]]",diamond,no_dis,vert,up,"[99999,99999]","[-106,-106]",up,1,1.0771,,,,,,001,2025-03-17_13h42.52.342,SL_base_41,2021.2.3,Win32,54.64480874,,,28,0,28,0,1,,,,,,,,
,,"[""diamond"",""red"",""hori"",""left"",[106,106],[150,0]]",diamond,red,hori,left,"[106,106]","[150,0]",left,1,1.4217,,,,,,001,2025-03-17_13h42.52.342,SL_base_41,2021.2.3,Win32,54.64480874,,,29,0,29,0,1,,,,,,,,
,,"[""diamond"",""no_dis"",""hori"",""left"",[99999,99999],[150,0]]",diamond,no_dis,hori,left,"[99999,99999]","[150,0]",left,1,1.0362,,,,,,001,2025-03-17_13h42.52.342,SL_base_41,2021.2.3,Win32,54.64480874,,,30,0,30,0,1,,,,,,,,
,,"[""diamond"",""green"",""vert"",""up"",[0,150],[-106,106]]",diamond,green,vert,up,"[0,150]","[-106,106]",up,1,1.5899,,,,,,001,2025-03-17_13h42.52.342,SL_base_41,2021.2.3,Win32,54.64480874,,,31,0,31,0,1,,,,,,,,
,,"[""diamond"",""green"",""hori"",""left"",[0,150],[-150,0]]",diamond,green,hori,left,"[0,150]","[-150,0]",left,1,1.0213,,,,,,001,2025-03-17_13h42.52.342,SL_base_41,2021.2.3,Win32,54.64480874,,,32,0,32,0,1,,,,,,,,
,,"[""circle"",""red"",""hori"",""left"",[106,-106],[-150,0]]",circle,red,hori,left,"[106,-106]","[-150,0]",left,1,1.619,,,,,,001,2025-03-17_13h42.52.342,SL_base_41,2021.2.3,Win32,54.64480874,,,33,0,33,0,1,,,,,,,,
,,"[""diamond"",""red"",""vert"",""up"",[0,150],[0,-150]]",diamond,red,vert,up,"[0,150]","[0,-150]",up,1,1.8373,,,,,,001,2025-03-17_13h42.52.342,SL_base_41,2021.2.3,Win32,54.64480874,,,34,0,34,0,1,,,,,,,,
,,"[""diamond"",""no_dis"",""vert"",""up"",[99999,99999],[106,106]]",diamond,no_dis,vert,up,"[99999,99999]","[106,106]",up,1,1.2045,,,,,,001,2025-03-17_13h42.52.342,SL_base_41,2021.2.3,Win32,54.64480874,,,35,0,35,0,1,,,,,,,,
,,"[""circle"",""no_dis"",""hori"",""left"",[99999,99999],[106,-106]]",circle,no_dis,hori,left,"[99999,99999]","[106,-106]",left,1,1.3104,,,,,,001,2025-03-17_13h42.52.342,SL_base_41,2021.2.3,Win32,54.64480874,,,36,0,36,0,1,,,,,,,,
,,"[""diamond"",""green"",""vert"",""up"",[-106,-106],[106,106]]",diamond,green,vert,up,"[-106,-106]","[106,106]",up,1,0.9101,,,,,,001,2025-03-17_13h42.52.342,SL_base_41,2021.2.3,Win32,54.64480874,,,37,0,37,0,1,,,,,,,,
,,"[""diamond"",""green"",""hori"",""left"",[0,150],[106,106]]",diamond,green,hori,left,"[0,150]","[106,106]",left,1,1.1283,,,,,,001,2025-03-17_13h42.52.342,SL_base_41,2021.2.3,Win32,54.64480874,,,38,0,38,0,1,,,,,,,,
,,"[""circle"",""red"",""hori"",""left"",[-150,0],[0,-150]]",circle,red,hori,left,"[-150,0]","[0,-150]",left,1,1.3102,,,,,,001,2025-03-17_13h42.52.342,SL_base_41,2021.2.3,Win32,54.64480874,,,39,0,39,0,1,,,,,,,,
,,"[""circle"",""green"",""vert"",""up"",[0,150],[-150,0]]",circle,green,vert,up,"[0,150]","[-150,0]",up,1,1.8052,,,,,,001,2025-03-17_13h42.52.342,SL_base_41,2021.2.3,Win32,54.64480874,,,40,0,40,0,1,,,,,,,,
,,"[""diamond"",""red"",""vert"",""up"",[0,150],[150,0]]",diamond,red,vert,up,"[0,150]","[150,0]",up,1,1.0913,,,,,,001,2025-03-17_13h42.52.342,SL_base_41,2021.2.3,Win32,54.64480874,,,41,0,41,0,1,,,,,,,,
,,"[""diamond"",""no_dis"",""vert"",""up"",[99999,99999],[0,150]]",diamond,no_dis,vert,up,"[99999,99999]","[0,150]",up,1,1.1778,,,,,,001,2025-03-17_13h42.52.342,SL_base_41,2021.2.3,Win32,54.64480874,,,42,0,42,0,1,,,,,,,,
,,"[""diamond"",""green"",""vert"",""up"",[0,150],[-106,106]]",diamond,green,vert,up,"[0,150]","[-106,106]",up,1,1.366,,,,,,001,2025-03-17_13h42.52.342,SL_base_41,2021.2.3,Win32,54.64480874,,,43,0,43,0,1,,,,,,,,
,,"[""diamond"",""green"",""vert"",""up"",[0,-150],[-106,-106]]",diamond,green,vert,up,"[0,-150]","[-106,-106]",up,1,1.0742,,,,,,001,2025-03-17_13h42.52.342,SL_base_41,2021.2.3,Win32,54.64480874,,,44,0,44,0,1,,,,,,,,
,,"[""diamond"",""red"",""hori"",""left"",[106,-106],[0,-150]]",diamond,red,hori,left,"[106,-106]","[0,-150]",left,1,1.0425,,,,,,001,2025-03-17_13h42.52.342,SL_base_41,2021.2.3,Win32,54.64480874,,,45,0,45,0,1,,,,,,,,
,,"[""diamond"",""red"",""vert"",""up"",[150,0],[-106,106]]",diamond,red,vert,up,"[150,0]","[-106,106]",up,1,0.9493,,,,,,001,2025-03-17_13h42.52.342,SL_base_41,2021.2.3,Win32,54.64480874,,,46,0,46,0,1,,,,,,,,
,,"[""diamond"",""red"",""hori"",""left"",[0,150],[-150,0]]",diamond,red,hori,left,"[0,150]","[-150,0]",left,1,0.8548,,,,,,001,2025-03-17_13h42.52.342,SL_base_41,2021.2.3,Win32,54.64480874,,,47,0,47,0,1,,,,,,,,
,,"[""diamond"",""no_dis"",""vert"",""up"",[99999,99999],[0,-150]]",diamond,no_dis,vert,up,"[99999,99999]","[0,-150]",up,1,0.8741,,,,,,001,2025-03-17_13h42.52.342,SL_base_41,2021.2.3,Win32,54.64480874,,,48,0,48,0,1,,,,,,,,
,,"[""diamond"",""green"",""vert"",""up"",[0,150],[0,-150]]",diamond,green,vert,up,"[0,150]","[0,-150]",left,0,1.0374,,,,,,001,2025-03-17_13h42.52.342,SL_base_41,2021.2.3,Win32,54.64480874,,,49,0,49,0,1,,,,,,,,
,,"[""circle"",""red"",""vert"",""up"",[0,150],[-106,106]]",circle,red,vert,up,"[0,150]","[-106,106]",left,0,0.9999,,,,,,001,2025-03-17_13h42.52.342,SL_base_41,2021.2.3,Win32,54.64480874,,,50,0,50,0,1,,,,,,,,
,,"[""circle"",""red"",""hori"",""left"",[0,150],[0,-150]]",circle,red,hori,left,"[0,150]","[0,-150]",left,1,1.3316,,,,,,001,2025-03-17_13h42.52.342,SL_base_41,2021.2.3,Win32,54.64480874,,,51,0,51,0,1,,,,,,,,
,,"[""diamond"",""no_dis"",""hori"",""left"",[99999,99999],[0,-150]]",diamond,no_dis,hori,left,"[99999,99999]","[0,-150]",left,1,0.9843,,,,,,001,2025-03-17_13h42.52.342,SL_base_41,2021.2.3,Win32,54.64480874,,,52,0,52,0,1,,,,,,,,
,,"[""diamond"",""red"",""hori"",""left"",[0,150],[0,-150]]",diamond,red,hori,left,"[0,150]","[0,-150]",left,1,1.0551,,,,,,001,2025-03-17_13h42.52.342,SL_base_41,2021.2.3,Win32,54.64480874,,,53,0,53,0,1,,,,,,,,
,,"[""diamond"",""red"",""vert"",""up"",[0,150],[-150,0]]",diamond,red,vert,up,"[0,150]","[-150,0]",up,1,0.9353,,,,,,001,2025-03-17_13h42.52.342,SL_base_41,2021.2.3,Win32,54.64480874,,,54,0,54,0,1,,,,,,,,
,,"[""circle"",""no_dis"",""vert"",""up"",[99999,99999],[106,106]]",circle,no_dis,vert,up,"[99999,99999]","[106,106]",up,1,1.7142,,,,,,001,2025-03-17_13h42.52.342,SL_base_41,2021.2.3,Win32,54.64480874,,,55,0,55,0,1,,,,,,,,
,,"[""circle"",""red"",""hori"",""left"",[-106,106],[0,-150]]",circle,red,hori,left,"[-106,106]","[0,-150]",left,1,1.0185,,,,,,001,2025-03-17_13h42.52.342,SL_base_41,2021.2.3,Win32,54.64480874,,,56,0,56,0,1,,,,,,,,
,,"[""diamond"",""green"",""hori"",""left"",[-106,-106],[0,150]]",diamond,green,hori,left,"[-106,-106]","[0,150]",left,1,1.0554,,,,,,001,2025-03-17_13h42.52.342,SL_base_41,2021.2.3,Win32,54.64480874,,,57,0,57,0,1,,,,,,,,
,,"[""circle"",""no_dis"",""vert"",""up"",[99999,99999],[106,106]]",circle,no_dis,vert,up,"[99999,99999]","[106,106]",up,1,1.2187,,,,,,001,2025-03-17_13h42.52.342,SL_base_41,2021.2.3,Win32,54.64480874,,,58,0,58,0,1,,,,,,,,
,,"[""circle"",""green"",""vert"",""up"",[150,0],[-106,-106]]",circle,green,vert,up,"[150,0]","[-106,-106]",up,1,1.8781,,,,,,001,2025-03-17_13h42.52.342,SL_base_41,2021.2.3,Win32,54.64480874,,,59,0,59,0,1,,,,,,,,
,,"[""diamond"",""no_dis"",""hori"",""left"",[99999,99999],[-106,106]]",diamond,no_dis,hori,left,"[99999,99999]","[-106,106]",left,1,0.9094,,,,,,001,2025-03-17_13h42.52.342,SL_base_41,2021.2.3,Win32,54.64480874,,,60,0,60,0,1,,,,,,,,
,,"[""circle"",""red"",""hori"",""left"",[106,106],[-150,0]]",circle,red,hori,left,"[106,106]","[-150,0]",left,1,1.7489,,,,,,001,2025-03-17_13h42.52.342,SL_base_41,2021.2.3,Win32,54.64480874,,,61,0,61,0,1,,,,,,,,
,,"[""diamond"",""red"",""hori"",""left"",[0,150],[106,106]]",diamond,red,hori,left,"[0,150]","[106,106]",left,1,1.2377,,,,,,001,2025-03-17_13h42.52.342,SL_base_41,2021.2.3,Win32,54.64480874,,,62,0,62,0,1,,,,,,,,
,,"[""circle"",""red"",""vert"",""up"",[0,150],[106,106]]",circle,red,vert,up,"[0,150]","[106,106]",up,1,2.0548,,,,,,001,2025-03-17_13h42.52.342,SL_base_41,2021.2.3,Win32,54.64480874,,,63,0,63,0,1,,,,,,,,
,,"[""diamond"",""green"",""vert"",""up"",[-106,106],[150,0]]",diamond,green,vert,up,"[-106,106]","[150,0]",up,1,1.0186,,,,,,001,2025-03-17_13h42.52.342,SL_base_41,2021.2.3,Win32,54.64480874,,,64,0,64,0,1,,,,,,,,
,,"[""circle"",""no_dis"",""vert"",""up"",[99999,99999],[-106,106]]",circle,no_dis,vert,up,"[99999,99999]","[-106,106]",up,1,1.6014,,,,,,001,2025-03-17_13h42.52.342,SL_base_41,2021.2.3,Win32,54.64480874,,,65,0,65,0,1,,,,,,,,
,,"[""diamond"",""red"",""vert"",""up"",[150,0],[106,106]]",diamond,red,vert,up,"[150,0]","[106,106]",up,1,1.783,,,,,,001,2025-03-17_13h42.52.342,SL_base_41,2021.2.3,Win32,54.64480874,,,66,0,66,0,1,,,,,,,,
,,"[""circle"",""no_dis"",""vert"",""up"",[99999,99999],[106,-106]]",circle,no_dis,vert,up,"[99999,99999]","[106,-106]",up,1,1.6739,,,,,,001,2025-03-17_13h42.52.342,SL_base_41,2021.2.3,Win32,54.64480874,,,67,0,67,0,1,,,,,,,,
,,"[""diamond"",""green"",""hori"",""left"",[0,150],[-106,106]]",diamond,green,hori,left,"[0,150]","[-106,106]",left,1,2.2007,,,,,,001,2025-03-17_13h42.52.342,SL_base_41,2021.2.3,Win32,54.64480874,,,68,0,68,0,1,,,,,,,,
,,"[""circle"",""green"",""hori"",""left"",[106,-106],[0,150]]",circle,green,hori,left,"[106,-106]","[0,150]",up,0,1.6557,,,,,,001,2025-03-17_13h42.52.342,SL_base_41,2021.2.3,Win32,54.64480874,,,69,0,69,0,1,,,,,,,,
,,"[""diamond"",""no_dis"",""vert"",""up"",[99999,99999],[-106,106]]",diamond,no_dis,vert,up,"[99999,99999]","[-106,106]",up,1,1.0409,,,,,,001,2025-03-17_13h42.52.342,SL_base_41,2021.2.3,Win32,54.64480874,,,70,0,70,0,1,,,,,,,,
,,"[""diamond"",""red"",""hori"",""left"",[106,-106],[106,106]]",diamond,red,hori,left,"[106,-106]","[106,106]",left,1,1.6776,,,,,,001,2025-03-17_13h42.52.342,SL_base_41,2021.2.3,Win32,54.64480874,,,71,0,71,0,1,,,,,,,,
,,"[""diamond"",""red"",""hori"",""left"",[106,106],[150,0]]",diamond,red,hori,left,"[106,106]","[150,0]",left,1,1.2164,,,,,,001,2025-03-17_13h42.52.342,SL_base_41,2021.2.3,Win32,54.64480874,,,72,0,72,0,1,,,,,,,,
,,"[""circle"",""red"",""vert"",""up"",[106,-106],[106,106]]",circle,red,vert,up,"[106,-106]","[106,106]",up,1,1.6166,,,,,,001,2025-03-17_13h42.52.342,SL_base_41,2021.2.3,Win32,54.64480874,,,73,0,73,0,1,,,,,,,,
,,"[""circle"",""green"",""hori"",""left"",[106,-106],[-106,106]]",circle,green,hori,left,"[106,-106]","[-106,106]",left,1,1.4396,,,,,,001,2025-03-17_13h42.52.342,SL_base_41,2021.2.3,Win32,54.64480874,,,74,0,74,0,1,,,,,,,,
,,"[""circle"",""red"",""hori"",""left"",[0,150],[150,0]]",circle,red,hori,left,"[0,150]","[150,0]",left,1,1.3828,,,,,,001,2025-03-17_13h42.52.342,SL_base_41,2021.2.3,Win32,54.64480874,,,75,0,75,0,1,,,,,,,,
,,"[""circle"",""no_dis"",""hori"",""left"",[99999,99999],[0,150]]",circle,no_dis,hori,left,"[99999,99999]","[0,150]",left,1,1.3046,,,,,,001,2025-03-17_13h42.52.342,SL_base_41,2021.2.3,Win32,54.64480874,,,76,0,76,0,1,,,,,,,,
,,"[""diamond"",""no_dis"",""vert"",""up"",[99999,99999],[150,0]]",diamond,no_dis,vert,up,"[99999,99999]","[150,0]",up,1,1.193,,,,,,001,2025-03-17_13h42.52.342,SL_base_41,2021.2.3,Win32,54.64480874,,,77,0,77,0,1,,,,,,,,
,,"[""circle"",""green"",""hori"",""left"",[0,150],[106,106]]",circle,green,hori,left,"[0,150]","[106,106]",left,1,1.1808,,,,,,001,2025-03-17_13h42.52.342,SL_base_41,2021.2.3,Win32,54.64480874,,,78,0,78,0,1,,,,,,,,
,,"[""circle"",""no_dis"",""hori"",""left"",[99999,99999],[106,106]]",circle,no_dis,hori,left,"[99999,99999]","[106,106]",left,1,1.1507,,,,,,001,2025-03-17_13h42.52.342,SL_base_41,2021.2.3,Win32,54.64480874,,,79,0,79,0,1,,,,,,,,
,,"[""circle"",""red"",""vert"",""up"",[0,150],[150,0]]",circle,red,vert,up,"[0,150]","[150,0]",up,1,1.4005,,,,,,001,2025-03-17_13h42.52.342,SL_base_41,2021.2.3,Win32,54.64480874,,,80,0,80,0,1,,,,,,,,
,,"[""diamond"",""red"",""hori"",""left"",[0,150],[-150,0]]",diamond,red,hori,left,"[0,150]","[-150,0]",left,1,1.4888,,,,,,001,2025-03-17_13h42.52.342,SL_base_41,2021.2.3,Win32,54.64480874,,,81,0,81,0,1,,,,,,,,
,,"[""circle"",""green"",""vert"",""up"",[150,0],[106,-106]]",circle,green,vert,up,"[150,0]","[106,-106]",up,1,1.0909,,,,,,001,2025-03-17_13h42.52.342,SL_base_41,2021.2.3,Win32,54.64480874,,,82,0,82,0,1,,,,,,,,
,,"[""circle"",""no_dis"",""vert"",""up"",[99999,99999],[-106,106]]",circle,no_dis,vert,up,"[99999,99999]","[-106,106]",up,1,1.5246,,,,,,001,2025-03-17_13h42.52.342,SL_base_41,2021.2.3,Win32,54.64480874,,,83,0,83,0,1,,,,,,,,
,,"[""diamond"",""no_dis"",""vert"",""up"",[99999,99999],[0,150]]",diamond,no_dis,vert,up,"[99999,99999]","[0,150]",up,1,0.8943,,,,,,001,2025-03-17_13h42.52.342,SL_base_41,2021.2.3,Win32,54.64480874,,,84,0,84,0,1,,,,,,,,
,,"[""diamond"",""green"",""hori"",""left"",[106,106],[-150,0]]",diamond,green,hori,left,"[106,106]","[-150,0]",left,1,1.0177,,,,,,001,2025-03-17_13h42.52.342,SL_base_41,2021.2.3,Win32,54.64480874,,,85,0,85,0,1,,,,,,,,
,,"[""circle"",""green"",""vert"",""up"",[106,106],[-106,-106]]",circle,green,vert,up,"[106,106]","[-106,-106]",left,0,0.9261,,,,,,001,2025-03-17_13h42.52.342,SL_base_41,2021.2.3,Win32,54.64480874,,,86,0,86,0,1,,,,,,,,
,,"[""circle"",""green"",""hori"",""left"",[-106,-106],[150,0]]",circle,green,hori,left,"[-106,-106]","[150,0]",left,1,1.1314,,,,,,001,2025-03-17_13h42.52.342,SL_base_41,2021.2.3,Win32,54.64480874,,,87,0,87,0,1,,,,,,,,
,,"[""diamond"",""green"",""vert"",""up"",[-106,106],[-150,0]]",diamond,green,vert,up,"[-106,106]","[-150,0]",up,1,1.5641,,,,,,001,2025-03-17_13h42.52.342,SL_base_41,2021.2.3,Win32,54.64480874,,,88,0,88,0,1,,,,,,,,
,,"[""circle"",""green"",""hori"",""left"",[-106,106],[150,0]]",circle,green,hori,left,"[-106,106]","[150,0]",left,1,2.4056,,,,,,001,2025-03-17_13h42.52.342,SL_base_41,2021.2.3,Win32,54.64480874,,,89,0,89,0,1,,,,,,,,
,,"[""circle"",""no_dis"",""vert"",""up"",[99999,99999],[0,150]]",circle,no_dis,vert,up,"[99999,99999]","[0,150]",up,1,1.5752,,,,,,001,2025-03-17_13h42.52.342,SL_base_41,2021.2.3,Win32,54.64480874,,,90,0,90,0,1,,,,,,,,
,,"[""circle"",""red"",""vert"",""up"",[-150,0],[-106,-106]]",circle,red,vert,up,"[-150,0]","[-106,-106]",up,1,1.5289,,,,,,001,2025-03-17_13h42.52.342,SL_base_41,2021.2.3,Win32,54.64480874,,,91,0,91,0,1,,,,,,,,
,,"[""diamond"",""green"",""hori"",""left"",[-106,-106],[-150,0]]",diamond,green,hori,left,"[-106,-106]","[-150,0]",left,1,1.543,,,,,,001,2025-03-17_13h42.52.342,SL_base_41,2021.2.3,Win32,54.64480874,,,92,0,92,0,1,,,,,,,,
,,"[""diamond"",""red"",""vert"",""up"",[0,150],[106,-106]]",diamond,red,vert,up,"[0,150]","[106,-106]",up,1,1.4348,,,,,,001,2025-03-17_13h42.52.342,SL_base_41,2021.2.3,Win32,54.64480874,,,93,0,93,0,1,,,,,,,,
,,"[""diamond"",""no_dis"",""hori"",""left"",[99999,99999],[0,-150]]",diamond,no_dis,hori,left,"[99999,99999]","[0,-150]",left,1,1.6709,,,,,,001,2025-03-17_13h42.52.342,SL_base_41,2021.2.3,Win32,54.64480874,,,94,0,94,0,1,,,,,,,,
,,"[""diamond"",""green"",""hori"",""left"",[150,0],[-106,-106]]",diamond,green,hori,left,"[150,0]","[-106,-106]",left,1,1.0703,,,,,,001,2025-03-17_13h42.52.342,SL_base_41,2021.2.3,Win32,54.64480874,,,95,0,95,0,1,,,,,,,,
,,"[""circle"",""no_dis"",""hori"",""left"",[99999,99999],[-106,-106]]",circle,no_dis,hori,left,"[99999,99999]","[-106,-106]",left,1,1.6353,,,,,,001,2025-03-17_13h42.52.342,SL_base_41,2021.2.3,Win32,54.64480874,,,96,0,96,0,1,,,,,,,,
,,"[""circle"",""green"",""vert"",""up"",[0,150],[106,106]]",circle,green,vert,up,"[0,150]","[106,106]",up,1,1.7818,,,,,,001,2025-03-17_13h42.52.342,SL_base_41,2021.2.3,Win32,54.64480874,,,97,0,97,0,1,,,,,,,,
,,"[""circle"",""green"",""hori"",""left"",[-150,0],[0,150]]",circle,green,hori,left,"[-150,0]","[0,150]",left,1,1.4075,,,,,,001,2025-03-17_13h42.52.342,SL_base_41,2021.2.3,Win32,54.64480874,,,98,0,98,0,1,,,,,,,,
,,"[""circle"",""green"",""vert"",""up"",[150,0],[-106,-106]]",circle,green,vert,up,"[150,0]","[-106,-106]",up,1,1.3984,,,,,,001,2025-03-17_13h42.52.342,SL_base_41,2021.2.3,Win32,54.64480874,,,99,0,99,0,1,,,,,,,,
,,"[""diamond"",""green"",""vert"",""up"",[-150,0],[0,150]]",diamond,green,vert,up,"[-150,0]","[0,150]",up,1,1.181,,,,,,001,2025-03-17_13h42.52.342,SL_base_41,2021.2.3,Win32,54.64480874,,,100,0,100,0,1,,,,,,,,
,,"[""circle"",""red"",""hori"",""left"",[-106,106],[106,-106]]",circle,red,hori,left,"[-106,106]","[106,-106]",left,1,0.9826,,,,,,001,2025-03-17_13h42.52.342,SL_base_41,2021.2.3,Win32,54.64480874,,,101,0,101,0,1,,,,,,,,
,,"[""diamond"",""no_dis"",""hori"",""left"",[99999,99999],[0,-150]]",diamond,no_dis,hori,left,"[99999,99999]","[0,-150]",left,1,1.7283,,,,,,001,2025-03-17_13h42.52.342,SL_base_41,2021.2.3,Win32,54.64480874,,,102,0,102,0,1,,,,,,,,
,,"[""circle"",""red"",""vert"",""up"",[106,-106],[106,106]]",circle,red,vert,up,"[106,-106]","[106,106]",up,1,1.7441,,,,,,001,2025-03-17_13h42.52.342,SL_base_41,2021.2.3,Win32,54.64480874,,,103,0,103,0,1,,,,,,,,
,,"[""diamond"",""no_dis"",""vert"",""up"",[99999,99999],[0,-150]]",diamond,no_dis,vert,up,"[99999,99999]","[0,-150]",up,1,1.4198,,,,,,001,2025-03-17_13h42.52.342,SL_base_41,2021.2.3,Win32,54.64480874,,,104,0,104,0,1,,,,,,,,
,,"[""circle"",""red"",""hori"",""left"",[-150,0],[-106,106]]",circle,red,hori,left,"[-150,0]","[-106,106]",up,0,1.1905,,,,,,001,2025-03-17_13h42.52.342,SL_base_41,2021.2.3,Win32,54.64480874,,,105,0,105,0,1,,,,,,,,
,,"[""circle"",""no_dis"",""vert"",""up"",[99999,99999],[-106,-106]]",circle,no_dis,vert,up,"[99999,99999]","[-106,-106]",left,0,1.1857,,,,,,001,2025-03-17_13h42.52.342,SL_base_41,2021.2.3,Win32,54.64480874,,,106,0,106,0,1,,,,,,,,
,,"[""diamond"",""red"",""vert"",""up"",[106,106],[106,-106]]",diamond,red,vert,up,"[106,106]","[106,-106]",up,1,1.1774,,,,,,001,2025-03-17_13h42.52.342,SL_base_41,2021.2.3,Win32,54.64480874,,,107,0,107,0,1,,,,,,,,
,,"[""circle"",""red"",""hori"",""left"",[0,150],[106,-106]]",circle,red,hori,left,"[0,150]","[106,-106]",left,1,1.2466,,,,,,001,2025-03-17_13h42.52.342,SL_base_41,2021.2.3,Win32,54.64480874,,,108,0,108,0,1,,,,,,,,
,,"[""circle"",""green"",""hori"",""left"",[-106,-106],[106,-106]]",circle,green,hori,left,"[-106,-106]","[106,-106]",left,1,1.6745,,,,,,001,2025-03-17_13h42.52.342,SL_base_41,2021.2.3,Win32,54.64480874,,,109,0,109,0,1,,,,,,,,
,,"[""diamond"",""green"",""hori"",""left"",[0,-150],[106,-106]]",diamond,green,hori,left,"[0,-150]","[106,-106]",left,1,1.0335,,,,,,001,2025-03-17_13h42.52.342,SL_base_41,2021.2.3,Win32,54.64480874,,,110,0,110,0,1,,,,,,,,
,,"[""circle"",""red"",""hori"",""left"",[106,-106],[106,106]]",circle,red,hori,left,"[106,-106]","[106,106]",left,1,1.2937,,,,,,001,2025-03-17_13h42.52.342,SL_base_41,2021.2.3,Win32,54.64480874,,,111,0,111,0,1,,,,,,,,
,,"[""diamond"",""green"",""hori"",""left"",[-106,-106],[106,106]]",diamond,green,hori,left,"[-106,-106]","[106,106]",left,1,1.1404,,,,,,001,2025-03-17_13h42.52.342,SL_base_41,2021.2.3,Win32,54.64480874,,,112,0,112,0,1,,,,,,,,
,,"[""circle"",""red"",""vert"",""up"",[0,150],[-106,-106]]",circle,red,vert,up,"[0,150]","[-106,-106]",up,1,0.924,,,,,,001,2025-03-17_13h42.52.342,SL_base_41,2021.2.3,Win32,54.64480874,,,113,0,113,0,1,,,,,,,,
,,"[""circle"",""no_dis"",""vert"",""up"",[99999,99999],[-150,0]]",circle,no_dis,vert,up,"[99999,99999]","[-150,0]",up,1,1.0366,,,,,,001,2025-03-17_13h42.52.342,SL_base_41,2021.2.3,Win32,54.64480874,,,114,0,114,0,1,,,,,,,,
,,"[""circle"",""green"",""vert"",""up"",[-106,-106],[0,150]]",circle,green,vert,up,"[-106,-106]","[0,150]",up,1,1.2078,,,,,,001,2025-03-17_13h42.52.342,SL_base_41,2021.2.3,Win32,54.64480874,,,115,0,115,0,1,,,,,,,,
,,"[""diamond"",""no_dis"",""hori"",""left"",[99999,99999],[106,-106]]",diamond,no_dis,hori,left,"[99999,99999]","[106,-106]",left,1,1.4338,,,,,,001,2025-03-17_13h42.52.342,SL_base_41,2021.2.3,Win32,54.64480874,,,116,0,116,0,1,,,,,,,,
,,"[""diamond"",""red"",""vert"",""up"",[106,106],[-150,0]]",diamond,red,vert,up,"[106,106]","[-150,0]",up,1,1.0831,,,,,,001,2025-03-17_13h42.52.342,SL_base_41,2021.2.3,Win32,54.64480874,,,117,0,117,0,1,,,,,,,,
,,"[""diamond"",""green"",""hori"",""left"",[0,150],[106,-106]]",diamond,green,hori,left,"[0,150]","[106,-106]",left,1,1.8143,,,,,,001,2025-03-17_13h42.52.342,SL_base_41,2021.2.3,Win32,54.64480874,,,118,0,118,0,1,,,,,,,,
,,"[""circle"",""red"",""vert"",""up"",[0,150],[-106,-106]]",circle,red,vert,up,"[0,150]","[-106,-106]",left,0,2.3607,,,,,,001,2025-03-17_13h42.52.342,SL_base_41,2021.2.3,Win32,54.64480874,,,119,0,119,0,1,,,,,,,,
,,"[""circle"",""red"",""vert"",""up"",[150,0],[-150,0]]",circle,red,vert,up,"[150,0]","[-150,0]",,0,,,,,,,001,2025-03-17_13h42.52.342,SL_base_41,2021.2.3,Win32,54.64480874,,,120,0,120,0,1,,,,,,,,
,,"[""circle"",""green"",""hori"",""left"",[0,-150],[-150,0]]",circle,green,hori,left,"[0,-150]","[-150,0]",left,1,1.627,,,,,,001,2025-03-17_13h42.52.342,SL_base_41,2021.2.3,Win32,54.64480874,,,121,0,121,0,1,,,,,,,,
,,"[""diamond"",""red"",""vert"",""up"",[-150,0],[-106,-106]]",diamond,red,vert,up,"[-150,0]","[-106,-106]",up,1,1.6582,,,,,,001,2025-03-17_13h42.52.342,SL_base_41,2021.2.3,Win32,54.64480874,,,122,0,122,0,1,,,,,,,,
,,"[""circle"",""red"",""vert"",""up"",[-106,106],[150,0]]",circle,red,vert,up,"[-106,106]","[150,0]",,0,,,,,,,001,2025-03-17_13h42.52.342,SL_base_41,2021.2.3,Win32,54.64480874,,,123,0,123,0,1,,,,,,,,
,,"[""circle"",""green"",""vert"",""up"",[0,-150],[-150,0]]",circle,green,vert,up,"[0,-150]","[-150,0]",up,1,1.4373,,,,,,001,2025-03-17_13h42.52.342,SL_base_41,2021.2.3,Win32,54.64480874,,,124,0,124,0,1,,,,,,,,
,,"[""circle"",""no_dis"",""hori"",""left"",[99999,99999],[-106,-106]]",circle,no_dis,hori,left,"[99999,99999]","[-106,-106]",left,1,0.9655,,,,,,001,2025-03-17_13h42.52.342,SL_base_41,2021.2.3,Win32,54.64480874,,,125,0,125,0,1,,,,,,,,
,,"[""diamond"",""red"",""vert"",""up"",[0,-150],[150,0]]",diamond,red,vert,up,"[0,-150]","[150,0]",up,1,1.6324,,,,,,001,2025-03-17_13h42.52.342,SL_base_41,2021.2.3,Win32,54.64480874,,,126,0,126,0,1,,,,,,,,
,,"[""circle"",""no_dis"",""vert"",""up"",[99999,99999],[150,0]]",circle,no_dis,vert,up,"[99999,99999]","[150,0]",up,1,1.8388,,,,,,001,2025-03-17_13h42.52.342,SL_base_41,2021.2.3,Win32,54.64480874,,,127,0,127,0,1,,,,,,,,
,,,,,,,,,,,,,,,,,001,2025-03-17_13h42.52.342,SL_base_41,2021.2.3,Win32,54.64480874,,,,,,,,2,space,27.0081,1,0,1,0,1
,,"[""diamond"",""green"",""hori"",""left"",[0,150],[106,-106]]",diamond,green,hori,left,"[0,150]","[106,-106]",left,1,1.3828,,,,,,001,2025-03-17_13h42.52.342,SL_base_41,2021.2.3,Win32,54.64480874,,,0,0,0,0,1,,,,,,,,
,,"[""circle"",""no_dis"",""hori"",""left"",[99999,99999],[106,-106]]",circle,no_dis,hori,left,"[99999,99999]","[106,-106]",left,1,1.1756,,,,,,001,2025-03-17_13h42.52.342,SL_base_41,2021.2.3,Win32,54.64480874,,,1,0,1,0,1,,,,,,,,
,,"[""circle"",""no_dis"",""vert"",""up"",[99999,99999],[-106,-106]]",circle,no_dis,vert,up,"[99999,99999]","[-106,-106]",up,1,1.6957,,,,,,001,2025-03-17_13h42.52.342,SL_base_41,2021.2.3,Win32,54.64480874,,,2,0,2,0,1,,,,,,,,
,,"[""circle"",""no_dis"",""hori"",""left"",[99999,99999],[106,106]]",circle,no_dis,hori,left,"[99999,99999]","[106,106]",left,1,0.9566,,,,,,001,2025-03-17_13h42.52.342,SL_base_41,2021.2.3,Win32,54.64480874,,,3,0,3,0,1,,,,,,,,
,,"[""diamond"",""no_dis"",""vert"",""up"",[99999,99999],[0,-150]]",diamond,no_dis,vert,up,"[99999,99999]","[0,-150]",up,1,1.4487,,,,,,001,2025-03-17_13h42.52.342,SL_base_41,2021.2.3,Win32,54.64480874,,,4,0,4,0,1,,,,,,,,
,,"[""circle"",""no_dis"",""vert"",""up"",[99999,99999],[106,106]]",circle,no_dis,vert,up,"[99999,99999]","[106,106]",up,1,1.3524,,,,,,001,2025-03-17_13h42.52.342,SL_base_41,2021.2.3,Win32,54.64480874,,,5,0,5,0,1,,,,,,,,
,,"[""diamond"",""no_dis"",""vert"",""up"",[99999,99999],[150,0]]",diamond,no_dis,vert,up,"[99999,99999]","[150,0]",up,1,1.0384,,,,,,001,2025-03-17_13h42.52.342,SL_base_41,2021.2.3,Win32,54.64480874,,,6,0,6,0,1,,,,,,,,
,,"[""diamond"",""green"",""vert"",""up"",[0,150],[106,106]]",diamond,green,vert,up,"[0,150]","[106,106]",up,1,1.6182,,,,,,001,2025-03-17_13h42.52.342,SL_base_41,2021.2.3,Win32,54.64480874,,,7,0,7,0,1,,,,,,,,
,,"[""diamond"",""red"",""hori"",""left"",[106,106],[150,0]]",diamond,red,hori,left,"[106,106]","[150,0]",left,1,1.0013,,,,,,001,2025-03-17_13h42.52.342,SL_base_41,2021.2.3,Win32,54.64480874,,,8,0,8,0,1,,,,,,,,
,,"[""circle"",""red"",""hori"",""left"",[0,150],[150,0]]",circle,red,hori,left,"[0,150]","[150,0]",left,1,1.9202,,,,,,001,2025-03-17_13h42.52.342,SL_base_41,2021.2.3,Win32,54.64480874,,,9,0,9,0,1,,,,,,,,
,,"[""diamond"",""green"",""vert"",""up"",[-106,-106],[106,106]]",diamond,green,vert,up,"[-106,-106]","[106,106]",up,1,1.2008,,,,,,001,2025-03-17_13h42.52.342,SL_base_41,2021.2.3,Win32,54.64480874,,,10,0,10,0,1,,,,,,,,
,,"[""diamond"",""red"",""vert"",""up"",[0,150],[0,-150]]",diamond,red,vert,up,"[0,150]","[0,-150]",up,1,2.1639,,,,,,001,2025-03-17_13h42.52.342,SL_base_41,2021.2.3,Win32,54.64480874,,,11,0,11,0,1,,,,,,,,
,,"[""diamond"",""red"",""hori"",""left"",[106,-106],[106,106]]",diamond,red,hori,left,"[106,-106]","[106,106]",left,1,1.2366,,,,,,001,2025-03-17_13h42.52.342,SL_base_41,2021.2.3,Win32,54.64480874,,,12,0,12,0,1,,,,,,,,
,,"[""circle"",""red"",""vert"",""up"",[0,-150],[106,-106]]",circle,red,vert,up,"[0,-150]","[106,-106]",up,1,1.3096,,,,,,001,2025-03-17_13h42.52.342,SL_base_41,2021.2.3,Win32,54.64480874,,,13,0,13,0,1,,,,,,,,
,,"[""diamond"",""red"",""vert"",""up"",[106,106],[-150,0]]",diamond,red,vert,up,"[106,106]","[-150,0]",up,1,0.8381,,,,,,001,2025-03-17_13h42.52.342,SL_base_41,2021.2.3,Win32,54.64480874,,,14,0,14,0,1,,,,,,,,
,,"[""diamond"",""red"",""hori"",""left"",[0,150],[150,0]]",diamond,red,hori,left,"[0,150]","[150,0]",left,1,1.2195,,,,,,001,2025-03-17_13h42.52.342,SL_base_41,2021.2.3,Win32,54.64480874,,,15,0,15,0,1,,,,,,,,
,,"[""circle"",""green"",""hori"",""left"",[-106,106],[150,0]]",circle,green,hori,left,"[-106,106]","[150,0]",left,1,1.3637,,,,,,001,2025-03-17_13h42.52.342,SL_base_41,2021.2.3,Win32,54.64480874,,,16,0,16,0,1,,,,,,,,
,,"[""diamond"",""no_dis"",""hori"",""left"",[99999,99999],[106,-106]]",diamond,no_dis,hori,left,"[99999,99999]","[106,-106]",left,1,1.3028,,,,,,001,2025-03-17_13h42.52.342,SL_base_41,2021.2.3,Win32,54.64480874,,,17,0,17,0,1,,,,,,,,
,,"[""diamond"",""green"",""hori"",""left"",[0,-150],[106,-106]]",diamond,green,hori,left,"[0,-150]","[106,-106]",left,1,0.9277,,,,,,001,2025-03-17_13h42.52.342,SL_base_41,2021.2.3,Win32,54.64480874,,,18,0,18,0,1,,,,,,,,
,,"[""diamond"",""no_dis"",""vert"",""up"",[99999,99999],[106,106]]",diamond,no_dis,vert,up,"[99999,99999]","[106,106]",up,1,1.0374,,,,,,001,2025-03-17_13h42.52.342,SL_base_41,2021.2.3,Win32,54.64480874,,,19,0,19,0,1,,,,,,,,
,,"[""circle"",""no_dis"",""hori"",""left"",[99999,99999],[106,-106]]",circle,no_dis,hori,left,"[99999,99999]","[106,-106]",left,1,1.0447,,,,,,001,2025-03-17_13h42.52.342,SL_base_41,2021.2.3,Win32,54.64480874,,,20,0,20,0,1,,,,,,,,
,,"[""circle"",""green"",""hori"",""left"",[-106,-106],[150,0]]",circle,green,hori,left,"[-106,-106]","[150,0]",left,1,1.0006,,,,,,001,2025-03-17_13h42.52.342,SL_base_41,2021.2.3,Win32,54.64480874,,,21,0,21,0,1,,,,,,,,
,,"[""circle"",""red"",""vert"",""up"",[-150,0],[-106,-106]]",circle,red,vert,up,"[-150,0]","[-106,-106]",up,1,1.8256,,,,,,001,2025-03-17_13h42.52.342,SL_base_41,2021.2.3,Win32,54.64480874,,,22,0,22,0,1,,,,,,,,
,,"[""diamond"",""no_dis"",""vert"",""up"",[99999,99999],[150,0]]",diamond,no_dis,vert,up,"[99999,99999]","[150,0]",up,1,0.8454,,,,,,001,2025-03-17_13h42.52.342,SL_base_41,2021.2.3,Win32,54.64480874,,,23,0,23,0,1,,,,,,,,
,,"[""diamond"",""red"",""vert"",""up"",[106,106],[106,-106]]",diamond,red,vert,up,"[106,106]","[106,-106]",up,1,1.189,,,,,,001,2025-03-17_13h42.52.342,SL_base_41,2021.2.3,Win32,54.64480874,,,24,0,24,0,1,,,,,,,,
,,"[""diamond"",""green"",""hori"",""left"",[0,150],[-106,106]]",diamond,green,hori,left,"[0,150]","[-106,106]",left,1,0.782,,,,,,001,2025-03-17_13h42.52.342,SL_base_41,2021.2.3,Win32,54.64480874,,,25,0,25,0,1,,,,,,,,
,,"[""diamond"",""green"",""hori"",""left"",[106,106],[-150,0]]",diamond,green,hori,left,"[106,106]","[-150,0]",left,1,0.9644,,,,,,001,2025-03-17_13h42.52.342,SL_base_41,2021.2.3,Win32,54.64480874,,,26,0,26,0,1,,,,,,,,
,,"[""diamond"",""green"",""vert"",""up"",[0,-150],[0,150]]",diamond,green,vert,up,"[0,-150]","[0,150]",up,1,1.7084,,,,,,001,2025-03-17_13h42.52.342,SL_base_41,2021.2.3,Win32,54.64480874,,,27,0,27,0,1,,,,,,,,
,,"[""diamond"",""green"",""hori"",""left"",[-106,-106],[-150,0]]",diamond,green,hori,left,"[-106,-106]","[-150,0]",left,1,1.2661,,,,,,001,2025-03-17_13h42.52.342,SL_base_41,2021.2.3,Win32,54.64480874,,,28,0,28,0,1,,,,,,,,
,,"[""circle"",""red"",""vert"",""up"",[0,150],[150,0]]",circle,red,vert,up,"[0,150]","[150,0]",up,1,1.6554,,,,,,001,2025-03-17_13h42.52.342,SL_base_41,2021.2.3,Win32,54.64480874,,,29,0,29,0,1,,,,,,,,
,,"[""circle"",""green"",""vert"",""up"",[-150,0],[0,150]]",circle,green,vert,up,"[-150,0]","[0,150]",up,1,1.2008,,,,,,001,2025-03-17_13h42.52.342,SL_base_41,2021.2.3,Win32,54.64480874,,,30,0,30,0,1,,,,,,,,
,,"[""circle"",""no_dis"",""hori"",""left"",[99999,99999],[-106,-106]]",circle,no_dis,hori,left,"[99999,99999]","[-106,-106]",up,0,1.0434,,,,,,001,2025-03-17_13h42.52.342,SL_base_41,2021.2.3,Win32,54.64480874,,,31,0,31,0,1,,,,,,,,
,,"[""circle"",""green"",""vert"",""up"",[0,150],[106,106]]",circle,green,vert,up,"[0,150]","[106,106]",up,1,1.7804,,,,,,001,2025-03-17_13h42.52.342,SL_base_41,2021.2.3,Win32,54.64480874,,,32,0,32,0,1,,,,,,,,
,,"[""diamond"",""red"",""vert"",""up"",[0,150],[106,-106]]",diamond,red,vert,up,"[0,150]","[106,-106]",up,1,1.6903,,,,,,001,2025-03-17_13h42.52.342,SL_base_41,2021.2.3,Win32,54.64480874,,,33,0,33,0,1,,,,,,,,
,,"[""circle"",""green"",""vert"",""up"",[-106,-106],[0,150]]",circle,green,vert,up,"[-106,-106]","[0,150]",up,1,1.276,,,,,,001,2025-03-17_13h42.52.342,SL_base_41,2021.2.3,Win32,54.64480874,,,34,0,34,0,1,,,,,,,,
,,"[""diamond"",""no_dis"",""hori"",""left"",[99999,99999],[0,-150]]",diamond,no_dis,hori,left,"[99999,99999]","[0,-150]",left,1,1.1331,,,,,,001,2025-03-17_13h42.52.342,SL_base_41,2021.2.3,Win32,54.64480874,,,35,0,35,0,1,,,,,,,,
,,"[""circle"",""red"",""hori"",""left"",[-150,0],[-106,106]]",circle,red,hori,left,"[-150,0]","[-106,106]",left,1,2.2428,,,,,,001,2025-03-17_13h42.52.342,SL_base_41,2021.2.3,Win32,54.64480874,,,36,0,36,0,1,,,,,,,,
,,"[""diamond"",""green"",""hori"",""left"",[-106,-106],[0,150]]",diamond,green,hori,left,"[-106,-106]","[0,150]",left,1,1.71,,,,,,001,2025-03-17_13h42.52.342,SL_base_41,2021.2.3,Win32,54.64480874,,,37,0,37,0,1,,,,,,,,
,,"[""diamond"",""no_dis"",""vert"",""up"",[99999,99999],[0,150]]",diamond,no_dis,vert,up,"[99999,99999]","[0,150]",up,1,1.7282,,,,,,001,2025-03-17_13h42.52.342,SL_base_41,2021.2.3,Win32,54.64480874,,,38,0,38,0,1,,,,,,,,
,,"[""circle"",""green"",""hori"",""left"",[0,-150],[-150,0]]",circle,green,hori,left,"[0,-150]","[-150,0]",left,1,1.4194,,,,,,001,2025-03-17_13h42.52.342,SL_base_41,2021.2.3,Win32,54.64480874,,,39,0,39,0,1,,,,,,,,
,,"[""circle"",""no_dis"",""hori"",""left"",[99999,99999],[-106,-106]]",circle,no_dis,hori,left,"[99999,99999]","[-106,-106]",left,1,2.2639,,,,,,001,2025-03-17_13h42.52.342,SL_base_41,2021.2.3,Win32,54.64480874,,,40,0,40,0,1,,,,,,,,
,,"[""diamond"",""green"",""hori"",""left"",[150,0],[-106,-106]]",diamond,green,hori,left,"[150,0]","[-106,-106]",left,1,2.0402,,,,,,001,2025-03-17_13h42.52.342,SL_base_41,2021.2.3,Win32,54.64480874,,,41,0,41,0,1,,,,,,,,
,,"[""circle"",""no_dis"",""vert"",""up"",[99999,99999],[106,-106]]",circle,no_dis,vert,up,"[99999,99999]","[106,-106]",up,1,1.4088,,,,,,001,2025-03-17_13h42.52.342,SL_base_41,2021.2.3,Win32,54.64480874,,,42,0,42,0,1,,,,,,,,
,,"[""diamond"",""green"",""vert"",""up"",[-150,0],[106,106]]",diamond,green,vert,up,"[-150,0]","[106,106]",up,1,1.2368,,,,,,001,2025-03-17_13h42.52.342,SL_base_41,2021.2.3,Win32,54.64480874,,,43,0,43,0,1,,,,,,,,
,,"[""circle"",""red"",""vert"",""up"",[0,150],[-106,-106]]",circle,red,vert,up,"[0,150]","[-106,-106]",up,1,1.2733,,,,,,001,2025-03-17_13h42.52.342,SL_base_41,2021.2.3,Win32,54.64480874,,,44,0,44,0,1,,,,,,,,
,,"[""diamond"",""red"",""vert"",""up"",[0,-150],[150,0]]",diamond,red,vert,up,"[0,-150]","[150,0]",up,1,1.2842,,,,,,001,2025-03-17_13h42.52.342,SL_base_41,2021.2.3,Win32,54.64480874,,,45,0,45,0,1,,,,,,,,
,,"[""circle"",""red"",""hori"",""left"",[106,-106],[106,106]]",circle,red,hori,left,"[106,-106]","[106,106]",left,1,2.0727,,,,,,001,2025-03-17_13h42.52.342,SL_base_41,2021.2.3,Win32,54.64480874,,,46,0,46,0,1,,,,,,,,
,,"[""diamond"",""red"",""hori"",""left"",[0,150],[0,-150]]",diamond,red,hori,left,"[0,150]","[0,-150]",left,1,1.3887,,,,,,001,2025-03-17_13h42.52.342,SL_base_41,2021.2.3,Win32,54.64480874,,,47,0,47,0,1,,,,,,,,
,,"[""circle"",""no_dis"",""vert"",""up"",[99999,99999],[-106,106]]",circle,no_dis,vert,up,"[99999,99999]","[-106,106]",up,1,1.3567,,,,,,001,2025-03-17_13h42.52.342,SL_base_41,2021.2.3,Win32,54.64480874,,,48,0,48,0,1,,,,,,,,
,,"[""circle"",""green"",""vert"",""up"",[0,150],[150,0]]",circle,green,vert,up,"[0,150]","[150,0]",up,1,2.0014,,,,,,001,2025-03-17_13h42.52.342,SL_base_41,2021.2.3,Win32,54.64480874,,,49,0,49,0,1,,,,,,,,
,,"[""diamond"",""no_dis"",""vert"",""up"",[99999,99999],[-106,106]]",diamond,no_dis,vert,up,"[99999,99999]","[-106,106]",up,1,1.4912,,,,,,001,2025-03-17_13h42.52.342,SL_base_41,2021.2.3,Win32,54.64480874,,,50,0,50,0,1,,,,,,,,
,,"[""circle"",""green"",""vert"",""up"",[106,106],[-106,-106]]",circle,green,vert,up,"[106,106]","[-106,-106]",up,1,2.1488,,,,,,001,2025-03-17_13h42.52.342,SL_base_41,2021.2.3,Win32,54.64480874,,,51,0,51,0,1,,,,,,,,
,,"[""circle"",""no_dis"",""hori"",""left"",[99999,99999],[-150,0]]",circle,no_dis,hori,left,"[99999,99999]","[-150,0]",up,0,1.4293,,,,,,001,2025-03-17_13h42.52.342,SL_base_41,2021.2.3,Win32,54.64480874,,,52,0,52,0,1,,,,,,,,
,,"[""circle"",""red"",""hori"",""left"",[106,106],[-150,0]]",circle,red,hori,left,"[106,106]","[-150,0]",left,1,1.679,,,,,,001,2025-03-17_13h42.52.342,SL_base_41,2021.2.3,Win32,54.64480874,,,53,0,53,0,1,,,,,,,,
,,"[""diamond"",""no_dis"",""vert"",""up"",[99999,99999],[-150,0]]",diamond,no_dis,vert,up,"[99999,99999]","[-150,0]",up,1,0.8011,,,,,,001,2025-03-17_13h42.52.342,SL_base_41,2021.2.3,Win32,54.64480874,,,54,0,54,0,1,,,,,,,,
,,"[""circle"",""green"",""hori"",""left"",[0,150],[106,106]]",circle,green,hori,left,"[0,150]","[106,106]",left,1,1.0216,,,,,,001,2025-03-17_13h42.52.342,SL_base_41,2021.2.3,Win32,54.64480874,,,55,0,55,0,1,,,,,,,,
,,"[""diamond"",""green"",""hori"",""left"",[0,150],[-150,0]]",diamond,green,hori,left,"[0,150]","[-150,0]",left,1,0.9518,,,,,,001,2025-03-17_13h42.52.342,SL_base_41,2021.2.3,Win32,54.64480874,,,56,0,56,0,1,,,,,,,,
,,"[""circle"",""green"",""hori"",""left"",[-150,0],[0,150]]",circle,green,hori,left,"[-150,0]","[0,150]",left,1,1.7638,,,,,,001,2025-03-17_13h42.52.342,SL_base_41,2021.2.3,Win32,54.64480874,,,57,0,57,0,1,,,,,,,,
,,"[""circle"",""no_dis"",""vert"",""up"",[99999,99999],[150,0]]",circle,no_dis,vert,up,"[99999,99999]","[150,0]",up,1,2.0413,,,,,,001,2025-03-17_13h42.52.342,SL_base_41,2021.2.3,Win32,54.64480874,,,58,0,58,0,1,,,,,,,,
,,"[""circle"",""red"",""hori"",""left"",[0,150],[106,-106]]",circle,red,hori,left,"[0,150]","[106,-106]",left,1,0.7883,,,,,,001,2025-03-17_13h42.52.342,SL_base_41,2021.2.3,Win32,54.64480874,,,59,0,59,0,1,,,,,,,,
,,"[""circle"",""green"",""hori"",""left"",[106,-106],[0,150]]",circle,green,hori,left,"[106,-106]","[0,150]",left,1,1.9613,,,,,,001,2025-03-17_13h42.52.342,SL_base_41,2021.2.3,Win32,54.64480874,,,60,0,60,0,1,,,,,,,,
,,"[""circle"",""no_dis"",""vert"",""up"",[99999,99999],[-150,0]]",circle,no_dis,vert,up,"[99999,99999]","[-150,0]",up,1,1.5424,,,,,,001,2025-03-17_13h42.52.342,SL_base_41,2021.2.3,Win32,54.64480874,,,61,0,61,0,1,,,,,,,,
,,"[""diamond"",""red"",""hori"",""left"",[0,150],[-150,0]]",diamond,red,hori,left,"[0,150]","[-150,0]",left,1,1.8547,,,,,,001,2025-03-17_13h42.52.342,SL_base_41,2021.2.3,Win32,54.64480874,,,62,0,62,0,1,,,,,,,,
,,"[""circle"",""red"",""hori"",""left"",[-106,-106],[0,150]]",circle,red,hori,left,"[-106,-106]","[0,150]",left,1,2.2811,,,,,,001,2025-03-17_13h42.52.342,SL_base_41,2021.2.3,Win32,54.64480874,,,63,0,63,0,1,,,,,,,,
,,"[""diamond"",""red"",""vert"",""up"",[106,106],[150,0]]",diamond,red,vert,up,"[106,106]","[150,0]",up,1,0.753,,,,,,001,2025-03-17_13h42.52.342,SL_base_41,2021.2.3,Win32,54.64480874,,,64,0,64,0,1,,,,,,,,
,,"[""diamond"",""green"",""vert"",""up"",[-150,0],[0,150]]",diamond,green,vert,up,"[-150,0]","[0,150]",up,1,1.2552,,,,,,001,2025-03-17_13h42.52.342,SL_base_41,2021.2.3,Win32,54.64480874,,,65,0,65,0,1,,,,,,,,
,,"[""circle"",""red"",""vert"",""up"",[150,0],[-150,0]]",circle,red,vert,up,"[150,0]","[-150,0]",left,0,1.5846,,,,,,001,2025-03-17_13h42.52.342,SL_base_41,2021.2.3,Win32,54.64480874,,,66,0,66,0,1,,,,,,,,
,,"[""diamond"",""red"",""hori"",""left"",[0,150],[-150,0]]",diamond,red,hori,left,"[0,150]","[-150,0]",left,1,0.8089,,,,,,001,2025-03-17_13h42.52.342,SL_base_41,2021.2.3,Win32,54.64480874,,,67,0,67,0,1,,,,,,,,
,,"[""circle"",""green"",""hori"",""left"",[0,150],[106,-106]]",circle,green,hori,left,"[0,150]","[106,-106]",up,0,1.8207,,,,,,001,2025-03-17_13h42.52.342,SL_base_41,2021.2.3,Win32,54.64480874,,,68,0,68,0,1,,,,,,,,
,,"[""diamond"",""green"",""vert"",""up"",[0,150],[-106,106]]",diamond,green,vert,up,"[0,150]","[-106,106]",up,1,1.2198,,,,,,001,2025-03-17_13h42.52.342,SL_base_41,2021.2.3,Win32,54.64480874,,,69,0,69,0,1,,,,,,,,
,,"[""circle"",""red"",""hori"",""left"",[-150,0],[0,-150]]",circle,red,hori,left,"[-150,0]","[0,-150]",left,1,1.2551,,,,,,001,2025-03-17_13h42.52.342,SL_base_41,2021.2.3,Win32,54.64480874,,,70,0,70,0,1,,,,,,,,
,,"[""circle"",""red"",""vert"",""up"",[-106,106],[150,0]]",circle,red,vert,up,"[-106,106]","[150,0]",up,1,1.6467,,,,,,001,2025-03-17_13h42.52.342,SL_base_41,2021.2.3,Win32,54.64480874,,,71,0,71,0,1,,,,,,,,
,,"[""circle"",""no_dis"",""hori"",""left"",[99999,99999],[0,150]]",circle,no_dis,hori,left,"[99999,99999]","[0,150]",left,1,2.2546,,,,,,001,2025-03-17_13h42.52.342,SL_base_41,2021.2.3,Win32,54.64480874,,,72,0,72,0,1,,,,,,,,
,,"[""diamond"",""red"",""vert"",""up"",[0,150],[150,0]]",diamond,red,vert,up,"[0,150]","[150,0]",up,1,0.9507,,,,,,001,2025-03-17_13h42.52.342,SL_base_41,2021.2.3,Win32,54.64480874,,,73,0,73,0,1,,,,,,,,
,,"[""diamond"",""green"",""hori"",""left"",[0,150],[106,-106]]",diamond,green,hori,left,"[0,150]","[106,-106]",left,1,1.3824,,,,,,001,2025-03-17_13h42.52.342,SL_base_41,2021.2.3,Win32,54.64480874,,,74,0,74,0,1,,,,,,,,
,,"[""circle"",""green"",""hori"",""left"",[106,-106],[-106,106]]",circle,green,hori,left,"[106,-106]","[-106,106]",left,1,0.8185,,,,,,001,2025-03-17_13h42.52.342,SL_base_41,2021.2.3,Win32,54.64480874,,,75,0,75,0,1,,,,,,,,
,,"[""diamond"",""green"",""hori"",""left"",[0,150],[106,106]]",diamond,green,hori,left,"[0,150]","[106,106]",left,1,1.2741,,,,,,001,2025-03-17_13h42.52.342,SL_base_41,2021.2.3,Win32,54.64480874,,,76,0,76,0,1,,,,,,,,
,,"[""diamond"",""no_dis"",""hori"",""left"",[99999,99999],[0,-150]]",diamond,no_dis,hori,left,"[99999,99999]","[0,-150]",left,1,1.5095,,,,,,001,2025-03-17_13h42.52.342,SL_base_41,2021.2.3,Win32,54.64480874,,,77,0,77,0,1,,,,,,,,
,,"[""circle"",""red"",""hori"",""left"",[106,-106],[-150,0]]",circle,red,hori,left,"[106,-106]","[-150,0]",up,0,0.8613,,,,,,001,2025-03-17_13h42.52.342,SL_base_41,2021.2.3,Win32,54.64480874,,,78,0,78,0,1,,,,,,,,
,,"[""diamond"",""green"",""vert"",""up"",[-106,106],[-150,0]]",diamond,green,vert,up,"[-106,106]","[-150,0]",up,1,1.8003,,,,,,001,2025-03-17_13h42.52.342,SL_base_41,2021.2.3,Win32,54.64480874,,,79,0,79,0,1,,,,,,,,
,,"[""circle"",""no_dis"",""hori"",""left"",[99999,99999],[0,150]]",circle,no_dis,hori,left,"[99999,99999]","[0,150]",left,1,1.4035,,,,,,001,2025-03-17_13h42.52.342,SL_base_41,2021.2.3,Win32,54.64480874,,,80,0,80,0,1,,,,,,,,
,,"[""circle"",""no_dis"",""vert"",""up"",[99999,99999],[-106,106]]",circle,no_dis,vert,up,"[99999,99999]","[-106,106]",up,1,1.739,,,,,,001,2025-03-17_13h42.52.342,SL_base_41,2021.2.3,Win32,54.64480874,,,81,0,81,0,1,,,,,,,,
,,"[""circle"",""no_dis"",""vert"",""up"",[99999,99999],[-150,0]]",circle,no_dis,vert,up,"[99999,99999]","[-150,0]",up,1,2.6368,,,,,,001,2025-03-17_13h42.52.342,SL_base_41,2021.2.3,Win32,54.64480874,,,82,0,82,0,1,,,,,,,,
,,"[""circle"",""no_dis"",""vert"",""up"",[99999,99999],[0,150]]",circle,no_dis,vert,up,"[99999,99999]","[0,150]",up,1,2.2234,,,,,,001,2025-03-17_13h42.52.342,SL_base_41,2021.2.3,Win32,54.64480874,,,83,0,83,0,1,,,,,,,,
,,"[""circle"",""green"",""vert"",""up"",[150,0],[-106,-106]]",circle,green,vert,up,"[150,0]","[-106,-106]",up,1,1.7835,,,,,,001,2025-03-17_13h42.52.342,SL_base_41,2021.2.3,Win32,54.64480874,,,84,0,84,0,1,,,,,,,,
,,"[""circle"",""green"",""vert"",""up"",[0,-150],[106,-106]]",circle,green,vert,up,"[0,-150]","[106,-106]",up,1,1.0374,,,,,,001,2025-03-17_13h42.52.342,SL_base_41,2021.2.3,Win32,54.64480874,,,85,0,85,0,1,,,,,,,,
,,"[""diamond"",""green"",""vert"",""up"",[0,150],[-106,106]]",diamond,green,vert,up,"[0,150]","[-106,106]",up,1,1.6046,,,,,,001,2025-03-17_13h42.52.342,SL_base_41,2021.2.3,Win32,54.64480874,,,86,0,86,0,1,,,,,,,,
,,"[""diamond"",""no_dis"",""hori"",""left"",[99999,99999],[150,0]]",diamond,no_dis,hori,left,"[99999,99999]","[150,0]",left,1,1.2024,,,,,,001,2025-03-17_13h42.52.342,SL_base_41,2021.2.3,Win32,54.64480874,,,87,0,87,0,1,,,,,,,,
,,"[""diamond"",""red"",""vert"",""up"",[150,0],[106,106]]",diamond,red,vert,up,"[150,0]","[106,106]",up,1,1.4801,,,,,,001,2025-03-17_13h42.52.342,SL_base_41,2021.2.3,Win32,54.64480874,,,88,0,88,0,1,,,,,,,,
,,"[""circle"",""red"",""hori"",""left"",[-106,106],[106,-106]]",circle,red,hori,left,"[-106,106]","[106,-106]",left,1,1.1172,,,,,,001,2025-03-17_13h42.52.342,SL_base_41,2021.2.3,Win32,54.64480874,,,89,0,89,0,1,,,,,,,,
,,"[""diamond"",""no_dis"",""hori"",""left"",[99999,99999],[-106,106]]",diamond,no_dis,hori,left,"[99999,99999]","[-106,106]",left,1,1.1467,,,,,,001,2025-03-17_13h42.52.342,SL_base_41,2021.2.3,Win32,54.64480874,,,90,0,90,0,1,,,,,,,,
,,"[""diamond"",""no_dis"",""hori"",""left"",[99999,99999],[150,0]]",diamond,no_dis,hori,left,"[99999,99999]","[150,0]",left,1,0.9845,,,,,,001,2025-03-17_13h42.52.342,SL_base_41,2021.2.3,Win32,54.64480874,,,91,0,91,0,1,,,,,,,,
,,"[""circle"",""no_dis"",""hori"",""left"",[99999,99999],[-106,106]]",circle,no_dis,hori,left,"[99999,99999]","[-106,106]",left,1,1.383,,,,,,001,2025-03-17_13h42.52.342,SL_base_41,2021.2.3,Win32,54.64480874,,,92,0,92,0,1,,,,,,,,
,,"[""diamond"",""green"",""vert"",""up"",[0,150],[0,-150]]",diamond,green,vert,up,"[0,150]","[0,-150]",up,1,1.4985,,,,,,001,2025-03-17_13h42.52.342,SL_base_41,2021.2.3,Win32,54.64480874,,,93,0,93,0,1,,,,,,,,
,,"[""circle"",""red"",""hori"",""left"",[-106,106],[0,-150]]",circle,red,hori,left,"[-106,106]","[0,-150]",left,1,0.8564,,,,,,001,2025-03-17_13h42.52.342,SL_base_41,2021.2.3,Win32,54.64480874,,,94,0,94,0,1,,,,,,,,
,,"[""circle"",""green"",""vert"",""up"",[150,0],[106,-106]]",circle,green,vert,up,"[150,0]","[106,-106]",up,1,1.8445,,,,,,001,2025-03-17_13h42.52.342,SL_base_41,2021.2.3,Win32,54.64480874,,,95,0,95,0,1,,,,,,,,
,,"[""diamond"",""red"",""hori"",""left"",[106,-106],[0,-150]]",diamond,red,hori,left,"[106,-106]","[0,-150]",left,1,1.5004,,,,,,001,2025-03-17_13h42.52.342,SL_base_41,2021.2.3,Win32,54.64480874,,,96,0,96,0,1,,,,,,,,
,,"[""circle"",""red"",""vert"",""up"",[106,-106],[106,106]]",circle,red,vert,up,"[106,-106]","[106,106]",up,1,1.4553,,,,,,001,2025-03-17_13h42.52.342,SL_base_41,2021.2.3,Win32,54.64480874,,,97,0,97,0,1,,,,,,,,
,,"[""diamond"",""red"",""vert"",""up"",[150,0],[-106,106]]",diamond,red,vert,up,"[150,0]","[-106,106]",up,1,0.9465,,,,,,001,2025-03-17_13h42.52.342,SL_base_41,2021.2.3,Win32,54.64480874,,,98,0,98,0,1,,,,,,,,
,,"[""circle"",""red"",""hori"",""left"",[0,150],[0,-150]]",circle,red,hori,left,"[0,150]","[0,-150]",left,1,0.9837,,,,,,001,2025-03-17_13h42.52.342,SL_base_41,2021.2.3,Win32,54.64480874,,,99,0,99,0,1,,,,,,,,
,,"[""diamond"",""green"",""hori"",""left"",[-106,-106],[106,106]]",diamond,green,hori,left,"[-106,-106]","[106,106]",left,1,1.401,,,,,,001,2025-03-17_13h42.52.342,SL_base_41,2021.2.3,Win32,54.64480874,,,100,0,100,0,1,,,,,,,,
,,"[""diamond"",""red"",""vert"",""up"",[-150,0],[-106,-106]]",diamond,red,vert,up,"[-150,0]","[-106,-106]",up,1,1.1852,,,,,,001,2025-03-17_13h42.52.342,SL_base_41,2021.2.3,Win32,54.64480874,,,101,0,101,0,1,,,,,,,,
,,"[""circle"",""no_dis"",""hori"",""left"",[99999,99999],[-106,-106]]",circle,no_dis,hori,left,"[99999,99999]","[-106,-106]",left,1,1.2742,,,,,,001,2025-03-17_13h42.52.342,SL_base_41,2021.2.3,Win32,54.64480874,,,102,0,102,0,1,,,,,,,,
,,"[""diamond"",""red"",""hori"",""left"",[0,150],[0,-150]]",diamond,red,hori,left,"[0,150]","[0,-150]",left,1,2.9562,,,,,,001,2025-03-17_13h42.52.342,SL_base_41,2021.2.3,Win32,54.64480874,,,103,0,103,0,1,,,,,,,,
,,"[""diamond"",""red"",""hori"",""left"",[150,0],[-150,0]]",diamond,red,hori,left,"[150,0]","[-150,0]",left,1,2.292,,,,,,001,2025-03-17_13h42.52.342,SL_base_41,2021.2.3,Win32,54.64480874,,,104,0,104,0,1,,,,,,,,
,,"[""diamond"",""no_dis"",""hori"",""left"",[99999,99999],[106,106]]",diamond,no_dis,hori,left,"[99999,99999]","[106,106]",left,1,1.492,,,,,,001,2025-03-17_13h42.52.342,SL_base_41,2021.2.3,Win32,54.64480874,,,105,0,105,0,1,,,,,,,,
,,"[""diamond"",""red"",""hori"",""left"",[0,150],[106,106]]",diamond,red,hori,left,"[0,150]","[106,106]",left,1,0.9823,,,,,,001,2025-03-17_13h42.52.342,SL_base_41,2021.2.3,Win32,54.64480874,,,106,0,106,0,1,,,,,,,,
,,"[""diamond"",""green"",""vert"",""up"",[0,-150],[-106,-106]]",diamond,green,vert,up,"[0,-150]","[-106,-106]",up,1,1.4916,,,,,,001,2025-03-17_13h42.52.342,SL_base_41,2021.2.3,Win32,54.64480874,,,107,0,107,0,1,,,,,,,,
,,"[""circle"",""red"",""vert"",""up"",[0,150],[-106,106]]",circle,red,vert,up,"[0,150]","[-106,106]",up,1,1.4919,,,,,,001,2025-03-17_13h42.52.342,SL_base_41,2021.2.3,Win32,54.64480874,,,108,0,108,0,1,,,,,,,,
,,"[""circle"",""green"",""hori"",""left"",[-106,-106],[106,-106]]",circle,green,hori,left,"[-106,-106]","[106,-106]",left,1,2.1188,,,,,,001,2025-03-17_13h42.52.342,SL_base_41,2021.2.3,Win32,54.64480874,,,109,0,109,0,1,,,,,,,,
,,"[""circle"",""red"",""vert"",""up"",[106,-106],[106,106]]",circle,red,vert,up,"[106,-106]","[106,106]",up,1,1.4364,,,,,,001,2025-03-17_13h42.52.342,SL_base_41,2021.2.3,Win32,54.64480874,,,110,0,110,0,1,,,,,,,,
,,"[""diamond"",""red"",""vert"",""up"",[0,150],[-150,0]]",diamond,red,vert,up,"[0,150]","[-150,0]",up,1,1.5639,,,,,,001,2025-03-17_13h42.52.342,SL_base_41,2021.2.3,Win32,54.64480874,,,111,0,111,0,1,,,,,,,,
,,"[""diamond"",""no_dis"",""hori"",""left"",[99999,99999],[106,-106]]",diamond,no_dis,hori,left,"[99999,99999]","[106,-106]",left,1,1.3103,,,,,,001,2025-03-17_13h42.52.342,SL_base_41,2021.2.3,Win32,54.64480874,,,112,0,112,0,1,,,,,,,,
,,"[""circle"",""green"",""vert"",""up"",[0,150],[-150,0]]",circle,green,vert,up,"[0,150]","[-150,0]",up,1,1.6982,,,,,,001,2025-03-17_13h42.52.342,SL_base_41,2021.2.3,Win32,54.64480874,,,113,0,113,0,1,,,,,,,,
,,"[""diamond"",""no_dis"",""vert"",""up"",[99999,99999],[-106,-106]]",diamond,no_dis,vert,up,"[99999,99999]","[-106,-106]",up,1,1.4652,,,,,,001,2025-03-17_13h42.52.342,SL_base_41,2021.2.3,Win32,54.64480874,,,114,0,114,0,1,,,,,,,,
,,"[""circle"",""green"",""hori"",""left"",[-106,106],[150,0]]",circle,green,hori,left,"[-106,106]","[150,0]",left,1,0.9023,,,,,,001,2025-03-17_13h42.52.342,SL_base_41,2021.2.3,Win32,54.64480874,,,115,0,115,0,1,,,,,,,,
,,"[""circle"",""green"",""vert"",""up"",[150,0],[-106,-106]]",circle,green,vert,up,"[150,0]","[-106,-106]",up,1,1.2363,,,,,,001,2025-03-17_13h42.52.342,SL_base_41,2021.2.3,Win32,54.64480874,,,116,0,116,0,1,,,,,,,,
,,"[""circle"",""red"",""vert"",""up"",[0,150],[106,106]]",circle,red,vert,up,"[0,150]","[106,106]",up,1,1.901,,,,,,001,2025-03-17_13h42.52.342,SL_base_41,2021.2.3,Win32,54.64480874,,,117,0,117,0,1,,,,,,,,
,,"[""diamond"",""no_dis"",""hori"",""left"",[99999,99999],[0,-150]]",diamond,no_dis,hori,left,"[99999,99999]","[0,-150]",left,1,0.8828,,,,,,001,2025-03-17_13h42.52.342,SL_base_41,2021.2.3,Win32,54.64480874,,,118,0,118,0,1,,,,,,,,
,,"[""circle"",""green"",""vert"",""up"",[0,-150],[-150,0]]",circle,green,vert,up,"[0,-150]","[-150,0]",up,1,1.7514,,,,,,001,2025-03-17_13h42.52.342,SL_base_41,2021.2.3,Win32,54.64480874,,,119,0,119,0,1,,,,,,,,
,,"[""diamond"",""no_dis"",""vert"",""up"",[99999,99999],[0,-150]]",diamond,no_dis,vert,up,"[99999,99999]","[0,-150]",left,0,1.4735,,,,,,001,2025-03-17_13h42.52.342,SL_base_41,2021.2.3,Win32,54.64480874,,,120,0,120,0,1,,,,,,,,
,,"[""diamond"",""red"",""hori"",""left"",[106,106],[150,0]]",diamond,red,hori,left,"[106,106]","[150,0]",left,1,1.0048,,,,,,001,2025-03-17_13h42.52.342,SL_base_41,2021.2.3,Win32,54.64480874,,,121,0,121,0,1,,,,,,,,
,,"[""circle"",""green"",""hori"",""left"",[-106,106],[0,-150]]",circle,green,hori,left,"[-106,106]","[0,-150]",left,1,0.901,,,,,,001,2025-03-17_13h42.52.342,SL_base_41,2021.2.3,Win32,54.64480874,,,122,0,122,0,1,,,,,,,,
,,"[""diamond"",""no_dis"",""vert"",""up"",[99999,99999],[0,150]]",diamond,no_dis,vert,up,"[99999,99999]","[0,150]",up,1,0.7646,,,,,,001,2025-03-17_13h42.52.342,SL_base_41,2021.2.3,Win32,54.64480874,,,123,0,123,0,1,,,,,,,,
,,"[""circle"",""no_dis"",""vert"",""up"",[99999,99999],[106,106]]",circle,no_dis,vert,up,"[99999,99999]","[106,106]",up,1,1.3284,,,,,,001,2025-03-17_13h42.52.342,SL_base_41,2021.2.3,Win32,54.64480874,,,124,0,124,0,1,,,,,,,,
,,"[""circle"",""red"",""vert"",""up"",[0,150],[-106,-106]]",circle,red,vert,up,"[0,150]","[-106,-106]",up,1,2.1478,,,,,,001,2025-03-17_13h42.52.342,SL_base_41,2021.2.3,Win32,54.64480874,,,125,0,125,0,1,,,,,,,,
,,"[""diamond"",""green"",""vert"",""up"",[-106,106],[150,0]]",diamond,green,vert,up,"[-106,106]","[150,0]",up,1,1.2188,,,,,,001,2025-03-17_13h42.52.342,SL_base_41,2021.2.3,Win32,54.64480874,,,126,0,126,0,1,,,,,,,,
,,"[""diamond"",""no_dis"",""hori"",""left"",[99999,99999],[-150,0]]",diamond,no_dis,hori,left,"[99999,99999]","[-150,0]",left,1,0.746,,,,,,001,2025-03-17_13h42.52.342,SL_base_41,2021.2.3,Win32,54.64480874,,,127,0,127,0,1,,,,,,,,
,,,,,,,,,,,,,,,,,001,2025-03-17_13h42.52.342,SL_base_41,2021.2.3,Win32,54.64480874,,,,,,,,3,space,56.1812,2,0,2,0,1
,,"[""diamond"",""green"",""vert"",""up"",[-106,106],[150,0]]",diamond,green,vert,up,"[-106,106]","[150,0]",up,1,1.4388,,,,,,001,2025-03-17_13h42.52.342,SL_base_41,2021.2.3,Win32,54.64480874,,,0,0,0,0,1,,,,,,,,
,,"[""circle"",""red"",""vert"",""up"",[0,150],[-106,-106]]",circle,red,vert,up,"[0,150]","[-106,-106]",up,1,0.83,,,,,,001,2025-03-17_13h42.52.342,SL_base_41,2021.2.3,Win32,54.64480874,,,1,0,1,0,1,,,,,,,,
,,"[""diamond"",""green"",""vert"",""up"",[0,150],[-106,106]]",diamond,green,vert,up,"[0,150]","[-106,106]",up,1,2.0732,,,,,,001,2025-03-17_13h42.52.342,SL_base_41,2021.2.3,Win32,54.64480874,,,2,0,2,0,1,,,,,,,,
,,"[""circle"",""green"",""vert"",""up"",[0,-150],[-150,0]]",circle,green,vert,up,"[0,-150]","[-150,0]",up,1,1.9827,,,,,,001,2025-03-17_13h42.52.342,SL_base_41,2021.2.3,Win32,54.64480874,,,3,0,3,0,1,,,,,,,,
,,"[""diamond"",""green"",""vert"",""up"",[-106,-106],[106,106]]",diamond,green,vert,up,"[-106,-106]","[106,106]",up,1,1.2015,,,,,,001,2025-03-17_13h42.52.342,SL_base_41,2021.2.3,Win32,54.64480874,,,4,0,4,0,1,,,,,,,,
,,"[""circle"",""red"",""vert"",""up"",[106,-106],[106,106]]",circle,red,vert,up,"[106,-106]","[106,106]",up,1,1.0973,,,,,,001,2025-03-17_13h42.52.342,SL_base_41,2021.2.3,Win32,54.64480874,,,5,0,5,0,1,,,,,,,,
,,"[""circle"",""red"",""vert"",""up"",[150,0],[-150,0]]",circle,red,vert,up,"[150,0]","[-150,0]",up,1,1.0559,,,,,,001,2025-03-17_13h42.52.342,SL_base_41,2021.2.3,Win32,54.64480874,,,6,0,6,0,1,,,,,,,,
,,"[""circle"",""green"",""vert"",""up"",[150,0],[-106,-106]]",circle,green,vert,up,"[150,0]","[-106,-106]",up,1,1.898,,,,,,001,2025-03-17_13h42.52.342,SL_base_41,2021.2.3,Win32,54.64480874,,,7,0,7,0,1,,,,,,,,
,,"[""circle"",""green"",""vert"",""up"",[0,150],[106,106]]",circle,green,vert,up,"[0,150]","[106,106]",up,1,0.4376,,,,,,001,2025-03-17_13h42.52.342,SL_base_41,2021.2.3,Win32,54.64480874,,,8,0,8,0,1,,,,,,,,
,,"[""diamond"",""no_dis"",""vert"",""up"",[99999,99999],[0,-150]]",diamond,no_dis,vert,up,"[99999,99999]","[0,-150]",up,1,1.5721,,,,,,001,2025-03-17_13h42.52.342,SL_base_41,2021.2.3,Win32,54.64480874,,,9,0,9,0,1,,,,,,,,
,,"[""circle"",""green"",""vert"",""up"",[106,106],[-106,-106]]",circle,green,vert,up,"[106,106]","[-106,-106]",up,1,1.6922,,,,,,001,2025-03-17_13h42.52.342,SL_base_41,2021.2.3,Win32,54.64480874,,,10,0,10,0,1,,,,,,,,
,,"[""diamond"",""red"",""vert"",""up"",[106,106],[-150,0]]",diamond,red,vert,up,"[106,106]","[-150,0]",up,1,0.7844,,,,,,001,2025-03-17_13h42.52.342,SL_base_41,2021.2.3,Win32,54.64480874,,,11,0,11,0,1,,,,,,,,
,,"[""diamond"",""no_dis"",""vert"",""up"",[99999,99999],[150,0]]",diamond,no_dis,vert,up,"[99999,99999]","[150,0]",up,1,0.9828,,,,,,001,2025-03-17_13h42.52.342,SL_base_41,2021.2.3,Win32,54.64480874,,,12,0,12,0,1,,,,,,,,
,,"[""diamond"",""no_dis"",""vert"",""up"",[99999,99999],[0,-150]]",diamond,no_dis,vert,up,"[99999,99999]","[0,-150]",up,1,0.9716,,,,,,001,2025-03-17_13h42.52.342,SL_base_41,2021.2.3,Win32,54.64480874,,,13,0,13,0,1,,,,,,,,
,,"[""diamond"",""green"",""hori"",""left"",[-106,-106],[106,106]]",diamond,green,hori,left,"[-106,-106]","[106,106]",left,1,1.0564,,,,,,001,2025-03-17_13h42.52.342,SL_base_41,2021.2.3,Win32,54.64480874,,,14,0,14,0,1,,,,,,,,
,,"[""circle"",""green"",""vert"",""up"",[0,-150],[106,-106]]",circle,green,vert,up,"[0,-150]","[106,-106]",up,1,1.1295,,,,,,001,2025-03-17_13h42.52.342,SL_base_41,2021.2.3,Win32,54.64480874,,,15,0,15,0,1,,,,,,,,
,,"[""diamond"",""green"",""hori"",""left"",[150,0],[-106,-106]]",diamond,green,hori,left,"[150,0]","[-106,-106]",left,1,1.2187,,,,,,001,2025-03-17_13h42.52.342,SL_base_41,2021.2.3,Win32,54.64480874,,,16,0,16,0,1,,,,,,,,
,,"[""diamond"",""green"",""vert"",""up"",[0,150],[-106,106]]",diamond,green,vert,up,"[0,150]","[-106,106]",up,1,1.147,,,,,,001,2025-03-17_13h42.52.342,SL_base_41,2021.2.3,Win32,54.64480874,,,17,0,17,0,1,,,,,,,,
,,"[""circle"",""green"",""vert"",""up"",[150,0],[-106,-106]]",circle,green,vert,up,"[150,0]","[-106,-106]",left,0,1.3641,,,,,,001,2025-03-17_13h42.52.342,SL_base_41,2021.2.3,Win32,54.64480874,,,18,0,18,0,1,,,,,,,,
,,"[""diamond"",""green"",""vert"",""up"",[-150,0],[0,150]]",diamond,green,vert,up,"[-150,0]","[0,150]",up,1,0.7897,,,,,,001,2025-03-17_13h42.52.342,SL_base_41,2021.2.3,Win32,54.64480874,,,19,0,19,0,1,,,,,,,,
,,"[""circle"",""no_dis"",""vert"",""up"",[99999,99999],[-106,106]]",circle,no_dis,vert,up,"[99999,99999]","[-106,106]",left,0,1.819,,,,,,001,2025-03-17_13h42.52.342,SL_base_41,2021.2.3,Win32,54.64480874,,,20,0,20,0,1,,,,,,,,
,,"[""circle"",""red"",""vert"",""up"",[106,-106],[106,106]]",circle,red,vert,up,"[106,-106]","[106,106]",up,1,1.419,,,,,,001,2025-03-17_13h42.52.342,SL_base_41,2021.2.3,Win32,54.64480874,,,21,0,21,0,1,,,,,,,,
,,"[""circle"",""red"",""vert"",""up"",[0,-150],[106,-106]]",circle,red,vert,up,"[0,-150]","[106,-106]",up,1,1.5823,,,,,,001,2025-03-17_13h42.52.342,SL_base_41,2021.2.3,Win32,54.64480874,,,22,0,22,0,1,,,,,,,,
,,"[""diamond"",""red"",""vert"",""up"",[150,0],[106,106]]",diamond,red,vert,up,"[150,0]","[106,106]",up,1,0.9701,,,,,,001,2025-03-17_13h42.52.342,SL_base_41,2021.2.3,Win32,54.64480874,,,23,0,23,0,1,,,,,,,,
,,"[""diamond"",""green"",""vert"",""up"",[-106,106],[-150,0]]",diamond,green,vert,up,"[-106,106]","[-150,0]",up,1,2.3642,,,,,,001,2025-03-17_13h42.52.342,SL_base_41,2021.2.3,Win32,54.64480874,,,24,0,24,0,1,,,,,,,,
,,"[""circle"",""no_dis"",""hori"",""left"",[99999,99999],[0,150]]",circle,no_dis,hori,left,"[99999,99999]","[0,150]",left,1,1.9538,,,,,,001,2025-03-17_13h42.52.342,SL_base_41,2021.2.3,Win32,54.64480874,,,25,0,25,0,1,,,,,,,,
,,"[""diamond"",""red"",""vert"",""up"",[0,-150],[150,0]]",diamond,red,vert,up,"[0,-150]","[150,0]",up,1,0.895,,,,,,001,2025-03-17_13h42.52.342,SL_base_41,2021.2.3,Win32,54.64480874,,,26,0,26,0,1,,,,,,,,
,,"[""diamond"",""no_dis"",""vert"",""up"",[99999,99999],[0,150]]",diamond,no_dis,vert,up,"[99999,99999]","[0,150]",up,1,1.227,,,,,,001,2025-03-17_13h42.52.342,SL_base_41,2021.2.3,Win32,54.64480874,,,27,0,27,0,1,,,,,,,,
,,"[""circle"",""red"",""vert"",""up"",[0,150],[-106,106]]",circle,red,vert,up,"[0,150]","[-106,106]",up,1,1.6589,,,,,,001,2025-03-17_13h42.52.342,SL_base_41,2021.2.3,Win32,54.64480874,,,28,0,28,0,1,,,,,,,,
,,"[""diamond"",""no_dis"",""vert"",""up"",[99999,99999],[106,106]]",diamond,no_dis,vert,up,"[99999,99999]","[106,106]",,0,,,,,,,001,2025-03-17_13h42.52.342,SL_base_41,2021.2.3,Win32,54.64480874,,,29,0,29,0,1,,,,,,,,
,,"[""diamond"",""no_dis"",""hori"",""left"",[99999,99999],[0,-150]]",diamond,no_dis,hori,left,"[99999,99999]","[0,-150]",,0,,,,,,,001,2025-03-17_13h42.52.342,SL_base_41,2021.2.3,Win32,54.64480874,,,30,0,30,0,1,,,,,,,,
,,"[""diamond"",""red"",""vert"",""up"",[106,106],[150,0]]",diamond,red,vert,up,"[106,106]","[150,0]",up,1,1.1829,,,,,,001,2025-03-17_13h42.52.342,SL_base_41,2021.2.3,Win32,54.64480874,,,31,0,31,0,1,,,,,,,,
,,"[""diamond"",""red"",""hori"",""left"",[0,150],[0,-150]]",diamond,red,hori,left,"[0,150]","[0,-150]",left,1,1.1089,,,,,,001,2025-03-17_13h42.52.342,SL_base_41,2021.2.3,Win32,54.64480874,,,32,0,32,0,1,,,,,,,,
,,"[""diamond"",""no_dis"",""vert"",""up"",[99999,99999],[-106,-106]]",diamond,no_dis,vert,up,"[99999,99999]","[-106,-106]",up,1,0.746,,,,,,001,2025-03-17_13h42.52.342,SL_base_41,2021.2.3,Win32,54.64480874,,,33,0,33,0,1,,,,,,,,
,,"[""circle"",""green"",""hori"",""left"",[0,-150],[-150,0]]",circle,green,hori,left,"[0,-150]","[-150,0]",left,1,0.8842,,,,,,001,2025-03-17_13h42.52.342,SL_base_41,2021.2.3,Win32,54.64480874,,,34,0,34,0,1,,,,,,,,
,,"[""circle"",""green"",""vert"",""up"",[150,0],[106,-106]]",circle,green,vert,up,"[150,0]","[106,-106]",up,1,1.2085,,,,,,001,2025-03-17_13h42.52.342,SL_base_41,2021.2.3,Win32,54.64480874,,,35,0,35,0,1,,,,,,,,
,,"[""diamond"",""green"",""hori"",""left"",[106,106],[-150,0]]",diamond,green,hori,left,"[106,106]","[-150,0]",left,1,1.0005,,,,,,001,2025-03-17_13h42.52.342,SL_base_41,2021.2.3,Win32,54.64480874,,,36,0,36,0,1,,,,,,,,
,,"[""diamond"",""no_dis"",""vert"",""up"",[99999,99999],[0,150]]",diamond,no_dis,vert,up,"[99999,99999]","[0,150]",up,1,1.327,,,,,,001,2025-03-17_13h42.52.342,SL_base_41,2021.2.3,Win32,54.64480874,,,37,0,37,0,1,,,,,,,,
,,"[""circle"",""green"",""hori"",""left"",[106,-106],[-106,106]]",circle,green,hori,left,"[106,-106]","[-106,106]",left,1,1.055,,,,,,001,2025-03-17_13h42.52.342,SL_base_41,2021.2.3,Win32,54.64480874,,,38,0,38,0,1,,,,,,,,
,,"[""circle"",""green"",""hori"",""left"",[-106,106],[0,-150]]",circle,green,hori,left,"[-106,106]","[0,-150]",left,1,1.4378,,,,,,001,2025-03-17_13h42.52.342,SL_base_41,2021.2.3,Win32,54.64480874,,,39,0,39,0,1,,,,,,,,
,,"[""diamond"",""red"",""hori"",""left"",[106,106],[150,0]]",diamond,red,hori,left,"[106,106]","[150,0]",left,1,1.3847,,,,,,001,2025-03-17_13h42.52.342,SL_base_41,2021.2.3,Win32,54.64480874,,,40,0,40,0,1,,,,,,,,
,,"[""diamond"",""no_dis"",""hori"",""left"",[99999,99999],[0,-150]]",diamond,no_dis,hori,left,"[99999,99999]","[0,-150]",up,0,0.7747,,,,,,001,2025-03-17_13h42.52.342,SL_base_41,2021.2.3,Win32,54.64480874,,,41,0,41,0,1,,,,,,,,
,,"[""diamond"",""red"",""hori"",""left"",[150,0],[-150,0]]",diamond,red,hori,left,"[150,0]","[-150,0]",left,1,1.5998,,,,,,001,2025-03-17_13h42.52.342,SL_base_41,2021.2.3,Win32,54.64480874,,,42,0,42,0,1,,,,,,,,
,,"[""diamond"",""no_dis"",""hori"",""left"",[99999,99999],[-150,0]]",diamond,no_dis,hori,left,"[99999,99999]","[-150,0]",left,1,1.365,,,,,,001,2025-03-17_13h42.52.342,SL_base_41,2021.2.3,Win32,54.64480874,,,43,0,43,0,1,,,,,,,,
,,"[""circle"",""green"",""vert"",""up"",[0,150],[-150,0]]",circle,green,vert,up,"[0,150]","[-150,0]",up,1,1.7307,,,,,,001,2025-03-17_13h42.52.342,SL_base_41,2021.2.3,Win32,54.64480874,,,44,0,44,0,1,,,,,,,,
,,"[""circle"",""red"",""hori"",""left"",[0,150],[106,-106]]",circle,red,hori,left,"[0,150]","[106,-106]",left,1,2.2241,,,,,,001,2025-03-17_13h42.52.342,SL_base_41,2021.2.3,Win32,54.64480874,,,45,0,45,0,1,,,,,,,,
,,"[""diamond"",""no_dis"",""hori"",""left"",[99999,99999],[0,-150]]",diamond,no_dis,hori,left,"[99999,99999]","[0,-150]",left,1,1.0549,,,,,,001,2025-03-17_13h42.52.342,SL_base_41,2021.2.3,Win32,54.64480874,,,46,0,46,0,1,,,,,,,,
,,"[""circle"",""no_dis"",""vert"",""up"",[99999,99999],[-150,0]]",circle,no_dis,vert,up,"[99999,99999]","[-150,0]",up,1,1.653,,,,,,001,2025-03-17_13h42.52.342,SL_base_41,2021.2.3,Win32,54.64480874,,,47,0,47,0,1,,,,,,,,
,,"[""circle"",""red"",""hori"",""left"",[0,150],[150,0]]",circle,red,hori,left,"[0,150]","[150,0]",left,1,1.837,,,,,,001,2025-03-17_13h42.52.342,SL_base_41,2021.2.3,Win32,54.64480874,,,48,0,48,0,1,,,,,,,,
,,"[""circle"",""red"",""hori"",""left"",[-106,106],[0,-150]]",circle,red,hori,left,"[-106,106]","[0,-150]",left,1,1.1646,,,,,,001,2025-03-17_13h42.52.342,SL_base_41,2021.2.3,Win32,54.64480874,,,49,0,49,0,1,,,,,,,,
,,"[""circle"",""red"",""hori"",""left"",[106,-106],[106,106]]",circle,red,hori,left,"[106,-106]","[106,106]",up,0,1.0007,,,,,,001,2025-03-17_13h42.52.342,SL_base_41,2021.2.3,Win32,54.64480874,,,50,0,50,0,1,,,,,,,,
,,"[""circle"",""no_dis"",""hori"",""left"",[99999,99999],[-106,-106]]",circle,no_dis,hori,left,"[99999,99999]","[-106,-106]",left,1,0.9646,,,,,,001,2025-03-17_13h42.52.342,SL_base_41,2021.2.3,Win32,54.64480874,,,51,0,51,0,1,,,,,,,,
,,"[""diamond"",""red"",""hori"",""left"",[0,150],[150,0]]",diamond,red,hori,left,"[0,150]","[150,0]",left,1,1.1458,,,,,,001,2025-03-17_13h42.52.342,SL_base_41,2021.2.3,Win32,54.64480874,,,52,0,52,0,1,,,,,,,,
,,"[""circle"",""red"",""vert"",""up"",[0,150],[-106,-106]]",circle,red,vert,up,"[0,150]","[-106,-106]",up,1,1.511,,,,,,001,2025-03-17_13h42.52.342,SL_base_41,2021.2.3,Win32,54.64480874,,,53,0,53,0,1,,,,,,,,
,,"[""circle"",""red"",""hori"",""left"",[0,150],[0,-150]]",circle,red,hori,left,"[0,150]","[0,-150]",left,1,1.2733,,,,,,001,2025-03-17_13h42.52.342,SL_base_41,2021.2.3,Win32,54.64480874,,,54,0,54,0,1,,,,,,,,
,,"[""diamond"",""red"",""vert"",""up"",[0,150],[150,0]]",diamond,red,vert,up,"[0,150]","[150,0]",up,1,1.145,,,,,,001,2025-03-17_13h42.52.342,SL_base_41,2021.2.3,Win32,54.64480874,,,55,0,55,0,1,,,,,,,,
,,"[""circle"",""green"",""vert"",""up"",[0,150],[150,0]]",circle,green,vert,up,"[0,150]","[150,0]",up,1,1.1909,,,,,,001,2025-03-17_13h42.52.342,SL_base_41,2021.2.3,Win32,54.64480874,,,56,0,56,0,1,,,,,,,,
,,"[""circle"",""no_dis"",""vert"",""up"",[99999,99999],[106,106]]",circle,no_dis,vert,up,"[99999,99999]","[106,106]",up,1,0.9286,,,,,,001,2025-03-17_13h42.52.342,SL_base_41,2021.2.3,Win32,54.64480874,,,57,0,57,0,1,,,,,,,,
,,"[""circle"",""no_dis"",""vert"",""up"",[99999,99999],[-150,0]]",circle,no_dis,vert,up,"[99999,99999]","[-150,0]",up,1,0.9284,,,,,,001,2025-03-17_13h42.52.342,SL_base_41,2021.2.3,Win32,54.64480874,,,58,0,58,0,1,,,,,,,,
,,"[""circle"",""green"",""hori"",""left"",[0,150],[106,106]]",circle,green,hori,left,"[0,150]","[106,106]",left,1,0.8917,,,,,,001,2025-03-17_13h42.52.342,SL_base_41,2021.2.3,Win32,54.64480874,,,59,0,59,0,1,,,,,,,,
,,"[""diamond"",""red"",""vert"",""up"",[-150,0],[-106,-106]]",diamond,red,vert,up,"[-150,0]","[-106,-106]",up,1,1.1449,,,,,,001,2025-03-17_13h42.52.342,SL_base_41,2021.2.3,Win32,54.64480874,,,60,0,60,0,1,,,,,,,,
,,"[""diamond"",""red"",""vert"",""up"",[0,150],[106,-106]]",diamond,red,vert,up,"[0,150]","[106,-106]",up,1,0.9687,,,,,,001,2025-03-17_13h42.52.342,SL_base_41,2021.2.3,Win32,54.64480874,,,61,0,61,0,1,,,,,,,,
,,"[""circle"",""green"",""hori"",""left"",[-106,106],[150,0]]",circle,green,hori,left,"[-106,106]","[150,0]",left,1,0.9037,,,,,,001,2025-03-17_13h42.52.342,SL_base_41,2021.2.3,Win32,54.64480874,,,62,0,62,0,1,,,,,,,,
