﻿key_resp.keys,key_resp.rt,trial_para,tar_shape,dis_color_condi,tar_line,cor_resp,dis_loc,tar_loc,resp.keys,resp.corr,resp.rt,trials.thisRepN,trials.thisTrialN,trials.thisN,trials.thisIndex,trials.ran,participant,date,expName,psychopyVersion,OS,frameRate,key_resp_2.keys,key_resp_2.rt,trials_2.thisRepN,trials_2.thisTrialN,trials_2.thisN,trials_2.thisIndex,trials_2.ran,block_num,key_resp_3.keys,key_resp_3.rt,trials_3.thisRepN,trials_3.thisTrialN,trials_3.thisN,trials_3.thisIndex,trials_3.ran
space,3.1011,"[""diamond"",""red"",""hori"",""left"",[-106,106],[106,-106]]",diamond,red,hori,left,"[-106,106]","[106,-106]",left,1,1.6938,0,0,0,0,1,001,2025-03-10_19h31.51.354,SL_base_41,2021.2.3,Win32,142.8571429,,,,,,,,,,,,,,,
,,"[""circle"",""green"",""vert"",""up"",[-106,106],[-150,0]]",circle,green,vert,up,"[-106,106]","[-150,0]",up,1,0.8889,1,0,1,0,1,001,2025-03-10_19h31.51.354,SL_base_41,2021.2.3,Win32,142.8571429,,,,,,,,,,,,,,,
,,"[""circle"",""red"",""vert"",""up"",[-106,106],[150,0]]",circle,red,vert,up,"[-106,106]","[150,0]",up,1,0.5906,2,0,2,0,1,001,2025-03-10_19h31.51.354,SL_base_41,2021.2.3,Win32,142.8571429,,,,,,,,,,,,,,,
,,"[""circle"",""no_dis"",""vert"",""up"",[99999,99999],[-150,0]]",circle,no_dis,vert,up,"[99999,99999]","[-150,0]",left,0,1.3214,3,0,3,0,1,001,2025-03-10_19h31.51.354,SL_base_41,2021.2.3,Win32,142.8571429,,,,,,,,,,,,,,,
,,"[""circle"",""green"",""vert"",""up"",[0,150],[0,-150]]",circle,green,vert,up,"[0,150]","[0,-150]",up,1,0.7371,4,0,4,0,1,001,2025-03-10_19h31.51.354,SL_base_41,2021.2.3,Win32,142.8571429,,,,,,,,,,,,,,,
,,"[""diamond"",""red"",""vert"",""up"",[-150,0],[150,0]]",diamond,red,vert,up,"[-150,0]","[150,0]",up,1,0.9605,5,0,5,0,1,001,2025-03-10_19h31.51.354,SL_base_41,2021.2.3,Win32,142.8571429,,,,,,,,,,,,,,,
,,"[""diamond"",""red"",""vert"",""up"",[-106,106],[-106,-106]]",diamond,red,vert,up,"[-106,106]","[-106,-106]",up,1,1.7676,6,0,6,0,1,001,2025-03-10_19h31.51.354,SL_base_41,2021.2.3,Win32,142.8571429,,,,,,,,,,,,,,,
,,"[""diamond"",""no_dis"",""hori"",""left"",[99999,99999],[0,150]]",diamond,no_dis,hori,left,"[99999,99999]","[0,150]",left,1,2.3021,7,0,7,0,1,001,2025-03-10_19h31.51.354,SL_base_41,2021.2.3,Win32,142.8571429,,,,,,,,,,,,,,,
,,"[""diamond"",""red"",""vert"",""up"",[-106,-106],[0,150]]",diamond,red,vert,up,"[-106,-106]","[0,150]",up,1,0.8149,8,0,8,0,1,001,2025-03-10_19h31.51.354,SL_base_41,2021.2.3,Win32,142.8571429,,,,,,,,,,,,,,,
,,"[""diamond"",""green"",""vert"",""up"",[150,0],[0,150]]",diamond,green,vert,up,"[150,0]","[0,150]",up,1,0.9168,9,0,9,0,1,001,2025-03-10_19h31.51.354,SL_base_41,2021.2.3,Win32,142.8571429,,,,,,,,,,,,,,,
,,"[""diamond"",""red"",""hori"",""left"",[-106,106],[106,-106]]",diamond,red,hori,left,"[-106,106]","[106,-106]",left,1,0.8491,,,,,,001,2025-03-10_19h31.51.354,SL_base_41,2021.2.3,Win32,142.8571429,space,9.9875,0,0,0,0,1,,,,,,,,
,,"[""circle"",""green"",""vert"",""up"",[-106,106],[-150,0]]",circle,green,vert,up,"[-106,106]","[-150,0]",up,1,0.9936,,,,,,001,2025-03-10_19h31.51.354,SL_base_41,2021.2.3,Win32,142.8571429,,,1,0,1,0,1,,,,,,,,
,,"[""circle"",""red"",""vert"",""up"",[-106,106],[150,0]]",circle,red,vert,up,"[-106,106]","[150,0]",up,1,0.8485,,,,,,001,2025-03-10_19h31.51.354,SL_base_41,2021.2.3,Win32,142.8571429,,,2,0,2,0,1,,,,,,,,
,,"[""circle"",""no_dis"",""vert"",""up"",[99999,99999],[-150,0]]",circle,no_dis,vert,up,"[99999,99999]","[-150,0]",left,0,1.2571,,,,,,001,2025-03-10_19h31.51.354,SL_base_41,2021.2.3,Win32,142.8571429,,,3,0,3,0,1,,,,,,,,
,,"[""circle"",""green"",""vert"",""up"",[0,150],[0,-150]]",circle,green,vert,up,"[0,150]","[0,-150]",up,1,0.7711,,,,,,001,2025-03-10_19h31.51.354,SL_base_41,2021.2.3,Win32,142.8571429,,,4,0,4,0,1,,,,,,,,
,,"[""diamond"",""red"",""vert"",""up"",[-150,0],[150,0]]",diamond,red,vert,up,"[-150,0]","[150,0]",up,1,0.7295,,,,,,001,2025-03-10_19h31.51.354,SL_base_41,2021.2.3,Win32,142.8571429,,,5,0,5,0,1,,,,,,,,
,,"[""diamond"",""red"",""vert"",""up"",[-106,106],[-106,-106]]",diamond,red,vert,up,"[-106,106]","[-106,-106]",up,1,0.9376,,,,,,001,2025-03-10_19h31.51.354,SL_base_41,2021.2.3,Win32,142.8571429,,,6,0,6,0,1,,,,,,,,
,,"[""diamond"",""no_dis"",""hori"",""left"",[99999,99999],[0,150]]",diamond,no_dis,hori,left,"[99999,99999]","[0,150]",left,1,0.5554,,,,,,001,2025-03-10_19h31.51.354,SL_base_41,2021.2.3,Win32,142.8571429,,,7,0,7,0,1,,,,,,,,
,,"[""diamond"",""red"",""vert"",""up"",[-106,-106],[0,150]]",diamond,red,vert,up,"[-106,-106]","[0,150]",up,1,0.5697,,,,,,001,2025-03-10_19h31.51.354,SL_base_41,2021.2.3,Win32,142.8571429,,,8,0,8,0,1,,,,,,,,
,,"[""diamond"",""green"",""vert"",""up"",[150,0],[0,150]]",diamond,green,vert,up,"[150,0]","[0,150]",up,1,0.8774,,,,,,001,2025-03-10_19h31.51.354,SL_base_41,2021.2.3,Win32,142.8571429,,,9,0,9,0,1,,,,,,,,
,,"[""diamond"",""red"",""vert"",""up"",[0,150],[-106,106]]",diamond,red,vert,up,"[0,150]","[-106,106]",up,1,0.8078,,,,,,001,2025-03-10_19h31.51.354,SL_base_41,2021.2.3,Win32,142.8571429,,,10,0,10,0,1,,,,,,,,
,,"[""circle"",""green"",""vert"",""up"",[-106,-106],[-150,0]]",circle,green,vert,up,"[-106,-106]","[-150,0]",up,1,0.8609,,,,,,001,2025-03-10_19h31.51.354,SL_base_41,2021.2.3,Win32,142.8571429,,,11,0,11,0,1,,,,,,,,
,,"[""diamond"",""no_dis"",""vert"",""up"",[99999,99999],[150,0]]",diamond,no_dis,vert,up,"[99999,99999]","[150,0]",,0,,,,,,,001,2025-03-10_19h31.51.354,SL_base_41,2021.2.3,Win32,142.8571429,,,12,0,12,0,1,,,,,,,,
,,"[""diamond"",""green"",""vert"",""up"",[-106,106],[-150,0]]",diamond,green,vert,up,"[-106,106]","[-150,0]",up,1,0.8057,,,,,,001,2025-03-10_19h31.51.354,SL_base_41,2021.2.3,Win32,142.8571429,,,13,0,13,0,1,,,,,,,,
,,"[""diamond"",""green"",""hori"",""left"",[-106,106],[106,-106]]",diamond,green,hori,left,"[-106,106]","[106,-106]",left,1,0.8405,,,,,,001,2025-03-10_19h31.51.354,SL_base_41,2021.2.3,Win32,142.8571429,,,14,0,14,0,1,,,,,,,,
,,"[""circle"",""green"",""hori"",""left"",[0,150],[150,0]]",circle,green,hori,left,"[0,150]","[150,0]",left,1,0.8615,,,,,,001,2025-03-10_19h31.51.354,SL_base_41,2021.2.3,Win32,142.8571429,,,15,0,15,0,1,,,,,,,,
,,"[""circle"",""no_dis"",""vert"",""up"",[99999,99999],[150,0]]",circle,no_dis,vert,up,"[99999,99999]","[150,0]",up,1,0.799,,,,,,001,2025-03-10_19h31.51.354,SL_base_41,2021.2.3,Win32,142.8571429,,,16,0,16,0,1,,,,,,,,
,,"[""circle"",""red"",""hori"",""left"",[106,106],[-106,106]]",circle,red,hori,left,"[106,106]","[-106,106]",left,1,0.8759,,,,,,001,2025-03-10_19h31.51.354,SL_base_41,2021.2.3,Win32,142.8571429,,,17,0,17,0,1,,,,,,,,
,,"[""circle"",""no_dis"",""vert"",""up"",[99999,99999],[-150,0]]",circle,no_dis,vert,up,"[99999,99999]","[-150,0]",up,1,1.5635,,,,,,001,2025-03-10_19h31.51.354,SL_base_41,2021.2.3,Win32,142.8571429,,,18,0,18,0,1,,,,,,,,
,,"[""diamond"",""no_dis"",""vert"",""up"",[99999,99999],[150,0]]",diamond,no_dis,vert,up,"[99999,99999]","[150,0]",up,1,0.6188,,,,,,001,2025-03-10_19h31.51.354,SL_base_41,2021.2.3,Win32,142.8571429,,,19,0,19,0,1,,,,,,,,
,,"[""diamond"",""green"",""hori"",""left"",[-106,106],[-106,-106]]",diamond,green,hori,left,"[-106,106]","[-106,-106]",left,1,0.7357,,,,,,001,2025-03-10_19h31.51.354,SL_base_41,2021.2.3,Win32,142.8571429,,,20,0,20,0,1,,,,,,,,
,,"[""diamond"",""red"",""vert"",""up"",[-106,106],[-106,-106]]",diamond,red,vert,up,"[-106,106]","[-106,-106]",up,1,0.8363,,,,,,001,2025-03-10_19h31.51.354,SL_base_41,2021.2.3,Win32,142.8571429,,,21,0,21,0,1,,,,,,,,
,,"[""diamond"",""red"",""hori"",""left"",[106,-106],[106,106]]",diamond,red,hori,left,"[106,-106]","[106,106]",left,1,1.1599,,,,,,001,2025-03-10_19h31.51.354,SL_base_41,2021.2.3,Win32,142.8571429,,,22,0,22,0,1,,,,,,,,
,,"[""circle"",""no_dis"",""hori"",""left"",[99999,99999],[150,0]]",circle,no_dis,hori,left,"[99999,99999]","[150,0]",left,1,0.7437,,,,,,001,2025-03-10_19h31.51.354,SL_base_41,2021.2.3,Win32,142.8571429,,,23,0,23,0,1,,,,,,,,
,,"[""diamond"",""red"",""hori"",""left"",[150,0],[106,106]]",diamond,red,hori,left,"[150,0]","[106,106]",left,1,1.0854,,,,,,001,2025-03-10_19h31.51.354,SL_base_41,2021.2.3,Win32,142.8571429,,,24,0,24,0,1,,,,,,,,
,,"[""diamond"",""red"",""hori"",""left"",[-106,106],[106,106]]",diamond,red,hori,left,"[-106,106]","[106,106]",left,1,0.5553,,,,,,001,2025-03-10_19h31.51.354,SL_base_41,2021.2.3,Win32,142.8571429,,,25,0,25,0,1,,,,,,,,
,,"[""diamond"",""red"",""vert"",""up"",[-106,-106],[-150,0]]",diamond,red,vert,up,"[-106,-106]","[-150,0]",up,1,0.739,,,,,,001,2025-03-10_19h31.51.354,SL_base_41,2021.2.3,Win32,142.8571429,,,26,0,26,0,1,,,,,,,,
,,"[""circle"",""red"",""hori"",""left"",[106,106],[-150,0]]",circle,red,hori,left,"[106,106]","[-150,0]",left,1,0.7772,,,,,,001,2025-03-10_19h31.51.354,SL_base_41,2021.2.3,Win32,142.8571429,,,27,0,27,0,1,,,,,,,,
,,"[""circle"",""green"",""hori"",""left"",[0,-150],[-106,-106]]",circle,green,hori,left,"[0,-150]","[-106,-106]",left,1,0.7363,,,,,,001,2025-03-10_19h31.51.354,SL_base_41,2021.2.3,Win32,142.8571429,,,28,0,28,0,1,,,,,,,,
,,"[""diamond"",""red"",""hori"",""left"",[106,-106],[0,-150]]",diamond,red,hori,left,"[106,-106]","[0,-150]",up,0,0.8005,,,,,,001,2025-03-10_19h31.51.354,SL_base_41,2021.2.3,Win32,142.8571429,,,29,0,29,0,1,,,,,,,,
,,"[""circle"",""red"",""vert"",""up"",[-106,106],[-106,-106]]",circle,red,vert,up,"[-106,106]","[-106,-106]",up,1,1.0697,,,,,,001,2025-03-10_19h31.51.354,SL_base_41,2021.2.3,Win32,142.8571429,,,30,0,30,0,1,,,,,,,,
,,"[""circle"",""no_dis"",""vert"",""up"",[99999,99999],[-150,0]]",circle,no_dis,vert,up,"[99999,99999]","[-150,0]",up,1,0.6529,,,,,,001,2025-03-10_19h31.51.354,SL_base_41,2021.2.3,Win32,142.8571429,,,31,0,31,0,1,,,,,,,,
,,"[""circle"",""green"",""vert"",""up"",[-150,0],[106,-106]]",circle,green,vert,up,"[-150,0]","[106,-106]",up,1,0.6069,,,,,,001,2025-03-10_19h31.51.354,SL_base_41,2021.2.3,Win32,142.8571429,,,32,0,32,0,1,,,,,,,,
,,"[""diamond"",""green"",""vert"",""up"",[106,106],[-150,0]]",diamond,green,vert,up,"[106,106]","[-150,0]",left,0,0.576,,,,,,001,2025-03-10_19h31.51.354,SL_base_41,2021.2.3,Win32,142.8571429,,,33,0,33,0,1,,,,,,,,
,,"[""circle"",""green"",""vert"",""up"",[-150,0],[-106,106]]",circle,green,vert,up,"[-150,0]","[-106,106]",up,1,1.7919,,,,,,001,2025-03-10_19h31.51.354,SL_base_41,2021.2.3,Win32,142.8571429,,,34,0,34,0,1,,,,,,,,
,,"[""circle"",""green"",""vert"",""up"",[0,150],[-150,0]]",circle,green,vert,up,"[0,150]","[-150,0]",up,1,0.8475,,,,,,001,2025-03-10_19h31.51.354,SL_base_41,2021.2.3,Win32,142.8571429,,,35,0,35,0,1,,,,,,,,
,,"[""circle"",""no_dis"",""vert"",""up"",[99999,99999],[-106,-106]]",circle,no_dis,vert,up,"[99999,99999]","[-106,-106]",up,1,0.565,,,,,,001,2025-03-10_19h31.51.354,SL_base_41,2021.2.3,Win32,142.8571429,,,36,0,36,0,1,,,,,,,,
,,"[""circle"",""red"",""vert"",""up"",[106,-106],[-106,106]]",circle,red,vert,up,"[106,-106]","[-106,106]",up,1,0.7091,,,,,,001,2025-03-10_19h31.51.354,SL_base_41,2021.2.3,Win32,142.8571429,,,37,0,37,0,1,,,,,,,,
,,"[""diamond"",""no_dis"",""hori"",""left"",[99999,99999],[0,150]]",diamond,no_dis,hori,left,"[99999,99999]","[0,150]",left,1,1.0141,,,,,,001,2025-03-10_19h31.51.354,SL_base_41,2021.2.3,Win32,142.8571429,,,38,0,38,0,1,,,,,,,,
,,"[""diamond"",""green"",""hori"",""left"",[0,150],[106,-106]]",diamond,green,hori,left,"[0,150]","[106,-106]",left,1,0.7932,,,,,,001,2025-03-10_19h31.51.354,SL_base_41,2021.2.3,Win32,142.8571429,,,39,0,39,0,1,,,,,,,,
,,"[""circle"",""no_dis"",""hori"",""left"",[99999,99999],[-106,-106]]",circle,no_dis,hori,left,"[99999,99999]","[-106,-106]",left,1,1.0372,,,,,,001,2025-03-10_19h31.51.354,SL_base_41,2021.2.3,Win32,142.8571429,,,40,0,40,0,1,,,,,,,,
,,"[""diamond"",""red"",""hori"",""left"",[0,150],[0,-150]]",diamond,red,hori,left,"[0,150]","[0,-150]",left,1,0.7773,,,,,,001,2025-03-10_19h31.51.354,SL_base_41,2021.2.3,Win32,142.8571429,,,41,0,41,0,1,,,,,,,,
,,"[""circle"",""no_dis"",""vert"",""up"",[99999,99999],[0,-150]]",circle,no_dis,vert,up,"[99999,99999]","[0,-150]",up,1,0.5829,,,,,,001,2025-03-10_19h31.51.354,SL_base_41,2021.2.3,Win32,142.8571429,,,42,0,42,0,1,,,,,,,,
,,"[""circle"",""green"",""vert"",""up"",[-150,0],[150,0]]",circle,green,vert,up,"[-150,0]","[150,0]",up,1,1.4741,,,,,,001,2025-03-10_19h31.51.354,SL_base_41,2021.2.3,Win32,142.8571429,,,43,0,43,0,1,,,,,,,,
,,"[""circle"",""green"",""hori"",""left"",[0,-150],[150,0]]",circle,green,hori,left,"[0,-150]","[150,0]",left,1,0.5938,,,,,,001,2025-03-10_19h31.51.354,SL_base_41,2021.2.3,Win32,142.8571429,,,44,0,44,0,1,,,,,,,,
,,"[""circle"",""no_dis"",""hori"",""left"",[99999,99999],[-106,-106]]",circle,no_dis,hori,left,"[99999,99999]","[-106,-106]",left,1,1.0524,,,,,,001,2025-03-10_19h31.51.354,SL_base_41,2021.2.3,Win32,142.8571429,,,45,0,45,0,1,,,,,,,,
,,"[""diamond"",""red"",""vert"",""up"",[-106,106],[-106,-106]]",diamond,red,vert,up,"[-106,106]","[-106,-106]",up,1,0.9538,,,,,,001,2025-03-10_19h31.51.354,SL_base_41,2021.2.3,Win32,142.8571429,,,46,0,46,0,1,,,,,,,,
,,"[""diamond"",""red"",""hori"",""left"",[106,-106],[0,-150]]",diamond,red,hori,left,"[106,-106]","[0,-150]",left,1,0.6992,,,,,,001,2025-03-10_19h31.51.354,SL_base_41,2021.2.3,Win32,142.8571429,,,47,0,47,0,1,,,,,,,,
,,"[""diamond"",""no_dis"",""vert"",""up"",[99999,99999],[106,-106]]",diamond,no_dis,vert,up,"[99999,99999]","[106,-106]",up,1,0.6458,,,,,,001,2025-03-10_19h31.51.354,SL_base_41,2021.2.3,Win32,142.8571429,,,48,0,48,0,1,,,,,,,,
,,"[""diamond"",""red"",""hori"",""left"",[106,106],[150,0]]",diamond,red,hori,left,"[106,106]","[150,0]",left,1,0.5977,,,,,,001,2025-03-10_19h31.51.354,SL_base_41,2021.2.3,Win32,142.8571429,,,49,0,49,0,1,,,,,,,,
,,"[""circle"",""no_dis"",""vert"",""up"",[99999,99999],[0,-150]]",circle,no_dis,vert,up,"[99999,99999]","[0,-150]",up,1,0.6628,,,,,,001,2025-03-10_19h31.51.354,SL_base_41,2021.2.3,Win32,142.8571429,,,50,0,50,0,1,,,,,,,,
,,"[""circle"",""green"",""vert"",""up"",[-150,0],[-106,-106]]",circle,green,vert,up,"[-150,0]","[-106,-106]",up,1,0.7452,,,,,,001,2025-03-10_19h31.51.354,SL_base_41,2021.2.3,Win32,142.8571429,,,51,0,51,0,1,,,,,,,,
,,"[""diamond"",""no_dis"",""hori"",""left"",[99999,99999],[106,-106]]",diamond,no_dis,hori,left,"[99999,99999]","[106,-106]",left,1,0.8434,,,,,,001,2025-03-10_19h31.51.354,SL_base_41,2021.2.3,Win32,142.8571429,,,52,0,52,0,1,,,,,,,,
,,"[""diamond"",""no_dis"",""vert"",""up"",[99999,99999],[0,150]]",diamond,no_dis,vert,up,"[99999,99999]","[0,150]",up,1,0.6109,,,,,,001,2025-03-10_19h31.51.354,SL_base_41,2021.2.3,Win32,142.8571429,,,53,0,53,0,1,,,,,,,,
,,"[""circle"",""green"",""vert"",""up"",[0,-150],[-106,-106]]",circle,green,vert,up,"[0,-150]","[-106,-106]",up,1,0.801,,,,,,001,2025-03-10_19h31.51.354,SL_base_41,2021.2.3,Win32,142.8571429,,,54,0,54,0,1,,,,,,,,
,,"[""circle"",""no_dis"",""vert"",""up"",[99999,99999],[-106,-106]]",circle,no_dis,vert,up,"[99999,99999]","[-106,-106]",up,1,0.7086,,,,,,001,2025-03-10_19h31.51.354,SL_base_41,2021.2.3,Win32,142.8571429,,,55,0,55,0,1,,,,,,,,
,,"[""diamond"",""red"",""hori"",""left"",[-106,-106],[106,106]]",diamond,red,hori,left,"[-106,-106]","[106,106]",left,1,0.7953,,,,,,001,2025-03-10_19h31.51.354,SL_base_41,2021.2.3,Win32,142.8571429,,,56,0,56,0,1,,,,,,,,
,,"[""circle"",""red"",""hori"",""left"",[-106,106],[150,0]]",circle,red,hori,left,"[-106,106]","[150,0]",left,1,0.5365,,,,,,001,2025-03-10_19h31.51.354,SL_base_41,2021.2.3,Win32,142.8571429,,,57,0,57,0,1,,,,,,,,
,,"[""diamond"",""no_dis"",""hori"",""left"",[99999,99999],[0,150]]",diamond,no_dis,hori,left,"[99999,99999]","[0,150]",left,1,0.7605,,,,,,001,2025-03-10_19h31.51.354,SL_base_41,2021.2.3,Win32,142.8571429,,,58,0,58,0,1,,,,,,,,
,,"[""circle"",""green"",""hori"",""left"",[0,-150],[-106,106]]",circle,green,hori,left,"[0,-150]","[-106,106]",left,1,0.8995,,,,,,001,2025-03-10_19h31.51.354,SL_base_41,2021.2.3,Win32,142.8571429,,,59,0,59,0,1,,,,,,,,
,,"[""circle"",""red"",""vert"",""up"",[0,-150],[0,150]]",circle,red,vert,up,"[0,-150]","[0,150]",up,1,0.5898,,,,,,001,2025-03-10_19h31.51.354,SL_base_41,2021.2.3,Win32,142.8571429,,,60,0,60,0,1,,,,,,,,
,,"[""circle"",""no_dis"",""hori"",""left"",[99999,99999],[150,0]]",circle,no_dis,hori,left,"[99999,99999]","[150,0]",up,0,0.8408,,,,,,001,2025-03-10_19h31.51.354,SL_base_41,2021.2.3,Win32,142.8571429,,,61,0,61,0,1,,,,,,,,
,,"[""circle"",""red"",""vert"",""up"",[0,150],[-150,0]]",circle,red,vert,up,"[0,150]","[-150,0]",up,1,0.8398,,,,,,001,2025-03-10_19h31.51.354,SL_base_41,2021.2.3,Win32,142.8571429,,,62,0,62,0,1,,,,,,,,
,,"[""circle"",""green"",""hori"",""left"",[0,-150],[-150,0]]",circle,green,hori,left,"[0,-150]","[-150,0]",left,1,0.4935,,,,,,001,2025-03-10_19h31.51.354,SL_base_41,2021.2.3,Win32,142.8571429,,,63,0,63,0,1,,,,,,,,
,,"[""diamond"",""no_dis"",""vert"",""up"",[99999,99999],[0,-150]]",diamond,no_dis,vert,up,"[99999,99999]","[0,-150]",up,1,0.7294,,,,,,001,2025-03-10_19h31.51.354,SL_base_41,2021.2.3,Win32,142.8571429,,,64,0,64,0,1,,,,,,,,
,,"[""circle"",""green"",""hori"",""left"",[-106,106],[106,106]]",circle,green,hori,left,"[-106,106]","[106,106]",left,1,1.007,,,,,,001,2025-03-10_19h31.51.354,SL_base_41,2021.2.3,Win32,142.8571429,,,65,0,65,0,1,,,,,,,,
,,"[""circle"",""no_dis"",""hori"",""left"",[99999,99999],[106,106]]",circle,no_dis,hori,left,"[99999,99999]","[106,106]",left,1,0.6352,,,,,,001,2025-03-10_19h31.51.354,SL_base_41,2021.2.3,Win32,142.8571429,,,66,0,66,0,1,,,,,,,,
,,"[""circle"",""red"",""vert"",""up"",[-106,106],[0,-150]]",circle,red,vert,up,"[-106,106]","[0,-150]",up,1,0.9718,,,,,,001,2025-03-10_19h31.51.354,SL_base_41,2021.2.3,Win32,142.8571429,,,67,0,67,0,1,,,,,,,,
,,"[""diamond"",""red"",""vert"",""up"",[-150,0],[0,-150]]",diamond,red,vert,up,"[-150,0]","[0,-150]",up,1,0.7399,,,,,,001,2025-03-10_19h31.51.354,SL_base_41,2021.2.3,Win32,142.8571429,,,68,0,68,0,1,,,,,,,,
,,"[""circle"",""green"",""hori"",""left"",[-106,-106],[-150,0]]",circle,green,hori,left,"[-106,-106]","[-150,0]",left,1,0.6946,,,,,,001,2025-03-10_19h31.51.354,SL_base_41,2021.2.3,Win32,142.8571429,,,69,0,69,0,1,,,,,,,,
,,"[""diamond"",""no_dis"",""hori"",""left"",[99999,99999],[-106,-106]]",diamond,no_dis,hori,left,"[99999,99999]","[-106,-106]",left,1,0.7366,,,,,,001,2025-03-10_19h31.51.354,SL_base_41,2021.2.3,Win32,142.8571429,,,70,0,70,0,1,,,,,,,,
,,"[""diamond"",""no_dis"",""vert"",""up"",[99999,99999],[-150,0]]",diamond,no_dis,vert,up,"[99999,99999]","[-150,0]",up,1,0.6461,,,,,,001,2025-03-10_19h31.51.354,SL_base_41,2021.2.3,Win32,142.8571429,,,71,0,71,0,1,,,,,,,,
,,"[""diamond"",""green"",""vert"",""up"",[-106,106],[106,-106]]",diamond,green,vert,up,"[-106,106]","[106,-106]",up,1,0.8545,,,,,,001,2025-03-10_19h31.51.354,SL_base_41,2021.2.3,Win32,142.8571429,,,72,0,72,0,1,,,,,,,,
,,"[""circle"",""red"",""hori"",""left"",[150,0],[106,-106]]",circle,red,hori,left,"[150,0]","[106,-106]",up,0,0.6669,,,,,,001,2025-03-10_19h31.51.354,SL_base_41,2021.2.3,Win32,142.8571429,,,73,0,73,0,1,,,,,,,,
,,"[""diamond"",""no_dis"",""hori"",""left"",[99999,99999],[-106,106]]",diamond,no_dis,hori,left,"[99999,99999]","[-106,106]",left,1,0.7779,,,,,,001,2025-03-10_19h31.51.354,SL_base_41,2021.2.3,Win32,142.8571429,,,74,0,74,0,1,,,,,,,,
,,"[""circle"",""red"",""hori"",""left"",[-150,0],[106,106]]",circle,red,hori,left,"[-150,0]","[106,106]",left,1,0.7774,,,,,,001,2025-03-10_19h31.51.354,SL_base_41,2021.2.3,Win32,142.8571429,,,75,0,75,0,1,,,,,,,,
,,"[""diamond"",""red"",""hori"",""left"",[0,-150],[150,0]]",diamond,red,hori,left,"[0,-150]","[150,0]",left,1,0.5015,,,,,,001,2025-03-10_19h31.51.354,SL_base_41,2021.2.3,Win32,142.8571429,,,76,0,76,0,1,,,,,,,,
,,"[""diamond"",""green"",""hori"",""left"",[106,-106],[0,-150]]",diamond,green,hori,left,"[106,-106]","[0,-150]",left,1,1.0097,,,,,,001,2025-03-10_19h31.51.354,SL_base_41,2021.2.3,Win32,142.8571429,,,77,0,77,0,1,,,,,,,,
,,"[""circle"",""green"",""vert"",""up"",[-106,106],[150,0]]",circle,green,vert,up,"[-106,106]","[150,0]",up,1,0.4665,,,,,,001,2025-03-10_19h31.51.354,SL_base_41,2021.2.3,Win32,142.8571429,,,78,0,78,0,1,,,,,,,,
,,"[""circle"",""red"",""vert"",""up"",[106,-106],[150,0]]",circle,red,vert,up,"[106,-106]","[150,0]",up,1,0.8483,,,,,,001,2025-03-10_19h31.51.354,SL_base_41,2021.2.3,Win32,142.8571429,,,79,0,79,0,1,,,,,,,,
,,"[""circle"",""green"",""vert"",""up"",[-106,106],[0,-150]]",circle,green,vert,up,"[-106,106]","[0,-150]",up,1,1.0989,,,,,,001,2025-03-10_19h31.51.354,SL_base_41,2021.2.3,Win32,142.8571429,,,80,0,80,0,1,,,,,,,,
,,"[""diamond"",""green"",""hori"",""left"",[-106,106],[150,0]]",diamond,green,hori,left,"[-106,106]","[150,0]",left,1,0.5574,,,,,,001,2025-03-10_19h31.51.354,SL_base_41,2021.2.3,Win32,142.8571429,,,81,0,81,0,1,,,,,,,,
,,"[""diamond"",""no_dis"",""vert"",""up"",[99999,99999],[106,106]]",diamond,no_dis,vert,up,"[99999,99999]","[106,106]",up,1,0.5119,,,,,,001,2025-03-10_19h31.51.354,SL_base_41,2021.2.3,Win32,142.8571429,,,82,0,82,0,1,,,,,,,,
,,"[""diamond"",""green"",""hori"",""left"",[106,106],[-106,106]]",diamond,green,hori,left,"[106,106]","[-106,106]",left,1,0.6857,,,,,,001,2025-03-10_19h31.51.354,SL_base_41,2021.2.3,Win32,142.8571429,,,83,0,83,0,1,,,,,,,,
,,"[""diamond"",""green"",""vert"",""up"",[-106,106],[106,-106]]",diamond,green,vert,up,"[-106,106]","[106,-106]",up,1,0.5984,,,,,,001,2025-03-10_19h31.51.354,SL_base_41,2021.2.3,Win32,142.8571429,,,84,0,84,0,1,,,,,,,,
,,"[""diamond"",""red"",""hori"",""left"",[-106,106],[0,-150]]",diamond,red,hori,left,"[-106,106]","[0,-150]",left,1,0.6448,,,,,,001,2025-03-10_19h31.51.354,SL_base_41,2021.2.3,Win32,142.8571429,,,85,0,85,0,1,,,,,,,,
,,"[""diamond"",""green"",""vert"",""up"",[150,0],[-150,0]]",diamond,green,vert,up,"[150,0]","[-150,0]",up,1,0.7003,,,,,,001,2025-03-10_19h31.51.354,SL_base_41,2021.2.3,Win32,142.8571429,,,86,0,86,0,1,,,,,,,,
,,"[""diamond"",""red"",""vert"",""up"",[106,106],[0,150]]",diamond,red,vert,up,"[106,106]","[0,150]",up,1,0.8254,,,,,,001,2025-03-10_19h31.51.354,SL_base_41,2021.2.3,Win32,142.8571429,,,87,0,87,0,1,,,,,,,,
,,"[""diamond"",""green"",""hori"",""left"",[106,106],[-106,-106]]",diamond,green,hori,left,"[106,106]","[-106,-106]",left,1,0.6299,,,,,,001,2025-03-10_19h31.51.354,SL_base_41,2021.2.3,Win32,142.8571429,,,88,0,88,0,1,,,,,,,,
,,"[""circle"",""red"",""vert"",""up"",[150,0],[106,-106]]",circle,red,vert,up,"[150,0]","[106,-106]",left,0,0.4659,,,,,,001,2025-03-10_19h31.51.354,SL_base_41,2021.2.3,Win32,142.8571429,,,89,0,89,0,1,,,,,,,,
,,"[""circle"",""red"",""hori"",""left"",[106,-106],[-106,106]]",circle,red,hori,left,"[106,-106]","[-106,106]",left,1,0.7173,,,,,,001,2025-03-10_19h31.51.354,SL_base_41,2021.2.3,Win32,142.8571429,,,90,0,90,0,1,,,,,,,,
,,"[""diamond"",""no_dis"",""vert"",""up"",[99999,99999],[106,-106]]",diamond,no_dis,vert,up,"[99999,99999]","[106,-106]",up,1,0.8864,,,,,,001,2025-03-10_19h31.51.354,SL_base_41,2021.2.3,Win32,142.8571429,,,91,0,91,0,1,,,,,,,,
,,"[""circle"",""no_dis"",""hori"",""left"",[99999,99999],[-106,106]]",circle,no_dis,hori,left,"[99999,99999]","[-106,106]",left,1,0.8698,,,,,,001,2025-03-10_19h31.51.354,SL_base_41,2021.2.3,Win32,142.8571429,,,92,0,92,0,1,,,,,,,,
,,"[""circle"",""no_dis"",""hori"",""left"",[99999,99999],[106,-106]]",circle,no_dis,hori,left,"[99999,99999]","[106,-106]",left,1,0.5492,,,,,,001,2025-03-10_19h31.51.354,SL_base_41,2021.2.3,Win32,142.8571429,,,93,0,93,0,1,,,,,,,,
,,"[""circle"",""green"",""hori"",""left"",[-106,-106],[150,0]]",circle,green,hori,left,"[-106,-106]","[150,0]",left,1,1.0578,,,,,,001,2025-03-10_19h31.51.354,SL_base_41,2021.2.3,Win32,142.8571429,,,94,0,94,0,1,,,,,,,,
,,"[""circle"",""red"",""vert"",""up"",[-106,106],[106,106]]",circle,red,vert,up,"[-106,106]","[106,106]",up,1,1.0133,,,,,,001,2025-03-10_19h31.51.354,SL_base_41,2021.2.3,Win32,142.8571429,,,95,0,95,0,1,,,,,,,,
,,"[""circle"",""red"",""vert"",""up"",[-106,-106],[-106,106]]",circle,red,vert,up,"[-106,-106]","[-106,106]",up,1,0.794,,,,,,001,2025-03-10_19h31.51.354,SL_base_41,2021.2.3,Win32,142.8571429,,,96,0,96,0,1,,,,,,,,
,,"[""circle"",""red"",""hori"",""left"",[-106,106],[106,106]]",circle,red,hori,left,"[-106,106]","[106,106]",left,1,0.5073,,,,,,001,2025-03-10_19h31.51.354,SL_base_41,2021.2.3,Win32,142.8571429,,,97,0,97,0,1,,,,,,,,
,,"[""diamond"",""no_dis"",""hori"",""left"",[99999,99999],[-106,106]]",diamond,no_dis,hori,left,"[99999,99999]","[-106,106]",left,1,0.6375,,,,,,001,2025-03-10_19h31.51.354,SL_base_41,2021.2.3,Win32,142.8571429,,,98,0,98,0,1,,,,,,,,
,,"[""circle"",""green"",""hori"",""left"",[-106,106],[106,106]]",circle,green,hori,left,"[-106,106]","[106,106]",left,1,1.1537,,,,,,001,2025-03-10_19h31.51.354,SL_base_41,2021.2.3,Win32,142.8571429,,,99,0,99,0,1,,,,,,,,
,,"[""circle"",""green"",""hori"",""left"",[0,150],[-150,0]]",circle,green,hori,left,"[0,150]","[-150,0]",left,1,0.5757,,,,,,001,2025-03-10_19h31.51.354,SL_base_41,2021.2.3,Win32,142.8571429,,,100,0,100,0,1,,,,,,,,
,,"[""diamond"",""green"",""hori"",""left"",[-106,106],[-150,0]]",diamond,green,hori,left,"[-106,106]","[-150,0]",left,1,0.6254,,,,,,001,2025-03-10_19h31.51.354,SL_base_41,2021.2.3,Win32,142.8571429,,,101,0,101,0,1,,,,,,,,
,,"[""diamond"",""green"",""vert"",""up"",[-106,-106],[0,-150]]",diamond,green,vert,up,"[-106,-106]","[0,-150]",up,1,1.3301,,,,,,001,2025-03-10_19h31.51.354,SL_base_41,2021.2.3,Win32,142.8571429,,,102,0,102,0,1,,,,,,,,
,,"[""diamond"",""green"",""vert"",""up"",[-150,0],[-106,106]]",diamond,green,vert,up,"[-150,0]","[-106,106]",up,1,1.078,,,,,,001,2025-03-10_19h31.51.354,SL_base_41,2021.2.3,Win32,142.8571429,,,103,0,103,0,1,,,,,,,,
,,"[""circle"",""no_dis"",""hori"",""left"",[99999,99999],[-106,106]]",circle,no_dis,hori,left,"[99999,99999]","[-106,106]",left,1,0.5497,,,,,,001,2025-03-10_19h31.51.354,SL_base_41,2021.2.3,Win32,142.8571429,,,104,0,104,0,1,,,,,,,,
,,"[""circle"",""red"",""hori"",""left"",[-106,106],[-106,-106]]",circle,red,hori,left,"[-106,106]","[-106,-106]",left,1,0.7844,,,,,,001,2025-03-10_19h31.51.354,SL_base_41,2021.2.3,Win32,142.8571429,,,105,0,105,0,1,,,,,,,,
,,"[""diamond"",""no_dis"",""hori"",""left"",[99999,99999],[106,-106]]",diamond,no_dis,hori,left,"[99999,99999]","[106,-106]",left,1,1.3119,,,,,,001,2025-03-10_19h31.51.354,SL_base_41,2021.2.3,Win32,142.8571429,,,106,0,106,0,1,,,,,,,,
,,"[""diamond"",""no_dis"",""hori"",""left"",[99999,99999],[0,-150]]",diamond,no_dis,hori,left,"[99999,99999]","[0,-150]",left,1,0.62,,,,,,001,2025-03-10_19h31.51.354,SL_base_41,2021.2.3,Win32,142.8571429,,,107,0,107,0,1,,,,,,,,
,,"[""diamond"",""green"",""hori"",""left"",[-106,106],[-106,-106]]",diamond,green,hori,left,"[-106,106]","[-106,-106]",left,1,0.6315,,,,,,001,2025-03-10_19h31.51.354,SL_base_41,2021.2.3,Win32,142.8571429,,,108,0,108,0,1,,,,,,,,
,,"[""diamond"",""no_dis"",""hori"",""left"",[99999,99999],[106,106]]",diamond,no_dis,hori,left,"[99999,99999]","[106,106]",left,1,0.6651,,,,,,001,2025-03-10_19h31.51.354,SL_base_41,2021.2.3,Win32,142.8571429,,,109,0,109,0,1,,,,,,,,
,,"[""diamond"",""green"",""vert"",""up"",[-106,106],[-150,0]]",diamond,green,vert,up,"[-106,106]","[-150,0]",left,0,0.5491,,,,,,001,2025-03-10_19h31.51.354,SL_base_41,2021.2.3,Win32,142.8571429,,,110,0,110,0,1,,,,,,,,
,,"[""diamond"",""green"",""vert"",""up"",[-106,106],[0,150]]",diamond,green,vert,up,"[-106,106]","[0,150]",up,1,0.5865,,,,,,001,2025-03-10_19h31.51.354,SL_base_41,2021.2.3,Win32,142.8571429,,,111,0,111,0,1,,,,,,,,
,,"[""diamond"",""green"",""hori"",""left"",[-106,106],[150,0]]",diamond,green,hori,left,"[-106,106]","[150,0]",left,1,0.5093,,,,,,001,2025-03-10_19h31.51.354,SL_base_41,2021.2.3,Win32,142.8571429,,,112,0,112,0,1,,,,,,,,
,,"[""circle"",""red"",""hori"",""left"",[150,0],[-106,106]]",circle,red,hori,left,"[150,0]","[-106,106]",left,1,1.3437,,,,,,001,2025-03-10_19h31.51.354,SL_base_41,2021.2.3,Win32,142.8571429,,,113,0,113,0,1,,,,,,,,
,,"[""circle"",""no_dis"",""vert"",""up"",[99999,99999],[106,106]]",circle,no_dis,vert,up,"[99999,99999]","[106,106]",up,1,0.4792,,,,,,001,2025-03-10_19h31.51.354,SL_base_41,2021.2.3,Win32,142.8571429,,,114,0,114,0,1,,,,,,,,
,,"[""circle"",""no_dis"",""hori"",""left"",[99999,99999],[0,-150]]",circle,no_dis,hori,left,"[99999,99999]","[0,-150]",left,1,0.7115,,,,,,001,2025-03-10_19h31.51.354,SL_base_41,2021.2.3,Win32,142.8571429,,,115,0,115,0,1,,,,,,,,
,,"[""circle"",""no_dis"",""hori"",""left"",[99999,99999],[-150,0]]",circle,no_dis,hori,left,"[99999,99999]","[-150,0]",left,1,0.5003,,,,,,001,2025-03-10_19h31.51.354,SL_base_41,2021.2.3,Win32,142.8571429,,,116,0,116,0,1,,,,,,,,
,,"[""diamond"",""red"",""vert"",""up"",[150,0],[-106,106]]",diamond,red,vert,up,"[150,0]","[-106,106]",up,1,0.6456,,,,,,001,2025-03-10_19h31.51.354,SL_base_41,2021.2.3,Win32,142.8571429,,,117,0,117,0,1,,,,,,,,
,,"[""circle"",""green"",""hori"",""left"",[106,-106],[106,106]]",circle,green,hori,left,"[106,-106]","[106,106]",left,1,0.5763,,,,,,001,2025-03-10_19h31.51.354,SL_base_41,2021.2.3,Win32,142.8571429,,,118,0,118,0,1,,,,,,,,
,,"[""diamond"",""no_dis"",""vert"",""up"",[99999,99999],[-106,106]]",diamond,no_dis,vert,up,"[99999,99999]","[-106,106]",up,1,1.2566,,,,,,001,2025-03-10_19h31.51.354,SL_base_41,2021.2.3,Win32,142.8571429,,,119,0,119,0,1,,,,,,,,
,,"[""circle"",""red"",""hori"",""left"",[-106,106],[106,106]]",circle,red,hori,left,"[-106,106]","[106,106]",left,1,0.8405,,,,,,001,2025-03-10_19h31.51.354,SL_base_41,2021.2.3,Win32,142.8571429,,,120,0,120,0,1,,,,,,,,
,,"[""diamond"",""green"",""vert"",""up"",[-106,106],[0,-150]]",diamond,green,vert,up,"[-106,106]","[0,-150]",up,1,0.7362,,,,,,001,2025-03-10_19h31.51.354,SL_base_41,2021.2.3,Win32,142.8571429,,,121,0,121,0,1,,,,,,,,
,,"[""diamond"",""no_dis"",""vert"",""up"",[99999,99999],[0,150]]",diamond,no_dis,vert,up,"[99999,99999]","[0,150]",up,1,0.6461,,,,,,001,2025-03-10_19h31.51.354,SL_base_41,2021.2.3,Win32,142.8571429,,,122,0,122,0,1,,,,,,,,
,,"[""circle"",""no_dis"",""vert"",""up"",[99999,99999],[106,106]]",circle,no_dis,vert,up,"[99999,99999]","[106,106]",up,1,0.9057,,,,,,001,2025-03-10_19h31.51.354,SL_base_41,2021.2.3,Win32,142.8571429,,,123,0,123,0,1,,,,,,,,
,,"[""circle"",""red"",""hori"",""left"",[106,106],[-106,-106]]",circle,red,hori,left,"[106,106]","[-106,-106]",left,1,1.0344,,,,,,001,2025-03-10_19h31.51.354,SL_base_41,2021.2.3,Win32,142.8571429,,,124,0,124,0,1,,,,,,,,
,,"[""diamond"",""green"",""hori"",""left"",[-106,106],[-106,-106]]",diamond,green,hori,left,"[-106,106]","[-106,-106]",left,1,0.8336,,,,,,001,2025-03-10_19h31.51.354,SL_base_41,2021.2.3,Win32,142.8571429,,,125,0,125,0,1,,,,,,,,
,,"[""circle"",""red"",""vert"",""up"",[150,0],[0,150]]",circle,red,vert,up,"[150,0]","[0,150]",up,1,0.647,,,,,,001,2025-03-10_19h31.51.354,SL_base_41,2021.2.3,Win32,142.8571429,,,126,0,126,0,1,,,,,,,,
,,"[""diamond"",""red"",""vert"",""up"",[0,-150],[0,150]]",diamond,red,vert,up,"[0,-150]","[0,150]",up,1,1.1806,,,,,,001,2025-03-10_19h31.51.354,SL_base_41,2021.2.3,Win32,142.8571429,,,127,0,127,0,1,,,,,,,,
,,,,,,,,,,,,,,,,,001,2025-03-10_19h31.51.354,SL_base_41,2021.2.3,Win32,142.8571429,,,,,,,,1,space,1.7028,0,0,0,0,1
,,"[""circle"",""red"",""vert"",""up"",[150,0],[106,-106]]",circle,red,vert,up,"[150,0]","[106,-106]",up,1,0.9515,,,,,,001,2025-03-10_19h31.51.354,SL_base_41,2021.2.3,Win32,142.8571429,,,0,0,0,0,1,,,,,,,,
,,"[""circle"",""green"",""vert"",""up"",[0,-150],[-106,-106]]",circle,green,vert,up,"[0,-150]","[-106,-106]",up,1,1.2564,,,,,,001,2025-03-10_19h31.51.354,SL_base_41,2021.2.3,Win32,142.8571429,,,1,0,1,0,1,,,,,,,,
,,"[""circle"",""green"",""hori"",""left"",[0,-150],[-106,-106]]",circle,green,hori,left,"[0,-150]","[-106,-106]",left,1,1.0797,,,,,,001,2025-03-10_19h31.51.354,SL_base_41,2021.2.3,Win32,142.8571429,,,2,0,2,0,1,,,,,,,,
,,"[""circle"",""no_dis"",""vert"",""up"",[99999,99999],[150,0]]",circle,no_dis,vert,up,"[99999,99999]","[150,0]",up,1,0.5564,,,,,,001,2025-03-10_19h31.51.354,SL_base_41,2021.2.3,Win32,142.8571429,,,3,0,3,0,1,,,,,,,,
,,"[""diamond"",""green"",""hori"",""left"",[-106,106],[150,0]]",diamond,green,hori,left,"[-106,106]","[150,0]",left,1,2.1941,,,,,,001,2025-03-10_19h31.51.354,SL_base_41,2021.2.3,Win32,142.8571429,,,4,0,4,0,1,,,,,,,,
,,"[""circle"",""no_dis"",""vert"",""up"",[99999,99999],[0,-150]]",circle,no_dis,vert,up,"[99999,99999]","[0,-150]",up,1,0.7794,,,,,,001,2025-03-10_19h31.51.354,SL_base_41,2021.2.3,Win32,142.8571429,,,5,0,5,0,1,,,,,,,,
,,"[""diamond"",""red"",""vert"",""up"",[0,150],[-106,106]]",diamond,red,vert,up,"[0,150]","[-106,106]",up,1,1.049,,,,,,001,2025-03-10_19h31.51.354,SL_base_41,2021.2.3,Win32,142.8571429,,,6,0,6,0,1,,,,,,,,
,,"[""circle"",""green"",""hori"",""left"",[0,150],[-150,0]]",circle,green,hori,left,"[0,150]","[-150,0]",left,1,0.6317,,,,,,001,2025-03-10_19h31.51.354,SL_base_41,2021.2.3,Win32,142.8571429,,,7,0,7,0,1,,,,,,,,
,,"[""diamond"",""no_dis"",""vert"",""up"",[99999,99999],[0,-150]]",diamond,no_dis,vert,up,"[99999,99999]","[0,-150]",up,1,0.9815,,,,,,001,2025-03-10_19h31.51.354,SL_base_41,2021.2.3,Win32,142.8571429,,,8,0,8,0,1,,,,,,,,
,,"[""circle"",""red"",""vert"",""up"",[-106,106],[0,-150]]",circle,red,vert,up,"[-106,106]","[0,-150]",up,1,0.7227,,,,,,001,2025-03-10_19h31.51.354,SL_base_41,2021.2.3,Win32,142.8571429,,,9,0,9,0,1,,,,,,,,
,,"[""circle"",""no_dis"",""hori"",""left"",[99999,99999],[150,0]]",circle,no_dis,hori,left,"[99999,99999]","[150,0]",left,1,0.6043,,,,,,001,2025-03-10_19h31.51.354,SL_base_41,2021.2.3,Win32,142.8571429,,,10,0,10,0,1,,,,,,,,
,,"[""circle"",""red"",""vert"",""up"",[106,-106],[-106,106]]",circle,red,vert,up,"[106,-106]","[-106,106]",up,1,0.9725,,,,,,001,2025-03-10_19h31.51.354,SL_base_41,2021.2.3,Win32,142.8571429,,,11,0,11,0,1,,,,,,,,
,,"[""circle"",""green"",""vert"",""up"",[-106,-106],[-150,0]]",circle,green,vert,up,"[-106,-106]","[-150,0]",up,1,0.7802,,,,,,001,2025-03-10_19h31.51.354,SL_base_41,2021.2.3,Win32,142.8571429,,,12,0,12,0,1,,,,,,,,
,,"[""diamond"",""no_dis"",""hori"",""left"",[99999,99999],[106,-106]]",diamond,no_dis,hori,left,"[99999,99999]","[106,-106]",left,1,0.8776,,,,,,001,2025-03-10_19h31.51.354,SL_base_41,2021.2.3,Win32,142.8571429,,,13,0,13,0,1,,,,,,,,
,,"[""diamond"",""no_dis"",""hori"",""left"",[99999,99999],[-106,106]]",diamond,no_dis,hori,left,"[99999,99999]","[-106,106]",left,1,0.6116,,,,,,001,2025-03-10_19h31.51.354,SL_base_41,2021.2.3,Win32,142.8571429,,,14,0,14,0,1,,,,,,,,
,,"[""diamond"",""green"",""vert"",""up"",[150,0],[0,150]]",diamond,green,vert,up,"[150,0]","[0,150]",up,1,0.7016,,,,,,001,2025-03-10_19h31.51.354,SL_base_41,2021.2.3,Win32,142.8571429,,,15,0,15,0,1,,,,,,,,
,,"[""circle"",""no_dis"",""vert"",""up"",[99999,99999],[106,106]]",circle,no_dis,vert,up,"[99999,99999]","[106,106]",up,1,0.6878,,,,,,001,2025-03-10_19h31.51.354,SL_base_41,2021.2.3,Win32,142.8571429,,,16,0,16,0,1,,,,,,,,
,,"[""diamond"",""green"",""hori"",""left"",[-106,106],[-106,-106]]",diamond,green,hori,left,"[-106,106]","[-106,-106]",left,1,0.7641,,,,,,001,2025-03-10_19h31.51.354,SL_base_41,2021.2.3,Win32,142.8571429,,,17,0,17,0,1,,,,,,,,
,,"[""circle"",""green"",""vert"",""up"",[-106,106],[150,0]]",circle,green,vert,up,"[-106,106]","[150,0]",left,0,0.653,,,,,,001,2025-03-10_19h31.51.354,SL_base_41,2021.2.3,Win32,142.8571429,,,18,0,18,0,1,,,,,,,,
,,"[""diamond"",""green"",""hori"",""left"",[-106,106],[-106,-106]]",diamond,green,hori,left,"[-106,106]","[-106,-106]",left,1,0.7566,,,,,,001,2025-03-10_19h31.51.354,SL_base_41,2021.2.3,Win32,142.8571429,,,19,0,19,0,1,,,,,,,,
,,"[""circle"",""green"",""vert"",""up"",[0,150],[0,-150]]",circle,green,vert,up,"[0,150]","[0,-150]",up,1,0.6803,,,,,,001,2025-03-10_19h31.51.354,SL_base_41,2021.2.3,Win32,142.8571429,,,20,0,20,0,1,,,,,,,,
,,"[""diamond"",""green"",""vert"",""up"",[150,0],[-150,0]]",diamond,green,vert,up,"[150,0]","[-150,0]",up,1,0.6663,,,,,,001,2025-03-10_19h31.51.354,SL_base_41,2021.2.3,Win32,142.8571429,,,21,0,21,0,1,,,,,,,,
,,"[""diamond"",""green"",""vert"",""up"",[-106,106],[0,-150]]",diamond,green,vert,up,"[-106,106]","[0,-150]",up,1,0.6946,,,,,,001,2025-03-10_19h31.51.354,SL_base_41,2021.2.3,Win32,142.8571429,,,22,0,22,0,1,,,,,,,,
,,"[""diamond"",""no_dis"",""vert"",""up"",[99999,99999],[106,-106]]",diamond,no_dis,vert,up,"[99999,99999]","[106,-106]",up,1,0.7921,,,,,,001,2025-03-10_19h31.51.354,SL_base_41,2021.2.3,Win32,142.8571429,,,23,0,23,0,1,,,,,,,,
,,"[""diamond"",""green"",""hori"",""left"",[106,106],[-106,-106]]",diamond,green,hori,left,"[106,106]","[-106,-106]",left,1,0.5366,,,,,,001,2025-03-10_19h31.51.354,SL_base_41,2021.2.3,Win32,142.8571429,,,24,0,24,0,1,,,,,,,,
,,"[""diamond"",""red"",""vert"",""up"",[-150,0],[0,-150]]",diamond,red,vert,up,"[-150,0]","[0,-150]",up,1,0.71,,,,,,001,2025-03-10_19h31.51.354,SL_base_41,2021.2.3,Win32,142.8571429,,,25,0,25,0,1,,,,,,,,
,,"[""diamond"",""green"",""vert"",""up"",[-106,106],[0,150]]",diamond,green,vert,up,"[-106,106]","[0,150]",up,1,0.5976,,,,,,001,2025-03-10_19h31.51.354,SL_base_41,2021.2.3,Win32,142.8571429,,,26,0,26,0,1,,,,,,,,
,,"[""diamond"",""red"",""hori"",""left"",[106,106],[150,0]]",diamond,red,hori,left,"[106,106]","[150,0]",left,1,0.8078,,,,,,001,2025-03-10_19h31.51.354,SL_base_41,2021.2.3,Win32,142.8571429,,,27,0,27,0,1,,,,,,,,
,,"[""circle"",""red"",""vert"",""up"",[150,0],[0,150]]",circle,red,vert,up,"[150,0]","[0,150]",up,1,0.7594,,,,,,001,2025-03-10_19h31.51.354,SL_base_41,2021.2.3,Win32,142.8571429,,,28,0,28,0,1,,,,,,,,
,,"[""diamond"",""red"",""hori"",""left"",[-106,106],[0,-150]]",diamond,red,hori,left,"[-106,106]","[0,-150]",left,1,0.6476,,,,,,001,2025-03-10_19h31.51.354,SL_base_41,2021.2.3,Win32,142.8571429,,,29,0,29,0,1,,,,,,,,
,,"[""diamond"",""red"",""vert"",""up"",[-150,0],[150,0]]",diamond,red,vert,up,"[-150,0]","[150,0]",up,1,0.498,,,,,,001,2025-03-10_19h31.51.354,SL_base_41,2021.2.3,Win32,142.8571429,,,30,0,30,0,1,,,,,,,,
,,"[""circle"",""red"",""hori"",""left"",[-106,106],[-106,-106]]",circle,red,hori,left,"[-106,106]","[-106,-106]",left,1,1.1603,,,,,,001,2025-03-10_19h31.51.354,SL_base_41,2021.2.3,Win32,142.8571429,,,31,0,31,0,1,,,,,,,,
,,"[""circle"",""red"",""hori"",""left"",[150,0],[-106,106]]",circle,red,hori,left,"[150,0]","[-106,106]",left,1,0.731,,,,,,001,2025-03-10_19h31.51.354,SL_base_41,2021.2.3,Win32,142.8571429,,,32,0,32,0,1,,,,,,,,
,,"[""circle"",""red"",""hori"",""left"",[106,-106],[-106,106]]",circle,red,hori,left,"[106,-106]","[-106,106]",left,1,0.8237,,,,,,001,2025-03-10_19h31.51.354,SL_base_41,2021.2.3,Win32,142.8571429,,,33,0,33,0,1,,,,,,,,
,,"[""circle"",""red"",""hori"",""left"",[150,0],[106,-106]]",circle,red,hori,left,"[150,0]","[106,-106]",left,1,0.8599,,,,,,001,2025-03-10_19h31.51.354,SL_base_41,2021.2.3,Win32,142.8571429,,,34,0,34,0,1,,,,,,,,
,,"[""diamond"",""no_dis"",""hori"",""left"",[99999,99999],[0,150]]",diamond,no_dis,hori,left,"[99999,99999]","[0,150]",left,1,0.6361,,,,,,001,2025-03-10_19h31.51.354,SL_base_41,2021.2.3,Win32,142.8571429,,,35,0,35,0,1,,,,,,,,
,,"[""circle"",""green"",""hori"",""left"",[0,-150],[150,0]]",circle,green,hori,left,"[0,-150]","[150,0]",left,1,0.5987,,,,,,001,2025-03-10_19h31.51.354,SL_base_41,2021.2.3,Win32,142.8571429,,,36,0,36,0,1,,,,,,,,
,,"[""circle"",""red"",""vert"",""up"",[-106,106],[150,0]]",circle,red,vert,up,"[-106,106]","[150,0]",up,1,0.6176,,,,,,001,2025-03-10_19h31.51.354,SL_base_41,2021.2.3,Win32,142.8571429,,,37,0,37,0,1,,,,,,,,
,,"[""diamond"",""red"",""hori"",""left"",[-106,-106],[106,106]]",diamond,red,hori,left,"[-106,-106]","[106,106]",left,1,0.9934,,,,,,001,2025-03-10_19h31.51.354,SL_base_41,2021.2.3,Win32,142.8571429,,,38,0,38,0,1,,,,,,,,
,,"[""diamond"",""no_dis"",""vert"",""up"",[99999,99999],[-150,0]]",diamond,no_dis,vert,up,"[99999,99999]","[-150,0]",up,1,0.7705,,,,,,001,2025-03-10_19h31.51.354,SL_base_41,2021.2.3,Win32,142.8571429,,,39,0,39,0,1,,,,,,,,
,,"[""circle"",""green"",""hori"",""left"",[-106,106],[106,106]]",circle,green,hori,left,"[-106,106]","[106,106]",left,1,0.6183,,,,,,001,2025-03-10_19h31.51.354,SL_base_41,2021.2.3,Win32,142.8571429,,,40,0,40,0,1,,,,,,,,
,,"[""circle"",""no_dis"",""vert"",""up"",[99999,99999],[-150,0]]",circle,no_dis,vert,up,"[99999,99999]","[-150,0]",up,1,0.6406,,,,,,001,2025-03-10_19h31.51.354,SL_base_41,2021.2.3,Win32,142.8571429,,,41,0,41,0,1,,,,,,,,
,,"[""circle"",""no_dis"",""hori"",""left"",[99999,99999],[-106,106]]",circle,no_dis,hori,left,"[99999,99999]","[-106,106]",left,1,0.4953,,,,,,001,2025-03-10_19h31.51.354,SL_base_41,2021.2.3,Win32,142.8571429,,,42,0,42,0,1,,,,,,,,
,,"[""circle"",""no_dis"",""vert"",""up"",[99999,99999],[106,106]]",circle,no_dis,vert,up,"[99999,99999]","[106,106]",up,1,0.5274,,,,,,001,2025-03-10_19h31.51.354,SL_base_41,2021.2.3,Win32,142.8571429,,,43,0,43,0,1,,,,,,,,
,,"[""circle"",""red"",""hori"",""left"",[-106,106],[150,0]]",circle,red,hori,left,"[-106,106]","[150,0]",left,1,0.5072,,,,,,001,2025-03-10_19h31.51.354,SL_base_41,2021.2.3,Win32,142.8571429,,,44,0,44,0,1,,,,,,,,
,,"[""circle"",""red"",""vert"",""up"",[0,150],[-150,0]]",circle,red,vert,up,"[0,150]","[-150,0]",up,1,0.7522,,,,,,001,2025-03-10_19h31.51.354,SL_base_41,2021.2.3,Win32,142.8571429,,,45,0,45,0,1,,,,,,,,
,,"[""circle"",""no_dis"",""hori"",""left"",[99999,99999],[0,-150]]",circle,no_dis,hori,left,"[99999,99999]","[0,-150]",left,1,0.6202,,,,,,001,2025-03-10_19h31.51.354,SL_base_41,2021.2.3,Win32,142.8571429,,,46,0,46,0,1,,,,,,,,
,,"[""diamond"",""red"",""hori"",""left"",[-106,106],[106,-106]]",diamond,red,hori,left,"[-106,106]","[106,-106]",left,1,1.0065,,,,,,001,2025-03-10_19h31.51.354,SL_base_41,2021.2.3,Win32,142.8571429,,,47,0,47,0,1,,,,,,,,
,,"[""circle"",""red"",""vert"",""up"",[106,-106],[150,0]]",circle,red,vert,up,"[106,-106]","[150,0]",up,1,0.5002,,,,,,001,2025-03-10_19h31.51.354,SL_base_41,2021.2.3,Win32,142.8571429,,,48,0,48,0,1,,,,,,,,
,,"[""circle"",""no_dis"",""hori"",""left"",[99999,99999],[-106,-106]]",circle,no_dis,hori,left,"[99999,99999]","[-106,-106]",left,1,0.434,,,,,,001,2025-03-10_19h31.51.354,SL_base_41,2021.2.3,Win32,142.8571429,,,49,0,49,0,1,,,,,,,,
,,"[""circle"",""red"",""vert"",""up"",[-106,106],[-106,-106]]",circle,red,vert,up,"[-106,106]","[-106,-106]",up,1,0.6323,,,,,,001,2025-03-10_19h31.51.354,SL_base_41,2021.2.3,Win32,142.8571429,,,50,0,50,0,1,,,,,,,,
,,"[""diamond"",""no_dis"",""vert"",""up"",[99999,99999],[0,150]]",diamond,no_dis,vert,up,"[99999,99999]","[0,150]",up,1,0.5071,,,,,,001,2025-03-10_19h31.51.354,SL_base_41,2021.2.3,Win32,142.8571429,,,51,0,51,0,1,,,,,,,,
,,"[""diamond"",""green"",""vert"",""up"",[-106,106],[-150,0]]",diamond,green,vert,up,"[-106,106]","[-150,0]",up,1,0.6322,,,,,,001,2025-03-10_19h31.51.354,SL_base_41,2021.2.3,Win32,142.8571429,,,52,0,52,0,1,,,,,,,,
,,"[""circle"",""green"",""vert"",""up"",[0,150],[-150,0]]",circle,green,vert,up,"[0,150]","[-150,0]",left,0,0.6323,,,,,,001,2025-03-10_19h31.51.354,SL_base_41,2021.2.3,Win32,142.8571429,,,53,0,53,0,1,,,,,,,,
,,"[""circle"",""red"",""vert"",""up"",[-106,-106],[-106,106]]",circle,red,vert,up,"[-106,-106]","[-106,106]",up,1,0.9252,,,,,,001,2025-03-10_19h31.51.354,SL_base_41,2021.2.3,Win32,142.8571429,,,54,0,54,0,1,,,,,,,,
,,"[""diamond"",""red"",""hori"",""left"",[150,0],[106,106]]",diamond,red,hori,left,"[150,0]","[106,106]",left,1,0.6684,,,,,,001,2025-03-10_19h31.51.354,SL_base_41,2021.2.3,Win32,142.8571429,,,55,0,55,0,1,,,,,,,,
,,"[""circle"",""red"",""hori"",""left"",[-106,106],[106,106]]",circle,red,hori,left,"[-106,106]","[106,106]",left,1,0.7086,,,,,,001,2025-03-10_19h31.51.354,SL_base_41,2021.2.3,Win32,142.8571429,,,56,0,56,0,1,,,,,,,,
,,"[""diamond"",""red"",""vert"",""up"",[-106,106],[-106,-106]]",diamond,red,vert,up,"[-106,106]","[-106,-106]",up,1,1.063,,,,,,001,2025-03-10_19h31.51.354,SL_base_41,2021.2.3,Win32,142.8571429,,,57,0,57,0,1,,,,,,,,
,,"[""circle"",""green"",""hori"",""left"",[0,150],[150,0]]",circle,green,hori,left,"[0,150]","[150,0]",left,1,1.4239,,,,,,001,2025-03-10_19h31.51.354,SL_base_41,2021.2.3,Win32,142.8571429,,,58,0,58,0,1,,,,,,,,
,,"[""circle"",""red"",""vert"",""up"",[-106,106],[106,106]]",circle,red,vert,up,"[-106,106]","[106,106]",up,1,0.6252,,,,,,001,2025-03-10_19h31.51.354,SL_base_41,2021.2.3,Win32,142.8571429,,,59,0,59,0,1,,,,,,,,
,,"[""diamond"",""red"",""vert"",""up"",[-106,106],[-106,-106]]",diamond,red,vert,up,"[-106,106]","[-106,-106]",up,1,0.8204,,,,,,001,2025-03-10_19h31.51.354,SL_base_41,2021.2.3,Win32,142.8571429,,,60,0,60,0,1,,,,,,,,
,,"[""diamond"",""red"",""hori"",""left"",[106,-106],[0,-150]]",diamond,red,hori,left,"[106,-106]","[0,-150]",left,1,1.1044,,,,,,001,2025-03-10_19h31.51.354,SL_base_41,2021.2.3,Win32,142.8571429,,,61,0,61,0,1,,,,,,,,
,,"[""diamond"",""red"",""vert"",""up"",[0,-150],[0,150]]",diamond,red,vert,up,"[0,-150]","[0,150]",up,1,0.6179,,,,,,001,2025-03-10_19h31.51.354,SL_base_41,2021.2.3,Win32,142.8571429,,,62,0,62,0,1,,,,,,,,
,,"[""diamond"",""no_dis"",""hori"",""left"",[99999,99999],[-106,-106]]",diamond,no_dis,hori,left,"[99999,99999]","[-106,-106]",left,1,0.6048,,,,,,001,2025-03-10_19h31.51.354,SL_base_41,2021.2.3,Win32,142.8571429,,,63,0,63,0,1,,,,,,,,
,,"[""diamond"",""red"",""hori"",""left"",[-106,106],[106,106]]",diamond,red,hori,left,"[-106,106]","[106,106]",left,1,0.7851,,,,,,001,2025-03-10_19h31.51.354,SL_base_41,2021.2.3,Win32,142.8571429,,,64,0,64,0,1,,,,,,,,
,,"[""circle"",""green"",""vert"",""up"",[-106,106],[-150,0]]",circle,green,vert,up,"[-106,106]","[-150,0]",up,1,0.7919,,,,,,001,2025-03-10_19h31.51.354,SL_base_41,2021.2.3,Win32,142.8571429,,,65,0,65,0,1,,,,,,,,
,,"[""circle"",""no_dis"",""vert"",""up"",[99999,99999],[-106,-106]]",circle,no_dis,vert,up,"[99999,99999]","[-106,-106]",up,1,0.9654,,,,,,001,2025-03-10_19h31.51.354,SL_base_41,2021.2.3,Win32,142.8571429,,,66,0,66,0,1,,,,,,,,
,,"[""circle"",""red"",""vert"",""up"",[0,-150],[0,150]]",circle,red,vert,up,"[0,-150]","[0,150]",up,1,0.5554,,,,,,001,2025-03-10_19h31.51.354,SL_base_41,2021.2.3,Win32,142.8571429,,,67,0,67,0,1,,,,,,,,
,,"[""diamond"",""green"",""vert"",""up"",[-150,0],[-106,106]]",diamond,green,vert,up,"[-150,0]","[-106,106]",up,1,1.5652,,,,,,001,2025-03-10_19h31.51.354,SL_base_41,2021.2.3,Win32,142.8571429,,,68,0,68,0,1,,,,,,,,
,,"[""diamond"",""red"",""vert"",""up"",[150,0],[-106,106]]",diamond,red,vert,up,"[150,0]","[-106,106]",up,1,0.7671,,,,,,001,2025-03-10_19h31.51.354,SL_base_41,2021.2.3,Win32,142.8571429,,,69,0,69,0,1,,,,,,,,
,,"[""diamond"",""green"",""vert"",""up"",[-106,106],[-150,0]]",diamond,green,vert,up,"[-106,106]","[-150,0]",up,1,0.7506,,,,,,001,2025-03-10_19h31.51.354,SL_base_41,2021.2.3,Win32,142.8571429,,,70,0,70,0,1,,,,,,,,
,,"[""diamond"",""red"",""vert"",""up"",[-106,106],[-106,-106]]",diamond,red,vert,up,"[-106,106]","[-106,-106]",up,1,0.7085,,,,,,001,2025-03-10_19h31.51.354,SL_base_41,2021.2.3,Win32,142.8571429,,,71,0,71,0,1,,,,,,,,
,,"[""diamond"",""red"",""hori"",""left"",[0,150],[0,-150]]",diamond,red,hori,left,"[0,150]","[0,-150]",left,1,0.7295,,,,,,001,2025-03-10_19h31.51.354,SL_base_41,2021.2.3,Win32,142.8571429,,,72,0,72,0,1,,,,,,,,
,,"[""circle"",""no_dis"",""hori"",""left"",[99999,99999],[150,0]]",circle,no_dis,hori,left,"[99999,99999]","[150,0]",left,1,0.6108,,,,,,001,2025-03-10_19h31.51.354,SL_base_41,2021.2.3,Win32,142.8571429,,,73,0,73,0,1,,,,,,,,
,,"[""circle"",""green"",""vert"",""up"",[-150,0],[-106,106]]",circle,green,vert,up,"[-150,0]","[-106,106]",up,1,0.6491,,,,,,001,2025-03-10_19h31.51.354,SL_base_41,2021.2.3,Win32,142.8571429,,,74,0,74,0,1,,,,,,,,
,,"[""circle"",""green"",""vert"",""up"",[-150,0],[-106,-106]]",circle,green,vert,up,"[-150,0]","[-106,-106]",up,1,0.9517,,,,,,001,2025-03-10_19h31.51.354,SL_base_41,2021.2.3,Win32,142.8571429,,,75,0,75,0,1,,,,,,,,
,,"[""circle"",""red"",""hori"",""left"",[-106,106],[106,106]]",circle,red,hori,left,"[-106,106]","[106,106]",left,1,0.6251,,,,,,001,2025-03-10_19h31.51.354,SL_base_41,2021.2.3,Win32,142.8571429,,,76,0,76,0,1,,,,,,,,
,,"[""diamond"",""green"",""vert"",""up"",[106,106],[-150,0]]",diamond,green,vert,up,"[106,106]","[-150,0]",up,1,0.66,,,,,,001,2025-03-10_19h31.51.354,SL_base_41,2021.2.3,Win32,142.8571429,,,77,0,77,0,1,,,,,,,,
,,"[""diamond"",""red"",""vert"",""up"",[-106,-106],[-150,0]]",diamond,red,vert,up,"[-106,-106]","[-150,0]",left,0,0.6504,,,,,,001,2025-03-10_19h31.51.354,SL_base_41,2021.2.3,Win32,142.8571429,,,78,0,78,0,1,,,,,,,,
,,"[""circle"",""no_dis"",""hori"",""left"",[99999,99999],[-106,-106]]",circle,no_dis,hori,left,"[99999,99999]","[-106,-106]",left,1,0.5519,,,,,,001,2025-03-10_19h31.51.354,SL_base_41,2021.2.3,Win32,142.8571429,,,79,0,79,0,1,,,,,,,,
,,"[""circle"",""no_dis"",""hori"",""left"",[99999,99999],[-150,0]]",circle,no_dis,hori,left,"[99999,99999]","[-150,0]",left,1,0.5283,,,,,,001,2025-03-10_19h31.51.354,SL_base_41,2021.2.3,Win32,142.8571429,,,80,0,80,0,1,,,,,,,,
,,"[""circle"",""no_dis"",""vert"",""up"",[99999,99999],[-150,0]]",circle,no_dis,vert,up,"[99999,99999]","[-150,0]",up,1,0.7148,,,,,,001,2025-03-10_19h31.51.354,SL_base_41,2021.2.3,Win32,142.8571429,,,81,0,81,0,1,,,,,,,,
,,"[""circle"",""green"",""vert"",""up"",[-150,0],[150,0]]",circle,green,vert,up,"[-150,0]","[150,0]",up,1,0.4652,,,,,,001,2025-03-10_19h31.51.354,SL_base_41,2021.2.3,Win32,142.8571429,,,82,0,82,0,1,,,,,,,,
,,"[""diamond"",""red"",""hori"",""left"",[0,-150],[150,0]]",diamond,red,hori,left,"[0,-150]","[150,0]",left,1,1.4322,,,,,,001,2025-03-10_19h31.51.354,SL_base_41,2021.2.3,Win32,142.8571429,,,83,0,83,0,1,,,,,,,,
,,"[""circle"",""green"",""hori"",""left"",[0,-150],[-150,0]]",circle,green,hori,left,"[0,-150]","[-150,0]",left,1,0.5901,,,,,,001,2025-03-10_19h31.51.354,SL_base_41,2021.2.3,Win32,142.8571429,,,84,0,84,0,1,,,,,,,,
,,"[""diamond"",""red"",""vert"",""up"",[106,106],[0,150]]",diamond,red,vert,up,"[106,106]","[0,150]",up,1,0.8546,,,,,,001,2025-03-10_19h31.51.354,SL_base_41,2021.2.3,Win32,142.8571429,,,85,0,85,0,1,,,,,,,,
,,"[""diamond"",""green"",""vert"",""up"",[-106,106],[106,-106]]",diamond,green,vert,up,"[-106,106]","[106,-106]",up,1,0.8246,,,,,,001,2025-03-10_19h31.51.354,SL_base_41,2021.2.3,Win32,142.8571429,,,86,0,86,0,1,,,,,,,,
,,"[""circle"",""no_dis"",""hori"",""left"",[99999,99999],[106,-106]]",circle,no_dis,hori,left,"[99999,99999]","[106,-106]",left,1,0.7557,,,,,,001,2025-03-10_19h31.51.354,SL_base_41,2021.2.3,Win32,142.8571429,,,87,0,87,0,1,,,,,,,,
,,"[""diamond"",""no_dis"",""vert"",""up"",[99999,99999],[0,150]]",diamond,no_dis,vert,up,"[99999,99999]","[0,150]",up,1,0.4794,,,,,,001,2025-03-10_19h31.51.354,SL_base_41,2021.2.3,Win32,142.8571429,,,88,0,88,0,1,,,,,,,,
,,"[""circle"",""green"",""hori"",""left"",[-106,-106],[-150,0]]",circle,green,hori,left,"[-106,-106]","[-150,0]",left,1,0.728,,,,,,001,2025-03-10_19h31.51.354,SL_base_41,2021.2.3,Win32,142.8571429,,,89,0,89,0,1,,,,,,,,
,,"[""diamond"",""green"",""hori"",""left"",[106,106],[-106,106]]",diamond,green,hori,left,"[106,106]","[-106,106]",left,1,0.9947,,,,,,001,2025-03-10_19h31.51.354,SL_base_41,2021.2.3,Win32,142.8571429,,,90,0,90,0,1,,,,,,,,
,,"[""diamond"",""no_dis"",""vert"",""up"",[99999,99999],[-106,106]]",diamond,no_dis,vert,up,"[99999,99999]","[-106,106]",up,1,0.7512,,,,,,001,2025-03-10_19h31.51.354,SL_base_41,2021.2.3,Win32,142.8571429,,,91,0,91,0,1,,,,,,,,
,,"[""circle"",""green"",""vert"",""up"",[-106,106],[0,-150]]",circle,green,vert,up,"[-106,106]","[0,-150]",up,1,0.6098,,,,,,001,2025-03-10_19h31.51.354,SL_base_41,2021.2.3,Win32,142.8571429,,,92,0,92,0,1,,,,,,,,
,,"[""diamond"",""green"",""hori"",""left"",[-106,106],[-150,0]]",diamond,green,hori,left,"[-106,106]","[-150,0]",left,1,0.8094,,,,,,001,2025-03-10_19h31.51.354,SL_base_41,2021.2.3,Win32,142.8571429,,,93,0,93,0,1,,,,,,,,
,,"[""circle"",""no_dis"",""hori"",""left"",[99999,99999],[106,106]]",circle,no_dis,hori,left,"[99999,99999]","[106,106]",left,1,0.5562,,,,,,001,2025-03-10_19h31.51.354,SL_base_41,2021.2.3,Win32,142.8571429,,,94,0,94,0,1,,,,,,,,
,,"[""diamond"",""no_dis"",""hori"",""left"",[99999,99999],[106,-106]]",diamond,no_dis,hori,left,"[99999,99999]","[106,-106]",left,1,1.0488,,,,,,001,2025-03-10_19h31.51.354,SL_base_41,2021.2.3,Win32,142.8571429,,,95,0,95,0,1,,,,,,,,
,,"[""circle"",""red"",""hori"",""left"",[-150,0],[106,106]]",circle,red,hori,left,"[-150,0]","[106,106]",left,1,0.8015,,,,,,001,2025-03-10_19h31.51.354,SL_base_41,2021.2.3,Win32,142.8571429,,,96,0,96,0,1,,,,,,,,
,,"[""circle"",""red"",""hori"",""left"",[106,106],[-106,-106]]",circle,red,hori,left,"[106,106]","[-106,-106]",left,1,1.1813,,,,,,001,2025-03-10_19h31.51.354,SL_base_41,2021.2.3,Win32,142.8571429,,,97,0,97,0,1,,,,,,,,
,,"[""diamond"",""green"",""hori"",""left"",[106,-106],[0,-150]]",diamond,green,hori,left,"[106,-106]","[0,-150]",left,1,1.1957,,,,,,001,2025-03-10_19h31.51.354,SL_base_41,2021.2.3,Win32,142.8571429,,,98,0,98,0,1,,,,,,,,
,,"[""circle"",""no_dis"",""vert"",""up"",[99999,99999],[-106,-106]]",circle,no_dis,vert,up,"[99999,99999]","[-106,-106]",up,1,0.6521,,,,,,001,2025-03-10_19h31.51.354,SL_base_41,2021.2.3,Win32,142.8571429,,,99,0,99,0,1,,,,,,,,
,,"[""diamond"",""green"",""hori"",""left"",[-106,106],[106,-106]]",diamond,green,hori,left,"[-106,106]","[106,-106]",left,1,0.6739,,,,,,001,2025-03-10_19h31.51.354,SL_base_41,2021.2.3,Win32,142.8571429,,,100,0,100,0,1,,,,,,,,
,,"[""diamond"",""red"",""hori"",""left"",[106,-106],[0,-150]]",diamond,red,hori,left,"[106,-106]","[0,-150]",left,1,0.5766,,,,,,001,2025-03-10_19h31.51.354,SL_base_41,2021.2.3,Win32,142.8571429,,,101,0,101,0,1,,,,,,,,
,,"[""diamond"",""no_dis"",""hori"",""left"",[99999,99999],[106,106]]",diamond,no_dis,hori,left,"[99999,99999]","[106,106]",left,1,0.8593,,,,,,001,2025-03-10_19h31.51.354,SL_base_41,2021.2.3,Win32,142.8571429,,,102,0,102,0,1,,,,,,,,
,,"[""diamond"",""no_dis"",""vert"",""up"",[99999,99999],[150,0]]",diamond,no_dis,vert,up,"[99999,99999]","[150,0]",up,1,0.6518,,,,,,001,2025-03-10_19h31.51.354,SL_base_41,2021.2.3,Win32,142.8571429,,,103,0,103,0,1,,,,,,,,
,,"[""circle"",""no_dis"",""hori"",""left"",[99999,99999],[-106,106]]",circle,no_dis,hori,left,"[99999,99999]","[-106,106]",left,1,0.771,,,,,,001,2025-03-10_19h31.51.354,SL_base_41,2021.2.3,Win32,142.8571429,,,104,0,104,0,1,,,,,,,,
,,"[""diamond"",""green"",""hori"",""left"",[-106,106],[-106,-106]]",diamond,green,hori,left,"[-106,106]","[-106,-106]",left,1,1.0436,,,,,,001,2025-03-10_19h31.51.354,SL_base_41,2021.2.3,Win32,142.8571429,,,105,0,105,0,1,,,,,,,,
,,"[""diamond"",""green"",""vert"",""up"",[-106,-106],[0,-150]]",diamond,green,vert,up,"[-106,-106]","[0,-150]",up,1,0.799,,,,,,001,2025-03-10_19h31.51.354,SL_base_41,2021.2.3,Win32,142.8571429,,,106,0,106,0,1,,,,,,,,
,,"[""circle"",""no_dis"",""vert"",""up"",[99999,99999],[-150,0]]",circle,no_dis,vert,up,"[99999,99999]","[-150,0]",up,1,0.5871,,,,,,001,2025-03-10_19h31.51.354,SL_base_41,2021.2.3,Win32,142.8571429,,,107,0,107,0,1,,,,,,,,
,,"[""diamond"",""green"",""vert"",""up"",[-106,106],[106,-106]]",diamond,green,vert,up,"[-106,106]","[106,-106]",up,1,0.9161,,,,,,001,2025-03-10_19h31.51.354,SL_base_41,2021.2.3,Win32,142.8571429,,,108,0,108,0,1,,,,,,,,
,,"[""diamond"",""no_dis"",""vert"",""up"",[99999,99999],[106,-106]]",diamond,no_dis,vert,up,"[99999,99999]","[106,-106]",up,1,0.5991,,,,,,001,2025-03-10_19h31.51.354,SL_base_41,2021.2.3,Win32,142.8571429,,,109,0,109,0,1,,,,,,,,
,,"[""circle"",""green"",""hori"",""left"",[-106,-106],[150,0]]",circle,green,hori,left,"[-106,-106]","[150,0]",left,1,1.1392,,,,,,001,2025-03-10_19h31.51.354,SL_base_41,2021.2.3,Win32,142.8571429,,,110,0,110,0,1,,,,,,,,
,,"[""diamond"",""green"",""hori"",""left"",[0,150],[106,-106]]",diamond,green,hori,left,"[0,150]","[106,-106]",left,1,0.6245,,,,,,001,2025-03-10_19h31.51.354,SL_base_41,2021.2.3,Win32,142.8571429,,,111,0,111,0,1,,,,,,,,
,,"[""circle"",""red"",""hori"",""left"",[106,106],[-150,0]]",circle,red,hori,left,"[106,106]","[-150,0]",left,1,1.244,,,,,,001,2025-03-10_19h31.51.354,SL_base_41,2021.2.3,Win32,142.8571429,,,112,0,112,0,1,,,,,,,,
,,"[""diamond"",""no_dis"",""hori"",""left"",[99999,99999],[0,-150]]",diamond,no_dis,hori,left,"[99999,99999]","[0,-150]",left,1,0.6877,,,,,,001,2025-03-10_19h31.51.354,SL_base_41,2021.2.3,Win32,142.8571429,,,113,0,113,0,1,,,,,,,,
,,"[""diamond"",""no_dis"",""hori"",""left"",[99999,99999],[0,150]]",diamond,no_dis,hori,left,"[99999,99999]","[0,150]",left,1,0.6705,,,,,,001,2025-03-10_19h31.51.354,SL_base_41,2021.2.3,Win32,142.8571429,,,114,0,114,0,1,,,,,,,,
,,"[""circle"",""green"",""hori"",""left"",[0,-150],[-106,106]]",circle,green,hori,left,"[0,-150]","[-106,106]",left,1,0.8264,,,,,,001,2025-03-10_19h31.51.354,SL_base_41,2021.2.3,Win32,142.8571429,,,115,0,115,0,1,,,,,,,,
,,"[""diamond"",""no_dis"",""hori"",""left"",[99999,99999],[-106,106]]",diamond,no_dis,hori,left,"[99999,99999]","[-106,106]",left,1,0.5274,,,,,,001,2025-03-10_19h31.51.354,SL_base_41,2021.2.3,Win32,142.8571429,,,116,0,116,0,1,,,,,,,,
,,"[""circle"",""green"",""hori"",""left"",[-106,106],[106,106]]",circle,green,hori,left,"[-106,106]","[106,106]",left,1,0.521,,,,,,001,2025-03-10_19h31.51.354,SL_base_41,2021.2.3,Win32,142.8571429,,,117,0,117,0,1,,,,,,,,
,,"[""diamond"",""red"",""hori"",""left"",[106,-106],[106,106]]",diamond,red,hori,left,"[106,-106]","[106,106]",left,1,0.9169,,,,,,001,2025-03-10_19h31.51.354,SL_base_41,2021.2.3,Win32,142.8571429,,,118,0,118,0,1,,,,,,,,
,,"[""diamond"",""red"",""vert"",""up"",[-106,-106],[0,150]]",diamond,red,vert,up,"[-106,-106]","[0,150]",up,1,0.7989,,,,,,001,2025-03-10_19h31.51.354,SL_base_41,2021.2.3,Win32,142.8571429,,,119,0,119,0,1,,,,,,,,
,,"[""diamond"",""no_dis"",""hori"",""left"",[99999,99999],[0,150]]",diamond,no_dis,hori,left,"[99999,99999]","[0,150]",left,1,0.4727,,,,,,001,2025-03-10_19h31.51.354,SL_base_41,2021.2.3,Win32,142.8571429,,,120,0,120,0,1,,,,,,,,
,,"[""diamond"",""no_dis"",""vert"",""up"",[99999,99999],[106,106]]",diamond,no_dis,vert,up,"[99999,99999]","[106,106]",left,0,0.764,,,,,,001,2025-03-10_19h31.51.354,SL_base_41,2021.2.3,Win32,142.8571429,,,121,0,121,0,1,,,,,,,,
,,"[""circle"",""green"",""vert"",""up"",[-150,0],[106,-106]]",circle,green,vert,up,"[-150,0]","[106,-106]",up,1,0.729,,,,,,001,2025-03-10_19h31.51.354,SL_base_41,2021.2.3,Win32,142.8571429,,,122,0,122,0,1,,,,,,,,
,,"[""diamond"",""green"",""hori"",""left"",[-106,106],[150,0]]",diamond,green,hori,left,"[-106,106]","[150,0]",left,1,0.5294,,,,,,001,2025-03-10_19h31.51.354,SL_base_41,2021.2.3,Win32,142.8571429,,,123,0,123,0,1,,,,,,,,
,,"[""circle"",""green"",""hori"",""left"",[106,-106],[106,106]]",circle,green,hori,left,"[106,-106]","[106,106]",left,1,0.6188,,,,,,001,2025-03-10_19h31.51.354,SL_base_41,2021.2.3,Win32,142.8571429,,,124,0,124,0,1,,,,,,,,
,,"[""circle"",""no_dis"",""vert"",""up"",[99999,99999],[0,-150]]",circle,no_dis,vert,up,"[99999,99999]","[0,-150]",up,1,0.5798,,,,,,001,2025-03-10_19h31.51.354,SL_base_41,2021.2.3,Win32,142.8571429,,,125,0,125,0,1,,,,,,,,
,,"[""circle"",""red"",""hori"",""left"",[106,106],[-106,106]]",circle,red,hori,left,"[106,106]","[-106,106]",left,1,0.9855,,,,,,001,2025-03-10_19h31.51.354,SL_base_41,2021.2.3,Win32,142.8571429,,,126,0,126,0,1,,,,,,,,
,,"[""diamond"",""no_dis"",""vert"",""up"",[99999,99999],[150,0]]",diamond,no_dis,vert,up,"[99999,99999]","[150,0]",up,1,0.9428,,,,,,001,2025-03-10_19h31.51.354,SL_base_41,2021.2.3,Win32,142.8571429,,,127,0,127,0,1,,,,,,,,
,,,,,,,,,,,,,,,,,001,2025-03-10_19h31.51.354,SL_base_41,2021.2.3,Win32,142.8571429,,,,,,,,2,space,1.1735,1,0,1,0,1
,,"[""circle"",""red"",""hori"",""left"",[-106,106],[-106,-106]]",circle,red,hori,left,"[-106,106]","[-106,-106]",left,1,0.9851,,,,,,001,2025-03-10_19h31.51.354,SL_base_41,2021.2.3,Win32,142.8571429,,,0,0,0,0,1,,,,,,,,
,,"[""diamond"",""no_dis"",""hori"",""left"",[99999,99999],[-106,106]]",diamond,no_dis,hori,left,"[99999,99999]","[-106,106]",left,1,0.7647,,,,,,001,2025-03-10_19h31.51.354,SL_base_41,2021.2.3,Win32,142.8571429,,,1,0,1,0,1,,,,,,,,
,,"[""circle"",""no_dis"",""hori"",""left"",[99999,99999],[-106,-106]]",circle,no_dis,hori,left,"[99999,99999]","[-106,-106]",left,1,0.5512,,,,,,001,2025-03-10_19h31.51.354,SL_base_41,2021.2.3,Win32,142.8571429,,,2,0,2,0,1,,,,,,,,
,,"[""diamond"",""green"",""hori"",""left"",[-106,106],[150,0]]",diamond,green,hori,left,"[-106,106]","[150,0]",left,1,0.6552,,,,,,001,2025-03-10_19h31.51.354,SL_base_41,2021.2.3,Win32,142.8571429,,,3,0,3,0,1,,,,,,,,
,,"[""diamond"",""red"",""hori"",""left"",[-106,106],[106,106]]",diamond,red,hori,left,"[-106,106]","[106,106]",left,1,1.1589,,,,,,001,2025-03-10_19h31.51.354,SL_base_41,2021.2.3,Win32,142.8571429,,,4,0,4,0,1,,,,,,,,
,,"[""diamond"",""no_dis"",""hori"",""left"",[99999,99999],[-106,106]]",diamond,no_dis,hori,left,"[99999,99999]","[-106,106]",left,1,0.5756,,,,,,001,2025-03-10_19h31.51.354,SL_base_41,2021.2.3,Win32,142.8571429,,,5,0,5,0,1,,,,,,,,
,,"[""circle"",""green"",""hori"",""left"",[0,150],[-150,0]]",circle,green,hori,left,"[0,150]","[-150,0]",left,1,0.807,,,,,,001,2025-03-10_19h31.51.354,SL_base_41,2021.2.3,Win32,142.8571429,,,6,0,6,0,1,,,,,,,,
,,"[""circle"",""red"",""hori"",""left"",[106,106],[-106,106]]",circle,red,hori,left,"[106,106]","[-106,106]",up,0,0.6912,,,,,,001,2025-03-10_19h31.51.354,SL_base_41,2021.2.3,Win32,142.8571429,,,7,0,7,0,1,,,,,,,,
,,"[""circle"",""green"",""vert"",""up"",[0,150],[-150,0]]",circle,green,vert,up,"[0,150]","[-150,0]",up,1,1.1945,,,,,,001,2025-03-10_19h31.51.354,SL_base_41,2021.2.3,Win32,142.8571429,,,8,0,8,0,1,,,,,,,,
,,"[""diamond"",""no_dis"",""hori"",""left"",[99999,99999],[0,150]]",diamond,no_dis,hori,left,"[99999,99999]","[0,150]",left,1,2.2026,,,,,,001,2025-03-10_19h31.51.354,SL_base_41,2021.2.3,Win32,142.8571429,,,9,0,9,0,1,,,,,,,,
,,"[""diamond"",""red"",""hori"",""left"",[106,106],[150,0]]",diamond,red,hori,left,"[106,106]","[150,0]",left,1,1.9565,,,,,,001,2025-03-10_19h31.51.354,SL_base_41,2021.2.3,Win32,142.8571429,,,10,0,10,0,1,,,,,,,,
,,"[""diamond"",""no_dis"",""hori"",""left"",[99999,99999],[0,-150]]",diamond,no_dis,hori,left,"[99999,99999]","[0,-150]",left,1,0.6756,,,,,,001,2025-03-10_19h31.51.354,SL_base_41,2021.2.3,Win32,142.8571429,,,11,0,11,0,1,,,,,,,,
,,"[""diamond"",""no_dis"",""vert"",""up"",[99999,99999],[150,0]]",diamond,no_dis,vert,up,"[99999,99999]","[150,0]",up,1,0.6271,,,,,,001,2025-03-10_19h31.51.354,SL_base_41,2021.2.3,Win32,142.8571429,,,12,0,12,0,1,,,,,,,,
,,"[""diamond"",""green"",""vert"",""up"",[150,0],[0,150]]",diamond,green,vert,up,"[150,0]","[0,150]",up,1,0.6952,,,,,,001,2025-03-10_19h31.51.354,SL_base_41,2021.2.3,Win32,142.8571429,,,13,0,13,0,1,,,,,,,,
,,"[""diamond"",""no_dis"",""hori"",""left"",[99999,99999],[106,-106]]",diamond,no_dis,hori,left,"[99999,99999]","[106,-106]",left,1,0.6183,,,,,,001,2025-03-10_19h31.51.354,SL_base_41,2021.2.3,Win32,142.8571429,,,14,0,14,0,1,,,,,,,,
,,"[""circle"",""no_dis"",""hori"",""left"",[99999,99999],[-106,106]]",circle,no_dis,hori,left,"[99999,99999]","[-106,106]",left,1,1.0489,,,,,,001,2025-03-10_19h31.51.354,SL_base_41,2021.2.3,Win32,142.8571429,,,15,0,15,0,1,,,,,,,,
,,"[""circle"",""no_dis"",""hori"",""left"",[99999,99999],[150,0]]",circle,no_dis,hori,left,"[99999,99999]","[150,0]",left,1,0.5385,,,,,,001,2025-03-10_19h31.51.354,SL_base_41,2021.2.3,Win32,142.8571429,,,16,0,16,0,1,,,,,,,,
,,"[""diamond"",""red"",""vert"",""up"",[-106,106],[-106,-106]]",diamond,red,vert,up,"[-106,106]","[-106,-106]",up,1,0.7921,,,,,,001,2025-03-10_19h31.51.354,SL_base_41,2021.2.3,Win32,142.8571429,,,17,0,17,0,1,,,,,,,,
,,"[""diamond"",""red"",""vert"",""up"",[-106,-106],[0,150]]",diamond,red,vert,up,"[-106,-106]","[0,150]",up,1,0.6691,,,,,,001,2025-03-10_19h31.51.354,SL_base_41,2021.2.3,Win32,142.8571429,,,18,0,18,0,1,,,,,,,,
,,"[""circle"",""red"",""hori"",""left"",[150,0],[-106,106]]",circle,red,hori,left,"[150,0]","[-106,106]",left,1,0.7935,,,,,,001,2025-03-10_19h31.51.354,SL_base_41,2021.2.3,Win32,142.8571429,,,19,0,19,0,1,,,,,,,,
,,"[""diamond"",""no_dis"",""vert"",""up"",[99999,99999],[-106,106]]",diamond,no_dis,vert,up,"[99999,99999]","[-106,106]",up,1,0.7248,,,,,,001,2025-03-10_19h31.51.354,SL_base_41,2021.2.3,Win32,142.8571429,,,20,0,20,0,1,,,,,,,,
,,"[""diamond"",""no_dis"",""vert"",""up"",[99999,99999],[150,0]]",diamond,no_dis,vert,up,"[99999,99999]","[150,0]",up,1,0.6878,,,,,,001,2025-03-10_19h31.51.354,SL_base_41,2021.2.3,Win32,142.8571429,,,21,0,21,0,1,,,,,,,,
,,"[""circle"",""green"",""vert"",""up"",[-150,0],[-106,106]]",circle,green,vert,up,"[-150,0]","[-106,106]",up,1,1.0002,,,,,,001,2025-03-10_19h31.51.354,SL_base_41,2021.2.3,Win32,142.8571429,,,22,0,22,0,1,,,,,,,,
,,"[""circle"",""no_dis"",""hori"",""left"",[99999,99999],[-106,-106]]",circle,no_dis,hori,left,"[99999,99999]","[-106,-106]",left,1,0.7318,,,,,,001,2025-03-10_19h31.51.354,SL_base_41,2021.2.3,Win32,142.8571429,,,23,0,23,0,1,,,,,,,,
,,"[""circle"",""red"",""hori"",""left"",[150,0],[106,-106]]",circle,red,hori,left,"[150,0]","[106,-106]",up,0,0.7243,,,,,,001,2025-03-10_19h31.51.354,SL_base_41,2021.2.3,Win32,142.8571429,,,24,0,24,0,1,,,,,,,,
,,"[""diamond"",""green"",""vert"",""up"",[-106,106],[0,150]]",diamond,green,vert,up,"[-106,106]","[0,150]",up,1,0.7933,,,,,,001,2025-03-10_19h31.51.354,SL_base_41,2021.2.3,Win32,142.8571429,,,25,0,25,0,1,,,,,,,,
,,"[""circle"",""red"",""hori"",""left"",[-106,106],[106,106]]",circle,red,hori,left,"[-106,106]","[106,106]",left,1,1.3224,,,,,,001,2025-03-10_19h31.51.354,SL_base_41,2021.2.3,Win32,142.8571429,,,26,0,26,0,1,,,,,,,,
,,"[""diamond"",""red"",""hori"",""left"",[-106,106],[0,-150]]",diamond,red,hori,left,"[-106,106]","[0,-150]",left,1,1.3335,,,,,,001,2025-03-10_19h31.51.354,SL_base_41,2021.2.3,Win32,142.8571429,,,27,0,27,0,1,,,,,,,,
,,"[""diamond"",""no_dis"",""hori"",""left"",[99999,99999],[106,106]]",diamond,no_dis,hori,left,"[99999,99999]","[106,106]",left,1,0.7602,,,,,,001,2025-03-10_19h31.51.354,SL_base_41,2021.2.3,Win32,142.8571429,,,28,0,28,0,1,,,,,,,,
,,"[""circle"",""red"",""vert"",""up"",[-106,106],[0,-150]]",circle,red,vert,up,"[-106,106]","[0,-150]",up,1,1.1616,,,,,,001,2025-03-10_19h31.51.354,SL_base_41,2021.2.3,Win32,142.8571429,,,29,0,29,0,1,,,,,,,,
,,"[""diamond"",""red"",""vert"",""up"",[-150,0],[150,0]]",diamond,red,vert,up,"[-150,0]","[150,0]",up,1,0.8091,,,,,,001,2025-03-10_19h31.51.354,SL_base_41,2021.2.3,Win32,142.8571429,,,30,0,30,0,1,,,,,,,,
,,"[""diamond"",""green"",""vert"",""up"",[-106,106],[0,-150]]",diamond,green,vert,up,"[-106,106]","[0,-150]",up,1,0.6318,,,,,,001,2025-03-10_19h31.51.354,SL_base_41,2021.2.3,Win32,142.8571429,,,31,0,31,0,1,,,,,,,,
,,"[""diamond"",""red"",""hori"",""left"",[0,150],[0,-150]]",diamond,red,hori,left,"[0,150]","[0,-150]",left,1,0.8405,,,,,,001,2025-03-10_19h31.51.354,SL_base_41,2021.2.3,Win32,142.8571429,,,32,0,32,0,1,,,,,,,,
,,"[""diamond"",""green"",""hori"",""left"",[-106,106],[-106,-106]]",diamond,green,hori,left,"[-106,106]","[-106,-106]",left,1,0.9998,,,,,,001,2025-03-10_19h31.51.354,SL_base_41,2021.2.3,Win32,142.8571429,,,33,0,33,0,1,,,,,,,,
,,"[""circle"",""red"",""vert"",""up"",[106,-106],[150,0]]",circle,red,vert,up,"[106,-106]","[150,0]",up,1,1.211,,,,,,001,2025-03-10_19h31.51.354,SL_base_41,2021.2.3,Win32,142.8571429,,,34,0,34,0,1,,,,,,,,
,,"[""circle"",""green"",""hori"",""left"",[0,-150],[-106,106]]",circle,green,hori,left,"[0,-150]","[-106,106]",left,1,0.6949,,,,,,001,2025-03-10_19h31.51.354,SL_base_41,2021.2.3,Win32,142.8571429,,,35,0,35,0,1,,,,,,,,
,,"[""circle"",""green"",""vert"",""up"",[0,150],[0,-150]]",circle,green,vert,up,"[0,150]","[0,-150]",up,1,0.6769,,,,,,001,2025-03-10_19h31.51.354,SL_base_41,2021.2.3,Win32,142.8571429,,,36,0,36,0,1,,,,,,,,
,,"[""diamond"",""no_dis"",""vert"",""up"",[99999,99999],[106,-106]]",diamond,no_dis,vert,up,"[99999,99999]","[106,-106]",up,1,0.8886,,,,,,001,2025-03-10_19h31.51.354,SL_base_41,2021.2.3,Win32,142.8571429,,,37,0,37,0,1,,,,,,,,
,,"[""circle"",""no_dis"",""hori"",""left"",[99999,99999],[150,0]]",circle,no_dis,hori,left,"[99999,99999]","[150,0]",left,1,0.8285,,,,,,001,2025-03-10_19h31.51.354,SL_base_41,2021.2.3,Win32,142.8571429,,,38,0,38,0,1,,,,,,,,
,,"[""diamond"",""red"",""vert"",""up"",[-106,-106],[-150,0]]",diamond,red,vert,up,"[-106,-106]","[-150,0]",up,1,1.0562,,,,,,001,2025-03-10_19h31.51.354,SL_base_41,2021.2.3,Win32,142.8571429,,,39,0,39,0,1,,,,,,,,
,,"[""diamond"",""no_dis"",""vert"",""up"",[99999,99999],[0,150]]",diamond,no_dis,vert,up,"[99999,99999]","[0,150]",up,1,0.8607,,,,,,001,2025-03-10_19h31.51.354,SL_base_41,2021.2.3,Win32,142.8571429,,,40,0,40,0,1,,,,,,,,
,,"[""diamond"",""green"",""hori"",""left"",[106,106],[-106,106]]",diamond,green,hori,left,"[106,106]","[-106,106]",left,1,0.6663,,,,,,001,2025-03-10_19h31.51.354,SL_base_41,2021.2.3,Win32,142.8571429,,,41,0,41,0,1,,,,,,,,
,,"[""circle"",""green"",""hori"",""left"",[-106,106],[106,106]]",circle,green,hori,left,"[-106,106]","[106,106]",left,1,0.8144,,,,,,001,2025-03-10_19h31.51.354,SL_base_41,2021.2.3,Win32,142.8571429,,,42,0,42,0,1,,,,,,,,
,,"[""circle"",""red"",""vert"",""up"",[0,150],[-150,0]]",circle,red,vert,up,"[0,150]","[-150,0]",up,1,0.8595,,,,,,001,2025-03-10_19h31.51.354,SL_base_41,2021.2.3,Win32,142.8571429,,,43,0,43,0,1,,,,,,,,
,,"[""diamond"",""green"",""hori"",""left"",[106,106],[-106,-106]]",diamond,green,hori,left,"[106,106]","[-106,-106]",left,1,0.656,,,,,,001,2025-03-10_19h31.51.354,SL_base_41,2021.2.3,Win32,142.8571429,,,44,0,44,0,1,,,,,,,,
,,"[""diamond"",""green"",""vert"",""up"",[-106,106],[-150,0]]",diamond,green,vert,up,"[-106,106]","[-150,0]",up,1,0.709,,,,,,001,2025-03-10_19h31.51.354,SL_base_41,2021.2.3,Win32,142.8571429,,,45,0,45,0,1,,,,,,,,
,,"[""circle"",""green"",""vert"",""up"",[-106,106],[-150,0]]",circle,green,vert,up,"[-106,106]","[-150,0]",up,1,1.1044,,,,,,001,2025-03-10_19h31.51.354,SL_base_41,2021.2.3,Win32,142.8571429,,,46,0,46,0,1,,,,,,,,
,,"[""circle"",""red"",""vert"",""up"",[-106,-106],[-106,106]]",circle,red,vert,up,"[-106,-106]","[-106,106]",up,1,0.8006,,,,,,001,2025-03-10_19h31.51.354,SL_base_41,2021.2.3,Win32,142.8571429,,,47,0,47,0,1,,,,,,,,
,,"[""circle"",""red"",""vert"",""up"",[-106,106],[106,106]]",circle,red,vert,up,"[-106,106]","[106,106]",up,1,0.8474,,,,,,001,2025-03-10_19h31.51.354,SL_base_41,2021.2.3,Win32,142.8571429,,,48,0,48,0,1,,,,,,,,
,,"[""circle"",""green"",""vert"",""up"",[-106,106],[0,-150]]",circle,green,vert,up,"[-106,106]","[0,-150]",up,1,0.6549,,,,,,001,2025-03-10_19h31.51.354,SL_base_41,2021.2.3,Win32,142.8571429,,,49,0,49,0,1,,,,,,,,
,,"[""circle"",""green"",""vert"",""up"",[0,-150],[-106,-106]]",circle,green,vert,up,"[0,-150]","[-106,-106]",up,1,0.8406,,,,,,001,2025-03-10_19h31.51.354,SL_base_41,2021.2.3,Win32,142.8571429,,,50,0,50,0,1,,,,,,,,
,,"[""diamond"",""no_dis"",""vert"",""up"",[99999,99999],[106,106]]",diamond,no_dis,vert,up,"[99999,99999]","[106,106]",up,1,0.7261,,,,,,001,2025-03-10_19h31.51.354,SL_base_41,2021.2.3,Win32,142.8571429,,,51,0,51,0,1,,,,,,,,
,,"[""diamond"",""red"",""vert"",""up"",[-106,106],[-106,-106]]",diamond,red,vert,up,"[-106,106]","[-106,-106]",up,1,0.8198,,,,,,001,2025-03-10_19h31.51.354,SL_base_41,2021.2.3,Win32,142.8571429,,,52,0,52,0,1,,,,,,,,
,,"[""circle"",""green"",""vert"",""up"",[-150,0],[-106,-106]]",circle,green,vert,up,"[-150,0]","[-106,-106]",up,1,1.0487,,,,,,001,2025-03-10_19h31.51.354,SL_base_41,2021.2.3,Win32,142.8571429,,,53,0,53,0,1,,,,,,,,
,,"[""circle"",""no_dis"",""vert"",""up"",[99999,99999],[-150,0]]",circle,no_dis,vert,up,"[99999,99999]","[-150,0]",up,1,0.9309,,,,,,001,2025-03-10_19h31.51.354,SL_base_41,2021.2.3,Win32,142.8571429,,,54,0,54,0,1,,,,,,,,
,,"[""diamond"",""green"",""vert"",""up"",[-106,106],[106,-106]]",diamond,green,vert,up,"[-106,106]","[106,-106]",up,1,0.791,,,,,,001,2025-03-10_19h31.51.354,SL_base_41,2021.2.3,Win32,142.8571429,,,55,0,55,0,1,,,,,,,,
,,"[""diamond"",""green"",""vert"",""up"",[150,0],[-150,0]]",diamond,green,vert,up,"[150,0]","[-150,0]",up,1,0.7641,,,,,,001,2025-03-10_19h31.51.354,SL_base_41,2021.2.3,Win32,142.8571429,,,56,0,56,0,1,,,,,,,,
,,"[""circle"",""red"",""vert"",""up"",[0,-150],[0,150]]",circle,red,vert,up,"[0,-150]","[0,150]",up,1,0.7849,,,,,,001,2025-03-10_19h31.51.354,SL_base_41,2021.2.3,Win32,142.8571429,,,57,0,57,0,1,,,,,,,,
,,"[""circle"",""green"",""hori"",""left"",[0,-150],[-106,-106]]",circle,green,hori,left,"[0,-150]","[-106,-106]",left,1,0.7567,,,,,,001,2025-03-10_19h31.51.354,SL_base_41,2021.2.3,Win32,142.8571429,,,58,0,58,0,1,,,,,,,,
,,"[""circle"",""red"",""vert"",""up"",[150,0],[0,150]]",circle,red,vert,up,"[150,0]","[0,150]",up,1,0.7641,,,,,,001,2025-03-10_19h31.51.354,SL_base_41,2021.2.3,Win32,142.8571429,,,59,0,59,0,1,,,,,,,,
,,"[""diamond"",""green"",""hori"",""left"",[106,-106],[0,-150]]",diamond,green,hori,left,"[106,-106]","[0,-150]",left,1,0.6743,,,,,,001,2025-03-10_19h31.51.354,SL_base_41,2021.2.3,Win32,142.8571429,,,60,0,60,0,1,,,,,,,,
,,"[""circle"",""no_dis"",""vert"",""up"",[99999,99999],[106,106]]",circle,no_dis,vert,up,"[99999,99999]","[106,106]",up,1,0.4865,,,,,,001,2025-03-10_19h31.51.354,SL_base_41,2021.2.3,Win32,142.8571429,,,61,0,61,0,1,,,,,,,,
,,"[""diamond"",""red"",""vert"",""up"",[106,106],[0,150]]",diamond,red,vert,up,"[106,106]","[0,150]",up,1,0.7316,,,,,,001,2025-03-10_19h31.51.354,SL_base_41,2021.2.3,Win32,142.8571429,,,62,0,62,0,1,,,,,,,,
,,"[""circle"",""red"",""vert"",""up"",[150,0],[106,-106]]",circle,red,vert,up,"[150,0]","[106,-106]",up,1,0.8679,,,,,,001,2025-03-10_19h31.51.354,SL_base_41,2021.2.3,Win32,142.8571429,,,63,0,63,0,1,,,,,,,,
,,"[""circle"",""no_dis"",""hori"",""left"",[99999,99999],[-150,0]]",circle,no_dis,hori,left,"[99999,99999]","[-150,0]",left,1,0.5655,,,,,,001,2025-03-10_19h31.51.354,SL_base_41,2021.2.3,Win32,142.8571429,,,64,0,64,0,1,,,,,,,,
,,"[""circle"",""red"",""hori"",""left"",[106,-106],[-106,106]]",circle,red,hori,left,"[106,-106]","[-106,106]",left,1,0.5727,,,,,,001,2025-03-10_19h31.51.354,SL_base_41,2021.2.3,Win32,142.8571429,,,65,0,65,0,1,,,,,,,,
,,"[""circle"",""green"",""hori"",""left"",[0,-150],[-150,0]]",circle,green,hori,left,"[0,-150]","[-150,0]",left,1,0.5559,,,,,,001,2025-03-10_19h31.51.354,SL_base_41,2021.2.3,Win32,142.8571429,,,66,0,66,0,1,,,,,,,,
,,"[""circle"",""no_dis"",""vert"",""up"",[99999,99999],[106,106]]",circle,no_dis,vert,up,"[99999,99999]","[106,106]",up,1,0.6251,,,,,,001,2025-03-10_19h31.51.354,SL_base_41,2021.2.3,Win32,142.8571429,,,67,0,67,0,1,,,,,,,,
,,"[""diamond"",""no_dis"",""hori"",""left"",[99999,99999],[106,-106]]",diamond,no_dis,hori,left,"[99999,99999]","[106,-106]",left,1,0.7608,,,,,,001,2025-03-10_19h31.51.354,SL_base_41,2021.2.3,Win32,142.8571429,,,68,0,68,0,1,,,,,,,,
,,"[""diamond"",""green"",""vert"",""up"",[106,106],[-150,0]]",diamond,green,vert,up,"[106,106]","[-150,0]",up,1,0.7988,,,,,,001,2025-03-10_19h31.51.354,SL_base_41,2021.2.3,Win32,142.8571429,,,69,0,69,0,1,,,,,,,,
,,"[""diamond"",""green"",""hori"",""left"",[-106,106],[-106,-106]]",diamond,green,hori,left,"[-106,106]","[-106,-106]",left,1,0.743,,,,,,001,2025-03-10_19h31.51.354,SL_base_41,2021.2.3,Win32,142.8571429,,,70,0,70,0,1,,,,,,,,
,,"[""circle"",""green"",""hori"",""left"",[0,150],[150,0]]",circle,green,hori,left,"[0,150]","[150,0]",left,1,0.8683,,,,,,001,2025-03-10_19h31.51.354,SL_base_41,2021.2.3,Win32,142.8571429,,,71,0,71,0,1,,,,,,,,
,,"[""diamond"",""no_dis"",""hori"",""left"",[99999,99999],[-106,-106]]",diamond,no_dis,hori,left,"[99999,99999]","[-106,-106]",left,1,0.7508,,,,,,001,2025-03-10_19h31.51.354,SL_base_41,2021.2.3,Win32,142.8571429,,,72,0,72,0,1,,,,,,,,
,,"[""diamond"",""red"",""vert"",""up"",[0,-150],[0,150]]",diamond,red,vert,up,"[0,-150]","[0,150]",up,1,0.7085,,,,,,001,2025-03-10_19h31.51.354,SL_base_41,2021.2.3,Win32,142.8571429,,,73,0,73,0,1,,,,,,,,
,,"[""circle"",""red"",""hori"",""left"",[106,106],[-150,0]]",circle,red,hori,left,"[106,106]","[-150,0]",left,1,1.0624,,,,,,001,2025-03-10_19h31.51.354,SL_base_41,2021.2.3,Win32,142.8571429,,,74,0,74,0,1,,,,,,,,
,,"[""diamond"",""green"",""hori"",""left"",[0,150],[106,-106]]",diamond,green,hori,left,"[0,150]","[106,-106]",left,1,0.6739,,,,,,001,2025-03-10_19h31.51.354,SL_base_41,2021.2.3,Win32,142.8571429,,,75,0,75,0,1,,,,,,,,
,,"[""diamond"",""red"",""vert"",""up"",[150,0],[-106,106]]",diamond,red,vert,up,"[150,0]","[-106,106]",up,1,0.6489,,,,,,001,2025-03-10_19h31.51.354,SL_base_41,2021.2.3,Win32,142.8571429,,,76,0,76,0,1,,,,,,,,
,,"[""circle"",""red"",""vert"",""up"",[-106,106],[-106,-106]]",circle,red,vert,up,"[-106,106]","[-106,-106]",up,1,0.8483,,,,,,001,2025-03-10_19h31.51.354,SL_base_41,2021.2.3,Win32,142.8571429,,,77,0,77,0,1,,,,,,,,
,,"[""circle"",""red"",""hori"",""left"",[106,106],[-106,-106]]",circle,red,hori,left,"[106,106]","[-106,-106]",left,1,0.5995,,,,,,001,2025-03-10_19h31.51.354,SL_base_41,2021.2.3,Win32,142.8571429,,,78,0,78,0,1,,,,,,,,
,,"[""circle"",""no_dis"",""hori"",""left"",[99999,99999],[106,-106]]",circle,no_dis,hori,left,"[99999,99999]","[106,-106]",left,1,0.5166,,,,,,001,2025-03-10_19h31.51.354,SL_base_41,2021.2.3,Win32,142.8571429,,,79,0,79,0,1,,,,,,,,
,,"[""diamond"",""green"",""vert"",""up"",[-106,-106],[0,-150]]",diamond,green,vert,up,"[-106,-106]","[0,-150]",up,1,0.7363,,,,,,001,2025-03-10_19h31.51.354,SL_base_41,2021.2.3,Win32,142.8571429,,,80,0,80,0,1,,,,,,,,
,,"[""circle"",""green"",""hori"",""left"",[106,-106],[106,106]]",circle,green,hori,left,"[106,-106]","[106,106]",left,1,0.5558,,,,,,001,2025-03-10_19h31.51.354,SL_base_41,2021.2.3,Win32,142.8571429,,,81,0,81,0,1,,,,,,,,
,,"[""circle"",""green"",""hori"",""left"",[-106,-106],[-150,0]]",circle,green,hori,left,"[-106,-106]","[-150,0]",left,1,0.5489,,,,,,001,2025-03-10_19h31.51.354,SL_base_41,2021.2.3,Win32,142.8571429,,,82,0,82,0,1,,,,,,,,
,,"[""circle"",""green"",""hori"",""left"",[-106,-106],[150,0]]",circle,green,hori,left,"[-106,-106]","[150,0]",left,1,0.4829,,,,,,001,2025-03-10_19h31.51.354,SL_base_41,2021.2.3,Win32,142.8571429,,,83,0,83,0,1,,,,,,,,
,,"[""diamond"",""green"",""hori"",""left"",[-106,106],[106,-106]]",diamond,green,hori,left,"[-106,106]","[106,-106]",left,1,0.7367,,,,,,001,2025-03-10_19h31.51.354,SL_base_41,2021.2.3,Win32,142.8571429,,,84,0,84,0,1,,,,,,,,
,,"[""diamond"",""green"",""hori"",""left"",[-106,106],[-150,0]]",diamond,green,hori,left,"[-106,106]","[-150,0]",left,1,1.3974,,,,,,001,2025-03-10_19h31.51.354,SL_base_41,2021.2.3,Win32,142.8571429,,,85,0,85,0,1,,,,,,,,
,,"[""circle"",""no_dis"",""vert"",""up"",[99999,99999],[-150,0]]",circle,no_dis,vert,up,"[99999,99999]","[-150,0]",up,1,0.7093,,,,,,001,2025-03-10_19h31.51.354,SL_base_41,2021.2.3,Win32,142.8571429,,,86,0,86,0,1,,,,,,,,
,,"[""diamond"",""green"",""vert"",""up"",[-150,0],[-106,106]]",diamond,green,vert,up,"[-150,0]","[-106,106]",up,1,0.687,,,,,,001,2025-03-10_19h31.51.354,SL_base_41,2021.2.3,Win32,142.8571429,,,87,0,87,0,1,,,,,,,,
,,"[""circle"",""green"",""hori"",""left"",[-106,106],[106,106]]",circle,green,hori,left,"[-106,106]","[106,106]",left,1,0.5068,,,,,,001,2025-03-10_19h31.51.354,SL_base_41,2021.2.3,Win32,142.8571429,,,88,0,88,0,1,,,,,,,,
,,"[""diamond"",""no_dis"",""vert"",""up"",[99999,99999],[-150,0]]",diamond,no_dis,vert,up,"[99999,99999]","[-150,0]",up,1,0.6391,,,,,,001,2025-03-10_19h31.51.354,SL_base_41,2021.2.3,Win32,142.8571429,,,89,0,89,0,1,,,,,,,,
,,"[""circle"",""no_dis"",""vert"",""up"",[99999,99999],[150,0]]",circle,no_dis,vert,up,"[99999,99999]","[150,0]",up,1,0.9683,,,,,,001,2025-03-10_19h31.51.354,SL_base_41,2021.2.3,Win32,142.8571429,,,90,0,90,0,1,,,,,,,,
,,"[""circle"",""no_dis"",""hori"",""left"",[99999,99999],[0,-150]]",circle,no_dis,hori,left,"[99999,99999]","[0,-150]",left,1,0.6898,,,,,,001,2025-03-10_19h31.51.354,SL_base_41,2021.2.3,Win32,142.8571429,,,91,0,91,0,1,,,,,,,,
,,"[""circle"",""no_dis"",""vert"",""up"",[99999,99999],[0,-150]]",circle,no_dis,vert,up,"[99999,99999]","[0,-150]",up,1,0.6671,,,,,,001,2025-03-10_19h31.51.354,SL_base_41,2021.2.3,Win32,142.8571429,,,92,0,92,0,1,,,,,,,,
,,"[""circle"",""red"",""vert"",""up"",[106,-106],[-106,106]]",circle,red,vert,up,"[106,-106]","[-106,106]",up,1,0.6253,,,,,,001,2025-03-10_19h31.51.354,SL_base_41,2021.2.3,Win32,142.8571429,,,93,0,93,0,1,,,,,,,,
,,"[""diamond"",""no_dis"",""hori"",""left"",[99999,99999],[0,150]]",diamond,no_dis,hori,left,"[99999,99999]","[0,150]",left,1,0.6268,,,,,,001,2025-03-10_19h31.51.354,SL_base_41,2021.2.3,Win32,142.8571429,,,94,0,94,0,1,,,,,,,,
,,"[""diamond"",""red"",""vert"",""up"",[-150,0],[0,-150]]",diamond,red,vert,up,"[-150,0]","[0,-150]",up,1,1.0417,,,,,,001,2025-03-10_19h31.51.354,SL_base_41,2021.2.3,Win32,142.8571429,,,95,0,95,0,1,,,,,,,,
,,"[""diamond"",""no_dis"",""hori"",""left"",[99999,99999],[0,150]]",diamond,no_dis,hori,left,"[99999,99999]","[0,150]",up,0,0.5865,,,,,,001,2025-03-10_19h31.51.354,SL_base_41,2021.2.3,Win32,142.8571429,,,96,0,96,0,1,,,,,,,,
,,"[""circle"",""green"",""vert"",""up"",[-106,-106],[-150,0]]",circle,green,vert,up,"[-106,-106]","[-150,0]",up,1,0.6264,,,,,,001,2025-03-10_19h31.51.354,SL_base_41,2021.2.3,Win32,142.8571429,,,97,0,97,0,1,,,,,,,,
,,"[""diamond"",""red"",""vert"",""up"",[-106,106],[-106,-106]]",diamond,red,vert,up,"[-106,106]","[-106,-106]",up,1,0.7641,,,,,,001,2025-03-10_19h31.51.354,SL_base_41,2021.2.3,Win32,142.8571429,,,98,0,98,0,1,,,,,,,,
,,"[""diamond"",""red"",""hori"",""left"",[106,-106],[0,-150]]",diamond,red,hori,left,"[106,-106]","[0,-150]",left,1,1.2566,,,,,,001,2025-03-10_19h31.51.354,SL_base_41,2021.2.3,Win32,142.8571429,,,99,0,99,0,1,,,,,,,,
,,"[""circle"",""green"",""hori"",""left"",[0,-150],[150,0]]",circle,green,hori,left,"[0,-150]","[150,0]",left,1,1.1077,,,,,,001,2025-03-10_19h31.51.354,SL_base_41,2021.2.3,Win32,142.8571429,,,100,0,100,0,1,,,,,,,,
,,"[""circle"",""red"",""hori"",""left"",[-106,106],[106,106]]",circle,red,hori,left,"[-106,106]","[106,106]",left,1,0.7448,,,,,,001,2025-03-10_19h31.51.354,SL_base_41,2021.2.3,Win32,142.8571429,,,101,0,101,0,1,,,,,,,,
,,"[""diamond"",""green"",""hori"",""left"",[-106,106],[150,0]]",diamond,green,hori,left,"[-106,106]","[150,0]",left,1,0.5349,,,,,,001,2025-03-10_19h31.51.354,SL_base_41,2021.2.3,Win32,142.8571429,,,102,0,102,0,1,,,,,,,,
,,"[""diamond"",""red"",""hori"",""left"",[-106,-106],[106,106]]",diamond,red,hori,left,"[-106,-106]","[106,106]",left,1,0.7397,,,,,,001,2025-03-10_19h31.51.354,SL_base_41,2021.2.3,Win32,142.8571429,,,103,0,103,0,1,,,,,,,,
,,"[""circle"",""no_dis"",""hori"",""left"",[99999,99999],[-106,106]]",circle,no_dis,hori,left,"[99999,99999]","[-106,106]",left,1,0.6042,,,,,,001,2025-03-10_19h31.51.354,SL_base_41,2021.2.3,Win32,142.8571429,,,104,0,104,0,1,,,,,,,,
,,"[""circle"",""green"",""vert"",""up"",[-150,0],[106,-106]]",circle,green,vert,up,"[-150,0]","[106,-106]",up,1,0.5701,,,,,,001,2025-03-10_19h31.51.354,SL_base_41,2021.2.3,Win32,142.8571429,,,105,0,105,0,1,,,,,,,,
,,"[""diamond"",""red"",""hori"",""left"",[0,-150],[150,0]]",diamond,red,hori,left,"[0,-150]","[150,0]",left,1,1.0301,,,,,,001,2025-03-10_19h31.51.354,SL_base_41,2021.2.3,Win32,142.8571429,,,106,0,106,0,1,,,,,,,,
,,"[""diamond"",""red"",""vert"",""up"",[0,150],[-106,106]]",diamond,red,vert,up,"[0,150]","[-106,106]",up,1,0.7504,,,,,,001,2025-03-10_19h31.51.354,SL_base_41,2021.2.3,Win32,142.8571429,,,107,0,107,0,1,,,,,,,,
,,"[""circle"",""green"",""vert"",""up"",[-106,106],[150,0]]",circle,green,vert,up,"[-106,106]","[150,0]",up,1,0.6044,,,,,,001,2025-03-10_19h31.51.354,SL_base_41,2021.2.3,Win32,142.8571429,,,108,0,108,0,1,,,,,,,,
,,"[""circle"",""red"",""vert"",""up"",[-106,106],[150,0]]",circle,red,vert,up,"[-106,106]","[150,0]",up,1,0.5697,,,,,,001,2025-03-10_19h31.51.354,SL_base_41,2021.2.3,Win32,142.8571429,,,109,0,109,0,1,,,,,,,,
,,"[""diamond"",""green"",""vert"",""up"",[-106,106],[-150,0]]",diamond,green,vert,up,"[-106,106]","[-150,0]",left,0,0.6599,,,,,,001,2025-03-10_19h31.51.354,SL_base_41,2021.2.3,Win32,142.8571429,,,110,0,110,0,1,,,,,,,,
,,"[""diamond"",""no_dis"",""vert"",""up"",[99999,99999],[106,-106]]",diamond,no_dis,vert,up,"[99999,99999]","[106,-106]",up,1,0.725,,,,,,001,2025-03-10_19h31.51.354,SL_base_41,2021.2.3,Win32,142.8571429,,,111,0,111,0,1,,,,,,,,
,,"[""diamond"",""red"",""hori"",""left"",[106,-106],[0,-150]]",diamond,red,hori,left,"[106,-106]","[0,-150]",left,1,1.3824,,,,,,001,2025-03-10_19h31.51.354,SL_base_41,2021.2.3,Win32,142.8571429,,,112,0,112,0,1,,,,,,,,
,,"[""diamond"",""green"",""vert"",""up"",[-106,106],[106,-106]]",diamond,green,vert,up,"[-106,106]","[106,-106]",up,1,0.8475,,,,,,001,2025-03-10_19h31.51.354,SL_base_41,2021.2.3,Win32,142.8571429,,,113,0,113,0,1,,,,,,,,
,,"[""circle"",""red"",""hori"",""left"",[-150,0],[106,106]]",circle,red,hori,left,"[-150,0]","[106,106]",left,1,0.7706,,,,,,001,2025-03-10_19h31.51.354,SL_base_41,2021.2.3,Win32,142.8571429,,,114,0,114,0,1,,,,,,,,
,,"[""circle"",""no_dis"",""vert"",""up"",[99999,99999],[-106,-106]]",circle,no_dis,vert,up,"[99999,99999]","[-106,-106]",up,1,0.7225,,,,,,001,2025-03-10_19h31.51.354,SL_base_41,2021.2.3,Win32,142.8571429,,,115,0,115,0,1,,,,,,,,
,,"[""diamond"",""no_dis"",""vert"",""up"",[99999,99999],[0,-150]]",diamond,no_dis,vert,up,"[99999,99999]","[0,-150]",up,1,0.5558,,,,,,001,2025-03-10_19h31.51.354,SL_base_41,2021.2.3,Win32,142.8571429,,,116,0,116,0,1,,,,,,,,
,,"[""diamond"",""no_dis"",""vert"",""up"",[99999,99999],[0,150]]",diamond,no_dis,vert,up,"[99999,99999]","[0,150]",up,1,0.528,,,,,,001,2025-03-10_19h31.51.354,SL_base_41,2021.2.3,Win32,142.8571429,,,117,0,117,0,1,,,,,,,,
,,"[""circle"",""no_dis"",""vert"",""up"",[99999,99999],[-150,0]]",circle,no_dis,vert,up,"[99999,99999]","[-150,0]",up,1,0.8301,,,,,,001,2025-03-10_19h31.51.354,SL_base_41,2021.2.3,Win32,142.8571429,,,118,0,118,0,1,,,,,,,,
,,"[""circle"",""no_dis"",""vert"",""up"",[99999,99999],[-106,-106]]",circle,no_dis,vert,up,"[99999,99999]","[-106,-106]",up,1,0.6046,,,,,,001,2025-03-10_19h31.51.354,SL_base_41,2021.2.3,Win32,142.8571429,,,119,0,119,0,1,,,,,,,,
,,"[""diamond"",""red"",""hori"",""left"",[-106,106],[106,-106]]",diamond,red,hori,left,"[-106,106]","[106,-106]",left,1,0.9588,,,,,,001,2025-03-10_19h31.51.354,SL_base_41,2021.2.3,Win32,142.8571429,,,120,0,120,0,1,,,,,,,,
,,"[""circle"",""no_dis"",""hori"",""left"",[99999,99999],[106,106]]",circle,no_dis,hori,left,"[99999,99999]","[106,106]",left,1,0.7303,,,,,,001,2025-03-10_19h31.51.354,SL_base_41,2021.2.3,Win32,142.8571429,,,121,0,121,0,1,,,,,,,,
,,"[""circle"",""red"",""hori"",""left"",[-106,106],[150,0]]",circle,red,hori,left,"[-106,106]","[150,0]",left,1,0.6876,,,,,,001,2025-03-10_19h31.51.354,SL_base_41,2021.2.3,Win32,142.8571429,,,122,0,122,0,1,,,,,,,,
,,"[""diamond"",""red"",""hori"",""left"",[150,0],[106,106]]",diamond,red,hori,left,"[150,0]","[106,106]",left,1,0.9116,,,,,,001,2025-03-10_19h31.51.354,SL_base_41,2021.2.3,Win32,142.8571429,,,123,0,123,0,1,,,,,,,,
,,"[""circle"",""no_dis"",""vert"",""up"",[99999,99999],[0,-150]]",circle,no_dis,vert,up,"[99999,99999]","[0,-150]",up,1,0.674,,,,,,001,2025-03-10_19h31.51.354,SL_base_41,2021.2.3,Win32,142.8571429,,,124,0,124,0,1,,,,,,,,
,,"[""diamond"",""red"",""hori"",""left"",[106,-106],[106,106]]",diamond,red,hori,left,"[106,-106]","[106,106]",left,1,1.2207,,,,,,001,2025-03-10_19h31.51.354,SL_base_41,2021.2.3,Win32,142.8571429,,,125,0,125,0,1,,,,,,,,
,,"[""circle"",""green"",""vert"",""up"",[-150,0],[150,0]]",circle,green,vert,up,"[-150,0]","[150,0]",up,1,1.3288,,,,,,001,2025-03-10_19h31.51.354,SL_base_41,2021.2.3,Win32,142.8571429,,,126,0,126,0,1,,,,,,,,
,,"[""diamond"",""green"",""hori"",""left"",[-106,106],[-106,-106]]",diamond,green,hori,left,"[-106,106]","[-106,-106]",left,1,0.8329,,,,,,001,2025-03-10_19h31.51.354,SL_base_41,2021.2.3,Win32,142.8571429,,,127,0,127,0,1,,,,,,,,
,,,,,,,,,,,,,,,,,001,2025-03-10_19h31.51.354,SL_base_41,2021.2.3,Win32,142.8571429,,,,,,,,3,space,1.5198,2,0,2,0,1
,,"[""circle"",""green"",""vert"",""up"",[-106,106],[150,0]]",circle,green,vert,up,"[-106,106]","[150,0]",up,1,0.5692,,,,,,001,2025-03-10_19h31.51.354,SL_base_41,2021.2.3,Win32,142.8571429,,,0,0,0,0,1,,,,,,,,
,,"[""circle"",""red"",""vert"",""up"",[106,-106],[-106,106]]",circle,red,vert,up,"[106,-106]","[-106,106]",up,1,0.9547,,,,,,001,2025-03-10_19h31.51.354,SL_base_41,2021.2.3,Win32,142.8571429,,,1,0,1,0,1,,,,,,,,
,,"[""diamond"",""red"",""vert"",""up"",[-106,-106],[-150,0]]",diamond,red,vert,up,"[-106,-106]","[-150,0]",up,1,0.779,,,,,,001,2025-03-10_19h31.51.354,SL_base_41,2021.2.3,Win32,142.8571429,,,2,0,2,0,1,,,,,,,,
,,"[""circle"",""no_dis"",""vert"",""up"",[99999,99999],[0,-150]]",circle,no_dis,vert,up,"[99999,99999]","[0,-150]",up,1,1.1357,,,,,,001,2025-03-10_19h31.51.354,SL_base_41,2021.2.3,Win32,142.8571429,,,3,0,3,0,1,,,,,,,,
,,"[""diamond"",""green"",""hori"",""left"",[106,106],[-106,-106]]",diamond,green,hori,left,"[106,106]","[-106,-106]",left,1,0.7208,,,,,,001,2025-03-10_19h31.51.354,SL_base_41,2021.2.3,Win32,142.8571429,,,4,0,4,0,1,,,,,,,,
,,"[""circle"",""no_dis"",""hori"",""left"",[99999,99999],[-106,106]]",circle,no_dis,hori,left,"[99999,99999]","[-106,106]",left,1,0.5903,,,,,,001,2025-03-10_19h31.51.354,SL_base_41,2021.2.3,Win32,142.8571429,,,5,0,5,0,1,,,,,,,,
,,"[""circle"",""green"",""vert"",""up"",[-150,0],[106,-106]]",circle,green,vert,up,"[-150,0]","[106,-106]",up,1,0.5137,,,,,,001,2025-03-10_19h31.51.354,SL_base_41,2021.2.3,Win32,142.8571429,,,6,0,6,0,1,,,,,,,,
,,"[""circle"",""no_dis"",""hori"",""left"",[99999,99999],[0,-150]]",circle,no_dis,hori,left,"[99999,99999]","[0,-150]",left,1,1.0785,,,,,,001,2025-03-10_19h31.51.354,SL_base_41,2021.2.3,Win32,142.8571429,,,7,0,7,0,1,,,,,,,,
,,"[""diamond"",""red"",""hori"",""left"",[106,-106],[0,-150]]",diamond,red,hori,left,"[106,-106]","[0,-150]",left,1,0.8892,,,,,,001,2025-03-10_19h31.51.354,SL_base_41,2021.2.3,Win32,142.8571429,,,8,0,8,0,1,,,,,,,,
,,"[""circle"",""red"",""vert"",""up"",[-106,-106],[-106,106]]",circle,red,vert,up,"[-106,-106]","[-106,106]",up,1,0.7919,,,,,,001,2025-03-10_19h31.51.354,SL_base_41,2021.2.3,Win32,142.8571429,,,9,0,9,0,1,,,,,,,,
,,"[""diamond"",""green"",""vert"",""up"",[-106,106],[0,-150]]",diamond,green,vert,up,"[-106,106]","[0,-150]",up,1,1.2294,,,,,,001,2025-03-10_19h31.51.354,SL_base_41,2021.2.3,Win32,142.8571429,,,10,0,10,0,1,,,,,,,,
,,"[""diamond"",""red"",""vert"",""up"",[150,0],[-106,106]]",diamond,red,vert,up,"[150,0]","[-106,106]",up,1,0.6265,,,,,,001,2025-03-10_19h31.51.354,SL_base_41,2021.2.3,Win32,142.8571429,,,11,0,11,0,1,,,,,,,,
,,"[""circle"",""no_dis"",""hori"",""left"",[99999,99999],[106,106]]",circle,no_dis,hori,left,"[99999,99999]","[106,106]",left,1,0.5255,,,,,,001,2025-03-10_19h31.51.354,SL_base_41,2021.2.3,Win32,142.8571429,,,12,0,12,0,1,,,,,,,,
,,"[""diamond"",""green"",""hori"",""left"",[106,106],[-106,106]]",diamond,green,hori,left,"[106,106]","[-106,106]",left,1,0.702,,,,,,001,2025-03-10_19h31.51.354,SL_base_41,2021.2.3,Win32,142.8571429,,,13,0,13,0,1,,,,,,,,
,,"[""diamond"",""red"",""hori"",""left"",[-106,106],[106,-106]]",diamond,red,hori,left,"[-106,106]","[106,-106]",left,1,0.9238,,,,,,001,2025-03-10_19h31.51.354,SL_base_41,2021.2.3,Win32,142.8571429,,,14,0,14,0,1,,,,,,,,
,,"[""diamond"",""red"",""hori"",""left"",[106,-106],[106,106]]",diamond,red,hori,left,"[106,-106]","[106,106]",left,1,0.799,,,,,,001,2025-03-10_19h31.51.354,SL_base_41,2021.2.3,Win32,142.8571429,,,15,0,15,0,1,,,,,,,,
,,"[""circle"",""no_dis"",""vert"",""up"",[99999,99999],[106,106]]",circle,no_dis,vert,up,"[99999,99999]","[106,106]",up,1,0.5628,,,,,,001,2025-03-10_19h31.51.354,SL_base_41,2021.2.3,Win32,142.8571429,,,16,0,16,0,1,,,,,,,,
,,"[""circle"",""green"",""hori"",""left"",[-106,106],[106,106]]",circle,green,hori,left,"[-106,106]","[106,106]",left,1,0.542,,,,,,001,2025-03-10_19h31.51.354,SL_base_41,2021.2.3,Win32,142.8571429,,,17,0,17,0,1,,,,,,,,
,,"[""circle"",""red"",""hori"",""left"",[-106,106],[150,0]]",circle,red,hori,left,"[-106,106]","[150,0]",left,1,0.4996,,,,,,001,2025-03-10_19h31.51.354,SL_base_41,2021.2.3,Win32,142.8571429,,,18,0,18,0,1,,,,,,,,
,,"[""circle"",""no_dis"",""vert"",""up"",[99999,99999],[-150,0]]",circle,no_dis,vert,up,"[99999,99999]","[-150,0]",up,1,0.7225,,,,,,001,2025-03-10_19h31.51.354,SL_base_41,2021.2.3,Win32,142.8571429,,,19,0,19,0,1,,,,,,,,
,,"[""circle"",""green"",""vert"",""up"",[-106,106],[0,-150]]",circle,green,vert,up,"[-106,106]","[0,-150]",left,0,1.1391,,,,,,001,2025-03-10_19h31.51.354,SL_base_41,2021.2.3,Win32,142.8571429,,,20,0,20,0,1,,,,,,,,
,,"[""circle"",""no_dis"",""vert"",""up"",[99999,99999],[-150,0]]",circle,no_dis,vert,up,"[99999,99999]","[-150,0]",up,1,0.6876,,,,,,001,2025-03-10_19h31.51.354,SL_base_41,2021.2.3,Win32,142.8571429,,,21,0,21,0,1,,,,,,,,
,,"[""circle"",""red"",""hori"",""left"",[106,106],[-106,-106]]",circle,red,hori,left,"[106,106]","[-106,-106]",left,1,1.0344,,,,,,001,2025-03-10_19h31.51.354,SL_base_41,2021.2.3,Win32,142.8571429,,,22,0,22,0,1,,,,,,,,
,,"[""diamond"",""no_dis"",""hori"",""left"",[99999,99999],[-106,-106]]",diamond,no_dis,hori,left,"[99999,99999]","[-106,-106]",left,1,1.4377,,,,,,001,2025-03-10_19h31.51.354,SL_base_41,2021.2.3,Win32,142.8571429,,,23,0,23,0,1,,,,,,,,
,,"[""diamond"",""red"",""vert"",""up"",[-106,-106],[0,150]]",diamond,red,vert,up,"[-106,-106]","[0,150]",up,1,0.7011,,,,,,001,2025-03-10_19h31.51.354,SL_base_41,2021.2.3,Win32,142.8571429,,,24,0,24,0,1,,,,,,,,
,,"[""diamond"",""red"",""vert"",""up"",[-106,106],[-106,-106]]",diamond,red,vert,up,"[-106,106]","[-106,-106]",up,1,1.1543,,,,,,001,2025-03-10_19h31.51.354,SL_base_41,2021.2.3,Win32,142.8571429,,,25,0,25,0,1,,,,,,,,
,,"[""diamond"",""no_dis"",""hori"",""left"",[99999,99999],[0,150]]",diamond,no_dis,hori,left,"[99999,99999]","[0,150]",left,1,0.7574,,,,,,001,2025-03-10_19h31.51.354,SL_base_41,2021.2.3,Win32,142.8571429,,,26,0,26,0,1,,,,,,,,
,,"[""diamond"",""green"",""hori"",""left"",[106,-106],[0,-150]]",diamond,green,hori,left,"[106,-106]","[0,-150]",left,1,0.7105,,,,,,001,2025-03-10_19h31.51.354,SL_base_41,2021.2.3,Win32,142.8571429,,,27,0,27,0,1,,,,,,,,
,,"[""diamond"",""green"",""vert"",""up"",[150,0],[-150,0]]",diamond,green,vert,up,"[150,0]","[-150,0]",up,1,0.613,,,,,,001,2025-03-10_19h31.51.354,SL_base_41,2021.2.3,Win32,142.8571429,,,28,0,28,0,1,,,,,,,,
,,"[""circle"",""red"",""vert"",""up"",[150,0],[106,-106]]",circle,red,vert,up,"[150,0]","[106,-106]",left,0,0.6804,,,,,,001,2025-03-10_19h31.51.354,SL_base_41,2021.2.3,Win32,142.8571429,,,29,0,29,0,1,,,,,,,,
,,"[""circle"",""no_dis"",""hori"",""left"",[99999,99999],[-150,0]]",circle,no_dis,hori,left,"[99999,99999]","[-150,0]",left,1,0.7641,,,,,,001,2025-03-10_19h31.51.354,SL_base_41,2021.2.3,Win32,142.8571429,,,30,0,30,0,1,,,,,,,,
,,"[""circle"",""green"",""vert"",""up"",[0,150],[-150,0]]",circle,green,vert,up,"[0,150]","[-150,0]",up,1,0.7989,,,,,,001,2025-03-10_19h31.51.354,SL_base_41,2021.2.3,Win32,142.8571429,,,31,0,31,0,1,,,,,,,,
,,"[""circle"",""green"",""hori"",""left"",[0,-150],[-106,-106]]",circle,green,hori,left,"[0,-150]","[-106,-106]",left,1,0.7299,,,,,,001,2025-03-10_19h31.51.354,SL_base_41,2021.2.3,Win32,142.8571429,,,32,0,32,0,1,,,,,,,,
,,"[""diamond"",""red"",""vert"",""up"",[106,106],[0,150]]",diamond,red,vert,up,"[106,106]","[0,150]",up,1,1.0064,,,,,,001,2025-03-10_19h31.51.354,SL_base_41,2021.2.3,Win32,142.8571429,,,33,0,33,0,1,,,,,,,,
,,"[""diamond"",""no_dis"",""hori"",""left"",[99999,99999],[-106,106]]",diamond,no_dis,hori,left,"[99999,99999]","[-106,106]",left,1,0.6383,,,,,,001,2025-03-10_19h31.51.354,SL_base_41,2021.2.3,Win32,142.8571429,,,34,0,34,0,1,,,,,,,,
,,"[""circle"",""red"",""hori"",""left"",[-106,106],[106,106]]",circle,red,hori,left,"[-106,106]","[106,106]",left,1,0.7155,,,,,,001,2025-03-10_19h31.51.354,SL_base_41,2021.2.3,Win32,142.8571429,,,35,0,35,0,1,,,,,,,,
,,"[""circle"",""red"",""hori"",""left"",[-106,106],[106,106]]",circle,red,hori,left,"[-106,106]","[106,106]",left,1,0.6836,,,,,,001,2025-03-10_19h31.51.354,SL_base_41,2021.2.3,Win32,142.8571429,,,36,0,36,0,1,,,,,,,,
,,"[""diamond"",""green"",""vert"",""up"",[-150,0],[-106,106]]",diamond,green,vert,up,"[-150,0]","[-106,106]",up,1,0.6181,,,,,,001,2025-03-10_19h31.51.354,SL_base_41,2021.2.3,Win32,142.8571429,,,37,0,37,0,1,,,,,,,,
,,"[""diamond"",""green"",""vert"",""up"",[-106,106],[106,-106]]",diamond,green,vert,up,"[-106,106]","[106,-106]",up,1,0.7993,,,,,,001,2025-03-10_19h31.51.354,SL_base_41,2021.2.3,Win32,142.8571429,,,38,0,38,0,1,,,,,,,,
,,"[""diamond"",""no_dis"",""hori"",""left"",[99999,99999],[-106,106]]",diamond,no_dis,hori,left,"[99999,99999]","[-106,106]",left,1,0.9656,,,,,,001,2025-03-10_19h31.51.354,SL_base_41,2021.2.3,Win32,142.8571429,,,39,0,39,0,1,,,,,,,,
,,"[""circle"",""no_dis"",""hori"",""left"",[99999,99999],[150,0]]",circle,no_dis,hori,left,"[99999,99999]","[150,0]",left,1,0.6276,,,,,,001,2025-03-10_19h31.51.354,SL_base_41,2021.2.3,Win32,142.8571429,,,40,0,40,0,1,,,,,,,,
,,"[""diamond"",""green"",""vert"",""up"",[-106,106],[-150,0]]",diamond,green,vert,up,"[-106,106]","[-150,0]",up,1,0.7859,,,,,,001,2025-03-10_19h31.51.354,SL_base_41,2021.2.3,Win32,142.8571429,,,41,0,41,0,1,,,,,,,,
,,"[""circle"",""red"",""vert"",""up"",[-106,106],[150,0]]",circle,red,vert,up,"[-106,106]","[150,0]",up,1,0.6943,,,,,,001,2025-03-10_19h31.51.354,SL_base_41,2021.2.3,Win32,142.8571429,,,42,0,42,0,1,,,,,,,,
,,"[""circle"",""green"",""vert"",""up"",[-150,0],[-106,106]]",circle,green,vert,up,"[-150,0]","[-106,106]",up,1,1.3737,,,,,,001,2025-03-10_19h31.51.354,SL_base_41,2021.2.3,Win32,142.8571429,,,43,0,43,0,1,,,,,,,,
,,"[""circle"",""no_dis"",""vert"",""up"",[99999,99999],[150,0]]",circle,no_dis,vert,up,"[99999,99999]","[150,0]",up,1,0.5281,,,,,,001,2025-03-10_19h31.51.354,SL_base_41,2021.2.3,Win32,142.8571429,,,44,0,44,0,1,,,,,,,,
,,"[""circle"",""no_dis"",""vert"",""up"",[99999,99999],[-106,-106]]",circle,no_dis,vert,up,"[99999,99999]","[-106,-106]",up,1,0.7492,,,,,,001,2025-03-10_19h31.51.354,SL_base_41,2021.2.3,Win32,142.8571429,,,45,0,45,0,1,,,,,,,,
,,"[""diamond"",""red"",""vert"",""up"",[-150,0],[0,-150]]",diamond,red,vert,up,"[-150,0]","[0,-150]",left,0,0.8478,,,,,,001,2025-03-10_19h31.51.354,SL_base_41,2021.2.3,Win32,142.8571429,,,46,0,46,0,1,,,,,,,,
,,"[""circle"",""no_dis"",""vert"",""up"",[99999,99999],[-150,0]]",circle,no_dis,vert,up,"[99999,99999]","[-150,0]",up,1,0.646,,,,,,001,2025-03-10_19h31.51.354,SL_base_41,2021.2.3,Win32,142.8571429,,,47,0,47,0,1,,,,,,,,
,,"[""circle"",""red"",""hori"",""left"",[150,0],[106,-106]]",circle,red,hori,left,"[150,0]","[106,-106]",left,1,1.1979,,,,,,001,2025-03-10_19h31.51.354,SL_base_41,2021.2.3,Win32,142.8571429,,,48,0,48,0,1,,,,,,,,
,,"[""circle"",""green"",""hori"",""left"",[0,-150],[150,0]]",circle,green,hori,left,"[0,-150]","[150,0]",left,1,0.6263,,,,,,001,2025-03-10_19h31.51.354,SL_base_41,2021.2.3,Win32,142.8571429,,,49,0,49,0,1,,,,,,,,
,,"[""circle"",""green"",""vert"",""up"",[0,-150],[-106,-106]]",circle,green,vert,up,"[0,-150]","[-106,-106]",up,1,1.0295,,,,,,001,2025-03-10_19h31.51.354,SL_base_41,2021.2.3,Win32,142.8571429,,,50,0,50,0,1,,,,,,,,
,,"[""diamond"",""green"",""hori"",""left"",[-106,106],[106,-106]]",diamond,green,hori,left,"[-106,106]","[106,-106]",left,1,0.8127,,,,,,001,2025-03-10_19h31.51.354,SL_base_41,2021.2.3,Win32,142.8571429,,,51,0,51,0,1,,,,,,,,
,,"[""diamond"",""no_dis"",""vert"",""up"",[99999,99999],[-106,106]]",diamond,no_dis,vert,up,"[99999,99999]","[-106,106]",up,1,0.7524,,,,,,001,2025-03-10_19h31.51.354,SL_base_41,2021.2.3,Win32,142.8571429,,,52,0,52,0,1,,,,,,,,
,,"[""diamond"",""no_dis"",""vert"",""up"",[99999,99999],[106,-106]]",diamond,no_dis,vert,up,"[99999,99999]","[106,-106]",up,1,0.8267,,,,,,001,2025-03-10_19h31.51.354,SL_base_41,2021.2.3,Win32,142.8571429,,,53,0,53,0,1,,,,,,,,
,,"[""circle"",""red"",""vert"",""up"",[-106,106],[0,-150]]",circle,red,vert,up,"[-106,106]","[0,-150]",up,1,1.5833,,,,,,001,2025-03-10_19h31.51.354,SL_base_41,2021.2.3,Win32,142.8571429,,,54,0,54,0,1,,,,,,,,
,,"[""circle"",""red"",""hori"",""left"",[-106,106],[-106,-106]]",circle,red,hori,left,"[-106,106]","[-106,-106]",left,1,0.8561,,,,,,001,2025-03-10_19h31.51.354,SL_base_41,2021.2.3,Win32,142.8571429,,,55,0,55,0,1,,,,,,,,
,,"[""circle"",""green"",""hori"",""left"",[0,150],[-150,0]]",circle,green,hori,left,"[0,150]","[-150,0]",left,1,0.7433,,,,,,001,2025-03-10_19h31.51.354,SL_base_41,2021.2.3,Win32,142.8571429,,,56,0,56,0,1,,,,,,,,
,,"[""diamond"",""no_dis"",""vert"",""up"",[99999,99999],[-150,0]]",diamond,no_dis,vert,up,"[99999,99999]","[-150,0]",up,1,0.6737,,,,,,001,2025-03-10_19h31.51.354,SL_base_41,2021.2.3,Win32,142.8571429,,,57,0,57,0,1,,,,,,,,
,,"[""diamond"",""no_dis"",""hori"",""left"",[99999,99999],[0,150]]",diamond,no_dis,hori,left,"[99999,99999]","[0,150]",left,1,0.708,,,,,,001,2025-03-10_19h31.51.354,SL_base_41,2021.2.3,Win32,142.8571429,,,58,0,58,0,1,,,,,,,,
