﻿key_resp.keys,key_resp.rt,trial_para,tar_shape,dis_color_condi,tar_line,cor_resp,dis_loc,tar_loc,resp.keys,resp.corr,trials.thisRepN,trials.thisTrialN,trials.thisN,trials.thisIndex,trials.ran,participant,date,expName,psychopyVersion,OS,frameRate,resp.rt,key_resp_2.keys,key_resp_2.rt,trials_2.thisRepN,trials_2.thisTrialN,trials_2.thisN,trials_2.thisIndex,trials_2.ran,block_num,key_resp_3.keys,key_resp_3.rt,trials_3.thisRepN,trials_3.thisTrialN,trials_3.thisN,trials_3.thisIndex,trials_3.ran
space,1.4308,"[""circle"",""no_dis"",""vert"",""up"",[99999,99999],[-150,0]]",circle,no_dis,vert,up,"[99999,99999]","[-150,0]",,0,0,0,0,0,1,001,2025-03-10_16h54.50.499,SL_base_41,2021.2.3,Win32,60.24096386,,,,,,,,,,,,,,,,
,,"[""circle"",""red"",""vert"",""up"",[-150,0],[106,-106]]",circle,red,vert,up,"[-150,0]","[106,-106]",,0,1,0,1,0,1,001,2025-03-10_16h54.50.499,SL_base_41,2021.2.3,Win32,60.24096386,,,,,,,,,,,,,,,,
,,"[""circle"",""green"",""hori"",""left"",[-106,106],[-150,0]]",circle,green,hori,left,"[-106,106]","[-150,0]",,0,2,0,2,0,1,001,2025-03-10_16h54.50.499,SL_base_41,2021.2.3,Win32,60.24096386,,,,,,,,,,,,,,,,
,,"[""diamond"",""green"",""hori"",""left"",[-150,0],[150,0]]",diamond,green,hori,left,"[-150,0]","[150,0]",,0,3,0,3,0,1,001,2025-03-10_16h54.50.499,SL_base_41,2021.2.3,Win32,60.24096386,,,,,,,,,,,,,,,,
,,"[""circle"",""green"",""vert"",""up"",[106,106],[-106,-106]]",circle,green,vert,up,"[106,106]","[-106,-106]",,0,4,0,4,0,1,001,2025-03-10_16h54.50.499,SL_base_41,2021.2.3,Win32,60.24096386,,,,,,,,,,,,,,,,
,,"[""circle"",""green"",""hori"",""left"",[106,106],[150,0]]",circle,green,hori,left,"[106,106]","[150,0]",,0,5,0,5,0,1,001,2025-03-10_16h54.50.499,SL_base_41,2021.2.3,Win32,60.24096386,,,,,,,,,,,,,,,,
,,"[""diamond"",""red"",""hori"",""left"",[-106,106],[0,150]]",diamond,red,hori,left,"[-106,106]","[0,150]",,0,6,0,6,0,1,001,2025-03-10_16h54.50.499,SL_base_41,2021.2.3,Win32,60.24096386,,,,,,,,,,,,,,,,
,,"[""circle"",""no_dis"",""vert"",""up"",[99999,99999],[106,106]]",circle,no_dis,vert,up,"[99999,99999]","[106,106]",,0,7,0,7,0,1,001,2025-03-10_16h54.50.499,SL_base_41,2021.2.3,Win32,60.24096386,,,,,,,,,,,,,,,,
,,"[""diamond"",""red"",""vert"",""up"",[-106,106],[-106,-106]]",diamond,red,vert,up,"[-106,106]","[-106,-106]",,0,8,0,8,0,1,001,2025-03-10_16h54.50.499,SL_base_41,2021.2.3,Win32,60.24096386,,,,,,,,,,,,,,,,
,,"[""diamond"",""green"",""vert"",""up"",[-106,106],[106,-106]]",diamond,green,vert,up,"[-106,106]","[106,-106]",up,1,9,0,9,0,1,001,2025-03-10_16h54.50.499,SL_base_41,2021.2.3,Win32,60.24096386,1.1203,,,,,,,,,,,,,,,
,,"[""circle"",""no_dis"",""vert"",""up"",[99999,99999],[-150,0]]",circle,no_dis,vert,up,"[99999,99999]","[-150,0]",,0,,,,,,001,2025-03-10_16h54.50.499,SL_base_41,2021.2.3,Win32,60.24096386,,space,26.3425,0,0,0,0,1,,,,,,,,
,,"[""circle"",""red"",""vert"",""up"",[-150,0],[106,-106]]",circle,red,vert,up,"[-150,0]","[106,-106]",,0,,,,,,001,2025-03-10_16h54.50.499,SL_base_41,2021.2.3,Win32,60.24096386,,,,1,0,1,0,1,,,,,,,,
,,"[""circle"",""green"",""hori"",""left"",[-106,106],[-150,0]]",circle,green,hori,left,"[-106,106]","[-150,0]",left,1,,,,,,001,2025-03-10_16h54.50.499,SL_base_41,2021.2.3,Win32,60.24096386,2.019,,,2,0,2,0,1,,,,,,,,
,,"[""diamond"",""green"",""hori"",""left"",[-150,0],[150,0]]",diamond,green,hori,left,"[-150,0]","[150,0]",left,1,,,,,,001,2025-03-10_16h54.50.499,SL_base_41,2021.2.3,Win32,60.24096386,1.3096,,,3,0,3,0,1,,,,,,,,
,,"[""circle"",""green"",""vert"",""up"",[106,106],[-106,-106]]",circle,green,vert,up,"[106,106]","[-106,-106]",left,0,,,,,,001,2025-03-10_16h54.50.499,SL_base_41,2021.2.3,Win32,60.24096386,0.0844,,,4,0,4,0,1,,,,,,,,
,,"[""circle"",""green"",""hori"",""left"",[106,106],[150,0]]",circle,green,hori,left,"[106,106]","[150,0]",left,1,,,,,,001,2025-03-10_16h54.50.499,SL_base_41,2021.2.3,Win32,60.24096386,2.9286,,,5,0,5,0,1,,,,,,,,
,,"[""diamond"",""red"",""hori"",""left"",[-106,106],[0,150]]",diamond,red,hori,left,"[-106,106]","[0,150]",up,0,,,,,,001,2025-03-10_16h54.50.499,SL_base_41,2021.2.3,Win32,60.24096386,1.4632,,,6,0,6,0,1,,,,,,,,
,,"[""circle"",""no_dis"",""vert"",""up"",[99999,99999],[106,106]]",circle,no_dis,vert,up,"[99999,99999]","[106,106]",up,1,,,,,,001,2025-03-10_16h54.50.499,SL_base_41,2021.2.3,Win32,60.24096386,2.173,,,7,0,7,0,1,,,,,,,,
,,"[""diamond"",""red"",""vert"",""up"",[-106,106],[-106,-106]]",diamond,red,vert,up,"[-106,106]","[-106,-106]",up,1,,,,,,001,2025-03-10_16h54.50.499,SL_base_41,2021.2.3,Win32,60.24096386,1.9834,,,8,0,8,0,1,,,,,,,,
,,"[""diamond"",""green"",""vert"",""up"",[-106,106],[106,-106]]",diamond,green,vert,up,"[-106,106]","[106,-106]",up,1,,,,,,001,2025-03-10_16h54.50.499,SL_base_41,2021.2.3,Win32,60.24096386,2.0835,,,9,0,9,0,1,,,,,,,,
,,"[""circle"",""green"",""hori"",""left"",[-106,106],[0,150]]",circle,green,hori,left,"[-106,106]","[0,150]",left,1,,,,,,001,2025-03-10_16h54.50.499,SL_base_41,2021.2.3,Win32,60.24096386,2.7223,,,10,0,10,0,1,,,,,,,,
,,"[""circle"",""red"",""hori"",""left"",[-106,106],[150,0]]",circle,red,hori,left,"[-106,106]","[150,0]",left,1,,,,,,001,2025-03-10_16h54.50.499,SL_base_41,2021.2.3,Win32,60.24096386,2.2835,,,11,0,11,0,1,,,,,,,,
,,"[""diamond"",""red"",""hori"",""left"",[150,0],[-150,0]]",diamond,red,hori,left,"[150,0]","[-150,0]",left,1,,,,,,001,2025-03-10_16h54.50.499,SL_base_41,2021.2.3,Win32,60.24096386,1.583,,,12,0,12,0,1,,,,,,,,
,,"[""circle"",""no_dis"",""vert"",""up"",[99999,99999],[-106,106]]",circle,no_dis,vert,up,"[99999,99999]","[-106,106]",left,0,,,,,,001,2025-03-10_16h54.50.499,SL_base_41,2021.2.3,Win32,60.24096386,2.1885,,,13,0,13,0,1,,,,,,,,
,,"[""circle"",""green"",""vert"",""up"",[0,150],[-106,106]]",circle,green,vert,up,"[0,150]","[-106,106]",,0,,,,,,001,2025-03-10_16h54.50.499,SL_base_41,2021.2.3,Win32,60.24096386,,,,14,0,14,0,1,,,,,,,,
,,"[""circle"",""red"",""vert"",""up"",[106,-106],[0,150]]",circle,red,vert,up,"[106,-106]","[0,150]",up,1,,,,,,001,2025-03-10_16h54.50.499,SL_base_41,2021.2.3,Win32,60.24096386,1.5337,,,15,0,15,0,1,,,,,,,,
,,"[""diamond"",""no_dis"",""hori"",""left"",[99999,99999],[-106,-106]]",diamond,no_dis,hori,left,"[99999,99999]","[-106,-106]",left,1,,,,,,001,2025-03-10_16h54.50.499,SL_base_41,2021.2.3,Win32,60.24096386,1.5837,,,16,0,16,0,1,,,,,,,,
,,"[""diamond"",""green"",""hori"",""left"",[150,0],[-106,106]]",diamond,green,hori,left,"[150,0]","[-106,106]",left,1,,,,,,001,2025-03-10_16h54.50.499,SL_base_41,2021.2.3,Win32,60.24096386,2.4568,,,17,0,17,0,1,,,,,,,,
,,"[""diamond"",""no_dis"",""hori"",""left"",[99999,99999],[-106,-106]]",diamond,no_dis,hori,left,"[99999,99999]","[-106,-106]",left,1,,,,,,001,2025-03-10_16h54.50.499,SL_base_41,2021.2.3,Win32,60.24096386,0.9671,,,18,0,18,0,1,,,,,,,,
,,"[""diamond"",""red"",""hori"",""left"",[-106,106],[106,106]]",diamond,red,hori,left,"[-106,106]","[106,106]",left,1,,,,,,001,2025-03-10_16h54.50.499,SL_base_41,2021.2.3,Win32,60.24096386,2.3165,,,19,0,19,0,1,,,,,,,,
,,"[""circle"",""red"",""vert"",""up"",[-106,106],[0,150]]",circle,red,vert,up,"[-106,106]","[0,150]",up,1,,,,,,001,2025-03-10_16h54.50.499,SL_base_41,2021.2.3,Win32,60.24096386,1.517,,,20,0,20,0,1,,,,,,,,
,,"[""circle"",""no_dis"",""hori"",""left"",[99999,99999],[-150,0]]",circle,no_dis,hori,left,"[99999,99999]","[-150,0]",,0,,,,,,001,2025-03-10_16h54.50.499,SL_base_41,2021.2.3,Win32,60.24096386,,,,21,0,21,0,1,,,,,,,,
,,"[""diamond"",""no_dis"",""vert"",""up"",[99999,99999],[-106,106]]",diamond,no_dis,vert,up,"[99999,99999]","[-106,106]",up,1,,,,,,001,2025-03-10_16h54.50.499,SL_base_41,2021.2.3,Win32,60.24096386,1.3602,,,22,0,22,0,1,,,,,,,,
,,"[""diamond"",""no_dis"",""vert"",""up"",[99999,99999],[106,106]]",diamond,no_dis,vert,up,"[99999,99999]","[106,106]",left,0,,,,,,001,2025-03-10_16h54.50.499,SL_base_41,2021.2.3,Win32,60.24096386,2.4332,,,23,0,23,0,1,,,,,,,,
,,"[""diamond"",""green"",""hori"",""left"",[-150,0],[-106,106]]",diamond,green,hori,left,"[-150,0]","[-106,106]",left,1,,,,,,001,2025-03-10_16h54.50.499,SL_base_41,2021.2.3,Win32,60.24096386,2.6102,,,24,0,24,0,1,,,,,,,,
,,"[""diamond"",""no_dis"",""hori"",""left"",[99999,99999],[-150,0]]",diamond,no_dis,hori,left,"[99999,99999]","[-150,0]",left,1,,,,,,001,2025-03-10_16h54.50.499,SL_base_41,2021.2.3,Win32,60.24096386,1.6996,,,25,0,25,0,1,,,,,,,,
,,"[""circle"",""no_dis"",""hori"",""left"",[99999,99999],[150,0]]",circle,no_dis,hori,left,"[99999,99999]","[150,0]",left,1,,,,,,001,2025-03-10_16h54.50.499,SL_base_41,2021.2.3,Win32,60.24096386,1.9031,,,26,0,26,0,1,,,,,,,,
,,"[""circle"",""green"",""hori"",""left"",[-106,-106],[150,0]]",circle,green,hori,left,"[-106,-106]","[150,0]",left,1,,,,,,001,2025-03-10_16h54.50.499,SL_base_41,2021.2.3,Win32,60.24096386,2.4756,,,27,0,27,0,1,,,,,,,,
,,"[""diamond"",""red"",""vert"",""up"",[-106,106],[106,-106]]",diamond,red,vert,up,"[-106,106]","[106,-106]",up,1,,,,,,001,2025-03-10_16h54.50.499,SL_base_41,2021.2.3,Win32,60.24096386,1.4872,,,28,0,28,0,1,,,,,,,,
,,"[""diamond"",""red"",""hori"",""left"",[-150,0],[-106,106]]",diamond,red,hori,left,"[-150,0]","[-106,106]",left,1,,,,,,001,2025-03-10_16h54.50.499,SL_base_41,2021.2.3,Win32,60.24096386,1.7503,,,29,0,29,0,1,,,,,,,,
,,"[""diamond"",""red"",""vert"",""up"",[0,150],[106,-106]]",diamond,red,vert,up,"[0,150]","[106,-106]",up,1,,,,,,001,2025-03-10_16h54.50.499,SL_base_41,2021.2.3,Win32,60.24096386,1.2011,,,30,0,30,0,1,,,,,,,,
,,"[""diamond"",""red"",""vert"",""up"",[-106,106],[-106,-106]]",diamond,red,vert,up,"[-106,106]","[-106,-106]",up,1,,,,,,001,2025-03-10_16h54.50.499,SL_base_41,2021.2.3,Win32,60.24096386,2.3371,,,31,0,31,0,1,,,,,,,,
,,"[""circle"",""no_dis"",""vert"",""up"",[99999,99999],[-106,106]]",circle,no_dis,vert,up,"[99999,99999]","[-106,106]",left,0,,,,,,001,2025-03-10_16h54.50.499,SL_base_41,2021.2.3,Win32,60.24096386,2.0501,,,32,0,32,0,1,,,,,,,,
,,"[""circle"",""red"",""hori"",""left"",[0,-150],[106,106]]",circle,red,hori,left,"[0,-150]","[106,106]",left,1,,,,,,001,2025-03-10_16h54.50.499,SL_base_41,2021.2.3,Win32,60.24096386,2.3502,,,33,0,33,0,1,,,,,,,,
,,"[""circle"",""green"",""vert"",""up"",[150,0],[106,-106]]",circle,green,vert,up,"[150,0]","[106,-106]",up,1,,,,,,001,2025-03-10_16h54.50.499,SL_base_41,2021.2.3,Win32,60.24096386,1.8169,,,34,0,34,0,1,,,,,,,,
,,"[""circle"",""no_dis"",""vert"",""up"",[99999,99999],[150,0]]",circle,no_dis,vert,up,"[99999,99999]","[150,0]",,0,,,,,,001,2025-03-10_16h54.50.499,SL_base_41,2021.2.3,Win32,60.24096386,,,,35,0,35,0,1,,,,,,,,
,,"[""circle"",""no_dis"",""hori"",""left"",[99999,99999],[-150,0]]",circle,no_dis,hori,left,"[99999,99999]","[-150,0]",left,1,,,,,,001,2025-03-10_16h54.50.499,SL_base_41,2021.2.3,Win32,60.24096386,1.15,,,36,0,36,0,1,,,,,,,,
,,"[""circle"",""green"",""hori"",""left"",[106,-106],[106,106]]",circle,green,hori,left,"[106,-106]","[106,106]",left,1,,,,,,001,2025-03-10_16h54.50.499,SL_base_41,2021.2.3,Win32,60.24096386,1.9173,,,37,0,37,0,1,,,,,,,,
,,"[""circle"",""green"",""hori"",""left"",[0,-150],[106,-106]]",circle,green,hori,left,"[0,-150]","[106,-106]",left,1,,,,,,001,2025-03-10_16h54.50.499,SL_base_41,2021.2.3,Win32,60.24096386,1.5236,,,38,0,38,0,1,,,,,,,,
,,"[""diamond"",""red"",""vert"",""up"",[150,0],[106,106]]",diamond,red,vert,up,"[150,0]","[106,106]",up,1,,,,,,001,2025-03-10_16h54.50.499,SL_base_41,2021.2.3,Win32,60.24096386,1.1869,,,39,0,39,0,1,,,,,,,,
,,"[""diamond"",""red"",""vert"",""up"",[106,-106],[0,150]]",diamond,red,vert,up,"[106,-106]","[0,150]",up,1,,,,,,001,2025-03-10_16h54.50.499,SL_base_41,2021.2.3,Win32,60.24096386,1.3628,,,40,0,40,0,1,,,,,,,,
,,"[""diamond"",""no_dis"",""hori"",""left"",[99999,99999],[0,-150]]",diamond,no_dis,hori,left,"[99999,99999]","[0,-150]",left,1,,,,,,001,2025-03-10_16h54.50.499,SL_base_41,2021.2.3,Win32,60.24096386,1.7717,,,41,0,41,0,1,,,,,,,,
,,"[""diamond"",""no_dis"",""vert"",""up"",[99999,99999],[106,-106]]",diamond,no_dis,vert,up,"[99999,99999]","[106,-106]",up,1,,,,,,001,2025-03-10_16h54.50.499,SL_base_41,2021.2.3,Win32,60.24096386,1.2002,,,42,0,42,0,1,,,,,,,,
,,"[""diamond"",""green"",""hori"",""left"",[-106,106],[106,106]]",diamond,green,hori,left,"[-106,106]","[106,106]",left,1,,,,,,001,2025-03-10_16h54.50.499,SL_base_41,2021.2.3,Win32,60.24096386,1.0713,,,43,0,43,0,1,,,,,,,,
,,"[""circle"",""no_dis"",""hori"",""left"",[99999,99999],[-106,-106]]",circle,no_dis,hori,left,"[99999,99999]","[-106,-106]",left,1,,,,,,001,2025-03-10_16h54.50.499,SL_base_41,2021.2.3,Win32,60.24096386,1.2851,,,44,0,44,0,1,,,,,,,,
,,"[""circle"",""green"",""hori"",""left"",[-106,106],[106,106]]",circle,green,hori,left,"[-106,106]","[106,106]",left,1,,,,,,001,2025-03-10_16h54.50.499,SL_base_41,2021.2.3,Win32,60.24096386,1.5274,,,45,0,45,0,1,,,,,,,,
,,"[""circle"",""no_dis"",""vert"",""up"",[99999,99999],[-150,0]]",circle,no_dis,vert,up,"[99999,99999]","[-150,0]",up,1,,,,,,001,2025-03-10_16h54.50.499,SL_base_41,2021.2.3,Win32,60.24096386,1.5004,,,46,0,46,0,1,,,,,,,,
,,"[""diamond"",""red"",""vert"",""up"",[-106,106],[-150,0]]",diamond,red,vert,up,"[-106,106]","[-150,0]",up,1,,,,,,001,2025-03-10_16h54.50.499,SL_base_41,2021.2.3,Win32,60.24096386,1.637,,,47,0,47,0,1,,,,,,,,
,,"[""diamond"",""green"",""vert"",""up"",[-150,0],[150,0]]",diamond,green,vert,up,"[-150,0]","[150,0]",up,1,,,,,,001,2025-03-10_16h54.50.499,SL_base_41,2021.2.3,Win32,60.24096386,1.4836,,,48,0,48,0,1,,,,,,,,
,,"[""circle"",""red"",""vert"",""up"",[-106,106],[106,-106]]",circle,red,vert,up,"[-106,106]","[106,-106]",up,1,,,,,,001,2025-03-10_16h54.50.499,SL_base_41,2021.2.3,Win32,60.24096386,0.9049,,,49,0,49,0,1,,,,,,,,
,,"[""circle"",""green"",""vert"",""up"",[-106,106],[106,-106]]",circle,green,vert,up,"[-106,106]","[106,-106]",up,1,,,,,,001,2025-03-10_16h54.50.499,SL_base_41,2021.2.3,Win32,60.24096386,1.0091,,,50,0,50,0,1,,,,,,,,
,,"[""circle"",""no_dis"",""vert"",""up"",[99999,99999],[0,-150]]",circle,no_dis,vert,up,"[99999,99999]","[0,-150]",up,1,,,,,,001,2025-03-10_16h54.50.499,SL_base_41,2021.2.3,Win32,60.24096386,1.17,,,51,0,51,0,1,,,,,,,,
,,"[""diamond"",""green"",""vert"",""up"",[-150,0],[106,106]]",diamond,green,vert,up,"[-150,0]","[106,106]",up,1,,,,,,001,2025-03-10_16h54.50.499,SL_base_41,2021.2.3,Win32,60.24096386,1.9354,,,52,0,52,0,1,,,,,,,,
,,"[""circle"",""red"",""vert"",""up"",[-106,106],[0,150]]",circle,red,vert,up,"[-106,106]","[0,150]",up,1,,,,,,001,2025-03-10_16h54.50.499,SL_base_41,2021.2.3,Win32,60.24096386,1.7079,,,53,0,53,0,1,,,,,,,,
,,"[""diamond"",""no_dis"",""vert"",""up"",[99999,99999],[106,-106]]",diamond,no_dis,vert,up,"[99999,99999]","[106,-106]",up,1,,,,,,001,2025-03-10_16h54.50.499,SL_base_41,2021.2.3,Win32,60.24096386,2.1168,,,54,0,54,0,1,,,,,,,,
,,"[""diamond"",""red"",""vert"",""up"",[106,-106],[150,0]]",diamond,red,vert,up,"[106,-106]","[150,0]",up,1,,,,,,001,2025-03-10_16h54.50.499,SL_base_41,2021.2.3,Win32,60.24096386,1.7248,,,55,0,55,0,1,,,,,,,,
,,"[""circle"",""red"",""hori"",""left"",[0,-150],[-106,106]]",circle,red,hori,left,"[0,-150]","[-106,106]",left,1,,,,,,001,2025-03-10_16h54.50.499,SL_base_41,2021.2.3,Win32,60.24096386,2.2667,,,56,0,56,0,1,,,,,,,,
,,"[""diamond"",""green"",""hori"",""left"",[-106,106],[0,-150]]",diamond,green,hori,left,"[-106,106]","[0,-150]",left,1,,,,,,001,2025-03-10_16h54.50.499,SL_base_41,2021.2.3,Win32,60.24096386,1.1664,,,57,0,57,0,1,,,,,,,,
,,"[""circle"",""no_dis"",""hori"",""left"",[99999,99999],[0,150]]",circle,no_dis,hori,left,"[99999,99999]","[0,150]",left,1,,,,,,001,2025-03-10_16h54.50.499,SL_base_41,2021.2.3,Win32,60.24096386,1.4352,,,58,0,58,0,1,,,,,,,,
,,"[""circle"",""red"",""hori"",""left"",[-106,106],[106,106]]",circle,red,hori,left,"[-106,106]","[106,106]",left,1,,,,,,001,2025-03-10_16h54.50.499,SL_base_41,2021.2.3,Win32,60.24096386,1.2255,,,59,0,59,0,1,,,,,,,,
,,"[""circle"",""green"",""vert"",""up"",[-106,-106],[0,-150]]",circle,green,vert,up,"[-106,-106]","[0,-150]",up,1,,,,,,001,2025-03-10_16h54.50.499,SL_base_41,2021.2.3,Win32,60.24096386,1.1853,,,60,0,60,0,1,,,,,,,,
,,"[""circle"",""green"",""vert"",""up"",[-106,106],[106,106]]",circle,green,vert,up,"[-106,106]","[106,106]",up,1,,,,,,001,2025-03-10_16h54.50.499,SL_base_41,2021.2.3,Win32,60.24096386,1.0341,,,61,0,61,0,1,,,,,,,,
,,"[""circle"",""no_dis"",""vert"",""up"",[99999,99999],[0,-150]]",circle,no_dis,vert,up,"[99999,99999]","[0,-150]",up,1,,,,,,001,2025-03-10_16h54.50.499,SL_base_41,2021.2.3,Win32,60.24096386,0.7503,,,62,0,62,0,1,,,,,,,,
,,"[""diamond"",""no_dis"",""hori"",""left"",[99999,99999],[-106,-106]]",diamond,no_dis,hori,left,"[99999,99999]","[-106,-106]",left,1,,,,,,001,2025-03-10_16h54.50.499,SL_base_41,2021.2.3,Win32,60.24096386,1.6579,,,63,0,63,0,1,,,,,,,,
,,"[""diamond"",""green"",""vert"",""up"",[-106,-106],[106,-106]]",diamond,green,vert,up,"[-106,-106]","[106,-106]",up,1,,,,,,001,2025-03-10_16h54.50.499,SL_base_41,2021.2.3,Win32,60.24096386,1.3115,,,64,0,64,0,1,,,,,,,,
,,"[""diamond"",""no_dis"",""vert"",""up"",[99999,99999],[150,0]]",diamond,no_dis,vert,up,"[99999,99999]","[150,0]",up,1,,,,,,001,2025-03-10_16h54.50.499,SL_base_41,2021.2.3,Win32,60.24096386,1.0256,,,65,0,65,0,1,,,,,,,,
,,"[""circle"",""green"",""vert"",""up"",[-106,106],[0,-150]]",circle,green,vert,up,"[-106,106]","[0,-150]",up,1,,,,,,001,2025-03-10_16h54.50.499,SL_base_41,2021.2.3,Win32,60.24096386,1.5326,,,66,0,66,0,1,,,,,,,,
,,"[""circle"",""red"",""vert"",""up"",[0,150],[0,-150]]",circle,red,vert,up,"[0,150]","[0,-150]",up,1,,,,,,001,2025-03-10_16h54.50.499,SL_base_41,2021.2.3,Win32,60.24096386,0.8839,,,67,0,67,0,1,,,,,,,,
,,"[""circle"",""red"",""vert"",""up"",[-106,106],[-106,-106]]",circle,red,vert,up,"[-106,106]","[-106,-106]",up,1,,,,,,001,2025-03-10_16h54.50.499,SL_base_41,2021.2.3,Win32,60.24096386,1.1952,,,68,0,68,0,1,,,,,,,,
,,"[""diamond"",""red"",""vert"",""up"",[150,0],[106,-106]]",diamond,red,vert,up,"[150,0]","[106,-106]",up,1,,,,,,001,2025-03-10_16h54.50.499,SL_base_41,2021.2.3,Win32,60.24096386,1.3778,,,69,0,69,0,1,,,,,,,,
,,"[""circle"",""green"",""vert"",""up"",[150,0],[-106,106]]",circle,green,vert,up,"[150,0]","[-106,106]",up,1,,,,,,001,2025-03-10_16h54.50.499,SL_base_41,2021.2.3,Win32,60.24096386,2.0705,,,70,0,70,0,1,,,,,,,,
,,"[""circle"",""no_dis"",""hori"",""left"",[99999,99999],[0,-150]]",circle,no_dis,hori,left,"[99999,99999]","[0,-150]",left,1,,,,,,001,2025-03-10_16h54.50.499,SL_base_41,2021.2.3,Win32,60.24096386,1.2283,,,71,0,71,0,1,,,,,,,,
,,"[""diamond"",""red"",""hori"",""left"",[-106,-106],[-106,106]]",diamond,red,hori,left,"[-106,-106]","[-106,106]",left,1,,,,,,001,2025-03-10_16h54.50.499,SL_base_41,2021.2.3,Win32,60.24096386,1.6602,,,72,0,72,0,1,,,,,,,,
,,"[""circle"",""no_dis"",""hori"",""left"",[99999,99999],[-106,-106]]",circle,no_dis,hori,left,"[99999,99999]","[-106,-106]",left,1,,,,,,001,2025-03-10_16h54.50.499,SL_base_41,2021.2.3,Win32,60.24096386,1.7778,,,73,0,73,0,1,,,,,,,,
,,"[""circle"",""no_dis"",""hori"",""left"",[99999,99999],[0,150]]",circle,no_dis,hori,left,"[99999,99999]","[0,150]",left,1,,,,,,001,2025-03-10_16h54.50.499,SL_base_41,2021.2.3,Win32,60.24096386,1.2853,,,74,0,74,0,1,,,,,,,,
,,"[""diamond"",""red"",""vert"",""up"",[150,0],[-106,-106]]",diamond,red,vert,up,"[150,0]","[-106,-106]",up,1,,,,,,001,2025-03-10_16h54.50.499,SL_base_41,2021.2.3,Win32,60.24096386,1.6366,,,75,0,75,0,1,,,,,,,,
,,"[""diamond"",""no_dis"",""vert"",""up"",[99999,99999],[0,150]]",diamond,no_dis,vert,up,"[99999,99999]","[0,150]",up,1,,,,,,001,2025-03-10_16h54.50.499,SL_base_41,2021.2.3,Win32,60.24096386,1.7356,,,76,0,76,0,1,,,,,,,,
,,"[""diamond"",""green"",""hori"",""left"",[-106,106],[106,-106]]",diamond,green,hori,left,"[-106,106]","[106,-106]",left,1,,,,,,001,2025-03-10_16h54.50.499,SL_base_41,2021.2.3,Win32,60.24096386,1.0171,,,77,0,77,0,1,,,,,,,,
,,"[""diamond"",""no_dis"",""hori"",""left"",[99999,99999],[0,150]]",diamond,no_dis,hori,left,"[99999,99999]","[0,150]",left,1,,,,,,001,2025-03-10_16h54.50.499,SL_base_41,2021.2.3,Win32,60.24096386,1.376,,,78,0,78,0,1,,,,,,,,
,,"[""diamond"",""green"",""hori"",""left"",[-106,106],[-106,-106]]",diamond,green,hori,left,"[-106,106]","[-106,-106]",left,1,,,,,,001,2025-03-10_16h54.50.499,SL_base_41,2021.2.3,Win32,60.24096386,1.2765,,,79,0,79,0,1,,,,,,,,
,,"[""circle"",""no_dis"",""hori"",""left"",[99999,99999],[106,-106]]",circle,no_dis,hori,left,"[99999,99999]","[106,-106]",left,1,,,,,,001,2025-03-10_16h54.50.499,SL_base_41,2021.2.3,Win32,60.24096386,1.9245,,,80,0,80,0,1,,,,,,,,
,,"[""diamond"",""green"",""vert"",""up"",[0,150],[-106,-106]]",diamond,green,vert,up,"[0,150]","[-106,-106]",up,1,,,,,,001,2025-03-10_16h54.50.499,SL_base_41,2021.2.3,Win32,60.24096386,1.2668,,,81,0,81,0,1,,,,,,,,
,,"[""circle"",""red"",""hori"",""left"",[106,-106],[106,106]]",circle,red,hori,left,"[106,-106]","[106,106]",left,1,,,,,,001,2025-03-10_16h54.50.499,SL_base_41,2021.2.3,Win32,60.24096386,1.8017,,,82,0,82,0,1,,,,,,,,
,,"[""circle"",""red"",""hori"",""left"",[0,150],[-106,106]]",circle,red,hori,left,"[0,150]","[-106,106]",left,1,,,,,,001,2025-03-10_16h54.50.499,SL_base_41,2021.2.3,Win32,60.24096386,1.25,,,83,0,83,0,1,,,,,,,,
,,"[""circle"",""green"",""hori"",""left"",[150,0],[106,-106]]",circle,green,hori,left,"[150,0]","[106,-106]",left,1,,,,,,001,2025-03-10_16h54.50.499,SL_base_41,2021.2.3,Win32,60.24096386,0.8342,,,84,0,84,0,1,,,,,,,,
,,"[""diamond"",""no_dis"",""hori"",""left"",[99999,99999],[106,106]]",diamond,no_dis,hori,left,"[99999,99999]","[106,106]",left,1,,,,,,001,2025-03-10_16h54.50.499,SL_base_41,2021.2.3,Win32,60.24096386,1.7297,,,85,0,85,0,1,,,,,,,,
,,"[""circle"",""green"",""hori"",""left"",[106,-106],[-106,106]]",circle,green,hori,left,"[106,-106]","[-106,106]",left,1,,,,,,001,2025-03-10_16h54.50.499,SL_base_41,2021.2.3,Win32,60.24096386,1.3678,,,86,0,86,0,1,,,,,,,,
,,"[""diamond"",""no_dis"",""hori"",""left"",[99999,99999],[150,0]]",diamond,no_dis,hori,left,"[99999,99999]","[150,0]",left,1,,,,,,001,2025-03-10_16h54.50.499,SL_base_41,2021.2.3,Win32,60.24096386,0.8898,,,87,0,87,0,1,,,,,,,,
,,"[""circle"",""red"",""hori"",""left"",[-106,106],[-150,0]]",circle,red,hori,left,"[-106,106]","[-150,0]",left,1,,,,,,001,2025-03-10_16h54.50.499,SL_base_41,2021.2.3,Win32,60.24096386,1.236,,,88,0,88,0,1,,,,,,,,
,,"[""diamond"",""green"",""hori"",""left"",[0,-150],[-106,-106]]",diamond,green,hori,left,"[0,-150]","[-106,-106]",left,1,,,,,,001,2025-03-10_16h54.50.499,SL_base_41,2021.2.3,Win32,60.24096386,1.3624,,,89,0,89,0,1,,,,,,,,
,,"[""circle"",""no_dis"",""vert"",""up"",[99999,99999],[106,106]]",circle,no_dis,vert,up,"[99999,99999]","[106,106]",up,1,,,,,,001,2025-03-10_16h54.50.499,SL_base_41,2021.2.3,Win32,60.24096386,1.5686,,,90,0,90,0,1,,,,,,,,
,,"[""diamond"",""no_dis"",""vert"",""up"",[99999,99999],[0,-150]]",diamond,no_dis,vert,up,"[99999,99999]","[0,-150]",up,1,,,,,,001,2025-03-10_16h54.50.499,SL_base_41,2021.2.3,Win32,60.24096386,1.8657,,,91,0,91,0,1,,,,,,,,
,,"[""circle"",""green"",""hori"",""left"",[-106,106],[150,0]]",circle,green,hori,left,"[-106,106]","[150,0]",left,1,,,,,,001,2025-03-10_16h54.50.499,SL_base_41,2021.2.3,Win32,60.24096386,1.4086,,,92,0,92,0,1,,,,,,,,
,,"[""diamond"",""green"",""hori"",""left"",[-106,106],[-106,-106]]",diamond,green,hori,left,"[-106,106]","[-106,-106]",left,1,,,,,,001,2025-03-10_16h54.50.499,SL_base_41,2021.2.3,Win32,60.24096386,1.8883,,,93,0,93,0,1,,,,,,,,
,,"[""diamond"",""green"",""vert"",""up"",[0,-150],[0,150]]",diamond,green,vert,up,"[0,-150]","[0,150]",up,1,,,,,,001,2025-03-10_16h54.50.499,SL_base_41,2021.2.3,Win32,60.24096386,1.1169,,,94,0,94,0,1,,,,,,,,
,,"[""circle"",""green"",""vert"",""up"",[-106,106],[106,-106]]",circle,green,vert,up,"[-106,106]","[106,-106]",left,0,,,,,,001,2025-03-10_16h54.50.499,SL_base_41,2021.2.3,Win32,60.24096386,1.9358,,,95,0,95,0,1,,,,,,,,
,,"[""circle"",""green"",""hori"",""left"",[-150,0],[-106,-106]]",circle,green,hori,left,"[-150,0]","[-106,-106]",left,1,,,,,,001,2025-03-10_16h54.50.499,SL_base_41,2021.2.3,Win32,60.24096386,2.7049,,,96,0,96,0,1,,,,,,,,
,,"[""diamond"",""red"",""hori"",""left"",[-106,-106],[106,106]]",diamond,red,hori,left,"[-106,-106]","[106,106]",left,1,,,,,,001,2025-03-10_16h54.50.499,SL_base_41,2021.2.3,Win32,60.24096386,2.0003,,,97,0,97,0,1,,,,,,,,
,,"[""circle"",""red"",""vert"",""up"",[-106,-106],[-150,0]]",circle,red,vert,up,"[-106,-106]","[-150,0]",up,1,,,,,,001,2025-03-10_16h54.50.499,SL_base_41,2021.2.3,Win32,60.24096386,2.7421,,,98,0,98,0,1,,,,,,,,
,,"[""diamond"",""red"",""hori"",""left"",[106,-106],[-150,0]]",diamond,red,hori,left,"[106,-106]","[-150,0]",left,1,,,,,,001,2025-03-10_16h54.50.499,SL_base_41,2021.2.3,Win32,60.24096386,1.4795,,,99,0,99,0,1,,,,,,,,
,,"[""circle"",""red"",""hori"",""left"",[106,-106],[-106,-106]]",circle,red,hori,left,"[106,-106]","[-106,-106]",left,1,,,,,,001,2025-03-10_16h54.50.499,SL_base_41,2021.2.3,Win32,60.24096386,1.4338,,,100,0,100,0,1,,,,,,,,
,,"[""diamond"",""green"",""vert"",""up"",[106,106],[-106,-106]]",diamond,green,vert,up,"[106,106]","[-106,-106]",up,1,,,,,,001,2025-03-10_16h54.50.499,SL_base_41,2021.2.3,Win32,60.24096386,2.5163,,,101,0,101,0,1,,,,,,,,
,,"[""circle"",""red"",""hori"",""left"",[-106,106],[150,0]]",circle,red,hori,left,"[-106,106]","[150,0]",left,1,,,,,,001,2025-03-10_16h54.50.499,SL_base_41,2021.2.3,Win32,60.24096386,1.3756,,,102,0,102,0,1,,,,,,,,
,,"[""diamond"",""red"",""hori"",""left"",[106,106],[0,150]]",diamond,red,hori,left,"[106,106]","[0,150]",left,1,,,,,,001,2025-03-10_16h54.50.499,SL_base_41,2021.2.3,Win32,60.24096386,0.9743,,,103,0,103,0,1,,,,,,,,
,,"[""diamond"",""no_dis"",""vert"",""up"",[99999,99999],[-106,106]]",diamond,no_dis,vert,up,"[99999,99999]","[-106,106]",up,1,,,,,,001,2025-03-10_16h54.50.499,SL_base_41,2021.2.3,Win32,60.24096386,1.2887,,,104,0,104,0,1,,,,,,,,
,,"[""diamond"",""green"",""hori"",""left"",[106,106],[150,0]]",diamond,green,hori,left,"[106,106]","[150,0]",left,1,,,,,,001,2025-03-10_16h54.50.499,SL_base_41,2021.2.3,Win32,60.24096386,1.7244,,,105,0,105,0,1,,,,,,,,
,,"[""circle"",""red"",""vert"",""up"",[0,-150],[-150,0]]",circle,red,vert,up,"[0,-150]","[-150,0]",up,1,,,,,,001,2025-03-10_16h54.50.499,SL_base_41,2021.2.3,Win32,60.24096386,1.0873,,,106,0,106,0,1,,,,,,,,
,,"[""diamond"",""no_dis"",""vert"",""up"",[99999,99999],[150,0]]",diamond,no_dis,vert,up,"[99999,99999]","[150,0]",up,1,,,,,,001,2025-03-10_16h54.50.499,SL_base_41,2021.2.3,Win32,60.24096386,1.2231,,,107,0,107,0,1,,,,,,,,
,,"[""diamond"",""red"",""hori"",""left"",[0,150],[0,-150]]",diamond,red,hori,left,"[0,150]","[0,-150]",left,1,,,,,,001,2025-03-10_16h54.50.499,SL_base_41,2021.2.3,Win32,60.24096386,0.9828,,,108,0,108,0,1,,,,,,,,
,,"[""circle"",""red"",""vert"",""up"",[0,-150],[-150,0]]",circle,red,vert,up,"[0,-150]","[-150,0]",up,1,,,,,,001,2025-03-10_16h54.50.499,SL_base_41,2021.2.3,Win32,60.24096386,2.0667,,,109,0,109,0,1,,,,,,,,
,,"[""circle"",""green"",""vert"",""up"",[0,150],[0,-150]]",circle,green,vert,up,"[0,150]","[0,-150]",up,1,,,,,,001,2025-03-10_16h54.50.499,SL_base_41,2021.2.3,Win32,60.24096386,1.174,,,110,0,110,0,1,,,,,,,,
,,"[""circle"",""no_dis"",""vert"",""up"",[99999,99999],[106,-106]]",circle,no_dis,vert,up,"[99999,99999]","[106,-106]",up,1,,,,,,001,2025-03-10_16h54.50.499,SL_base_41,2021.2.3,Win32,60.24096386,0.9791,,,111,0,111,0,1,,,,,,,,
,,"[""diamond"",""no_dis"",""hori"",""left"",[99999,99999],[-106,106]]",diamond,no_dis,hori,left,"[99999,99999]","[-106,106]",left,1,,,,,,001,2025-03-10_16h54.50.499,SL_base_41,2021.2.3,Win32,60.24096386,1.241,,,112,0,112,0,1,,,,,,,,
,,"[""diamond"",""green"",""vert"",""up"",[-106,-106],[0,150]]",diamond,green,vert,up,"[-106,-106]","[0,150]",up,1,,,,,,001,2025-03-10_16h54.50.499,SL_base_41,2021.2.3,Win32,60.24096386,1.7669,,,113,0,113,0,1,,,,,,,,
,,"[""diamond"",""no_dis"",""hori"",""left"",[99999,99999],[106,-106]]",diamond,no_dis,hori,left,"[99999,99999]","[106,-106]",left,1,,,,,,001,2025-03-10_16h54.50.499,SL_base_41,2021.2.3,Win32,60.24096386,1.162,,,114,0,114,0,1,,,,,,,,
,,"[""diamond"",""green"",""hori"",""left"",[-150,0],[-106,106]]",diamond,green,hori,left,"[-150,0]","[-106,106]",left,1,,,,,,001,2025-03-10_16h54.50.499,SL_base_41,2021.2.3,Win32,60.24096386,1.2942,,,115,0,115,0,1,,,,,,,,
,,"[""diamond"",""red"",""hori"",""left"",[-106,106],[0,-150]]",diamond,red,hori,left,"[-106,106]","[0,-150]",up,0,,,,,,001,2025-03-10_16h54.50.499,SL_base_41,2021.2.3,Win32,60.24096386,1.0165,,,116,0,116,0,1,,,,,,,,
,,"[""diamond"",""green"",""vert"",""up"",[0,-150],[-106,106]]",diamond,green,vert,up,"[0,-150]","[-106,106]",up,1,,,,,,001,2025-03-10_16h54.50.499,SL_base_41,2021.2.3,Win32,60.24096386,2.3081,,,117,0,117,0,1,,,,,,,,
,,"[""diamond"",""red"",""hori"",""left"",[-106,-106],[106,106]]",diamond,red,hori,left,"[-106,-106]","[106,106]",left,1,,,,,,001,2025-03-10_16h54.50.499,SL_base_41,2021.2.3,Win32,60.24096386,1.1687,,,118,0,118,0,1,,,,,,,,
,,"[""diamond"",""green"",""vert"",""up"",[106,106],[150,0]]",diamond,green,vert,up,"[106,106]","[150,0]",up,1,,,,,,001,2025-03-10_16h54.50.499,SL_base_41,2021.2.3,Win32,60.24096386,1.7556,,,119,0,119,0,1,,,,,,,,
,,"[""circle"",""red"",""hori"",""left"",[106,106],[-150,0]]",circle,red,hori,left,"[106,106]","[-150,0]",left,1,,,,,,001,2025-03-10_16h54.50.499,SL_base_41,2021.2.3,Win32,60.24096386,2.5519,,,120,0,120,0,1,,,,,,,,
,,"[""diamond"",""green"",""vert"",""up"",[-106,106],[-106,-106]]",diamond,green,vert,up,"[-106,106]","[-106,-106]",up,1,,,,,,001,2025-03-10_16h54.50.499,SL_base_41,2021.2.3,Win32,60.24096386,2.3999,,,121,0,121,0,1,,,,,,,,
,,"[""diamond"",""no_dis"",""vert"",""up"",[99999,99999],[0,150]]",diamond,no_dis,vert,up,"[99999,99999]","[0,150]",up,1,,,,,,001,2025-03-10_16h54.50.499,SL_base_41,2021.2.3,Win32,60.24096386,1.6526,,,122,0,122,0,1,,,,,,,,
,,"[""circle"",""red"",""hori"",""left"",[0,150],[106,-106]]",circle,red,hori,left,"[0,150]","[106,-106]",,0,,,,,,001,2025-03-10_16h54.50.499,SL_base_41,2021.2.3,Win32,60.24096386,,,,123,0,123,0,1,,,,,,,,
,,"[""circle"",""red"",""vert"",""up"",[106,106],[-106,106]]",circle,red,vert,up,"[106,106]","[-106,106]",up,1,,,,,,001,2025-03-10_16h54.50.499,SL_base_41,2021.2.3,Win32,60.24096386,1.9721,,,124,0,124,0,1,,,,,,,,
,,"[""diamond"",""red"",""vert"",""up"",[-106,106],[-150,0]]",diamond,red,vert,up,"[-106,106]","[-150,0]",up,1,,,,,,001,2025-03-10_16h54.50.499,SL_base_41,2021.2.3,Win32,60.24096386,2.0009,,,125,0,125,0,1,,,,,,,,
,,"[""circle"",""green"",""vert"",""up"",[-106,106],[0,-150]]",circle,green,vert,up,"[-106,106]","[0,-150]",up,1,,,,,,001,2025-03-10_16h54.50.499,SL_base_41,2021.2.3,Win32,60.24096386,1.4555,,,126,0,126,0,1,,,,,,,,
,,"[""circle"",""no_dis"",""hori"",""left"",[99999,99999],[106,106]]",circle,no_dis,hori,left,"[99999,99999]","[106,106]",left,1,,,,,,001,2025-03-10_16h54.50.499,SL_base_41,2021.2.3,Win32,60.24096386,1.8667,,,127,0,127,0,1,,,,,,,,
,,,,,,,,,,,,,,,,001,2025-03-10_16h54.50.499,SL_base_41,2021.2.3,Win32,60.24096386,,,,,,,,,1,space,42.8429,0,0,0,0,1
,,"[""circle"",""green"",""vert"",""up"",[-106,106],[106,-106]]",circle,green,vert,up,"[-106,106]","[106,-106]",left,0,,,,,,001,2025-03-10_16h54.50.499,SL_base_41,2021.2.3,Win32,60.24096386,1.2222,,,0,0,0,0,1,,,,,,,,
,,"[""circle"",""green"",""hori"",""left"",[106,-106],[-106,106]]",circle,green,hori,left,"[106,-106]","[-106,106]",left,1,,,,,,001,2025-03-10_16h54.50.499,SL_base_41,2021.2.3,Win32,60.24096386,1.7,,,1,0,1,0,1,,,,,,,,
,,"[""diamond"",""green"",""hori"",""left"",[106,106],[150,0]]",diamond,green,hori,left,"[106,106]","[150,0]",left,1,,,,,,001,2025-03-10_16h54.50.499,SL_base_41,2021.2.3,Win32,60.24096386,1.7683,,,2,0,2,0,1,,,,,,,,
,,"[""diamond"",""red"",""hori"",""left"",[106,-106],[-150,0]]",diamond,red,hori,left,"[106,-106]","[-150,0]",left,1,,,,,,001,2025-03-10_16h54.50.499,SL_base_41,2021.2.3,Win32,60.24096386,1.1612,,,3,0,3,0,1,,,,,,,,
,,"[""circle"",""red"",""vert"",""up"",[-106,106],[-106,-106]]",circle,red,vert,up,"[-106,106]","[-106,-106]",up,1,,,,,,001,2025-03-10_16h54.50.499,SL_base_41,2021.2.3,Win32,60.24096386,1.85,,,4,0,4,0,1,,,,,,,,
,,"[""diamond"",""green"",""hori"",""left"",[-150,0],[-106,106]]",diamond,green,hori,left,"[-150,0]","[-106,106]",left,1,,,,,,001,2025-03-10_16h54.50.499,SL_base_41,2021.2.3,Win32,60.24096386,2.6294,,,5,0,5,0,1,,,,,,,,
,,"[""diamond"",""red"",""hori"",""left"",[-106,106],[0,-150]]",diamond,red,hori,left,"[-106,106]","[0,-150]",left,1,,,,,,001,2025-03-10_16h54.50.499,SL_base_41,2021.2.3,Win32,60.24096386,1.15,,,6,0,6,0,1,,,,,,,,
,,"[""diamond"",""red"",""vert"",""up"",[150,0],[106,-106]]",diamond,red,vert,up,"[150,0]","[106,-106]",up,1,,,,,,001,2025-03-10_16h54.50.499,SL_base_41,2021.2.3,Win32,60.24096386,1.2025,,,7,0,7,0,1,,,,,,,,
,,"[""circle"",""green"",""hori"",""left"",[-106,106],[106,106]]",circle,green,hori,left,"[-106,106]","[106,106]",left,1,,,,,,001,2025-03-10_16h54.50.499,SL_base_41,2021.2.3,Win32,60.24096386,1.7929,,,8,0,8,0,1,,,,,,,,
,,"[""diamond"",""red"",""hori"",""left"",[-106,-106],[-106,106]]",diamond,red,hori,left,"[-106,-106]","[-106,106]",left,1,,,,,,001,2025-03-10_16h54.50.499,SL_base_41,2021.2.3,Win32,60.24096386,2.2523,,,9,0,9,0,1,,,,,,,,
,,"[""diamond"",""red"",""hori"",""left"",[0,150],[0,-150]]",diamond,red,hori,left,"[0,150]","[0,-150]",left,1,,,,,,001,2025-03-10_16h54.50.499,SL_base_41,2021.2.3,Win32,60.24096386,0.9208,,,10,0,10,0,1,,,,,,,,
,,"[""circle"",""green"",""hori"",""left"",[106,-106],[106,106]]",circle,green,hori,left,"[106,-106]","[106,106]",left,1,,,,,,001,2025-03-10_16h54.50.499,SL_base_41,2021.2.3,Win32,60.24096386,2.2333,,,11,0,11,0,1,,,,,,,,
,,"[""diamond"",""green"",""hori"",""left"",[-106,106],[106,-106]]",diamond,green,hori,left,"[-106,106]","[106,-106]",left,1,,,,,,001,2025-03-10_16h54.50.499,SL_base_41,2021.2.3,Win32,60.24096386,1.3495,,,12,0,12,0,1,,,,,,,,
,,"[""circle"",""no_dis"",""hori"",""left"",[99999,99999],[106,-106]]",circle,no_dis,hori,left,"[99999,99999]","[106,-106]",left,1,,,,,,001,2025-03-10_16h54.50.499,SL_base_41,2021.2.3,Win32,60.24096386,1.1835,,,13,0,13,0,1,,,,,,,,
,,"[""diamond"",""green"",""vert"",""up"",[0,-150],[-106,106]]",diamond,green,vert,up,"[0,-150]","[-106,106]",up,1,,,,,,001,2025-03-10_16h54.50.499,SL_base_41,2021.2.3,Win32,60.24096386,1.5,,,14,0,14,0,1,,,,,,,,
,,"[""diamond"",""no_dis"",""hori"",""left"",[99999,99999],[-106,106]]",diamond,no_dis,hori,left,"[99999,99999]","[-106,106]",left,1,,,,,,001,2025-03-10_16h54.50.499,SL_base_41,2021.2.3,Win32,60.24096386,1.0337,,,15,0,15,0,1,,,,,,,,
,,"[""circle"",""green"",""hori"",""left"",[-106,106],[150,0]]",circle,green,hori,left,"[-106,106]","[150,0]",left,1,,,,,,001,2025-03-10_16h54.50.499,SL_base_41,2021.2.3,Win32,60.24096386,1.0357,,,16,0,16,0,1,,,,,,,,
,,"[""circle"",""red"",""vert"",""up"",[-106,106],[0,150]]",circle,red,vert,up,"[-106,106]","[0,150]",up,1,,,,,,001,2025-03-10_16h54.50.499,SL_base_41,2021.2.3,Win32,60.24096386,1.8444,,,17,0,17,0,1,,,,,,,,
,,"[""circle"",""green"",""vert"",""up"",[106,106],[-106,-106]]",circle,green,vert,up,"[106,106]","[-106,-106]",up,1,,,,,,001,2025-03-10_16h54.50.499,SL_base_41,2021.2.3,Win32,60.24096386,1.5023,,,18,0,18,0,1,,,,,,,,
,,"[""diamond"",""green"",""hori"",""left"",[-106,106],[0,-150]]",diamond,green,hori,left,"[-106,106]","[0,-150]",left,1,,,,,,001,2025-03-10_16h54.50.499,SL_base_41,2021.2.3,Win32,60.24096386,1.3502,,,19,0,19,0,1,,,,,,,,
,,"[""diamond"",""green"",""vert"",""up"",[-150,0],[106,106]]",diamond,green,vert,up,"[-150,0]","[106,106]",up,1,,,,,,001,2025-03-10_16h54.50.499,SL_base_41,2021.2.3,Win32,60.24096386,1.0235,,,20,0,20,0,1,,,,,,,,
,,"[""circle"",""no_dis"",""hori"",""left"",[99999,99999],[-106,-106]]",circle,no_dis,hori,left,"[99999,99999]","[-106,-106]",left,1,,,,,,001,2025-03-10_16h54.50.499,SL_base_41,2021.2.3,Win32,60.24096386,2.4186,,,21,0,21,0,1,,,,,,,,
,,"[""diamond"",""no_dis"",""vert"",""up"",[99999,99999],[0,-150]]",diamond,no_dis,vert,up,"[99999,99999]","[0,-150]",up,1,,,,,,001,2025-03-10_16h54.50.499,SL_base_41,2021.2.3,Win32,60.24096386,1.2683,,,22,0,22,0,1,,,,,,,,
,,"[""circle"",""no_dis"",""vert"",""up"",[99999,99999],[0,-150]]",circle,no_dis,vert,up,"[99999,99999]","[0,-150]",up,1,,,,,,001,2025-03-10_16h54.50.499,SL_base_41,2021.2.3,Win32,60.24096386,2.4673,,,23,0,23,0,1,,,,,,,,
,,"[""circle"",""green"",""hori"",""left"",[106,106],[150,0]]",circle,green,hori,left,"[106,106]","[150,0]",left,1,,,,,,001,2025-03-10_16h54.50.499,SL_base_41,2021.2.3,Win32,60.24096386,1.2742,,,24,0,24,0,1,,,,,,,,
,,"[""diamond"",""green"",""hori"",""left"",[-106,106],[106,106]]",diamond,green,hori,left,"[-106,106]","[106,106]",left,1,,,,,,001,2025-03-10_16h54.50.499,SL_base_41,2021.2.3,Win32,60.24096386,1.6368,,,25,0,25,0,1,,,,,,,,
,,"[""circle"",""green"",""hori"",""left"",[-106,106],[-150,0]]",circle,green,hori,left,"[-106,106]","[-150,0]",left,1,,,,,,001,2025-03-10_16h54.50.499,SL_base_41,2021.2.3,Win32,60.24096386,1.0336,,,26,0,26,0,1,,,,,,,,
,,"[""diamond"",""no_dis"",""hori"",""left"",[99999,99999],[-150,0]]",diamond,no_dis,hori,left,"[99999,99999]","[-150,0]",left,1,,,,,,001,2025-03-10_16h54.50.499,SL_base_41,2021.2.3,Win32,60.24096386,1.1046,,,27,0,27,0,1,,,,,,,,
,,"[""diamond"",""green"",""hori"",""left"",[-106,106],[-106,-106]]",diamond,green,hori,left,"[-106,106]","[-106,-106]",left,1,,,,,,001,2025-03-10_16h54.50.499,SL_base_41,2021.2.3,Win32,60.24096386,1.5338,,,28,0,28,0,1,,,,,,,,
,,"[""circle"",""green"",""vert"",""up"",[150,0],[-106,106]]",circle,green,vert,up,"[150,0]","[-106,106]",up,1,,,,,,001,2025-03-10_16h54.50.499,SL_base_41,2021.2.3,Win32,60.24096386,2.0331,,,29,0,29,0,1,,,,,,,,
,,"[""diamond"",""green"",""vert"",""up"",[-106,106],[-106,-106]]",diamond,green,vert,up,"[-106,106]","[-106,-106]",up,1,,,,,,001,2025-03-10_16h54.50.499,SL_base_41,2021.2.3,Win32,60.24096386,1.754,,,30,0,30,0,1,,,,,,,,
,,"[""diamond"",""red"",""vert"",""up"",[0,150],[106,-106]]",diamond,red,vert,up,"[0,150]","[106,-106]",up,1,,,,,,001,2025-03-10_16h54.50.499,SL_base_41,2021.2.3,Win32,60.24096386,1.4221,,,31,0,31,0,1,,,,,,,,
,,"[""circle"",""red"",""vert"",""up"",[-106,-106],[-150,0]]",circle,red,vert,up,"[-106,-106]","[-150,0]",,0,,,,,,001,2025-03-10_16h54.50.499,SL_base_41,2021.2.3,Win32,60.24096386,,,,32,0,32,0,1,,,,,,,,
,,"[""diamond"",""no_dis"",""hori"",""left"",[99999,99999],[106,-106]]",diamond,no_dis,hori,left,"[99999,99999]","[106,-106]",left,1,,,,,,001,2025-03-10_16h54.50.499,SL_base_41,2021.2.3,Win32,60.24096386,1.7769,,,33,0,33,0,1,,,,,,,,
,,"[""circle"",""no_dis"",""hori"",""left"",[99999,99999],[150,0]]",circle,no_dis,hori,left,"[99999,99999]","[150,0]",left,1,,,,,,001,2025-03-10_16h54.50.499,SL_base_41,2021.2.3,Win32,60.24096386,2.121,,,34,0,34,0,1,,,,,,,,
,,"[""diamond"",""red"",""vert"",""up"",[150,0],[106,106]]",diamond,red,vert,up,"[150,0]","[106,106]",up,1,,,,,,001,2025-03-10_16h54.50.499,SL_base_41,2021.2.3,Win32,60.24096386,2.6997,,,35,0,35,0,1,,,,,,,,
,,"[""diamond"",""green"",""hori"",""left"",[150,0],[-106,106]]",diamond,green,hori,left,"[150,0]","[-106,106]",left,1,,,,,,001,2025-03-10_16h54.50.499,SL_base_41,2021.2.3,Win32,60.24096386,0.8056,,,36,0,36,0,1,,,,,,,,
,,"[""diamond"",""no_dis"",""vert"",""up"",[99999,99999],[0,150]]",diamond,no_dis,vert,up,"[99999,99999]","[0,150]",up,1,,,,,,001,2025-03-10_16h54.50.499,SL_base_41,2021.2.3,Win32,60.24096386,0.9102,,,37,0,37,0,1,,,,,,,,
,,"[""diamond"",""red"",""vert"",""up"",[-106,106],[106,-106]]",diamond,red,vert,up,"[-106,106]","[106,-106]",up,1,,,,,,001,2025-03-10_16h54.50.499,SL_base_41,2021.2.3,Win32,60.24096386,1.6504,,,38,0,38,0,1,,,,,,,,
,,"[""circle"",""no_dis"",""hori"",""left"",[99999,99999],[0,-150]]",circle,no_dis,hori,left,"[99999,99999]","[0,-150]",left,1,,,,,,001,2025-03-10_16h54.50.499,SL_base_41,2021.2.3,Win32,60.24096386,1.6918,,,39,0,39,0,1,,,,,,,,
,,"[""circle"",""green"",""vert"",""up"",[0,150],[0,-150]]",circle,green,vert,up,"[0,150]","[0,-150]",left,0,,,,,,001,2025-03-10_16h54.50.499,SL_base_41,2021.2.3,Win32,60.24096386,1.194,,,40,0,40,0,1,,,,,,,,
,,"[""circle"",""green"",""vert"",""up"",[-106,106],[0,-150]]",circle,green,vert,up,"[-106,106]","[0,-150]",up,1,,,,,,001,2025-03-10_16h54.50.499,SL_base_41,2021.2.3,Win32,60.24096386,2.8548,,,41,0,41,0,1,,,,,,,,
,,"[""circle"",""red"",""hori"",""left"",[-106,106],[106,106]]",circle,red,hori,left,"[-106,106]","[106,106]",left,1,,,,,,001,2025-03-10_16h54.50.499,SL_base_41,2021.2.3,Win32,60.24096386,1.2175,,,42,0,42,0,1,,,,,,,,
,,"[""circle"",""red"",""hori"",""left"",[106,106],[-150,0]]",circle,red,hori,left,"[106,106]","[-150,0]",left,1,,,,,,001,2025-03-10_16h54.50.499,SL_base_41,2021.2.3,Win32,60.24096386,1.1044,,,43,0,43,0,1,,,,,,,,
,,"[""circle"",""green"",""vert"",""up"",[-106,106],[106,106]]",circle,green,vert,up,"[-106,106]","[106,106]",up,1,,,,,,001,2025-03-10_16h54.50.499,SL_base_41,2021.2.3,Win32,60.24096386,0.9831,,,44,0,44,0,1,,,,,,,,
,,"[""circle"",""no_dis"",""hori"",""left"",[99999,99999],[106,106]]",circle,no_dis,hori,left,"[99999,99999]","[106,106]",left,1,,,,,,001,2025-03-10_16h54.50.499,SL_base_41,2021.2.3,Win32,60.24096386,1.3003,,,45,0,45,0,1,,,,,,,,
,,"[""diamond"",""red"",""hori"",""left"",[150,0],[-150,0]]",diamond,red,hori,left,"[150,0]","[-150,0]",left,1,,,,,,001,2025-03-10_16h54.50.499,SL_base_41,2021.2.3,Win32,60.24096386,1.1875,,,46,0,46,0,1,,,,,,,,
,,"[""circle"",""green"",""hori"",""left"",[-150,0],[-106,-106]]",circle,green,hori,left,"[-150,0]","[-106,-106]",left,1,,,,,,001,2025-03-10_16h54.50.499,SL_base_41,2021.2.3,Win32,60.24096386,1.2875,,,47,0,47,0,1,,,,,,,,
,,"[""circle"",""no_dis"",""vert"",""up"",[99999,99999],[-150,0]]",circle,no_dis,vert,up,"[99999,99999]","[-150,0]",up,1,,,,,,001,2025-03-10_16h54.50.499,SL_base_41,2021.2.3,Win32,60.24096386,0.9504,,,48,0,48,0,1,,,,,,,,
,,"[""circle"",""red"",""hori"",""left"",[0,-150],[-106,106]]",circle,red,hori,left,"[0,-150]","[-106,106]",left,1,,,,,,001,2025-03-10_16h54.50.499,SL_base_41,2021.2.3,Win32,60.24096386,0.7335,,,49,0,49,0,1,,,,,,,,
,,"[""circle"",""green"",""hori"",""left"",[-106,-106],[150,0]]",circle,green,hori,left,"[-106,-106]","[150,0]",left,1,,,,,,001,2025-03-10_16h54.50.499,SL_base_41,2021.2.3,Win32,60.24096386,1.1718,,,50,0,50,0,1,,,,,,,,
,,"[""diamond"",""green"",""vert"",""up"",[-106,-106],[0,150]]",diamond,green,vert,up,"[-106,-106]","[0,150]",up,1,,,,,,001,2025-03-10_16h54.50.499,SL_base_41,2021.2.3,Win32,60.24096386,1.9668,,,51,0,51,0,1,,,,,,,,
,,"[""circle"",""red"",""hori"",""left"",[-106,106],[150,0]]",circle,red,hori,left,"[-106,106]","[150,0]",left,1,,,,,,001,2025-03-10_16h54.50.499,SL_base_41,2021.2.3,Win32,60.24096386,1.9671,,,52,0,52,0,1,,,,,,,,
,,"[""circle"",""no_dis"",""hori"",""left"",[99999,99999],[-106,-106]]",circle,no_dis,hori,left,"[99999,99999]","[-106,-106]",left,1,,,,,,001,2025-03-10_16h54.50.499,SL_base_41,2021.2.3,Win32,60.24096386,2.5332,,,53,0,53,0,1,,,,,,,,
,,"[""diamond"",""red"",""hori"",""left"",[-106,106],[106,106]]",diamond,red,hori,left,"[-106,106]","[106,106]",left,1,,,,,,001,2025-03-10_16h54.50.499,SL_base_41,2021.2.3,Win32,60.24096386,1.7527,,,54,0,54,0,1,,,,,,,,
,,"[""diamond"",""red"",""hori"",""left"",[-106,-106],[106,106]]",diamond,red,hori,left,"[-106,-106]","[106,106]",left,1,,,,,,001,2025-03-10_16h54.50.499,SL_base_41,2021.2.3,Win32,60.24096386,1.4669,,,55,0,55,0,1,,,,,,,,
,,"[""circle"",""no_dis"",""vert"",""up"",[99999,99999],[106,-106]]",circle,no_dis,vert,up,"[99999,99999]","[106,-106]",up,1,,,,,,001,2025-03-10_16h54.50.499,SL_base_41,2021.2.3,Win32,60.24096386,2.8744,,,56,0,56,0,1,,,,,,,,
,,"[""circle"",""red"",""vert"",""up"",[0,-150],[-150,0]]",circle,red,vert,up,"[0,-150]","[-150,0]",up,1,,,,,,001,2025-03-10_16h54.50.499,SL_base_41,2021.2.3,Win32,60.24096386,2.5363,,,57,0,57,0,1,,,,,,,,
,,"[""circle"",""green"",""vert"",""up"",[0,150],[-106,106]]",circle,green,vert,up,"[0,150]","[-106,106]",up,1,,,,,,001,2025-03-10_16h54.50.499,SL_base_41,2021.2.3,Win32,60.24096386,1.2003,,,58,0,58,0,1,,,,,,,,
,,"[""circle"",""no_dis"",""vert"",""up"",[99999,99999],[-106,106]]",circle,no_dis,vert,up,"[99999,99999]","[-106,106]",up,1,,,,,,001,2025-03-10_16h54.50.499,SL_base_41,2021.2.3,Win32,60.24096386,0.9543,,,59,0,59,0,1,,,,,,,,
,,"[""circle"",""red"",""hori"",""left"",[-106,106],[-150,0]]",circle,red,hori,left,"[-106,106]","[-150,0]",left,1,,,,,,001,2025-03-10_16h54.50.499,SL_base_41,2021.2.3,Win32,60.24096386,1.2172,,,60,0,60,0,1,,,,,,,,
,,"[""circle"",""red"",""hori"",""left"",[0,150],[-106,106]]",circle,red,hori,left,"[0,150]","[-106,106]",left,1,,,,,,001,2025-03-10_16h54.50.499,SL_base_41,2021.2.3,Win32,60.24096386,1.5666,,,61,0,61,0,1,,,,,,,,
,,"[""circle"",""no_dis"",""vert"",""up"",[99999,99999],[0,-150]]",circle,no_dis,vert,up,"[99999,99999]","[0,-150]",up,1,,,,,,001,2025-03-10_16h54.50.499,SL_base_41,2021.2.3,Win32,60.24096386,1.1603,,,62,0,62,0,1,,,,,,,,
,,"[""diamond"",""no_dis"",""hori"",""left"",[99999,99999],[-106,-106]]",diamond,no_dis,hori,left,"[99999,99999]","[-106,-106]",left,1,,,,,,001,2025-03-10_16h54.50.499,SL_base_41,2021.2.3,Win32,60.24096386,1.25,,,63,0,63,0,1,,,,,,,,
,,"[""diamond"",""no_dis"",""hori"",""left"",[99999,99999],[-106,-106]]",diamond,no_dis,hori,left,"[99999,99999]","[-106,-106]",left,1,,,,,,001,2025-03-10_16h54.50.499,SL_base_41,2021.2.3,Win32,60.24096386,1.0336,,,64,0,64,0,1,,,,,,,,
,,"[""circle"",""red"",""vert"",""up"",[106,-106],[0,150]]",circle,red,vert,up,"[106,-106]","[0,150]",left,0,,,,,,001,2025-03-10_16h54.50.499,SL_base_41,2021.2.3,Win32,60.24096386,1.0003,,,65,0,65,0,1,,,,,,,,
,,"[""diamond"",""green"",""vert"",""up"",[-150,0],[150,0]]",diamond,green,vert,up,"[-150,0]","[150,0]",up,1,,,,,,001,2025-03-10_16h54.50.499,SL_base_41,2021.2.3,Win32,60.24096386,1.27,,,66,0,66,0,1,,,,,,,,
,,"[""diamond"",""green"",""vert"",""up"",[-106,-106],[106,-106]]",diamond,green,vert,up,"[-106,-106]","[106,-106]",up,1,,,,,,001,2025-03-10_16h54.50.499,SL_base_41,2021.2.3,Win32,60.24096386,1.8334,,,67,0,67,0,1,,,,,,,,
,,"[""diamond"",""red"",""hori"",""left"",[106,106],[0,150]]",diamond,red,hori,left,"[106,106]","[0,150]",left,1,,,,,,001,2025-03-10_16h54.50.499,SL_base_41,2021.2.3,Win32,60.24096386,1.2164,,,68,0,68,0,1,,,,,,,,
,,"[""circle"",""no_dis"",""vert"",""up"",[99999,99999],[-150,0]]",circle,no_dis,vert,up,"[99999,99999]","[-150,0]",up,1,,,,,,001,2025-03-10_16h54.50.499,SL_base_41,2021.2.3,Win32,60.24096386,1.267,,,69,0,69,0,1,,,,,,,,
,,"[""circle"",""green"",""hori"",""left"",[150,0],[106,-106]]",circle,green,hori,left,"[150,0]","[106,-106]",left,1,,,,,,001,2025-03-10_16h54.50.499,SL_base_41,2021.2.3,Win32,60.24096386,2.6999,,,70,0,70,0,1,,,,,,,,
,,"[""diamond"",""red"",""hori"",""left"",[-150,0],[-106,106]]",diamond,red,hori,left,"[-150,0]","[-106,106]",left,1,,,,,,001,2025-03-10_16h54.50.499,SL_base_41,2021.2.3,Win32,60.24096386,1.8607,,,71,0,71,0,1,,,,,,,,
,,"[""circle"",""red"",""hori"",""left"",[-106,106],[150,0]]",circle,red,hori,left,"[-106,106]","[150,0]",left,1,,,,,,001,2025-03-10_16h54.50.499,SL_base_41,2021.2.3,Win32,60.24096386,1.5836,,,72,0,72,0,1,,,,,,,,
,,"[""circle"",""no_dis"",""hori"",""left"",[99999,99999],[-150,0]]",circle,no_dis,hori,left,"[99999,99999]","[-150,0]",left,1,,,,,,001,2025-03-10_16h54.50.499,SL_base_41,2021.2.3,Win32,60.24096386,0.8002,,,73,0,73,0,1,,,,,,,,
,,"[""circle"",""no_dis"",""vert"",""up"",[99999,99999],[150,0]]",circle,no_dis,vert,up,"[99999,99999]","[150,0]",up,1,,,,,,001,2025-03-10_16h54.50.499,SL_base_41,2021.2.3,Win32,60.24096386,0.7831,,,74,0,74,0,1,,,,,,,,
,,"[""diamond"",""green"",""hori"",""left"",[-106,106],[-106,-106]]",diamond,green,hori,left,"[-106,106]","[-106,-106]",left,1,,,,,,001,2025-03-10_16h54.50.499,SL_base_41,2021.2.3,Win32,60.24096386,1.184,,,75,0,75,0,1,,,,,,,,
,,"[""diamond"",""green"",""vert"",""up"",[106,106],[150,0]]",diamond,green,vert,up,"[106,106]","[150,0]",up,1,,,,,,001,2025-03-10_16h54.50.499,SL_base_41,2021.2.3,Win32,60.24096386,1.5264,,,76,0,76,0,1,,,,,,,,
,,"[""circle"",""red"",""vert"",""up"",[106,106],[-106,106]]",circle,red,vert,up,"[106,106]","[-106,106]",up,1,,,,,,001,2025-03-10_16h54.50.499,SL_base_41,2021.2.3,Win32,60.24096386,2.2586,,,77,0,77,0,1,,,,,,,,
,,"[""diamond"",""green"",""vert"",""up"",[-106,106],[106,-106]]",diamond,green,vert,up,"[-106,106]","[106,-106]",up,1,,,,,,001,2025-03-10_16h54.50.499,SL_base_41,2021.2.3,Win32,60.24096386,1.1337,,,78,0,78,0,1,,,,,,,,
,,"[""circle"",""green"",""vert"",""up"",[-106,106],[106,-106]]",circle,green,vert,up,"[-106,106]","[106,-106]",up,1,,,,,,001,2025-03-10_16h54.50.499,SL_base_41,2021.2.3,Win32,60.24096386,0.7341,,,79,0,79,0,1,,,,,,,,
,,"[""circle"",""no_dis"",""vert"",""up"",[99999,99999],[-106,106]]",circle,no_dis,vert,up,"[99999,99999]","[-106,106]",up,1,,,,,,001,2025-03-10_16h54.50.499,SL_base_41,2021.2.3,Win32,60.24096386,0.8578,,,80,0,80,0,1,,,,,,,,
,,"[""diamond"",""no_dis"",""vert"",""up"",[99999,99999],[150,0]]",diamond,no_dis,vert,up,"[99999,99999]","[150,0]",up,1,,,,,,001,2025-03-10_16h54.50.499,SL_base_41,2021.2.3,Win32,60.24096386,0.9505,,,81,0,81,0,1,,,,,,,,
,,"[""circle"",""red"",""hori"",""left"",[0,-150],[106,106]]",circle,red,hori,left,"[0,-150]","[106,106]",left,1,,,,,,001,2025-03-10_16h54.50.499,SL_base_41,2021.2.3,Win32,60.24096386,2.2021,,,82,0,82,0,1,,,,,,,,
,,"[""circle"",""red"",""hori"",""left"",[106,-106],[-106,-106]]",circle,red,hori,left,"[106,-106]","[-106,-106]",left,1,,,,,,001,2025-03-10_16h54.50.499,SL_base_41,2021.2.3,Win32,60.24096386,1.3837,,,83,0,83,0,1,,,,,,,,
,,"[""diamond"",""no_dis"",""vert"",""up"",[99999,99999],[0,150]]",diamond,no_dis,vert,up,"[99999,99999]","[0,150]",left,0,,,,,,001,2025-03-10_16h54.50.499,SL_base_41,2021.2.3,Win32,60.24096386,0.7618,,,84,0,84,0,1,,,,,,,,
,,"[""diamond"",""green"",""hori"",""left"",[-150,0],[150,0]]",diamond,green,hori,left,"[-150,0]","[150,0]",up,0,,,,,,001,2025-03-10_16h54.50.499,SL_base_41,2021.2.3,Win32,60.24096386,1.568,,,85,0,85,0,1,,,,,,,,
,,"[""diamond"",""no_dis"",""hori"",""left"",[99999,99999],[0,-150]]",diamond,no_dis,hori,left,"[99999,99999]","[0,-150]",left,1,,,,,,001,2025-03-10_16h54.50.499,SL_base_41,2021.2.3,Win32,60.24096386,1.122,,,86,0,86,0,1,,,,,,,,
,,"[""circle"",""no_dis"",""hori"",""left"",[99999,99999],[-150,0]]",circle,no_dis,hori,left,"[99999,99999]","[-150,0]",left,1,,,,,,001,2025-03-10_16h54.50.499,SL_base_41,2021.2.3,Win32,60.24096386,1.3669,,,87,0,87,0,1,,,,,,,,
,,"[""diamond"",""no_dis"",""hori"",""left"",[99999,99999],[106,106]]",diamond,no_dis,hori,left,"[99999,99999]","[106,106]",left,1,,,,,,001,2025-03-10_16h54.50.499,SL_base_41,2021.2.3,Win32,60.24096386,1.8494,,,88,0,88,0,1,,,,,,,,
,,"[""circle"",""red"",""vert"",""up"",[-106,106],[0,150]]",circle,red,vert,up,"[-106,106]","[0,150]",left,0,,,,,,001,2025-03-10_16h54.50.499,SL_base_41,2021.2.3,Win32,60.24096386,1.7442,,,89,0,89,0,1,,,,,,,,
,,"[""circle"",""green"",""vert"",""up"",[150,0],[106,-106]]",circle,green,vert,up,"[150,0]","[106,-106]",up,1,,,,,,001,2025-03-10_16h54.50.499,SL_base_41,2021.2.3,Win32,60.24096386,1.8558,,,90,0,90,0,1,,,,,,,,
,,"[""diamond"",""green"",""vert"",""up"",[106,106],[-106,-106]]",diamond,green,vert,up,"[106,106]","[-106,-106]",up,1,,,,,,001,2025-03-10_16h54.50.499,SL_base_41,2021.2.3,Win32,60.24096386,1.6163,,,91,0,91,0,1,,,,,,,,
,,"[""diamond"",""red"",""vert"",""up"",[150,0],[-106,-106]]",diamond,red,vert,up,"[150,0]","[-106,-106]",up,1,,,,,,001,2025-03-10_16h54.50.499,SL_base_41,2021.2.3,Win32,60.24096386,1.0543,,,92,0,92,0,1,,,,,,,,
,,"[""diamond"",""red"",""vert"",""up"",[106,-106],[150,0]]",diamond,red,vert,up,"[106,-106]","[150,0]",up,1,,,,,,001,2025-03-10_16h54.50.499,SL_base_41,2021.2.3,Win32,60.24096386,1.2459,,,93,0,93,0,1,,,,,,,,
,,"[""diamond"",""red"",""vert"",""up"",[-106,106],[-106,-106]]",diamond,red,vert,up,"[-106,106]","[-106,-106]",up,1,,,,,,001,2025-03-10_16h54.50.499,SL_base_41,2021.2.3,Win32,60.24096386,0.9179,,,94,0,94,0,1,,,,,,,,
,,"[""circle"",""no_dis"",""hori"",""left"",[99999,99999],[0,150]]",circle,no_dis,hori,left,"[99999,99999]","[0,150]",left,1,,,,,,001,2025-03-10_16h54.50.499,SL_base_41,2021.2.3,Win32,60.24096386,1.6457,,,95,0,95,0,1,,,,,,,,
,,"[""circle"",""red"",""vert"",""up"",[0,150],[0,-150]]",circle,red,vert,up,"[0,150]","[0,-150]",up,1,,,,,,001,2025-03-10_16h54.50.499,SL_base_41,2021.2.3,Win32,60.24096386,1.1204,,,96,0,96,0,1,,,,,,,,
,,"[""circle"",""green"",""vert"",""up"",[-106,-106],[0,-150]]",circle,green,vert,up,"[-106,-106]","[0,-150]",up,1,,,,,,001,2025-03-10_16h54.50.499,SL_base_41,2021.2.3,Win32,60.24096386,0.969,,,97,0,97,0,1,,,,,,,,
,,"[""diamond"",""no_dis"",""vert"",""up"",[99999,99999],[150,0]]",diamond,no_dis,vert,up,"[99999,99999]","[150,0]",up,1,,,,,,001,2025-03-10_16h54.50.499,SL_base_41,2021.2.3,Win32,60.24096386,1.5361,,,98,0,98,0,1,,,,,,,,
,,"[""circle"",""no_dis"",""vert"",""up"",[99999,99999],[106,106]]",circle,no_dis,vert,up,"[99999,99999]","[106,106]",up,1,,,,,,001,2025-03-10_16h54.50.499,SL_base_41,2021.2.3,Win32,60.24096386,2.0735,,,99,0,99,0,1,,,,,,,,
,,"[""diamond"",""no_dis"",""vert"",""up"",[99999,99999],[106,-106]]",diamond,no_dis,vert,up,"[99999,99999]","[106,-106]",up,1,,,,,,001,2025-03-10_16h54.50.499,SL_base_41,2021.2.3,Win32,60.24096386,1.1339,,,100,0,100,0,1,,,,,,,,
,,"[""diamond"",""green"",""vert"",""up"",[0,-150],[0,150]]",diamond,green,vert,up,"[0,-150]","[0,150]",up,1,,,,,,001,2025-03-10_16h54.50.499,SL_base_41,2021.2.3,Win32,60.24096386,1.0249,,,101,0,101,0,1,,,,,,,,
,,"[""diamond"",""green"",""hori"",""left"",[-150,0],[-106,106]]",diamond,green,hori,left,"[-150,0]","[-106,106]",left,1,,,,,,001,2025-03-10_16h54.50.499,SL_base_41,2021.2.3,Win32,60.24096386,1.1836,,,102,0,102,0,1,,,,,,,,
,,"[""diamond"",""no_dis"",""vert"",""up"",[99999,99999],[106,-106]]",diamond,no_dis,vert,up,"[99999,99999]","[106,-106]",up,1,,,,,,001,2025-03-10_16h54.50.499,SL_base_41,2021.2.3,Win32,60.24096386,1.0001,,,103,0,103,0,1,,,,,,,,
,,"[""circle"",""red"",""vert"",""up"",[0,-150],[-150,0]]",circle,red,vert,up,"[0,-150]","[-150,0]",up,1,,,,,,001,2025-03-10_16h54.50.499,SL_base_41,2021.2.3,Win32,60.24096386,1.5115,,,104,0,104,0,1,,,,,,,,
,,"[""diamond"",""no_dis"",""hori"",""left"",[99999,99999],[150,0]]",diamond,no_dis,hori,left,"[99999,99999]","[150,0]",left,1,,,,,,001,2025-03-10_16h54.50.499,SL_base_41,2021.2.3,Win32,60.24096386,1.2844,,,105,0,105,0,1,,,,,,,,
,,"[""diamond"",""green"",""vert"",""up"",[0,150],[-106,-106]]",diamond,green,vert,up,"[0,150]","[-106,-106]",up,1,,,,,,001,2025-03-10_16h54.50.499,SL_base_41,2021.2.3,Win32,60.24096386,1.1063,,,106,0,106,0,1,,,,,,,,
,,"[""diamond"",""no_dis"",""vert"",""up"",[99999,99999],[-106,106]]",diamond,no_dis,vert,up,"[99999,99999]","[-106,106]",up,1,,,,,,001,2025-03-10_16h54.50.499,SL_base_41,2021.2.3,Win32,60.24096386,1.3509,,,107,0,107,0,1,,,,,,,,
,,"[""diamond"",""red"",""vert"",""up"",[-106,106],[-150,0]]",diamond,red,vert,up,"[-106,106]","[-150,0]",up,1,,,,,,001,2025-03-10_16h54.50.499,SL_base_41,2021.2.3,Win32,60.24096386,1.209,,,108,0,108,0,1,,,,,,,,
,,"[""circle"",""no_dis"",""vert"",""up"",[99999,99999],[106,106]]",circle,no_dis,vert,up,"[99999,99999]","[106,106]",up,1,,,,,,001,2025-03-10_16h54.50.499,SL_base_41,2021.2.3,Win32,60.24096386,2.9162,,,109,0,109,0,1,,,,,,,,
,,"[""circle"",""no_dis"",""hori"",""left"",[99999,99999],[0,150]]",circle,no_dis,hori,left,"[99999,99999]","[0,150]",left,1,,,,,,001,2025-03-10_16h54.50.499,SL_base_41,2021.2.3,Win32,60.24096386,2.0002,,,110,0,110,0,1,,,,,,,,
,,"[""diamond"",""red"",""hori"",""left"",[-106,106],[0,150]]",diamond,red,hori,left,"[-106,106]","[0,150]",left,1,,,,,,001,2025-03-10_16h54.50.499,SL_base_41,2021.2.3,Win32,60.24096386,2.2333,,,111,0,111,0,1,,,,,,,,
,,"[""circle"",""red"",""hori"",""left"",[0,150],[106,-106]]",circle,red,hori,left,"[0,150]","[106,-106]",left,1,,,,,,001,2025-03-10_16h54.50.499,SL_base_41,2021.2.3,Win32,60.24096386,1.2606,,,112,0,112,0,1,,,,,,,,
,,"[""diamond"",""red"",""vert"",""up"",[-106,106],[-150,0]]",diamond,red,vert,up,"[-106,106]","[-150,0]",up,1,,,,,,001,2025-03-10_16h54.50.499,SL_base_41,2021.2.3,Win32,60.24096386,1.7076,,,113,0,113,0,1,,,,,,,,
,,"[""circle"",""red"",""vert"",""up"",[-150,0],[106,-106]]",circle,red,vert,up,"[-150,0]","[106,-106]",up,1,,,,,,001,2025-03-10_16h54.50.499,SL_base_41,2021.2.3,Win32,60.24096386,1.0866,,,114,0,114,0,1,,,,,,,,
,,"[""diamond"",""red"",""hori"",""left"",[-106,-106],[106,106]]",diamond,red,hori,left,"[-106,-106]","[106,106]",left,1,,,,,,001,2025-03-10_16h54.50.499,SL_base_41,2021.2.3,Win32,60.24096386,1.7953,,,115,0,115,0,1,,,,,,,,
,,"[""diamond"",""no_dis"",""vert"",""up"",[99999,99999],[-106,106]]",diamond,no_dis,vert,up,"[99999,99999]","[-106,106]",up,1,,,,,,001,2025-03-10_16h54.50.499,SL_base_41,2021.2.3,Win32,60.24096386,1.7997,,,116,0,116,0,1,,,,,,,,
,,"[""circle"",""green"",""hori"",""left"",[-106,106],[0,150]]",circle,green,hori,left,"[-106,106]","[0,150]",,0,,,,,,001,2025-03-10_16h54.50.499,SL_base_41,2021.2.3,Win32,60.24096386,,,,117,0,117,0,1,,,,,,,,
,,"[""circle"",""red"",""hori"",""left"",[106,-106],[106,106]]",circle,red,hori,left,"[106,-106]","[106,106]",left,1,,,,,,001,2025-03-10_16h54.50.499,SL_base_41,2021.2.3,Win32,60.24096386,1.6196,,,118,0,118,0,1,,,,,,,,
,,"[""diamond"",""no_dis"",""hori"",""left"",[99999,99999],[-106,-106]]",diamond,no_dis,hori,left,"[99999,99999]","[-106,-106]",left,1,,,,,,001,2025-03-10_16h54.50.499,SL_base_41,2021.2.3,Win32,60.24096386,1.2666,,,119,0,119,0,1,,,,,,,,
,,"[""diamond"",""red"",""vert"",""up"",[-106,106],[-106,-106]]",diamond,red,vert,up,"[-106,106]","[-106,-106]",left,0,,,,,,001,2025-03-10_16h54.50.499,SL_base_41,2021.2.3,Win32,60.24096386,0.8719,,,120,0,120,0,1,,,,,,,,
,,"[""diamond"",""green"",""hori"",""left"",[0,-150],[-106,-106]]",diamond,green,hori,left,"[0,-150]","[-106,-106]",left,1,,,,,,001,2025-03-10_16h54.50.499,SL_base_41,2021.2.3,Win32,60.24096386,2.3273,,,121,0,121,0,1,,,,,,,,
,,"[""circle"",""red"",""vert"",""up"",[-106,106],[106,-106]]",circle,red,vert,up,"[-106,106]","[106,-106]",up,1,,,,,,001,2025-03-10_16h54.50.499,SL_base_41,2021.2.3,Win32,60.24096386,2.5936,,,122,0,122,0,1,,,,,,,,
,,"[""circle"",""green"",""hori"",""left"",[0,-150],[106,-106]]",circle,green,hori,left,"[0,-150]","[106,-106]",up,0,,,,,,001,2025-03-10_16h54.50.499,SL_base_41,2021.2.3,Win32,60.24096386,1.7831,,,123,0,123,0,1,,,,,,,,
,,"[""diamond"",""no_dis"",""vert"",""up"",[99999,99999],[106,106]]",diamond,no_dis,vert,up,"[99999,99999]","[106,106]",up,1,,,,,,001,2025-03-10_16h54.50.499,SL_base_41,2021.2.3,Win32,60.24096386,0.9756,,,124,0,124,0,1,,,,,,,,
,,"[""diamond"",""red"",""vert"",""up"",[106,-106],[0,150]]",diamond,red,vert,up,"[106,-106]","[0,150]",up,1,,,,,,001,2025-03-10_16h54.50.499,SL_base_41,2021.2.3,Win32,60.24096386,1.7345,,,125,0,125,0,1,,,,,,,,
,,"[""diamond"",""no_dis"",""hori"",""left"",[99999,99999],[0,150]]",diamond,no_dis,hori,left,"[99999,99999]","[0,150]",left,1,,,,,,001,2025-03-10_16h54.50.499,SL_base_41,2021.2.3,Win32,60.24096386,2.4831,,,126,0,126,0,1,,,,,,,,
,,"[""circle"",""green"",""vert"",""up"",[-106,106],[0,-150]]",circle,green,vert,up,"[-106,106]","[0,-150]",up,1,,,,,,001,2025-03-10_16h54.50.499,SL_base_41,2021.2.3,Win32,60.24096386,1.7041,,,127,0,127,0,1,,,,,,,,
,,,,,,,,,,,,,,,,001,2025-03-10_16h54.50.499,SL_base_41,2021.2.3,Win32,60.24096386,,,,,,,,,2,space,53.441,1,0,1,0,1
,,"[""diamond"",""no_dis"",""hori"",""left"",[99999,99999],[150,0]]",diamond,no_dis,hori,left,"[99999,99999]","[150,0]",left,1,,,,,,001,2025-03-10_16h54.50.499,SL_base_41,2021.2.3,Win32,60.24096386,1.32,,,0,0,0,0,1,,,,,,,,
,,"[""circle"",""no_dis"",""vert"",""up"",[99999,99999],[-150,0]]",circle,no_dis,vert,up,"[99999,99999]","[-150,0]",up,1,,,,,,001,2025-03-10_16h54.50.499,SL_base_41,2021.2.3,Win32,60.24096386,1.017,,,1,0,1,0,1,,,,,,,,
,,"[""circle"",""green"",""vert"",""up"",[-106,106],[106,-106]]",circle,green,vert,up,"[-106,106]","[106,-106]",up,1,,,,,,001,2025-03-10_16h54.50.499,SL_base_41,2021.2.3,Win32,60.24096386,1.5686,,,2,0,2,0,1,,,,,,,,
,,"[""circle"",""green"",""hori"",""left"",[106,106],[150,0]]",circle,green,hori,left,"[106,106]","[150,0]",left,1,,,,,,001,2025-03-10_16h54.50.499,SL_base_41,2021.2.3,Win32,60.24096386,1.2267,,,3,0,3,0,1,,,,,,,,
,,"[""diamond"",""green"",""hori"",""left"",[106,106],[150,0]]",diamond,green,hori,left,"[106,106]","[150,0]",left,1,,,,,,001,2025-03-10_16h54.50.499,SL_base_41,2021.2.3,Win32,60.24096386,1.394,,,4,0,4,0,1,,,,,,,,
,,"[""diamond"",""red"",""hori"",""left"",[-106,106],[106,106]]",diamond,red,hori,left,"[-106,106]","[106,106]",left,1,,,,,,001,2025-03-10_16h54.50.499,SL_base_41,2021.2.3,Win32,60.24096386,1.217,,,5,0,5,0,1,,,,,,,,
,,"[""circle"",""red"",""hori"",""left"",[0,150],[106,-106]]",circle,red,hori,left,"[0,150]","[106,-106]",left,1,,,,,,001,2025-03-10_16h54.50.499,SL_base_41,2021.2.3,Win32,60.24096386,1.918,,,6,0,6,0,1,,,,,,,,
,,"[""diamond"",""no_dis"",""hori"",""left"",[99999,99999],[0,-150]]",diamond,no_dis,hori,left,"[99999,99999]","[0,-150]",left,1,,,,,,001,2025-03-10_16h54.50.499,SL_base_41,2021.2.3,Win32,60.24096386,1.3167,,,7,0,7,0,1,,,,,,,,
,,"[""circle"",""green"",""vert"",""up"",[106,106],[-106,-106]]",circle,green,vert,up,"[106,106]","[-106,-106]",up,1,,,,,,001,2025-03-10_16h54.50.499,SL_base_41,2021.2.3,Win32,60.24096386,1.0751,,,8,0,8,0,1,,,,,,,,
,,"[""diamond"",""red"",""hori"",""left"",[150,0],[-150,0]]",diamond,red,hori,left,"[150,0]","[-150,0]",left,1,,,,,,001,2025-03-10_16h54.50.499,SL_base_41,2021.2.3,Win32,60.24096386,0.8232,,,9,0,9,0,1,,,,,,,,
,,"[""circle"",""green"",""vert"",""up"",[-106,106],[0,-150]]",circle,green,vert,up,"[-106,106]","[0,-150]",up,1,,,,,,001,2025-03-10_16h54.50.499,SL_base_41,2021.2.3,Win32,60.24096386,1.4592,,,10,0,10,0,1,,,,,,,,
,,"[""circle"",""green"",""hori"",""left"",[-106,106],[0,150]]",circle,green,hori,left,"[-106,106]","[0,150]",left,1,,,,,,001,2025-03-10_16h54.50.499,SL_base_41,2021.2.3,Win32,60.24096386,1.6789,,,11,0,11,0,1,,,,,,,,
,,"[""diamond"",""no_dis"",""vert"",""up"",[99999,99999],[106,106]]",diamond,no_dis,vert,up,"[99999,99999]","[106,106]",up,1,,,,,,001,2025-03-10_16h54.50.499,SL_base_41,2021.2.3,Win32,60.24096386,1.6055,,,12,0,12,0,1,,,,,,,,
,,"[""diamond"",""red"",""hori"",""left"",[-106,-106],[106,106]]",diamond,red,hori,left,"[-106,-106]","[106,106]",left,1,,,,,,001,2025-03-10_16h54.50.499,SL_base_41,2021.2.3,Win32,60.24096386,1.7922,,,13,0,13,0,1,,,,,,,,
,,"[""diamond"",""no_dis"",""hori"",""left"",[99999,99999],[0,150]]",diamond,no_dis,hori,left,"[99999,99999]","[0,150]",left,1,,,,,,001,2025-03-10_16h54.50.499,SL_base_41,2021.2.3,Win32,60.24096386,1.7092,,,14,0,14,0,1,,,,,,,,
,,"[""diamond"",""no_dis"",""vert"",""up"",[99999,99999],[-106,106]]",diamond,no_dis,vert,up,"[99999,99999]","[-106,106]",up,1,,,,,,001,2025-03-10_16h54.50.499,SL_base_41,2021.2.3,Win32,60.24096386,1.7037,,,15,0,15,0,1,,,,,,,,
,,"[""circle"",""no_dis"",""hori"",""left"",[99999,99999],[150,0]]",circle,no_dis,hori,left,"[99999,99999]","[150,0]",left,1,,,,,,001,2025-03-10_16h54.50.499,SL_base_41,2021.2.3,Win32,60.24096386,0.9401,,,16,0,16,0,1,,,,,,,,
,,"[""circle"",""green"",""hori"",""left"",[-150,0],[-106,-106]]",circle,green,hori,left,"[-150,0]","[-106,-106]",left,1,,,,,,001,2025-03-10_16h54.50.499,SL_base_41,2021.2.3,Win32,60.24096386,1.15,,,17,0,17,0,1,,,,,,,,
,,"[""diamond"",""green"",""vert"",""up"",[-106,106],[106,-106]]",diamond,green,vert,up,"[-106,106]","[106,-106]",up,1,,,,,,001,2025-03-10_16h54.50.499,SL_base_41,2021.2.3,Win32,60.24096386,1.1002,,,18,0,18,0,1,,,,,,,,
,,"[""circle"",""no_dis"",""vert"",""up"",[99999,99999],[0,-150]]",circle,no_dis,vert,up,"[99999,99999]","[0,-150]",left,0,,,,,,001,2025-03-10_16h54.50.499,SL_base_41,2021.2.3,Win32,60.24096386,0.9919,,,19,0,19,0,1,,,,,,,,
,,"[""diamond"",""green"",""hori"",""left"",[-106,106],[106,-106]]",diamond,green,hori,left,"[-106,106]","[106,-106]",left,1,,,,,,001,2025-03-10_16h54.50.499,SL_base_41,2021.2.3,Win32,60.24096386,1.1334,,,20,0,20,0,1,,,,,,,,
,,"[""circle"",""no_dis"",""vert"",""up"",[99999,99999],[-106,106]]",circle,no_dis,vert,up,"[99999,99999]","[-106,106]",up,1,,,,,,001,2025-03-10_16h54.50.499,SL_base_41,2021.2.3,Win32,60.24096386,1.6071,,,21,0,21,0,1,,,,,,,,
,,"[""circle"",""green"",""vert"",""up"",[-106,106],[106,106]]",circle,green,vert,up,"[-106,106]","[106,106]",up,1,,,,,,001,2025-03-10_16h54.50.499,SL_base_41,2021.2.3,Win32,60.24096386,1.8461,,,22,0,22,0,1,,,,,,,,
,,"[""diamond"",""green"",""hori"",""left"",[-150,0],[-106,106]]",diamond,green,hori,left,"[-150,0]","[-106,106]",left,1,,,,,,001,2025-03-10_16h54.50.499,SL_base_41,2021.2.3,Win32,60.24096386,1.4057,,,23,0,23,0,1,,,,,,,,
,,"[""diamond"",""green"",""vert"",""up"",[-106,106],[-106,-106]]",diamond,green,vert,up,"[-106,106]","[-106,-106]",up,1,,,,,,001,2025-03-10_16h54.50.499,SL_base_41,2021.2.3,Win32,60.24096386,0.9208,,,24,0,24,0,1,,,,,,,,
,,"[""circle"",""red"",""hori"",""left"",[0,-150],[106,106]]",circle,red,hori,left,"[0,-150]","[106,106]",left,1,,,,,,001,2025-03-10_16h54.50.499,SL_base_41,2021.2.3,Win32,60.24096386,0.8455,,,25,0,25,0,1,,,,,,,,
,,"[""circle"",""green"",""vert"",""up"",[-106,-106],[0,-150]]",circle,green,vert,up,"[-106,-106]","[0,-150]",up,1,,,,,,001,2025-03-10_16h54.50.499,SL_base_41,2021.2.3,Win32,60.24096386,1.3006,,,26,0,26,0,1,,,,,,,,
,,"[""diamond"",""green"",""vert"",""up"",[-150,0],[150,0]]",diamond,green,vert,up,"[-150,0]","[150,0]",up,1,,,,,,001,2025-03-10_16h54.50.499,SL_base_41,2021.2.3,Win32,60.24096386,1.0159,,,27,0,27,0,1,,,,,,,,
,,"[""diamond"",""red"",""hori"",""left"",[106,-106],[-150,0]]",diamond,red,hori,left,"[106,-106]","[-150,0]",left,1,,,,,,001,2025-03-10_16h54.50.499,SL_base_41,2021.2.3,Win32,60.24096386,1.0567,,,28,0,28,0,1,,,,,,,,
,,"[""circle"",""no_dis"",""vert"",""up"",[99999,99999],[106,-106]]",circle,no_dis,vert,up,"[99999,99999]","[106,-106]",up,1,,,,,,001,2025-03-10_16h54.50.499,SL_base_41,2021.2.3,Win32,60.24096386,1.2501,,,29,0,29,0,1,,,,,,,,
,,"[""diamond"",""no_dis"",""hori"",""left"",[99999,99999],[-106,-106]]",diamond,no_dis,hori,left,"[99999,99999]","[-106,-106]",left,1,,,,,,001,2025-03-10_16h54.50.499,SL_base_41,2021.2.3,Win32,60.24096386,0.9505,,,30,0,30,0,1,,,,,,,,
,,"[""diamond"",""red"",""vert"",""up"",[-106,106],[-106,-106]]",diamond,red,vert,up,"[-106,106]","[-106,-106]",up,1,,,,,,001,2025-03-10_16h54.50.499,SL_base_41,2021.2.3,Win32,60.24096386,0.9339,,,31,0,31,0,1,,,,,,,,
,,"[""circle"",""red"",""hori"",""left"",[0,150],[-106,106]]",circle,red,hori,left,"[0,150]","[-106,106]",left,1,,,,,,001,2025-03-10_16h54.50.499,SL_base_41,2021.2.3,Win32,60.24096386,1.6171,,,32,0,32,0,1,,,,,,,,
,,"[""diamond"",""green"",""vert"",""up"",[106,106],[-106,-106]]",diamond,green,vert,up,"[106,106]","[-106,-106]",up,1,,,,,,001,2025-03-10_16h54.50.499,SL_base_41,2021.2.3,Win32,60.24096386,1.1337,,,33,0,33,0,1,,,,,,,,
,,"[""diamond"",""no_dis"",""hori"",""left"",[99999,99999],[-150,0]]",diamond,no_dis,hori,left,"[99999,99999]","[-150,0]",left,1,,,,,,001,2025-03-10_16h54.50.499,SL_base_41,2021.2.3,Win32,60.24096386,1.4498,,,34,0,34,0,1,,,,,,,,
,,"[""diamond"",""red"",""vert"",""up"",[-106,106],[-150,0]]",diamond,red,vert,up,"[-106,106]","[-150,0]",up,1,,,,,,001,2025-03-10_16h54.50.499,SL_base_41,2021.2.3,Win32,60.24096386,1.7857,,,35,0,35,0,1,,,,,,,,
,,"[""circle"",""green"",""hori"",""left"",[106,-106],[106,106]]",circle,green,hori,left,"[106,-106]","[106,106]",left,1,,,,,,001,2025-03-10_16h54.50.499,SL_base_41,2021.2.3,Win32,60.24096386,1.6503,,,36,0,36,0,1,,,,,,,,
,,"[""diamond"",""red"",""hori"",""left"",[106,106],[0,150]]",diamond,red,hori,left,"[106,106]","[0,150]",left,1,,,,,,001,2025-03-10_16h54.50.499,SL_base_41,2021.2.3,Win32,60.24096386,1.5503,,,37,0,37,0,1,,,,,,,,
,,"[""diamond"",""red"",""vert"",""up"",[150,0],[106,106]]",diamond,red,vert,up,"[150,0]","[106,106]",up,1,,,,,,001,2025-03-10_16h54.50.499,SL_base_41,2021.2.3,Win32,60.24096386,1.117,,,38,0,38,0,1,,,,,,,,
,,"[""circle"",""no_dis"",""vert"",""up"",[99999,99999],[0,-150]]",circle,no_dis,vert,up,"[99999,99999]","[0,-150]",up,1,,,,,,001,2025-03-10_16h54.50.499,SL_base_41,2021.2.3,Win32,60.24096386,2.1099,,,39,0,39,0,1,,,,,,,,
,,"[""diamond"",""no_dis"",""vert"",""up"",[99999,99999],[150,0]]",diamond,no_dis,vert,up,"[99999,99999]","[150,0]",up,1,,,,,,001,2025-03-10_16h54.50.499,SL_base_41,2021.2.3,Win32,60.24096386,1.1666,,,40,0,40,0,1,,,,,,,,
,,"[""circle"",""no_dis"",""vert"",""up"",[99999,99999],[106,106]]",circle,no_dis,vert,up,"[99999,99999]","[106,106]",up,1,,,,,,001,2025-03-10_16h54.50.499,SL_base_41,2021.2.3,Win32,60.24096386,2.0889,,,41,0,41,0,1,,,,,,,,
,,"[""circle"",""red"",""hori"",""left"",[106,-106],[106,106]]",circle,red,hori,left,"[106,-106]","[106,106]",left,1,,,,,,001,2025-03-10_16h54.50.499,SL_base_41,2021.2.3,Win32,60.24096386,1.0121,,,42,0,42,0,1,,,,,,,,
,,"[""circle"",""green"",""vert"",""up"",[150,0],[-106,106]]",circle,green,vert,up,"[150,0]","[-106,106]",up,1,,,,,,001,2025-03-10_16h54.50.499,SL_base_41,2021.2.3,Win32,60.24096386,1.3269,,,43,0,43,0,1,,,,,,,,
,,"[""circle"",""red"",""vert"",""up"",[-106,106],[0,150]]",circle,red,vert,up,"[-106,106]","[0,150]",up,1,,,,,,001,2025-03-10_16h54.50.499,SL_base_41,2021.2.3,Win32,60.24096386,1.3075,,,44,0,44,0,1,,,,,,,,
,,"[""diamond"",""red"",""vert"",""up"",[-106,106],[-106,-106]]",diamond,red,vert,up,"[-106,106]","[-106,-106]",up,1,,,,,,001,2025-03-10_16h54.50.499,SL_base_41,2021.2.3,Win32,60.24096386,1.3673,,,45,0,45,0,1,,,,,,,,
,,"[""circle"",""red"",""hori"",""left"",[0,-150],[-106,106]]",circle,red,hori,left,"[0,-150]","[-106,106]",left,1,,,,,,001,2025-03-10_16h54.50.499,SL_base_41,2021.2.3,Win32,60.24096386,1.4499,,,46,0,46,0,1,,,,,,,,
,,"[""diamond"",""red"",""hori"",""left"",[-150,0],[-106,106]]",diamond,red,hori,left,"[-150,0]","[-106,106]",left,1,,,,,,001,2025-03-10_16h54.50.499,SL_base_41,2021.2.3,Win32,60.24096386,1.1627,,,47,0,47,0,1,,,,,,,,
,,"[""diamond"",""red"",""hori"",""left"",[-106,-106],[-106,106]]",diamond,red,hori,left,"[-106,-106]","[-106,106]",left,1,,,,,,001,2025-03-10_16h54.50.499,SL_base_41,2021.2.3,Win32,60.24096386,0.8507,,,48,0,48,0,1,,,,,,,,
,,"[""diamond"",""green"",""vert"",""up"",[0,-150],[0,150]]",diamond,green,vert,up,"[0,-150]","[0,150]",up,1,,,,,,001,2025-03-10_16h54.50.499,SL_base_41,2021.2.3,Win32,60.24096386,0.9665,,,49,0,49,0,1,,,,,,,,
,,"[""circle"",""green"",""hori"",""left"",[150,0],[106,-106]]",circle,green,hori,left,"[150,0]","[106,-106]",left,1,,,,,,001,2025-03-10_16h54.50.499,SL_base_41,2021.2.3,Win32,60.24096386,1.3189,,,50,0,50,0,1,,,,,,,,
,,"[""circle"",""red"",""hori"",""left"",[106,106],[-150,0]]",circle,red,hori,left,"[106,106]","[-150,0]",left,1,,,,,,001,2025-03-10_16h54.50.499,SL_base_41,2021.2.3,Win32,60.24096386,0.7343,,,51,0,51,0,1,,,,,,,,
,,"[""circle"",""green"",""vert"",""up"",[0,150],[0,-150]]",circle,green,vert,up,"[0,150]","[0,-150]",up,1,,,,,,001,2025-03-10_16h54.50.499,SL_base_41,2021.2.3,Win32,60.24096386,1.0267,,,52,0,52,0,1,,,,,,,,
,,"[""circle"",""red"",""vert"",""up"",[0,-150],[-150,0]]",circle,red,vert,up,"[0,-150]","[-150,0]",up,1,,,,,,001,2025-03-10_16h54.50.499,SL_base_41,2021.2.3,Win32,60.24096386,1.2273,,,53,0,53,0,1,,,,,,,,
,,"[""diamond"",""red"",""hori"",""left"",[-106,106],[0,-150]]",diamond,red,hori,left,"[-106,106]","[0,-150]",left,1,,,,,,001,2025-03-10_16h54.50.499,SL_base_41,2021.2.3,Win32,60.24096386,1.4584,,,54,0,54,0,1,,,,,,,,
,,"[""diamond"",""green"",""hori"",""left"",[-106,106],[-106,-106]]",diamond,green,hori,left,"[-106,106]","[-106,-106]",left,1,,,,,,001,2025-03-10_16h54.50.499,SL_base_41,2021.2.3,Win32,60.24096386,1.1169,,,55,0,55,0,1,,,,,,,,
,,"[""diamond"",""green"",""hori"",""left"",[0,-150],[-106,-106]]",diamond,green,hori,left,"[0,-150]","[-106,-106]",left,1,,,,,,001,2025-03-10_16h54.50.499,SL_base_41,2021.2.3,Win32,60.24096386,0.6901,,,56,0,56,0,1,,,,,,,,
,,"[""circle"",""green"",""vert"",""up"",[0,150],[-106,106]]",circle,green,vert,up,"[0,150]","[-106,106]",up,1,,,,,,001,2025-03-10_16h54.50.499,SL_base_41,2021.2.3,Win32,60.24096386,1.1838,,,57,0,57,0,1,,,,,,,,
,,"[""circle"",""no_dis"",""hori"",""left"",[99999,99999],[-150,0]]",circle,no_dis,hori,left,"[99999,99999]","[-150,0]",left,1,,,,,,001,2025-03-10_16h54.50.499,SL_base_41,2021.2.3,Win32,60.24096386,0.7668,,,58,0,58,0,1,,,,,,,,
,,"[""circle"",""green"",""hori"",""left"",[-106,-106],[150,0]]",circle,green,hori,left,"[-106,-106]","[150,0]",left,1,,,,,,001,2025-03-10_16h54.50.499,SL_base_41,2021.2.3,Win32,60.24096386,1.3504,,,59,0,59,0,1,,,,,,,,
,,"[""diamond"",""no_dis"",""vert"",""up"",[99999,99999],[0,150]]",diamond,no_dis,vert,up,"[99999,99999]","[0,150]",up,1,,,,,,001,2025-03-10_16h54.50.499,SL_base_41,2021.2.3,Win32,60.24096386,1.6879,,,60,0,60,0,1,,,,,,,,
,,"[""circle"",""no_dis"",""hori"",""left"",[99999,99999],[0,-150]]",circle,no_dis,hori,left,"[99999,99999]","[0,-150]",left,1,,,,,,001,2025-03-10_16h54.50.499,SL_base_41,2021.2.3,Win32,60.24096386,1.705,,,61,0,61,0,1,,,,,,,,
,,"[""circle"",""red"",""hori"",""left"",[-106,106],[150,0]]",circle,red,hori,left,"[-106,106]","[150,0]",left,1,,,,,,001,2025-03-10_16h54.50.499,SL_base_41,2021.2.3,Win32,60.24096386,1.5609,,,62,0,62,0,1,,,,,,,,
,,"[""diamond"",""no_dis"",""vert"",""up"",[99999,99999],[106,-106]]",diamond,no_dis,vert,up,"[99999,99999]","[106,-106]",up,1,,,,,,001,2025-03-10_16h54.50.499,SL_base_41,2021.2.3,Win32,60.24096386,1.1038,,,63,0,63,0,1,,,,,,,,
,,"[""circle"",""red"",""hori"",""left"",[-106,106],[-150,0]]",circle,red,hori,left,"[-106,106]","[-150,0]",left,1,,,,,,001,2025-03-10_16h54.50.499,SL_base_41,2021.2.3,Win32,60.24096386,1.1222,,,64,0,64,0,1,,,,,,,,
,,"[""diamond"",""green"",""vert"",""up"",[106,106],[150,0]]",diamond,green,vert,up,"[106,106]","[150,0]",up,1,,,,,,001,2025-03-10_16h54.50.499,SL_base_41,2021.2.3,Win32,60.24096386,1.6463,,,65,0,65,0,1,,,,,,,,
,,"[""diamond"",""no_dis"",""hori"",""left"",[99999,99999],[-106,106]]",diamond,no_dis,hori,left,"[99999,99999]","[-106,106]",left,1,,,,,,001,2025-03-10_16h54.50.499,SL_base_41,2021.2.3,Win32,60.24096386,0.9834,,,66,0,66,0,1,,,,,,,,
,,"[""circle"",""red"",""vert"",""up"",[106,106],[-106,106]]",circle,red,vert,up,"[106,106]","[-106,106]",up,1,,,,,,001,2025-03-10_16h54.50.499,SL_base_41,2021.2.3,Win32,60.24096386,1.3772,,,67,0,67,0,1,,,,,,,,
,,"[""circle"",""no_dis"",""hori"",""left"",[99999,99999],[-150,0]]",circle,no_dis,hori,left,"[99999,99999]","[-150,0]",left,1,,,,,,001,2025-03-10_16h54.50.499,SL_base_41,2021.2.3,Win32,60.24096386,0.7341,,,68,0,68,0,1,,,,,,,,
,,"[""diamond"",""no_dis"",""hori"",""left"",[99999,99999],[-106,-106]]",diamond,no_dis,hori,left,"[99999,99999]","[-106,-106]",left,1,,,,,,001,2025-03-10_16h54.50.499,SL_base_41,2021.2.3,Win32,60.24096386,1.0287,,,69,0,69,0,1,,,,,,,,
,,"[""circle"",""no_dis"",""vert"",""up"",[99999,99999],[150,0]]",circle,no_dis,vert,up,"[99999,99999]","[150,0]",up,1,,,,,,001,2025-03-10_16h54.50.499,SL_base_41,2021.2.3,Win32,60.24096386,1.6243,,,70,0,70,0,1,,,,,,,,
,,"[""diamond"",""no_dis"",""vert"",""up"",[99999,99999],[106,-106]]",diamond,no_dis,vert,up,"[99999,99999]","[106,-106]",up,1,,,,,,001,2025-03-10_16h54.50.499,SL_base_41,2021.2.3,Win32,60.24096386,0.9211,,,71,0,71,0,1,,,,,,,,
,,"[""circle"",""red"",""hori"",""left"",[-106,106],[150,0]]",circle,red,hori,left,"[-106,106]","[150,0]",up,0,,,,,,001,2025-03-10_16h54.50.499,SL_base_41,2021.2.3,Win32,60.24096386,1.359,,,72,0,72,0,1,,,,,,,,
,,"[""diamond"",""green"",""hori"",""left"",[-150,0],[150,0]]",diamond,green,hori,left,"[-150,0]","[150,0]",left,1,,,,,,001,2025-03-10_16h54.50.499,SL_base_41,2021.2.3,Win32,60.24096386,0.9373,,,73,0,73,0,1,,,,,,,,
,,"[""diamond"",""no_dis"",""hori"",""left"",[99999,99999],[-106,-106]]",diamond,no_dis,hori,left,"[99999,99999]","[-106,-106]",left,1,,,,,,001,2025-03-10_16h54.50.499,SL_base_41,2021.2.3,Win32,60.24096386,1.2438,,,74,0,74,0,1,,,,,,,,
,,"[""circle"",""no_dis"",""vert"",""up"",[99999,99999],[-106,106]]",circle,no_dis,vert,up,"[99999,99999]","[-106,106]",up,1,,,,,,001,2025-03-10_16h54.50.499,SL_base_41,2021.2.3,Win32,60.24096386,0.9956,,,75,0,75,0,1,,,,,,,,
,,"[""diamond"",""green"",""hori"",""left"",[-106,106],[0,-150]]",diamond,green,hori,left,"[-106,106]","[0,-150]",left,1,,,,,,001,2025-03-10_16h54.50.499,SL_base_41,2021.2.3,Win32,60.24096386,1.0028,,,76,0,76,0,1,,,,,,,,
,,"[""circle"",""red"",""vert"",""up"",[-106,106],[0,150]]",circle,red,vert,up,"[-106,106]","[0,150]",up,1,,,,,,001,2025-03-10_16h54.50.499,SL_base_41,2021.2.3,Win32,60.24096386,1.5769,,,77,0,77,0,1,,,,,,,,
,,"[""circle"",""red"",""vert"",""up"",[-106,106],[-106,-106]]",circle,red,vert,up,"[-106,106]","[-106,-106]",up,1,,,,,,001,2025-03-10_16h54.50.499,SL_base_41,2021.2.3,Win32,60.24096386,1.2027,,,78,0,78,0,1,,,,,,,,
,,"[""diamond"",""red"",""vert"",""up"",[-106,106],[-150,0]]",diamond,red,vert,up,"[-106,106]","[-150,0]",up,1,,,,,,001,2025-03-10_16h54.50.499,SL_base_41,2021.2.3,Win32,60.24096386,1.3916,,,79,0,79,0,1,,,,,,,,
,,"[""diamond"",""green"",""vert"",""up"",[-106,-106],[106,-106]]",diamond,green,vert,up,"[-106,-106]","[106,-106]",up,1,,,,,,001,2025-03-10_16h54.50.499,SL_base_41,2021.2.3,Win32,60.24096386,1.0168,,,80,0,80,0,1,,,,,,,,
,,"[""diamond"",""green"",""hori"",""left"",[-150,0],[-106,106]]",diamond,green,hori,left,"[-150,0]","[-106,106]",left,1,,,,,,001,2025-03-10_16h54.50.499,SL_base_41,2021.2.3,Win32,60.24096386,1.0335,,,81,0,81,0,1,,,,,,,,
,,"[""circle"",""red"",""hori"",""left"",[-106,106],[106,106]]",circle,red,hori,left,"[-106,106]","[106,106]",left,1,,,,,,001,2025-03-10_16h54.50.499,SL_base_41,2021.2.3,Win32,60.24096386,1.7833,,,82,0,82,0,1,,,,,,,,
,,"[""circle"",""no_dis"",""hori"",""left"",[99999,99999],[106,106]]",circle,no_dis,hori,left,"[99999,99999]","[106,106]",up,0,,,,,,001,2025-03-10_16h54.50.499,SL_base_41,2021.2.3,Win32,60.24096386,1.5616,,,83,0,83,0,1,,,,,,,,
,,"[""diamond"",""no_dis"",""vert"",""up"",[99999,99999],[150,0]]",diamond,no_dis,vert,up,"[99999,99999]","[150,0]",up,1,,,,,,001,2025-03-10_16h54.50.499,SL_base_41,2021.2.3,Win32,60.24096386,1.983,,,84,0,84,0,1,,,,,,,,
,,"[""circle"",""red"",""vert"",""up"",[-106,106],[106,-106]]",circle,red,vert,up,"[-106,106]","[106,-106]",up,1,,,,,,001,2025-03-10_16h54.50.499,SL_base_41,2021.2.3,Win32,60.24096386,1.862,,,85,0,85,0,1,,,,,,,,
,,"[""circle"",""no_dis"",""hori"",""left"",[99999,99999],[0,150]]",circle,no_dis,hori,left,"[99999,99999]","[0,150]",up,0,,,,,,001,2025-03-10_16h54.50.499,SL_base_41,2021.2.3,Win32,60.24096386,1.6543,,,86,0,86,0,1,,,,,,,,
,,"[""circle"",""green"",""hori"",""left"",[-106,106],[-150,0]]",circle,green,hori,left,"[-106,106]","[-150,0]",left,1,,,,,,001,2025-03-10_16h54.50.499,SL_base_41,2021.2.3,Win32,60.24096386,1.0064,,,87,0,87,0,1,,,,,,,,
,,"[""diamond"",""red"",""hori"",""left"",[0,150],[0,-150]]",diamond,red,hori,left,"[0,150]","[0,-150]",left,1,,,,,,001,2025-03-10_16h54.50.499,SL_base_41,2021.2.3,Win32,60.24096386,1.1502,,,88,0,88,0,1,,,,,,,,
,,"[""diamond"",""red"",""vert"",""up"",[106,-106],[0,150]]",diamond,red,vert,up,"[106,-106]","[0,150]",up,1,,,,,,001,2025-03-10_16h54.50.499,SL_base_41,2021.2.3,Win32,60.24096386,0.9668,,,89,0,89,0,1,,,,,,,,
,,"[""diamond"",""red"",""hori"",""left"",[-106,-106],[106,106]]",diamond,red,hori,left,"[-106,-106]","[106,106]",up,0,,,,,,001,2025-03-10_16h54.50.499,SL_base_41,2021.2.3,Win32,60.24096386,1.0372,,,90,0,90,0,1,,,,,,,,
,,"[""circle"",""red"",""hori"",""left"",[106,-106],[-106,-106]]",circle,red,hori,left,"[106,-106]","[-106,-106]",left,1,,,,,,001,2025-03-10_16h54.50.499,SL_base_41,2021.2.3,Win32,60.24096386,1.434,,,91,0,91,0,1,,,,,,,,
,,"[""circle"",""green"",""hori"",""left"",[-106,106],[150,0]]",circle,green,hori,left,"[-106,106]","[150,0]",left,1,,,,,,001,2025-03-10_16h54.50.499,SL_base_41,2021.2.3,Win32,60.24096386,1.7931,,,92,0,92,0,1,,,,,,,,
,,"[""diamond"",""no_dis"",""hori"",""left"",[99999,99999],[106,106]]",diamond,no_dis,hori,left,"[99999,99999]","[106,106]",left,1,,,,,,001,2025-03-10_16h54.50.499,SL_base_41,2021.2.3,Win32,60.24096386,1.8508,,,93,0,93,0,1,,,,,,,,
,,"[""diamond"",""red"",""vert"",""up"",[0,150],[106,-106]]",diamond,red,vert,up,"[0,150]","[106,-106]",up,1,,,,,,001,2025-03-10_16h54.50.499,SL_base_41,2021.2.3,Win32,60.24096386,1.3503,,,94,0,94,0,1,,,,,,,,
,,"[""circle"",""no_dis"",""hori"",""left"",[99999,99999],[0,150]]",circle,no_dis,hori,left,"[99999,99999]","[0,150]",left,1,,,,,,001,2025-03-10_16h54.50.499,SL_base_41,2021.2.3,Win32,60.24096386,2.2833,,,95,0,95,0,1,,,,,,,,
,,"[""diamond"",""red"",""vert"",""up"",[106,-106],[150,0]]",diamond,red,vert,up,"[106,-106]","[150,0]",up,1,,,,,,001,2025-03-10_16h54.50.499,SL_base_41,2021.2.3,Win32,60.24096386,1.4501,,,96,0,96,0,1,,,,,,,,
,,"[""circle"",""no_dis"",""hori"",""left"",[99999,99999],[-106,-106]]",circle,no_dis,hori,left,"[99999,99999]","[-106,-106]",left,1,,,,,,001,2025-03-10_16h54.50.499,SL_base_41,2021.2.3,Win32,60.24096386,0.9062,,,97,0,97,0,1,,,,,,,,
,,"[""circle"",""green"",""vert"",""up"",[-106,106],[0,-150]]",circle,green,vert,up,"[-106,106]","[0,-150]",up,1,,,,,,001,2025-03-10_16h54.50.499,SL_base_41,2021.2.3,Win32,60.24096386,1.6705,,,98,0,98,0,1,,,,,,,,
,,"[""diamond"",""red"",""vert"",""up"",[-106,106],[106,-106]]",diamond,red,vert,up,"[-106,106]","[106,-106]",up,1,,,,,,001,2025-03-10_16h54.50.499,SL_base_41,2021.2.3,Win32,60.24096386,0.9596,,,99,0,99,0,1,,,,,,,,
,,"[""diamond"",""green"",""vert"",""up"",[-150,0],[106,106]]",diamond,green,vert,up,"[-150,0]","[106,106]",up,1,,,,,,001,2025-03-10_16h54.50.499,SL_base_41,2021.2.3,Win32,60.24096386,0.9164,,,100,0,100,0,1,,,,,,,,
,,"[""circle"",""no_dis"",""vert"",""up"",[99999,99999],[106,106]]",circle,no_dis,vert,up,"[99999,99999]","[106,106]",left,0,,,,,,001,2025-03-10_16h54.50.499,SL_base_41,2021.2.3,Win32,60.24096386,0.8264,,,101,0,101,0,1,,,,,,,,
,,"[""circle"",""green"",""hori"",""left"",[0,-150],[106,-106]]",circle,green,hori,left,"[0,-150]","[106,-106]",left,1,,,,,,001,2025-03-10_16h54.50.499,SL_base_41,2021.2.3,Win32,60.24096386,2.228,,,102,0,102,0,1,,,,,,,,
,,"[""circle"",""red"",""vert"",""up"",[0,-150],[-150,0]]",circle,red,vert,up,"[0,-150]","[-150,0]",up,1,,,,,,001,2025-03-10_16h54.50.499,SL_base_41,2021.2.3,Win32,60.24096386,0.9763,,,103,0,103,0,1,,,,,,,,
,,"[""diamond"",""red"",""vert"",""up"",[150,0],[106,-106]]",diamond,red,vert,up,"[150,0]","[106,-106]",up,1,,,,,,001,2025-03-10_16h54.50.499,SL_base_41,2021.2.3,Win32,60.24096386,1.1782,,,104,0,104,0,1,,,,,,,,
,,"[""circle"",""no_dis"",""vert"",""up"",[99999,99999],[-150,0]]",circle,no_dis,vert,up,"[99999,99999]","[-150,0]",up,1,,,,,,001,2025-03-10_16h54.50.499,SL_base_41,2021.2.3,Win32,60.24096386,1.6092,,,105,0,105,0,1,,,,,,,,
,,"[""circle"",""red"",""vert"",""up"",[0,150],[0,-150]]",circle,red,vert,up,"[0,150]","[0,-150]",up,1,,,,,,001,2025-03-10_16h54.50.499,SL_base_41,2021.2.3,Win32,60.24096386,1.0003,,,106,0,106,0,1,,,,,,,,
,,"[""diamond"",""red"",""hori"",""left"",[-106,106],[0,150]]",diamond,red,hori,left,"[-106,106]","[0,150]",left,1,,,,,,001,2025-03-10_16h54.50.499,SL_base_41,2021.2.3,Win32,60.24096386,2.0829,,,107,0,107,0,1,,,,,,,,
,,"[""diamond"",""green"",""vert"",""up"",[0,-150],[-106,106]]",diamond,green,vert,up,"[0,-150]","[-106,106]",up,1,,,,,,001,2025-03-10_16h54.50.499,SL_base_41,2021.2.3,Win32,60.24096386,1.3279,,,108,0,108,0,1,,,,,,,,
,,"[""circle"",""no_dis"",""hori"",""left"",[99999,99999],[106,-106]]",circle,no_dis,hori,left,"[99999,99999]","[106,-106]",left,1,,,,,,001,2025-03-10_16h54.50.499,SL_base_41,2021.2.3,Win32,60.24096386,0.954,,,109,0,109,0,1,,,,,,,,
,,"[""circle"",""green"",""vert"",""up"",[150,0],[106,-106]]",circle,green,vert,up,"[150,0]","[106,-106]",up,1,,,,,,001,2025-03-10_16h54.50.499,SL_base_41,2021.2.3,Win32,60.24096386,1.8055,,,110,0,110,0,1,,,,,,,,
,,"[""diamond"",""no_dis"",""vert"",""up"",[99999,99999],[0,150]]",diamond,no_dis,vert,up,"[99999,99999]","[0,150]",up,1,,,,,,001,2025-03-10_16h54.50.499,SL_base_41,2021.2.3,Win32,60.24096386,0.7671,,,111,0,111,0,1,,,,,,,,
,,"[""circle"",""red"",""vert"",""up"",[-150,0],[106,-106]]",circle,red,vert,up,"[-150,0]","[106,-106]",up,1,,,,,,001,2025-03-10_16h54.50.499,SL_base_41,2021.2.3,Win32,60.24096386,1.7576,,,112,0,112,0,1,,,,,,,,
,,"[""diamond"",""green"",""vert"",""up"",[-106,-106],[0,150]]",diamond,green,vert,up,"[-106,-106]","[0,150]",up,1,,,,,,001,2025-03-10_16h54.50.499,SL_base_41,2021.2.3,Win32,60.24096386,0.9522,,,113,0,113,0,1,,,,,,,,
,,"[""circle"",""red"",""vert"",""up"",[106,-106],[0,150]]",circle,red,vert,up,"[106,-106]","[0,150]",up,1,,,,,,001,2025-03-10_16h54.50.499,SL_base_41,2021.2.3,Win32,60.24096386,0.6739,,,114,0,114,0,1,,,,,,,,
,,"[""diamond"",""green"",""hori"",""left"",[150,0],[-106,106]]",diamond,green,hori,left,"[150,0]","[-106,106]",left,1,,,,,,001,2025-03-10_16h54.50.499,SL_base_41,2021.2.3,Win32,60.24096386,1.0106,,,115,0,115,0,1,,,,,,,,
,,"[""circle"",""green"",""hori"",""left"",[-106,106],[106,106]]",circle,green,hori,left,"[-106,106]","[106,106]",left,1,,,,,,001,2025-03-10_16h54.50.499,SL_base_41,2021.2.3,Win32,60.24096386,0.956,,,116,0,116,0,1,,,,,,,,
,,"[""diamond"",""no_dis"",""vert"",""up"",[99999,99999],[0,-150]]",diamond,no_dis,vert,up,"[99999,99999]","[0,-150]",up,1,,,,,,001,2025-03-10_16h54.50.499,SL_base_41,2021.2.3,Win32,60.24096386,1.2999,,,117,0,117,0,1,,,,,,,,
,,"[""diamond"",""green"",""vert"",""up"",[0,150],[-106,-106]]",diamond,green,vert,up,"[0,150]","[-106,-106]",up,1,,,,,,001,2025-03-10_16h54.50.499,SL_base_41,2021.2.3,Win32,60.24096386,1.0333,,,118,0,118,0,1,,,,,,,,
,,"[""circle"",""red"",""vert"",""up"",[-106,-106],[-150,0]]",circle,red,vert,up,"[-106,-106]","[-150,0]",up,1,,,,,,001,2025-03-10_16h54.50.499,SL_base_41,2021.2.3,Win32,60.24096386,2.4496,,,119,0,119,0,1,,,,,,,,
,,"[""diamond"",""no_dis"",""vert"",""up"",[99999,99999],[-106,106]]",diamond,no_dis,vert,up,"[99999,99999]","[-106,106]",up,1,,,,,,001,2025-03-10_16h54.50.499,SL_base_41,2021.2.3,Win32,60.24096386,1.8765,,,120,0,120,0,1,,,,,,,,
,,"[""circle"",""green"",""vert"",""up"",[-106,106],[106,-106]]",circle,green,vert,up,"[-106,106]","[106,-106]",up,1,,,,,,001,2025-03-10_16h54.50.499,SL_base_41,2021.2.3,Win32,60.24096386,1.3668,,,121,0,121,0,1,,,,,,,,
,,"[""diamond"",""green"",""hori"",""left"",[-106,106],[106,106]]",diamond,green,hori,left,"[-106,106]","[106,106]",left,1,,,,,,001,2025-03-10_16h54.50.499,SL_base_41,2021.2.3,Win32,60.24096386,1.1297,,,122,0,122,0,1,,,,,,,,
,,"[""circle"",""no_dis"",""hori"",""left"",[99999,99999],[-106,-106]]",circle,no_dis,hori,left,"[99999,99999]","[-106,-106]",left,1,,,,,,001,2025-03-10_16h54.50.499,SL_base_41,2021.2.3,Win32,60.24096386,0.9832,,,123,0,123,0,1,,,,,,,,
,,"[""diamond"",""no_dis"",""hori"",""left"",[99999,99999],[106,-106]]",diamond,no_dis,hori,left,"[99999,99999]","[106,-106]",left,1,,,,,,001,2025-03-10_16h54.50.499,SL_base_41,2021.2.3,Win32,60.24096386,0.7932,,,124,0,124,0,1,,,,,,,,
,,"[""diamond"",""green"",""hori"",""left"",[-106,106],[-106,-106]]",diamond,green,hori,left,"[-106,106]","[-106,-106]",left,1,,,,,,001,2025-03-10_16h54.50.499,SL_base_41,2021.2.3,Win32,60.24096386,0.821,,,125,0,125,0,1,,,,,,,,
,,"[""diamond"",""red"",""vert"",""up"",[150,0],[-106,-106]]",diamond,red,vert,up,"[150,0]","[-106,-106]",up,1,,,,,,001,2025-03-10_16h54.50.499,SL_base_41,2021.2.3,Win32,60.24096386,1.3501,,,126,0,126,0,1,,,,,,,,
,,"[""circle"",""green"",""hori"",""left"",[106,-106],[-106,106]]",circle,green,hori,left,"[106,-106]","[-106,106]",left,1,,,,,,001,2025-03-10_16h54.50.499,SL_base_41,2021.2.3,Win32,60.24096386,0.7037,,,127,0,127,0,1,,,,,,,,
,,,,,,,,,,,,,,,,001,2025-03-10_16h54.50.499,SL_base_41,2021.2.3,Win32,60.24096386,,,,,,,,,3,space,336.7746,2,0,2,0,1
,,"[""diamond"",""no_dis"",""hori"",""left"",[99999,99999],[-150,0]]",diamond,no_dis,hori,left,"[99999,99999]","[-150,0]",left,1,,,,,,001,2025-03-10_16h54.50.499,SL_base_41,2021.2.3,Win32,60.24096386,1.3099,,,0,0,0,0,1,,,,,,,,
,,"[""circle"",""no_dis"",""vert"",""up"",[99999,99999],[106,106]]",circle,no_dis,vert,up,"[99999,99999]","[106,106]",up,1,,,,,,001,2025-03-10_16h54.50.499,SL_base_41,2021.2.3,Win32,60.24096386,1.3836,,,1,0,1,0,1,,,,,,,,
,,"[""diamond"",""no_dis"",""hori"",""left"",[99999,99999],[106,-106]]",diamond,no_dis,hori,left,"[99999,99999]","[106,-106]",left,1,,,,,,001,2025-03-10_16h54.50.499,SL_base_41,2021.2.3,Win32,60.24096386,1.2331,,,2,0,2,0,1,,,,,,,,
,,"[""diamond"",""red"",""hori"",""left"",[0,150],[0,-150]]",diamond,red,hori,left,"[0,150]","[0,-150]",left,1,,,,,,001,2025-03-10_16h54.50.499,SL_base_41,2021.2.3,Win32,60.24096386,0.8216,,,3,0,3,0,1,,,,,,,,
,,"[""circle"",""no_dis"",""hori"",""left"",[99999,99999],[0,-150]]",circle,no_dis,hori,left,"[99999,99999]","[0,-150]",left,1,,,,,,001,2025-03-10_16h54.50.499,SL_base_41,2021.2.3,Win32,60.24096386,0.7268,,,4,0,4,0,1,,,,,,,,
,,"[""circle"",""red"",""vert"",""up"",[-106,106],[-106,-106]]",circle,red,vert,up,"[-106,106]","[-106,-106]",up,1,,,,,,001,2025-03-10_16h54.50.499,SL_base_41,2021.2.3,Win32,60.24096386,1.1613,,,5,0,5,0,1,,,,,,,,
,,"[""circle"",""no_dis"",""hori"",""left"",[99999,99999],[-106,-106]]",circle,no_dis,hori,left,"[99999,99999]","[-106,-106]",left,1,,,,,,001,2025-03-10_16h54.50.499,SL_base_41,2021.2.3,Win32,60.24096386,0.6514,,,6,0,6,0,1,,,,,,,,
,,"[""circle"",""green"",""vert"",""up"",[106,106],[-106,-106]]",circle,green,vert,up,"[106,106]","[-106,-106]",up,1,,,,,,001,2025-03-10_16h54.50.499,SL_base_41,2021.2.3,Win32,60.24096386,1.2463,,,7,0,7,0,1,,,,,,,,
,,"[""circle"",""no_dis"",""vert"",""up"",[99999,99999],[0,-150]]",circle,no_dis,vert,up,"[99999,99999]","[0,-150]",up,1,,,,,,001,2025-03-10_16h54.50.499,SL_base_41,2021.2.3,Win32,60.24096386,1.1713,,,8,0,8,0,1,,,,,,,,
,,"[""circle"",""green"",""hori"",""left"",[0,-150],[106,-106]]",circle,green,hori,left,"[0,-150]","[106,-106]",left,1,,,,,,001,2025-03-10_16h54.50.499,SL_base_41,2021.2.3,Win32,60.24096386,0.9333,,,9,0,9,0,1,,,,,,,,
,,"[""circle"",""green"",""hori"",""left"",[-106,106],[0,150]]",circle,green,hori,left,"[-106,106]","[0,150]",left,1,,,,,,001,2025-03-10_16h54.50.499,SL_base_41,2021.2.3,Win32,60.24096386,0.7168,,,10,0,10,0,1,,,,,,,,
,,"[""circle"",""green"",""vert"",""up"",[0,150],[0,-150]]",circle,green,vert,up,"[0,150]","[0,-150]",up,1,,,,,,001,2025-03-10_16h54.50.499,SL_base_41,2021.2.3,Win32,60.24096386,1.1503,,,11,0,11,0,1,,,,,,,,
,,"[""circle"",""no_dis"",""vert"",""up"",[99999,99999],[106,-106]]",circle,no_dis,vert,up,"[99999,99999]","[106,-106]",up,1,,,,,,001,2025-03-10_16h54.50.499,SL_base_41,2021.2.3,Win32,60.24096386,1.383,,,12,0,12,0,1,,,,,,,,
,,"[""circle"",""red"",""hori"",""left"",[106,106],[-150,0]]",circle,red,hori,left,"[106,106]","[-150,0]",left,1,,,,,,001,2025-03-10_16h54.50.499,SL_base_41,2021.2.3,Win32,60.24096386,0.7995,,,13,0,13,0,1,,,,,,,,
,,"[""circle"",""green"",""hori"",""left"",[106,106],[150,0]]",circle,green,hori,left,"[106,106]","[150,0]",left,1,,,,,,001,2025-03-10_16h54.50.499,SL_base_41,2021.2.3,Win32,60.24096386,1.4018,,,14,0,14,0,1,,,,,,,,
,,"[""circle"",""red"",""vert"",""up"",[-106,106],[0,150]]",circle,red,vert,up,"[-106,106]","[0,150]",up,1,,,,,,001,2025-03-10_16h54.50.499,SL_base_41,2021.2.3,Win32,60.24096386,0.8004,,,15,0,15,0,1,,,,,,,,
,,"[""circle"",""green"",""hori"",""left"",[-150,0],[-106,-106]]",circle,green,hori,left,"[-150,0]","[-106,-106]",left,1,,,,,,001,2025-03-10_16h54.50.499,SL_base_41,2021.2.3,Win32,60.24096386,0.8037,,,16,0,16,0,1,,,,,,,,
,,"[""circle"",""no_dis"",""vert"",""up"",[99999,99999],[-150,0]]",circle,no_dis,vert,up,"[99999,99999]","[-150,0]",up,1,,,,,,001,2025-03-10_16h54.50.499,SL_base_41,2021.2.3,Win32,60.24096386,1.3003,,,17,0,17,0,1,,,,,,,,
,,"[""diamond"",""green"",""vert"",""up"",[106,106],[150,0]]",diamond,green,vert,up,"[106,106]","[150,0]",left,0,,,,,,001,2025-03-10_16h54.50.499,SL_base_41,2021.2.3,Win32,60.24096386,1.5121,,,18,0,18,0,1,,,,,,,,
,,"[""circle"",""no_dis"",""hori"",""left"",[99999,99999],[-150,0]]",circle,no_dis,hori,left,"[99999,99999]","[-150,0]",left,1,,,,,,001,2025-03-10_16h54.50.499,SL_base_41,2021.2.3,Win32,60.24096386,0.9907,,,19,0,19,0,1,,,,,,,,
,,"[""circle"",""green"",""vert"",""up"",[-106,106],[106,106]]",circle,green,vert,up,"[-106,106]","[106,106]",up,1,,,,,,001,2025-03-10_16h54.50.499,SL_base_41,2021.2.3,Win32,60.24096386,0.7899,,,20,0,20,0,1,,,,,,,,
,,"[""diamond"",""red"",""hori"",""left"",[-106,-106],[106,106]]",diamond,red,hori,left,"[-106,-106]","[106,106]",left,1,,,,,,001,2025-03-10_16h54.50.499,SL_base_41,2021.2.3,Win32,60.24096386,1.3014,,,21,0,21,0,1,,,,,,,,
,,"[""diamond"",""green"",""hori"",""left"",[-150,0],[150,0]]",diamond,green,hori,left,"[-150,0]","[150,0]",left,1,,,,,,001,2025-03-10_16h54.50.499,SL_base_41,2021.2.3,Win32,60.24096386,1.3174,,,22,0,22,0,1,,,,,,,,
,,"[""circle"",""green"",""hori"",""left"",[-106,106],[106,106]]",circle,green,hori,left,"[-106,106]","[106,106]",up,0,,,,,,001,2025-03-10_16h54.50.499,SL_base_41,2021.2.3,Win32,60.24096386,2.0495,,,23,0,23,0,1,,,,,,,,
,,"[""circle"",""green"",""vert"",""up"",[-106,106],[0,-150]]",circle,green,vert,up,"[-106,106]","[0,-150]",up,1,,,,,,001,2025-03-10_16h54.50.499,SL_base_41,2021.2.3,Win32,60.24096386,1.1021,,,24,0,24,0,1,,,,,,,,
,,"[""diamond"",""green"",""hori"",""left"",[106,106],[150,0]]",diamond,green,hori,left,"[106,106]","[150,0]",left,1,,,,,,001,2025-03-10_16h54.50.499,SL_base_41,2021.2.3,Win32,60.24096386,1.4831,,,25,0,25,0,1,,,,,,,,
,,"[""diamond"",""green"",""hori"",""left"",[-106,106],[106,-106]]",diamond,green,hori,left,"[-106,106]","[106,-106]",left,1,,,,,,001,2025-03-10_16h54.50.499,SL_base_41,2021.2.3,Win32,60.24096386,1.6223,,,26,0,26,0,1,,,,,,,,
,,"[""circle"",""green"",""hori"",""left"",[150,0],[106,-106]]",circle,green,hori,left,"[150,0]","[106,-106]",left,1,,,,,,001,2025-03-10_16h54.50.499,SL_base_41,2021.2.3,Win32,60.24096386,0.2356,,,27,0,27,0,1,,,,,,,,
,,"[""diamond"",""no_dis"",""vert"",""up"",[99999,99999],[-106,106]]",diamond,no_dis,vert,up,"[99999,99999]","[-106,106]",left,0,,,,,,001,2025-03-10_16h54.50.499,SL_base_41,2021.2.3,Win32,60.24096386,1.5738,,,28,0,28,0,1,,,,,,,,
,,"[""diamond"",""green"",""vert"",""up"",[-150,0],[106,106]]",diamond,green,vert,up,"[-150,0]","[106,106]",left,0,,,,,,001,2025-03-10_16h54.50.499,SL_base_41,2021.2.3,Win32,60.24096386,0.635,,,29,0,29,0,1,,,,,,,,
,,"[""diamond"",""green"",""vert"",""up"",[-106,-106],[106,-106]]",diamond,green,vert,up,"[-106,-106]","[106,-106]",left,0,,,,,,001,2025-03-10_16h54.50.499,SL_base_41,2021.2.3,Win32,60.24096386,0.1341,,,30,0,30,0,1,,,,,,,,
,,"[""diamond"",""red"",""vert"",""up"",[-106,106],[-106,-106]]",diamond,red,vert,up,"[-106,106]","[-106,-106]",left,0,,,,,,001,2025-03-10_16h54.50.499,SL_base_41,2021.2.3,Win32,60.24096386,0.6343,,,31,0,31,0,1,,,,,,,,
,,"[""circle"",""green"",""hori"",""left"",[-106,-106],[150,0]]",circle,green,hori,left,"[-106,-106]","[150,0]",left,1,,,,,,001,2025-03-10_16h54.50.499,SL_base_41,2021.2.3,Win32,60.24096386,0.7109,,,32,0,32,0,1,,,,,,,,
,,"[""diamond"",""green"",""vert"",""up"",[-150,0],[150,0]]",diamond,green,vert,up,"[-150,0]","[150,0]",,0,,,,,,001,2025-03-10_16h54.50.499,SL_base_41,2021.2.3,Win32,60.24096386,,,,33,0,33,0,1,,,,,,,,
,,"[""diamond"",""no_dis"",""hori"",""left"",[99999,99999],[-106,-106]]",diamond,no_dis,hori,left,"[99999,99999]","[-106,-106]",up,0,,,,,,001,2025-03-10_16h54.50.499,SL_base_41,2021.2.3,Win32,60.24096386,1.3666,,,34,0,34,0,1,,,,,,,,
,,"[""circle"",""no_dis"",""vert"",""up"",[99999,99999],[0,-150]]",circle,no_dis,vert,up,"[99999,99999]","[0,-150]",up,1,,,,,,001,2025-03-10_16h54.50.499,SL_base_41,2021.2.3,Win32,60.24096386,1.4834,,,35,0,35,0,1,,,,,,,,
,,"[""diamond"",""no_dis"",""hori"",""left"",[99999,99999],[0,150]]",diamond,no_dis,hori,left,"[99999,99999]","[0,150]",left,1,,,,,,001,2025-03-10_16h54.50.499,SL_base_41,2021.2.3,Win32,60.24096386,2.0918,,,36,0,36,0,1,,,,,,,,
,,"[""diamond"",""red"",""hori"",""left"",[150,0],[-150,0]]",diamond,red,hori,left,"[150,0]","[-150,0]",left,1,,,,,,001,2025-03-10_16h54.50.499,SL_base_41,2021.2.3,Win32,60.24096386,1.0837,,,37,0,37,0,1,,,,,,,,
,,"[""circle"",""no_dis"",""hori"",""left"",[99999,99999],[106,-106]]",circle,no_dis,hori,left,"[99999,99999]","[106,-106]",left,1,,,,,,001,2025-03-10_16h54.50.499,SL_base_41,2021.2.3,Win32,60.24096386,1.4619,,,38,0,38,0,1,,,,,,,,
,,"[""diamond"",""red"",""hori"",""left"",[-106,106],[0,-150]]",diamond,red,hori,left,"[-106,106]","[0,-150]",left,1,,,,,,001,2025-03-10_16h54.50.499,SL_base_41,2021.2.3,Win32,60.24096386,1.0833,,,39,0,39,0,1,,,,,,,,
,,"[""diamond"",""red"",""vert"",""up"",[106,-106],[150,0]]",diamond,red,vert,up,"[106,-106]","[150,0]",up,1,,,,,,001,2025-03-10_16h54.50.499,SL_base_41,2021.2.3,Win32,60.24096386,1.3334,,,40,0,40,0,1,,,,,,,,
,,"[""diamond"",""no_dis"",""vert"",""up"",[99999,99999],[0,-150]]",diamond,no_dis,vert,up,"[99999,99999]","[0,-150]",up,1,,,,,,001,2025-03-10_16h54.50.499,SL_base_41,2021.2.3,Win32,60.24096386,1.0454,,,41,0,41,0,1,,,,,,,,
,,"[""circle"",""no_dis"",""vert"",""up"",[99999,99999],[150,0]]",circle,no_dis,vert,up,"[99999,99999]","[150,0]",up,1,,,,,,001,2025-03-10_16h54.50.499,SL_base_41,2021.2.3,Win32,60.24096386,0.8669,,,42,0,42,0,1,,,,,,,,
,,"[""circle"",""red"",""vert"",""up"",[0,150],[0,-150]]",circle,red,vert,up,"[0,150]","[0,-150]",up,1,,,,,,001,2025-03-10_16h54.50.499,SL_base_41,2021.2.3,Win32,60.24096386,1.1338,,,43,0,43,0,1,,,,,,,,
,,"[""diamond"",""red"",""vert"",""up"",[-106,106],[-106,-106]]",diamond,red,vert,up,"[-106,106]","[-106,-106]",up,1,,,,,,001,2025-03-10_16h54.50.499,SL_base_41,2021.2.3,Win32,60.24096386,1.0571,,,44,0,44,0,1,,,,,,,,
,,"[""circle"",""no_dis"",""vert"",""up"",[99999,99999],[-106,106]]",circle,no_dis,vert,up,"[99999,99999]","[-106,106]",left,0,,,,,,001,2025-03-10_16h54.50.499,SL_base_41,2021.2.3,Win32,60.24096386,0.9503,,,45,0,45,0,1,,,,,,,,
,,"[""diamond"",""no_dis"",""hori"",""left"",[99999,99999],[0,-150]]",diamond,no_dis,hori,left,"[99999,99999]","[0,-150]",left,1,,,,,,001,2025-03-10_16h54.50.499,SL_base_41,2021.2.3,Win32,60.24096386,0.7602,,,46,0,46,0,1,,,,,,,,
,,"[""circle"",""green"",""hori"",""left"",[106,-106],[106,106]]",circle,green,hori,left,"[106,-106]","[106,106]",left,1,,,,,,001,2025-03-10_16h54.50.499,SL_base_41,2021.2.3,Win32,60.24096386,2.0834,,,47,0,47,0,1,,,,,,,,
,,"[""diamond"",""no_dis"",""vert"",""up"",[99999,99999],[0,150]]",diamond,no_dis,vert,up,"[99999,99999]","[0,150]",up,1,,,,,,001,2025-03-10_16h54.50.499,SL_base_41,2021.2.3,Win32,60.24096386,1.2174,,,48,0,48,0,1,,,,,,,,
,,"[""diamond"",""no_dis"",""hori"",""left"",[99999,99999],[106,106]]",diamond,no_dis,hori,left,"[99999,99999]","[106,106]",left,1,,,,,,001,2025-03-10_16h54.50.499,SL_base_41,2021.2.3,Win32,60.24096386,1.7235,,,49,0,49,0,1,,,,,,,,
,,"[""diamond"",""red"",""hori"",""left"",[-106,-106],[-106,106]]",diamond,red,hori,left,"[-106,-106]","[-106,106]",left,1,,,,,,001,2025-03-10_16h54.50.499,SL_base_41,2021.2.3,Win32,60.24096386,0.7338,,,50,0,50,0,1,,,,,,,,
,,"[""diamond"",""no_dis"",""vert"",""up"",[99999,99999],[106,106]]",diamond,no_dis,vert,up,"[99999,99999]","[106,106]",up,1,,,,,,001,2025-03-10_16h54.50.499,SL_base_41,2021.2.3,Win32,60.24096386,1.1707,,,51,0,51,0,1,,,,,,,,
,,"[""circle"",""no_dis"",""hori"",""left"",[99999,99999],[0,150]]",circle,no_dis,hori,left,"[99999,99999]","[0,150]",left,1,,,,,,001,2025-03-10_16h54.50.499,SL_base_41,2021.2.3,Win32,60.24096386,2.3,,,52,0,52,0,1,,,,,,,,
,,"[""diamond"",""no_dis"",""vert"",""up"",[99999,99999],[150,0]]",diamond,no_dis,vert,up,"[99999,99999]","[150,0]",up,1,,,,,,001,2025-03-10_16h54.50.499,SL_base_41,2021.2.3,Win32,60.24096386,2.0167,,,53,0,53,0,1,,,,,,,,
,,"[""circle"",""red"",""vert"",""up"",[106,-106],[0,150]]",circle,red,vert,up,"[106,-106]","[0,150]",up,1,,,,,,001,2025-03-10_16h54.50.499,SL_base_41,2021.2.3,Win32,60.24096386,0.9331,,,54,0,54,0,1,,,,,,,,
,,"[""circle"",""no_dis"",""hori"",""left"",[99999,99999],[150,0]]",circle,no_dis,hori,left,"[99999,99999]","[150,0]",left,1,,,,,,001,2025-03-10_16h54.50.499,SL_base_41,2021.2.3,Win32,60.24096386,0.9054,,,55,0,55,0,1,,,,,,,,
,,"[""circle"",""red"",""hori"",""left"",[0,-150],[-106,106]]",circle,red,hori,left,"[0,-150]","[-106,106]",left,1,,,,,,001,2025-03-10_16h54.50.499,SL_base_41,2021.2.3,Win32,60.24096386,0.5669,,,56,0,56,0,1,,,,,,,,
,,"[""diamond"",""red"",""vert"",""up"",[150,0],[-106,-106]]",diamond,red,vert,up,"[150,0]","[-106,-106]",left,0,,,,,,001,2025-03-10_16h54.50.499,SL_base_41,2021.2.3,Win32,60.24096386,1.1333,,,57,0,57,0,1,,,,,,,,
,,"[""diamond"",""red"",""vert"",""up"",[106,-106],[0,150]]",diamond,red,vert,up,"[106,-106]","[0,150]",up,1,,,,,,001,2025-03-10_16h54.50.499,SL_base_41,2021.2.3,Win32,60.24096386,0.5888,,,58,0,58,0,1,,,,,,,,
