﻿key_resp.keys,key_resp.rt,trial_para,tar_shape,dis_color_condi,tar_line,cor_resp,dis_loc,tar_loc,resp.keys,resp.corr,resp.rt,trials.thisRepN,trials.thisTrialN,trials.thisN,trials.thisIndex,trials.ran,participant,date,expName,psychopyVersion,OS,frameRate,key_resp_2.keys,key_resp_2.rt,trials_2.thisRepN,trials_2.thisTrialN,trials_2.thisN,trials_2.thisIndex,trials_2.ran,block_num,key_resp_3.keys,key_resp_3.rt,trials_3.thisRepN,trials_3.thisTrialN,trials_3.thisN,trials_3.thisIndex,trials_3.ran
space,30.1225,"[""diamond"",""red"",""hori"",""left"",[150,0],[0,-150]]",diamond,red,hori,left,"[150,0]","[0,-150]",up,0,0.9427,0,0,0,0,1,001,2025-03-10_17h39.28.884,SL_base_41,2021.2.3,Win32,59.52380952,,,,,,,,,,,,,,,
,,"[""diamond"",""green"",""vert"",""up"",[-150,0],[150,0]]",diamond,green,vert,up,"[-150,0]","[150,0]",left,0,1.3491,1,0,1,0,1,001,2025-03-10_17h39.28.884,SL_base_41,2021.2.3,Win32,59.52380952,,,,,,,,,,,,,,,
,,"[""circle"",""red"",""hori"",""left"",[0,-150],[-150,0]]",circle,red,hori,left,"[0,-150]","[-150,0]",up,0,1.0969,2,0,2,0,1,001,2025-03-10_17h39.28.884,SL_base_41,2021.2.3,Win32,59.52380952,,,,,,,,,,,,,,,
,,"[""diamond"",""no_dis"",""vert"",""up"",[99999,99999],[150,0]]",diamond,no_dis,vert,up,"[99999,99999]","[150,0]",,0,,3,0,3,0,1,001,2025-03-10_17h39.28.884,SL_base_41,2021.2.3,Win32,59.52380952,,,,,,,,,,,,,,,
,,"[""circle"",""red"",""vert"",""up"",[0,150],[-106,-106]]",circle,red,vert,up,"[0,150]","[-106,-106]",left,0,1.1621,4,0,4,0,1,001,2025-03-10_17h39.28.884,SL_base_41,2021.2.3,Win32,59.52380952,,,,,,,,,,,,,,,
,,"[""diamond"",""no_dis"",""hori"",""left"",[99999,99999],[106,-106]]",diamond,no_dis,hori,left,"[99999,99999]","[106,-106]",up,0,1.0083,5,0,5,0,1,001,2025-03-10_17h39.28.884,SL_base_41,2021.2.3,Win32,59.52380952,,,,,,,,,,,,,,,
,,"[""diamond"",""red"",""hori"",""left"",[-150,0],[0,150]]",diamond,red,hori,left,"[-150,0]","[0,150]",up,0,1.0491,6,0,6,0,1,001,2025-03-10_17h39.28.884,SL_base_41,2021.2.3,Win32,59.52380952,,,,,,,,,,,,,,,
,,"[""circle"",""red"",""vert"",""up"",[106,-106],[-150,0]]",circle,red,vert,up,"[106,-106]","[-150,0]",,0,,7,0,7,0,1,001,2025-03-10_17h39.28.884,SL_base_41,2021.2.3,Win32,59.52380952,,,,,,,,,,,,,,,
,,"[""diamond"",""red"",""vert"",""up"",[-150,0],[106,-106]]",diamond,red,vert,up,"[-150,0]","[106,-106]",,0,,8,0,8,0,1,001,2025-03-10_17h39.28.884,SL_base_41,2021.2.3,Win32,59.52380952,,,,,,,,,,,,,,,
,,"[""diamond"",""red"",""vert"",""up"",[-106,106],[106,106]]",diamond,red,vert,up,"[-106,106]","[106,106]",,0,,9,0,9,0,1,001,2025-03-10_17h39.28.884,SL_base_41,2021.2.3,Win32,59.52380952,,,,,,,,,,,,,,,
,,"[""diamond"",""red"",""hori"",""left"",[150,0],[0,-150]]",diamond,red,hori,left,"[150,0]","[0,-150]",,0,,,,,,,001,2025-03-10_17h39.28.884,SL_base_41,2021.2.3,Win32,59.52380952,space,47.4746,0,0,0,0,1,,,,,,,,
,,"[""diamond"",""green"",""vert"",""up"",[-150,0],[150,0]]",diamond,green,vert,up,"[-150,0]","[150,0]",left,0,1.5921,,,,,,001,2025-03-10_17h39.28.884,SL_base_41,2021.2.3,Win32,59.52380952,,,1,0,1,0,1,,,,,,,,
,,"[""circle"",""red"",""hori"",""left"",[0,-150],[-150,0]]",circle,red,hori,left,"[0,-150]","[-150,0]",up,0,2.5926,,,,,,001,2025-03-10_17h39.28.884,SL_base_41,2021.2.3,Win32,59.52380952,,,2,0,2,0,1,,,,,,,,
,,"[""diamond"",""no_dis"",""vert"",""up"",[99999,99999],[150,0]]",diamond,no_dis,vert,up,"[99999,99999]","[150,0]",left,0,2.2137,,,,,,001,2025-03-10_17h39.28.884,SL_base_41,2021.2.3,Win32,59.52380952,,,3,0,3,0,1,,,,,,,,
,,"[""circle"",""red"",""vert"",""up"",[0,150],[-106,-106]]",circle,red,vert,up,"[0,150]","[-106,-106]",up,1,1.8509,,,,,,001,2025-03-10_17h39.28.884,SL_base_41,2021.2.3,Win32,59.52380952,,,4,0,4,0,1,,,,,,,,
,,"[""diamond"",""no_dis"",""hori"",""left"",[99999,99999],[106,-106]]",diamond,no_dis,hori,left,"[99999,99999]","[106,-106]",up,0,2.4527,,,,,,001,2025-03-10_17h39.28.884,SL_base_41,2021.2.3,Win32,59.52380952,,,5,0,5,0,1,,,,,,,,
,,"[""diamond"",""red"",""hori"",""left"",[-150,0],[0,150]]",diamond,red,hori,left,"[-150,0]","[0,150]",up,0,1.5011,,,,,,001,2025-03-10_17h39.28.884,SL_base_41,2021.2.3,Win32,59.52380952,,,6,0,6,0,1,,,,,,,,
,,"[""circle"",""red"",""vert"",""up"",[106,-106],[-150,0]]",circle,red,vert,up,"[106,-106]","[-150,0]",up,1,1.4341,,,,,,001,2025-03-10_17h39.28.884,SL_base_41,2021.2.3,Win32,59.52380952,,,7,0,7,0,1,,,,,,,,
,,"[""diamond"",""red"",""vert"",""up"",[-150,0],[106,-106]]",diamond,red,vert,up,"[-150,0]","[106,-106]",up,1,0.8843,,,,,,001,2025-03-10_17h39.28.884,SL_base_41,2021.2.3,Win32,59.52380952,,,8,0,8,0,1,,,,,,,,
,,"[""diamond"",""red"",""vert"",""up"",[-106,106],[106,106]]",diamond,red,vert,up,"[-106,106]","[106,106]",up,1,0.8739,,,,,,001,2025-03-10_17h39.28.884,SL_base_41,2021.2.3,Win32,59.52380952,,,9,0,9,0,1,,,,,,,,
,,"[""circle"",""red"",""vert"",""up"",[-150,0],[-106,-106]]",circle,red,vert,up,"[-150,0]","[-106,-106]",left,0,0.7842,,,,,,001,2025-03-10_17h39.28.884,SL_base_41,2021.2.3,Win32,59.52380952,,,10,0,10,0,1,,,,,,,,
,,"[""circle"",""red"",""hori"",""left"",[106,106],[0,150]]",circle,red,hori,left,"[106,106]","[0,150]",left,1,1.2081,,,,,,001,2025-03-10_17h39.28.884,SL_base_41,2021.2.3,Win32,59.52380952,,,11,0,11,0,1,,,,,,,,
,,"[""diamond"",""no_dis"",""vert"",""up"",[99999,99999],[106,-106]]",diamond,no_dis,vert,up,"[99999,99999]","[106,-106]",left,0,1.9302,,,,,,001,2025-03-10_17h39.28.884,SL_base_41,2021.2.3,Win32,59.52380952,,,12,0,12,0,1,,,,,,,,
,,"[""diamond"",""red"",""hori"",""left"",[-106,-106],[0,150]]",diamond,red,hori,left,"[-106,-106]","[0,150]",left,1,0.7729,,,,,,001,2025-03-10_17h39.28.884,SL_base_41,2021.2.3,Win32,59.52380952,,,13,0,13,0,1,,,,,,,,
,,"[""diamond"",""green"",""hori"",""left"",[0,-150],[150,0]]",diamond,green,hori,left,"[0,-150]","[150,0]",left,1,1.3117,,,,,,001,2025-03-10_17h39.28.884,SL_base_41,2021.2.3,Win32,59.52380952,,,14,0,14,0,1,,,,,,,,
,,"[""circle"",""no_dis"",""vert"",""up"",[99999,99999],[-106,106]]",circle,no_dis,vert,up,"[99999,99999]","[-106,106]",up,1,1.4716,,,,,,001,2025-03-10_17h39.28.884,SL_base_41,2021.2.3,Win32,59.52380952,,,15,0,15,0,1,,,,,,,,
,,"[""circle"",""green"",""vert"",""up"",[-106,-106],[0,150]]",circle,green,vert,up,"[-106,-106]","[0,150]",up,1,0.9859,,,,,,001,2025-03-10_17h39.28.884,SL_base_41,2021.2.3,Win32,59.52380952,,,16,0,16,0,1,,,,,,,,
,,"[""circle"",""no_dis"",""vert"",""up"",[99999,99999],[-106,-106]]",circle,no_dis,vert,up,"[99999,99999]","[-106,-106]",up,1,1.9076,,,,,,001,2025-03-10_17h39.28.884,SL_base_41,2021.2.3,Win32,59.52380952,,,17,0,17,0,1,,,,,,,,
,,"[""circle"",""red"",""vert"",""up"",[-150,0],[106,106]]",circle,red,vert,up,"[-150,0]","[106,106]",left,0,0.8224,,,,,,001,2025-03-10_17h39.28.884,SL_base_41,2021.2.3,Win32,59.52380952,,,18,0,18,0,1,,,,,,,,
,,"[""circle"",""no_dis"",""hori"",""left"",[99999,99999],[0,150]]",circle,no_dis,hori,left,"[99999,99999]","[0,150]",left,1,1.8023,,,,,,001,2025-03-10_17h39.28.884,SL_base_41,2021.2.3,Win32,59.52380952,,,19,0,19,0,1,,,,,,,,
,,"[""diamond"",""no_dis"",""hori"",""left"",[99999,99999],[0,-150]]",diamond,no_dis,hori,left,"[99999,99999]","[0,-150]",up,0,0.9502,,,,,,001,2025-03-10_17h39.28.884,SL_base_41,2021.2.3,Win32,59.52380952,,,20,0,20,0,1,,,,,,,,
,,"[""diamond"",""red"",""vert"",""up"",[-150,0],[106,106]]",diamond,red,vert,up,"[-150,0]","[106,106]",up,1,1.8313,,,,,,001,2025-03-10_17h39.28.884,SL_base_41,2021.2.3,Win32,59.52380952,,,21,0,21,0,1,,,,,,,,
,,"[""diamond"",""no_dis"",""vert"",""up"",[99999,99999],[0,-150]]",diamond,no_dis,vert,up,"[99999,99999]","[0,-150]",left,0,1.8138,,,,,,001,2025-03-10_17h39.28.884,SL_base_41,2021.2.3,Win32,59.52380952,,,22,0,22,0,1,,,,,,,,
,,"[""circle"",""green"",""hori"",""left"",[-150,0],[-106,-106]]",circle,green,hori,left,"[-150,0]","[-106,-106]",left,1,1.2938,,,,,,001,2025-03-10_17h39.28.884,SL_base_41,2021.2.3,Win32,59.52380952,,,23,0,23,0,1,,,,,,,,
,,"[""diamond"",""red"",""vert"",""up"",[-106,106],[-150,0]]",diamond,red,vert,up,"[-106,106]","[-150,0]",up,1,0.962,,,,,,001,2025-03-10_17h39.28.884,SL_base_41,2021.2.3,Win32,59.52380952,,,24,0,24,0,1,,,,,,,,
,,"[""diamond"",""red"",""hori"",""left"",[-106,106],[0,150]]",diamond,red,hori,left,"[-106,106]","[0,150]",up,0,0.8275,,,,,,001,2025-03-10_17h39.28.884,SL_base_41,2021.2.3,Win32,59.52380952,,,25,0,25,0,1,,,,,,,,
,,"[""circle"",""green"",""vert"",""up"",[-106,-106],[0,-150]]",circle,green,vert,up,"[-106,-106]","[0,-150]",up,1,0.9946,,,,,,001,2025-03-10_17h39.28.884,SL_base_41,2021.2.3,Win32,59.52380952,,,26,0,26,0,1,,,,,,,,
,,"[""circle"",""no_dis"",""vert"",""up"",[99999,99999],[0,150]]",circle,no_dis,vert,up,"[99999,99999]","[0,150]",left,0,1.7537,,,,,,001,2025-03-10_17h39.28.884,SL_base_41,2021.2.3,Win32,59.52380952,,,27,0,27,0,1,,,,,,,,
,,"[""diamond"",""red"",""vert"",""up"",[-150,0],[0,150]]",diamond,red,vert,up,"[-150,0]","[0,150]",left,0,1.271,,,,,,001,2025-03-10_17h39.28.884,SL_base_41,2021.2.3,Win32,59.52380952,,,28,0,28,0,1,,,,,,,,
,,"[""circle"",""red"",""vert"",""up"",[-150,0],[0,150]]",circle,red,vert,up,"[-150,0]","[0,150]",up,1,0.8557,,,,,,001,2025-03-10_17h39.28.884,SL_base_41,2021.2.3,Win32,59.52380952,,,29,0,29,0,1,,,,,,,,
,,"[""circle"",""red"",""hori"",""left"",[106,-106],[-106,-106]]",circle,red,hori,left,"[106,-106]","[-106,-106]",up,0,0.8482,,,,,,001,2025-03-10_17h39.28.884,SL_base_41,2021.2.3,Win32,59.52380952,,,30,0,30,0,1,,,,,,,,
,,"[""circle"",""green"",""hori"",""left"",[-150,0],[0,-150]]",circle,green,hori,left,"[-150,0]","[0,-150]",up,0,1.4689,,,,,,001,2025-03-10_17h39.28.884,SL_base_41,2021.2.3,Win32,59.52380952,,,31,0,31,0,1,,,,,,,,
,,"[""circle"",""red"",""hori"",""left"",[-150,0],[106,-106]]",circle,red,hori,left,"[-150,0]","[106,-106]",left,1,1.6107,,,,,,001,2025-03-10_17h39.28.884,SL_base_41,2021.2.3,Win32,59.52380952,,,32,0,32,0,1,,,,,,,,
,,"[""diamond"",""red"",""hori"",""left"",[150,0],[106,-106]]",diamond,red,hori,left,"[150,0]","[106,-106]",left,1,2.2051,,,,,,001,2025-03-10_17h39.28.884,SL_base_41,2021.2.3,Win32,59.52380952,,,33,0,33,0,1,,,,,,,,
,,"[""diamond"",""red"",""hori"",""left"",[0,-150],[106,106]]",diamond,red,hori,left,"[0,-150]","[106,106]",up,0,2.1764,,,,,,001,2025-03-10_17h39.28.884,SL_base_41,2021.2.3,Win32,59.52380952,,,34,0,34,0,1,,,,,,,,
,,"[""diamond"",""green"",""hori"",""left"",[0,150],[106,106]]",diamond,green,hori,left,"[0,150]","[106,106]",left,1,1.8291,,,,,,001,2025-03-10_17h39.28.884,SL_base_41,2021.2.3,Win32,59.52380952,,,35,0,35,0,1,,,,,,,,
,,"[""circle"",""green"",""vert"",""up"",[-150,0],[106,-106]]",circle,green,vert,up,"[-150,0]","[106,-106]",up,1,1.4686,,,,,,001,2025-03-10_17h39.28.884,SL_base_41,2021.2.3,Win32,59.52380952,,,36,0,36,0,1,,,,,,,,
,,"[""diamond"",""red"",""vert"",""up"",[0,150],[0,-150]]",diamond,red,vert,up,"[0,150]","[0,-150]",left,0,1.7161,,,,,,001,2025-03-10_17h39.28.884,SL_base_41,2021.2.3,Win32,59.52380952,,,37,0,37,0,1,,,,,,,,
,,"[""diamond"",""green"",""vert"",""up"",[-106,-106],[-150,0]]",diamond,green,vert,up,"[-106,-106]","[-150,0]",up,1,1.902,,,,,,001,2025-03-10_17h39.28.884,SL_base_41,2021.2.3,Win32,59.52380952,,,38,0,38,0,1,,,,,,,,
,,"[""diamond"",""red"",""hori"",""left"",[106,-106],[150,0]]",diamond,red,hori,left,"[106,-106]","[150,0]",up,0,1.8655,,,,,,001,2025-03-10_17h39.28.884,SL_base_41,2021.2.3,Win32,59.52380952,,,39,0,39,0,1,,,,,,,,
,,"[""diamond"",""no_dis"",""hori"",""left"",[99999,99999],[-106,-106]]",diamond,no_dis,hori,left,"[99999,99999]","[-106,-106]",up,0,1.8672,,,,,,001,2025-03-10_17h39.28.884,SL_base_41,2021.2.3,Win32,59.52380952,,,40,0,40,0,1,,,,,,,,
,,"[""circle"",""red"",""vert"",""up"",[106,-106],[-150,0]]",circle,red,vert,up,"[106,-106]","[-150,0]",up,1,1.9872,,,,,,001,2025-03-10_17h39.28.884,SL_base_41,2021.2.3,Win32,59.52380952,,,41,0,41,0,1,,,,,,,,
,,"[""circle"",""green"",""hori"",""left"",[106,-106],[-106,106]]",circle,green,hori,left,"[106,-106]","[-106,106]",left,1,1.9226,,,,,,001,2025-03-10_17h39.28.884,SL_base_41,2021.2.3,Win32,59.52380952,,,42,0,42,0,1,,,,,,,,
,,"[""diamond"",""red"",""vert"",""up"",[0,-150],[106,-106]]",diamond,red,vert,up,"[0,-150]","[106,-106]",left,0,2.1042,,,,,,001,2025-03-10_17h39.28.884,SL_base_41,2021.2.3,Win32,59.52380952,,,43,0,43,0,1,,,,,,,,
,,"[""diamond"",""red"",""hori"",""left"",[-150,0],[106,106]]",diamond,red,hori,left,"[-150,0]","[106,106]",up,0,1.6878,,,,,,001,2025-03-10_17h39.28.884,SL_base_41,2021.2.3,Win32,59.52380952,,,44,0,44,0,1,,,,,,,,
,,"[""circle"",""red"",""hori"",""left"",[-106,106],[150,0]]",circle,red,hori,left,"[-106,106]","[150,0]",up,0,1.2542,,,,,,001,2025-03-10_17h39.28.884,SL_base_41,2021.2.3,Win32,59.52380952,,,45,0,45,0,1,,,,,,,,
,,"[""diamond"",""green"",""hori"",""left"",[0,150],[-106,106]]",diamond,green,hori,left,"[0,150]","[-106,106]",left,1,1.6691,,,,,,001,2025-03-10_17h39.28.884,SL_base_41,2021.2.3,Win32,59.52380952,,,46,0,46,0,1,,,,,,,,
,,"[""circle"",""red"",""vert"",""up"",[106,106],[-150,0]]",circle,red,vert,up,"[106,106]","[-150,0]",up,1,1.8571,,,,,,001,2025-03-10_17h39.28.884,SL_base_41,2021.2.3,Win32,59.52380952,,,47,0,47,0,1,,,,,,,,
,,"[""diamond"",""green"",""hori"",""left"",[150,0],[106,-106]]",diamond,green,hori,left,"[150,0]","[106,-106]",up,0,1.7271,,,,,,001,2025-03-10_17h39.28.884,SL_base_41,2021.2.3,Win32,59.52380952,,,48,0,48,0,1,,,,,,,,
,,"[""diamond"",""no_dis"",""vert"",""up"",[99999,99999],[150,0]]",diamond,no_dis,vert,up,"[99999,99999]","[150,0]",left,0,1.4075,,,,,,001,2025-03-10_17h39.28.884,SL_base_41,2021.2.3,Win32,59.52380952,,,49,0,49,0,1,,,,,,,,
,,"[""circle"",""no_dis"",""hori"",""left"",[99999,99999],[-150,0]]",circle,no_dis,hori,left,"[99999,99999]","[-150,0]",left,1,1.2862,,,,,,001,2025-03-10_17h39.28.884,SL_base_41,2021.2.3,Win32,59.52380952,,,50,0,50,0,1,,,,,,,,
,,"[""circle"",""no_dis"",""hori"",""left"",[99999,99999],[106,-106]]",circle,no_dis,hori,left,"[99999,99999]","[106,-106]",up,0,1.7812,,,,,,001,2025-03-10_17h39.28.884,SL_base_41,2021.2.3,Win32,59.52380952,,,51,0,51,0,1,,,,,,,,
,,"[""diamond"",""no_dis"",""hori"",""left"",[99999,99999],[-106,106]]",diamond,no_dis,hori,left,"[99999,99999]","[-106,106]",left,1,1.7078,,,,,,001,2025-03-10_17h39.28.884,SL_base_41,2021.2.3,Win32,59.52380952,,,52,0,52,0,1,,,,,,,,
,,"[""circle"",""red"",""hori"",""left"",[-150,0],[-106,106]]",circle,red,hori,left,"[-150,0]","[-106,106]",left,1,2.1184,,,,,,001,2025-03-10_17h39.28.884,SL_base_41,2021.2.3,Win32,59.52380952,,,53,0,53,0,1,,,,,,,,
,,"[""diamond"",""no_dis"",""vert"",""up"",[99999,99999],[0,150]]",diamond,no_dis,vert,up,"[99999,99999]","[0,150]",up,1,1.9125,,,,,,001,2025-03-10_17h39.28.884,SL_base_41,2021.2.3,Win32,59.52380952,,,54,0,54,0,1,,,,,,,,
,,"[""diamond"",""no_dis"",""hori"",""left"",[99999,99999],[150,0]]",diamond,no_dis,hori,left,"[99999,99999]","[150,0]",left,1,2.0417,,,,,,001,2025-03-10_17h39.28.884,SL_base_41,2021.2.3,Win32,59.52380952,,,55,0,55,0,1,,,,,,,,
,,"[""circle"",""no_dis"",""hori"",""left"",[99999,99999],[-106,-106]]",circle,no_dis,hori,left,"[99999,99999]","[-106,-106]",left,1,1.696,,,,,,001,2025-03-10_17h39.28.884,SL_base_41,2021.2.3,Win32,59.52380952,,,56,0,56,0,1,,,,,,,,
,,"[""diamond"",""green"",""vert"",""up"",[0,-150],[106,106]]",diamond,green,vert,up,"[0,-150]","[106,106]",up,1,2.188,,,,,,001,2025-03-10_17h39.28.884,SL_base_41,2021.2.3,Win32,59.52380952,,,57,0,57,0,1,,,,,,,,
,,"[""circle"",""green"",""hori"",""left"",[-150,0],[106,106]]",circle,green,hori,left,"[-150,0]","[106,106]",left,1,1.8307,,,,,,001,2025-03-10_17h39.28.884,SL_base_41,2021.2.3,Win32,59.52380952,,,58,0,58,0,1,,,,,,,,
,,"[""circle"",""green"",""vert"",""up"",[-106,-106],[-150,0]]",circle,green,vert,up,"[-106,-106]","[-150,0]",up,1,1.3168,,,,,,001,2025-03-10_17h39.28.884,SL_base_41,2021.2.3,Win32,59.52380952,,,59,0,59,0,1,,,,,,,,
,,"[""diamond"",""red"",""hori"",""left"",[0,-150],[106,-106]]",diamond,red,hori,left,"[0,-150]","[106,-106]",left,1,1.6773,,,,,,001,2025-03-10_17h39.28.884,SL_base_41,2021.2.3,Win32,59.52380952,,,60,0,60,0,1,,,,,,,,
,,"[""diamond"",""green"",""vert"",""up"",[-150,0],[106,106]]",diamond,green,vert,up,"[-150,0]","[106,106]",up,1,1.7899,,,,,,001,2025-03-10_17h39.28.884,SL_base_41,2021.2.3,Win32,59.52380952,,,61,0,61,0,1,,,,,,,,
,,"[""circle"",""no_dis"",""hori"",""left"",[99999,99999],[106,106]]",circle,no_dis,hori,left,"[99999,99999]","[106,106]",left,1,1.6145,,,,,,001,2025-03-10_17h39.28.884,SL_base_41,2021.2.3,Win32,59.52380952,,,62,0,62,0,1,,,,,,,,
,,"[""circle"",""red"",""vert"",""up"",[-150,0],[106,-106]]",circle,red,vert,up,"[-150,0]","[106,-106]",left,0,2.1214,,,,,,001,2025-03-10_17h39.28.884,SL_base_41,2021.2.3,Win32,59.52380952,,,63,0,63,0,1,,,,,,,,
,,"[""circle"",""red"",""vert"",""up"",[-150,0],[0,150]]",circle,red,vert,up,"[-150,0]","[0,150]",up,1,1.7519,,,,,,001,2025-03-10_17h39.28.884,SL_base_41,2021.2.3,Win32,59.52380952,,,64,0,64,0,1,,,,,,,,
,,"[""diamond"",""no_dis"",""vert"",""up"",[99999,99999],[106,106]]",diamond,no_dis,vert,up,"[99999,99999]","[106,106]",left,0,1.9354,,,,,,001,2025-03-10_17h39.28.884,SL_base_41,2021.2.3,Win32,59.52380952,,,65,0,65,0,1,,,,,,,,
,,"[""diamond"",""green"",""hori"",""left"",[-150,0],[0,150]]",diamond,green,hori,left,"[-150,0]","[0,150]",up,0,2.5013,,,,,,001,2025-03-10_17h39.28.884,SL_base_41,2021.2.3,Win32,59.52380952,,,66,0,66,0,1,,,,,,,,
,,"[""diamond"",""green"",""hori"",""left"",[-150,0],[-106,-106]]",diamond,green,hori,left,"[-150,0]","[-106,-106]",up,0,2.4339,,,,,,001,2025-03-10_17h39.28.884,SL_base_41,2021.2.3,Win32,59.52380952,,,67,0,67,0,1,,,,,,,,
,,"[""diamond"",""no_dis"",""hori"",""left"",[99999,99999],[0,150]]",diamond,no_dis,hori,left,"[99999,99999]","[0,150]",left,1,1.368,,,,,,001,2025-03-10_17h39.28.884,SL_base_41,2021.2.3,Win32,59.52380952,,,68,0,68,0,1,,,,,,,,
,,"[""diamond"",""green"",""vert"",""up"",[-150,0],[0,-150]]",diamond,green,vert,up,"[-150,0]","[0,-150]",up,1,2.1015,,,,,,001,2025-03-10_17h39.28.884,SL_base_41,2021.2.3,Win32,59.52380952,,,69,0,69,0,1,,,,,,,,
,,"[""diamond"",""red"",""hori"",""left"",[106,106],[-106,106]]",diamond,red,hori,left,"[106,106]","[-106,106]",left,1,2.1509,,,,,,001,2025-03-10_17h39.28.884,SL_base_41,2021.2.3,Win32,59.52380952,,,70,0,70,0,1,,,,,,,,
,,"[""circle"",""green"",""vert"",""up"",[106,106],[0,150]]",circle,green,vert,up,"[106,106]","[0,150]",left,0,2.7182,,,,,,001,2025-03-10_17h39.28.884,SL_base_41,2021.2.3,Win32,59.52380952,,,71,0,71,0,1,,,,,,,,
,,"[""circle"",""no_dis"",""hori"",""left"",[99999,99999],[0,-150]]",circle,no_dis,hori,left,"[99999,99999]","[0,-150]",left,1,1.2849,,,,,,001,2025-03-10_17h39.28.884,SL_base_41,2021.2.3,Win32,59.52380952,,,72,0,72,0,1,,,,,,,,
,,"[""circle"",""green"",""vert"",""up"",[-150,0],[106,-106]]",circle,green,vert,up,"[-150,0]","[106,-106]",up,1,1.6014,,,,,,001,2025-03-10_17h39.28.884,SL_base_41,2021.2.3,Win32,59.52380952,,,73,0,73,0,1,,,,,,,,
,,"[""circle"",""green"",""hori"",""left"",[-106,106],[106,-106]]",circle,green,hori,left,"[-106,106]","[106,-106]",left,1,1.1177,,,,,,001,2025-03-10_17h39.28.884,SL_base_41,2021.2.3,Win32,59.52380952,,,74,0,74,0,1,,,,,,,,
,,"[""circle"",""green"",""hori"",""left"",[0,-150],[-150,0]]",circle,green,hori,left,"[0,-150]","[-150,0]",left,1,1.5024,,,,,,001,2025-03-10_17h39.28.884,SL_base_41,2021.2.3,Win32,59.52380952,,,75,0,75,0,1,,,,,,,,
,,"[""diamond"",""green"",""hori"",""left"",[150,0],[106,106]]",diamond,green,hori,left,"[150,0]","[106,106]",up,0,2.5186,,,,,,001,2025-03-10_17h39.28.884,SL_base_41,2021.2.3,Win32,59.52380952,,,76,0,76,0,1,,,,,,,,
,,"[""circle"",""green"",""hori"",""left"",[0,-150],[-106,106]]",circle,green,hori,left,"[0,-150]","[-106,106]",left,1,2.9179,,,,,,001,2025-03-10_17h39.28.884,SL_base_41,2021.2.3,Win32,59.52380952,,,77,0,77,0,1,,,,,,,,
,,"[""diamond"",""red"",""vert"",""up"",[-150,0],[150,0]]",diamond,red,vert,up,"[-150,0]","[150,0]",up,1,1.468,,,,,,001,2025-03-10_17h39.28.884,SL_base_41,2021.2.3,Win32,59.52380952,,,78,0,78,0,1,,,,,,,,
,,"[""diamond"",""no_dis"",""vert"",""up"",[99999,99999],[150,0]]",diamond,no_dis,vert,up,"[99999,99999]","[150,0]",up,1,1.5674,,,,,,001,2025-03-10_17h39.28.884,SL_base_41,2021.2.3,Win32,59.52380952,,,79,0,79,0,1,,,,,,,,
,,"[""circle"",""no_dis"",""vert"",""up"",[99999,99999],[106,106]]",circle,no_dis,vert,up,"[99999,99999]","[106,106]",up,1,2.2177,,,,,,001,2025-03-10_17h39.28.884,SL_base_41,2021.2.3,Win32,59.52380952,,,80,0,80,0,1,,,,,,,,
,,"[""diamond"",""green"",""vert"",""up"",[0,150],[-106,106]]",diamond,green,vert,up,"[0,150]","[-106,106]",left,0,2.1685,,,,,,001,2025-03-10_17h39.28.884,SL_base_41,2021.2.3,Win32,59.52380952,,,81,0,81,0,1,,,,,,,,
,,"[""diamond"",""no_dis"",""hori"",""left"",[99999,99999],[-106,106]]",diamond,no_dis,hori,left,"[99999,99999]","[-106,106]",left,1,2.1019,,,,,,001,2025-03-10_17h39.28.884,SL_base_41,2021.2.3,Win32,59.52380952,,,82,0,82,0,1,,,,,,,,
,,"[""diamond"",""red"",""vert"",""up"",[-150,0],[106,-106]]",diamond,red,vert,up,"[-150,0]","[106,-106]",up,1,1.8012,,,,,,001,2025-03-10_17h39.28.884,SL_base_41,2021.2.3,Win32,59.52380952,,,83,0,83,0,1,,,,,,,,
,,"[""circle"",""green"",""vert"",""up"",[-150,0],[0,-150]]",circle,green,vert,up,"[-150,0]","[0,-150]",left,0,2.1014,,,,,,001,2025-03-10_17h39.28.884,SL_base_41,2021.2.3,Win32,59.52380952,,,84,0,84,0,1,,,,,,,,
,,"[""diamond"",""no_dis"",""vert"",""up"",[99999,99999],[-150,0]]",diamond,no_dis,vert,up,"[99999,99999]","[-150,0]",up,1,1.5515,,,,,,001,2025-03-10_17h39.28.884,SL_base_41,2021.2.3,Win32,59.52380952,,,85,0,85,0,1,,,,,,,,
,,"[""circle"",""no_dis"",""hori"",""left"",[99999,99999],[-106,106]]",circle,no_dis,hori,left,"[99999,99999]","[-106,106]",left,1,1.8855,,,,,,001,2025-03-10_17h39.28.884,SL_base_41,2021.2.3,Win32,59.52380952,,,86,0,86,0,1,,,,,,,,
,,"[""diamond"",""green"",""vert"",""up"",[-150,0],[-106,-106]]",diamond,green,vert,up,"[-150,0]","[-106,-106]",up,1,1.8683,,,,,,001,2025-03-10_17h39.28.884,SL_base_41,2021.2.3,Win32,59.52380952,,,87,0,87,0,1,,,,,,,,
,,"[""circle"",""red"",""hori"",""left"",[0,150],[-106,-106]]",circle,red,hori,left,"[0,150]","[-106,-106]",left,1,2.2181,,,,,,001,2025-03-10_17h39.28.884,SL_base_41,2021.2.3,Win32,59.52380952,,,88,0,88,0,1,,,,,,,,
,,"[""diamond"",""no_dis"",""hori"",""left"",[99999,99999],[106,-106]]",diamond,no_dis,hori,left,"[99999,99999]","[106,-106]",up,0,2.3856,,,,,,001,2025-03-10_17h39.28.884,SL_base_41,2021.2.3,Win32,59.52380952,,,89,0,89,0,1,,,,,,,,
,,"[""diamond"",""green"",""hori"",""left"",[106,106],[0,-150]]",diamond,green,hori,left,"[106,106]","[0,-150]",left,1,1.2837,,,,,,001,2025-03-10_17h39.28.884,SL_base_41,2021.2.3,Win32,59.52380952,,,90,0,90,0,1,,,,,,,,
,,"[""circle"",""no_dis"",""vert"",""up"",[99999,99999],[0,150]]",circle,no_dis,vert,up,"[99999,99999]","[0,150]",up,1,1.6512,,,,,,001,2025-03-10_17h39.28.884,SL_base_41,2021.2.3,Win32,59.52380952,,,91,0,91,0,1,,,,,,,,
,,"[""circle"",""red"",""vert"",""up"",[-106,106],[0,-150]]",circle,red,vert,up,"[-106,106]","[0,-150]",up,1,1.9178,,,,,,001,2025-03-10_17h39.28.884,SL_base_41,2021.2.3,Win32,59.52380952,,,92,0,92,0,1,,,,,,,,
,,"[""diamond"",""green"",""vert"",""up"",[150,0],[-106,-106]]",diamond,green,vert,up,"[150,0]","[-106,-106]",up,1,2.0187,,,,,,001,2025-03-10_17h39.28.884,SL_base_41,2021.2.3,Win32,59.52380952,,,93,0,93,0,1,,,,,,,,
,,"[""circle"",""no_dis"",""hori"",""left"",[99999,99999],[-150,0]]",circle,no_dis,hori,left,"[99999,99999]","[-150,0]",left,1,1.4007,,,,,,001,2025-03-10_17h39.28.884,SL_base_41,2021.2.3,Win32,59.52380952,,,94,0,94,0,1,,,,,,,,
,,"[""circle"",""red"",""hori"",""left"",[-150,0],[150,0]]",circle,red,hori,left,"[-150,0]","[150,0]",left,1,1.418,,,,,,001,2025-03-10_17h39.28.884,SL_base_41,2021.2.3,Win32,59.52380952,,,95,0,95,0,1,,,,,,,,
,,"[""diamond"",""green"",""hori"",""left"",[106,-106],[0,-150]]",diamond,green,hori,left,"[106,-106]","[0,-150]",left,1,1.9524,,,,,,001,2025-03-10_17h39.28.884,SL_base_41,2021.2.3,Win32,59.52380952,,,96,0,96,0,1,,,,,,,,
,,"[""diamond"",""green"",""hori"",""left"",[150,0],[106,106]]",diamond,green,hori,left,"[150,0]","[106,106]",left,1,1.4843,,,,,,001,2025-03-10_17h39.28.884,SL_base_41,2021.2.3,Win32,59.52380952,,,97,0,97,0,1,,,,,,,,
,,"[""circle"",""red"",""hori"",""left"",[0,150],[-106,106]]",circle,red,hori,left,"[0,150]","[-106,106]",left,1,1.1506,,,,,,001,2025-03-10_17h39.28.884,SL_base_41,2021.2.3,Win32,59.52380952,,,98,0,98,0,1,,,,,,,,
,,"[""circle"",""no_dis"",""vert"",""up"",[99999,99999],[0,-150]]",circle,no_dis,vert,up,"[99999,99999]","[0,-150]",up,1,1.8351,,,,,,001,2025-03-10_17h39.28.884,SL_base_41,2021.2.3,Win32,59.52380952,,,99,0,99,0,1,,,,,,,,
,,"[""diamond"",""red"",""hori"",""left"",[0,150],[106,106]]",diamond,red,hori,left,"[0,150]","[106,106]",left,1,2.1852,,,,,,001,2025-03-10_17h39.28.884,SL_base_41,2021.2.3,Win32,59.52380952,,,100,0,100,0,1,,,,,,,,
,,"[""circle"",""green"",""hori"",""left"",[-106,-106],[150,0]]",circle,green,hori,left,"[-106,-106]","[150,0]",left,1,2.8183,,,,,,001,2025-03-10_17h39.28.884,SL_base_41,2021.2.3,Win32,59.52380952,,,101,0,101,0,1,,,,,,,,
,,"[""diamond"",""no_dis"",""vert"",""up"",[99999,99999],[106,106]]",diamond,no_dis,vert,up,"[99999,99999]","[106,106]",up,1,1.8682,,,,,,001,2025-03-10_17h39.28.884,SL_base_41,2021.2.3,Win32,59.52380952,,,102,0,102,0,1,,,,,,,,
,,"[""diamond"",""green"",""vert"",""up"",[106,106],[-150,0]]",diamond,green,vert,up,"[106,106]","[-150,0]",up,1,1.9345,,,,,,001,2025-03-10_17h39.28.884,SL_base_41,2021.2.3,Win32,59.52380952,,,103,0,103,0,1,,,,,,,,
,,"[""circle"",""red"",""hori"",""left"",[-150,0],[0,150]]",circle,red,hori,left,"[-150,0]","[0,150]",left,1,1.9178,,,,,,001,2025-03-10_17h39.28.884,SL_base_41,2021.2.3,Win32,59.52380952,,,104,0,104,0,1,,,,,,,,
,,"[""circle"",""no_dis"",""vert"",""up"",[99999,99999],[150,0]]",circle,no_dis,vert,up,"[99999,99999]","[150,0]",up,1,1.2176,,,,,,001,2025-03-10_17h39.28.884,SL_base_41,2021.2.3,Win32,59.52380952,,,105,0,105,0,1,,,,,,,,
,,"[""diamond"",""red"",""vert"",""up"",[106,-106],[-106,-106]]",diamond,red,vert,up,"[106,-106]","[-106,-106]",up,1,2.052,,,,,,001,2025-03-10_17h39.28.884,SL_base_41,2021.2.3,Win32,59.52380952,,,106,0,106,0,1,,,,,,,,
,,"[""circle"",""green"",""vert"",""up"",[106,106],[0,-150]]",circle,green,vert,up,"[106,106]","[0,-150]",up,1,1.6174,,,,,,001,2025-03-10_17h39.28.884,SL_base_41,2021.2.3,Win32,59.52380952,,,107,0,107,0,1,,,,,,,,
,,"[""circle"",""green"",""vert"",""up"",[-150,0],[106,106]]",circle,green,vert,up,"[-150,0]","[106,106]",up,1,1.801,,,,,,001,2025-03-10_17h39.28.884,SL_base_41,2021.2.3,Win32,59.52380952,,,108,0,108,0,1,,,,,,,,
,,"[""circle"",""green"",""vert"",""up"",[150,0],[0,150]]",circle,green,vert,up,"[150,0]","[0,150]",left,0,1.6693,,,,,,001,2025-03-10_17h39.28.884,SL_base_41,2021.2.3,Win32,59.52380952,,,109,0,109,0,1,,,,,,,,
,,"[""diamond"",""no_dis"",""vert"",""up"",[99999,99999],[-150,0]]",diamond,no_dis,vert,up,"[99999,99999]","[-150,0]",up,1,1.6014,,,,,,001,2025-03-10_17h39.28.884,SL_base_41,2021.2.3,Win32,59.52380952,,,110,0,110,0,1,,,,,,,,
,,"[""diamond"",""no_dis"",""hori"",""left"",[99999,99999],[106,106]]",diamond,no_dis,hori,left,"[99999,99999]","[106,106]",left,1,2.501,,,,,,001,2025-03-10_17h39.28.884,SL_base_41,2021.2.3,Win32,59.52380952,,,111,0,111,0,1,,,,,,,,
,,"[""circle"",""green"",""hori"",""left"",[-106,-106],[0,-150]]",circle,green,hori,left,"[-106,-106]","[0,-150]",up,0,0.9841,,,,,,001,2025-03-10_17h39.28.884,SL_base_41,2021.2.3,Win32,59.52380952,,,112,0,112,0,1,,,,,,,,
,,"[""circle"",""no_dis"",""hori"",""left"",[99999,99999],[-150,0]]",circle,no_dis,hori,left,"[99999,99999]","[-150,0]",left,1,1.8178,,,,,,001,2025-03-10_17h39.28.884,SL_base_41,2021.2.3,Win32,59.52380952,,,113,0,113,0,1,,,,,,,,
,,"[""diamond"",""no_dis"",""hori"",""left"",[99999,99999],[-106,106]]",diamond,no_dis,hori,left,"[99999,99999]","[-106,106]",left,1,1.7176,,,,,,001,2025-03-10_17h39.28.884,SL_base_41,2021.2.3,Win32,59.52380952,,,114,0,114,0,1,,,,,,,,
,,"[""circle"",""green"",""hori"",""left"",[106,106],[0,150]]",circle,green,hori,left,"[106,106]","[0,150]",left,1,2.3694,,,,,,001,2025-03-10_17h39.28.884,SL_base_41,2021.2.3,Win32,59.52380952,,,115,0,115,0,1,,,,,,,,
,,"[""circle"",""red"",""hori"",""left"",[-150,0],[106,106]]",circle,red,hori,left,"[-150,0]","[106,106]",left,1,1.5512,,,,,,001,2025-03-10_17h39.28.884,SL_base_41,2021.2.3,Win32,59.52380952,,,116,0,116,0,1,,,,,,,,
,,"[""diamond"",""green"",""hori"",""left"",[-150,0],[0,150]]",diamond,green,hori,left,"[-150,0]","[0,150]",up,0,2.1851,,,,,,001,2025-03-10_17h39.28.884,SL_base_41,2021.2.3,Win32,59.52380952,,,117,0,117,0,1,,,,,,,,
,,"[""circle"",""no_dis"",""vert"",""up"",[99999,99999],[-106,-106]]",circle,no_dis,vert,up,"[99999,99999]","[-106,-106]",up,1,1.3342,,,,,,001,2025-03-10_17h39.28.884,SL_base_41,2021.2.3,Win32,59.52380952,,,118,0,118,0,1,,,,,,,,
,,"[""circle"",""no_dis"",""vert"",""up"",[99999,99999],[106,-106]]",circle,no_dis,vert,up,"[99999,99999]","[106,-106]",up,1,1.5348,,,,,,001,2025-03-10_17h39.28.884,SL_base_41,2021.2.3,Win32,59.52380952,,,119,0,119,0,1,,,,,,,,
,,"[""diamond"",""green"",""vert"",""up"",[-106,106],[0,-150]]",diamond,green,vert,up,"[-106,106]","[0,-150]",left,0,2.3516,,,,,,001,2025-03-10_17h39.28.884,SL_base_41,2021.2.3,Win32,59.52380952,,,120,0,120,0,1,,,,,,,,
,,"[""diamond"",""green"",""vert"",""up"",[-106,106],[106,-106]]",diamond,green,vert,up,"[-106,106]","[106,-106]",up,1,2.3848,,,,,,001,2025-03-10_17h39.28.884,SL_base_41,2021.2.3,Win32,59.52380952,,,121,0,121,0,1,,,,,,,,
,,"[""circle"",""no_dis"",""hori"",""left"",[99999,99999],[0,-150]]",circle,no_dis,hori,left,"[99999,99999]","[0,-150]",left,1,1.4006,,,,,,001,2025-03-10_17h39.28.884,SL_base_41,2021.2.3,Win32,59.52380952,,,122,0,122,0,1,,,,,,,,
,,"[""circle"",""green"",""vert"",""up"",[150,0],[-150,0]]",circle,green,vert,up,"[150,0]","[-150,0]",up,1,1.6848,,,,,,001,2025-03-10_17h39.28.884,SL_base_41,2021.2.3,Win32,59.52380952,,,123,0,123,0,1,,,,,,,,
,,"[""circle"",""red"",""vert"",""up"",[-106,-106],[0,-150]]",circle,red,vert,up,"[-106,-106]","[0,-150]",,0,,,,,,,001,2025-03-10_17h39.28.884,SL_base_41,2021.2.3,Win32,59.52380952,,,124,0,124,0,1,,,,,,,,
,,"[""circle"",""no_dis"",""vert"",""up"",[99999,99999],[-106,-106]]",circle,no_dis,vert,up,"[99999,99999]","[-106,-106]",up,1,0.9176,,,,,,001,2025-03-10_17h39.28.884,SL_base_41,2021.2.3,Win32,59.52380952,,,125,0,125,0,1,,,,,,,,
,,"[""circle"",""green"",""hori"",""left"",[-150,0],[0,150]]",circle,green,hori,left,"[-150,0]","[0,150]",up,0,2.1688,,,,,,001,2025-03-10_17h39.28.884,SL_base_41,2021.2.3,Win32,59.52380952,,,126,0,126,0,1,,,,,,,,
,,"[""diamond"",""red"",""vert"",""up"",[106,-106],[-150,0]]",diamond,red,vert,up,"[106,-106]","[-150,0]",up,1,0.9341,,,,,,001,2025-03-10_17h39.28.884,SL_base_41,2021.2.3,Win32,59.52380952,,,127,0,127,0,1,,,,,,,,
,,,,,,,,,,,,,,,,,001,2025-03-10_17h39.28.884,SL_base_41,2021.2.3,Win32,59.52380952,,,,,,,,1,space,323.7676,0,0,0,0,1
,,"[""diamond"",""green"",""vert"",""up"",[106,106],[-150,0]]",diamond,green,vert,up,"[106,106]","[-150,0]",up,1,1.9084,,,,,,001,2025-03-10_17h39.28.884,SL_base_41,2021.2.3,Win32,59.52380952,,,0,0,0,0,1,,,,,,,,
,,"[""diamond"",""no_dis"",""hori"",""left"",[99999,99999],[150,0]]",diamond,no_dis,hori,left,"[99999,99999]","[150,0]",left,1,1.2413,,,,,,001,2025-03-10_17h39.28.884,SL_base_41,2021.2.3,Win32,59.52380952,,,1,0,1,0,1,,,,,,,,
,,"[""circle"",""green"",""hori"",""left"",[106,-106],[-106,106]]",circle,green,hori,left,"[106,-106]","[-106,106]",left,1,2.4061,,,,,,001,2025-03-10_17h39.28.884,SL_base_41,2021.2.3,Win32,59.52380952,,,2,0,2,0,1,,,,,,,,
,,"[""diamond"",""no_dis"",""vert"",""up"",[99999,99999],[0,150]]",diamond,no_dis,vert,up,"[99999,99999]","[0,150]",up,1,1.6156,,,,,,001,2025-03-10_17h39.28.884,SL_base_41,2021.2.3,Win32,59.52380952,,,3,0,3,0,1,,,,,,,,
,,"[""circle"",""green"",""hori"",""left"",[0,-150],[-150,0]]",circle,green,hori,left,"[0,-150]","[-150,0]",left,1,1.3019,,,,,,001,2025-03-10_17h39.28.884,SL_base_41,2021.2.3,Win32,59.52380952,,,4,0,4,0,1,,,,,,,,
,,"[""diamond"",""green"",""vert"",""up"",[-106,106],[0,-150]]",diamond,green,vert,up,"[-106,106]","[0,-150]",up,1,1.0843,,,,,,001,2025-03-10_17h39.28.884,SL_base_41,2021.2.3,Win32,59.52380952,,,5,0,5,0,1,,,,,,,,
,,"[""diamond"",""red"",""vert"",""up"",[-150,0],[106,-106]]",diamond,red,vert,up,"[-150,0]","[106,-106]",up,1,1.5346,,,,,,001,2025-03-10_17h39.28.884,SL_base_41,2021.2.3,Win32,59.52380952,,,6,0,6,0,1,,,,,,,,
,,"[""diamond"",""green"",""hori"",""left"",[-150,0],[0,150]]",diamond,green,hori,left,"[-150,0]","[0,150]",left,1,1.8011,,,,,,001,2025-03-10_17h39.28.884,SL_base_41,2021.2.3,Win32,59.52380952,,,7,0,7,0,1,,,,,,,,
,,"[""diamond"",""red"",""vert"",""up"",[-150,0],[106,-106]]",diamond,red,vert,up,"[-150,0]","[106,-106]",up,1,1.7671,,,,,,001,2025-03-10_17h39.28.884,SL_base_41,2021.2.3,Win32,59.52380952,,,8,0,8,0,1,,,,,,,,
,,"[""circle"",""no_dis"",""vert"",""up"",[99999,99999],[0,150]]",circle,no_dis,vert,up,"[99999,99999]","[0,150]",up,1,1.3841,,,,,,001,2025-03-10_17h39.28.884,SL_base_41,2021.2.3,Win32,59.52380952,,,9,0,9,0,1,,,,,,,,
,,"[""diamond"",""red"",""hori"",""left"",[150,0],[106,-106]]",diamond,red,hori,left,"[150,0]","[106,-106]",left,1,1.7186,,,,,,001,2025-03-10_17h39.28.884,SL_base_41,2021.2.3,Win32,59.52380952,,,10,0,10,0,1,,,,,,,,
,,"[""circle"",""red"",""vert"",""up"",[-106,106],[0,-150]]",circle,red,vert,up,"[-106,106]","[0,-150]",up,1,1.268,,,,,,001,2025-03-10_17h39.28.884,SL_base_41,2021.2.3,Win32,59.52380952,,,11,0,11,0,1,,,,,,,,
,,"[""circle"",""no_dis"",""hori"",""left"",[99999,99999],[0,-150]]",circle,no_dis,hori,left,"[99999,99999]","[0,-150]",left,1,1.1179,,,,,,001,2025-03-10_17h39.28.884,SL_base_41,2021.2.3,Win32,59.52380952,,,12,0,12,0,1,,,,,,,,
,,"[""diamond"",""green"",""hori"",""left"",[106,-106],[0,-150]]",diamond,green,hori,left,"[106,-106]","[0,-150]",left,1,2.3353,,,,,,001,2025-03-10_17h39.28.884,SL_base_41,2021.2.3,Win32,59.52380952,,,13,0,13,0,1,,,,,,,,
,,"[""circle"",""green"",""vert"",""up"",[-150,0],[106,106]]",circle,green,vert,up,"[-150,0]","[106,106]",up,1,1.6676,,,,,,001,2025-03-10_17h39.28.884,SL_base_41,2021.2.3,Win32,59.52380952,,,14,0,14,0,1,,,,,,,,
,,"[""circle"",""red"",""vert"",""up"",[106,106],[-150,0]]",circle,red,vert,up,"[106,106]","[-150,0]",up,1,1.318,,,,,,001,2025-03-10_17h39.28.884,SL_base_41,2021.2.3,Win32,59.52380952,,,15,0,15,0,1,,,,,,,,
,,"[""diamond"",""no_dis"",""hori"",""left"",[99999,99999],[-106,-106]]",diamond,no_dis,hori,left,"[99999,99999]","[-106,-106]",left,1,1.4688,,,,,,001,2025-03-10_17h39.28.884,SL_base_41,2021.2.3,Win32,59.52380952,,,16,0,16,0,1,,,,,,,,
,,"[""circle"",""red"",""hori"",""left"",[0,-150],[-150,0]]",circle,red,hori,left,"[0,-150]","[-150,0]",left,1,1.1845,,,,,,001,2025-03-10_17h39.28.884,SL_base_41,2021.2.3,Win32,59.52380952,,,17,0,17,0,1,,,,,,,,
,,"[""circle"",""red"",""vert"",""up"",[-150,0],[0,150]]",circle,red,vert,up,"[-150,0]","[0,150]",up,1,1.1175,,,,,,001,2025-03-10_17h39.28.884,SL_base_41,2021.2.3,Win32,59.52380952,,,18,0,18,0,1,,,,,,,,
,,"[""circle"",""green"",""hori"",""left"",[-150,0],[106,106]]",circle,green,hori,left,"[-150,0]","[106,106]",left,1,1.4685,,,,,,001,2025-03-10_17h39.28.884,SL_base_41,2021.2.3,Win32,59.52380952,,,19,0,19,0,1,,,,,,,,
,,"[""diamond"",""no_dis"",""hori"",""left"",[99999,99999],[106,-106]]",diamond,no_dis,hori,left,"[99999,99999]","[106,-106]",left,1,1.4346,,,,,,001,2025-03-10_17h39.28.884,SL_base_41,2021.2.3,Win32,59.52380952,,,20,0,20,0,1,,,,,,,,
,,"[""diamond"",""green"",""hori"",""left"",[150,0],[106,106]]",diamond,green,hori,left,"[150,0]","[106,106]",left,1,1.418,,,,,,001,2025-03-10_17h39.28.884,SL_base_41,2021.2.3,Win32,59.52380952,,,21,0,21,0,1,,,,,,,,
,,"[""circle"",""no_dis"",""hori"",""left"",[99999,99999],[0,-150]]",circle,no_dis,hori,left,"[99999,99999]","[0,-150]",left,1,0.9003,,,,,,001,2025-03-10_17h39.28.884,SL_base_41,2021.2.3,Win32,59.52380952,,,22,0,22,0,1,,,,,,,,
,,"[""diamond"",""no_dis"",""vert"",""up"",[99999,99999],[106,-106]]",diamond,no_dis,vert,up,"[99999,99999]","[106,-106]",up,1,1.5886,,,,,,001,2025-03-10_17h39.28.884,SL_base_41,2021.2.3,Win32,59.52380952,,,23,0,23,0,1,,,,,,,,
,,"[""circle"",""red"",""hori"",""left"",[106,-106],[-106,-106]]",circle,red,hori,left,"[106,-106]","[-106,-106]",left,1,0.8166,,,,,,001,2025-03-10_17h39.28.884,SL_base_41,2021.2.3,Win32,59.52380952,,,24,0,24,0,1,,,,,,,,
,,"[""diamond"",""red"",""hori"",""left"",[-106,106],[0,150]]",diamond,red,hori,left,"[-106,106]","[0,150]",left,1,0.6587,,,,,,001,2025-03-10_17h39.28.884,SL_base_41,2021.2.3,Win32,59.52380952,,,25,0,25,0,1,,,,,,,,
,,"[""circle"",""no_dis"",""vert"",""up"",[99999,99999],[-106,-106]]",circle,no_dis,vert,up,"[99999,99999]","[-106,-106]",up,1,1.1349,,,,,,001,2025-03-10_17h39.28.884,SL_base_41,2021.2.3,Win32,59.52380952,,,26,0,26,0,1,,,,,,,,
,,"[""circle"",""green"",""vert"",""up"",[-150,0],[0,-150]]",circle,green,vert,up,"[-150,0]","[0,-150]",up,1,0.97,,,,,,001,2025-03-10_17h39.28.884,SL_base_41,2021.2.3,Win32,59.52380952,,,27,0,27,0,1,,,,,,,,
,,"[""diamond"",""green"",""hori"",""left"",[-150,0],[-106,-106]]",diamond,green,hori,left,"[-150,0]","[-106,-106]",left,1,1.1974,,,,,,001,2025-03-10_17h39.28.884,SL_base_41,2021.2.3,Win32,59.52380952,,,28,0,28,0,1,,,,,,,,
,,"[""circle"",""red"",""hori"",""left"",[-150,0],[0,150]]",circle,red,hori,left,"[-150,0]","[0,150]",left,1,1.3793,,,,,,001,2025-03-10_17h39.28.884,SL_base_41,2021.2.3,Win32,59.52380952,,,29,0,29,0,1,,,,,,,,
,,"[""diamond"",""red"",""vert"",""up"",[-150,0],[150,0]]",diamond,red,vert,up,"[-150,0]","[150,0]",up,1,1.5609,,,,,,001,2025-03-10_17h39.28.884,SL_base_41,2021.2.3,Win32,59.52380952,,,30,0,30,0,1,,,,,,,,
,,"[""circle"",""red"",""vert"",""up"",[106,-106],[-150,0]]",circle,red,vert,up,"[106,-106]","[-150,0]",up,1,0.8624,,,,,,001,2025-03-10_17h39.28.884,SL_base_41,2021.2.3,Win32,59.52380952,,,31,0,31,0,1,,,,,,,,
,,"[""circle"",""green"",""hori"",""left"",[-150,0],[-106,-106]]",circle,green,hori,left,"[-150,0]","[-106,-106]",up,0,0.8719,,,,,,001,2025-03-10_17h39.28.884,SL_base_41,2021.2.3,Win32,59.52380952,,,32,0,32,0,1,,,,,,,,
,,"[""diamond"",""no_dis"",""hori"",""left"",[99999,99999],[106,106]]",diamond,no_dis,hori,left,"[99999,99999]","[106,106]",left,1,1.4292,,,,,,001,2025-03-10_17h39.28.884,SL_base_41,2021.2.3,Win32,59.52380952,,,33,0,33,0,1,,,,,,,,
,,"[""diamond"",""no_dis"",""vert"",""up"",[99999,99999],[-150,0]]",diamond,no_dis,vert,up,"[99999,99999]","[-150,0]",left,0,1.0795,,,,,,001,2025-03-10_17h39.28.884,SL_base_41,2021.2.3,Win32,59.52380952,,,34,0,34,0,1,,,,,,,,
,,"[""diamond"",""green"",""hori"",""left"",[150,0],[106,-106]]",diamond,green,hori,left,"[150,0]","[106,-106]",left,1,1.3437,,,,,,001,2025-03-10_17h39.28.884,SL_base_41,2021.2.3,Win32,59.52380952,,,35,0,35,0,1,,,,,,,,
,,"[""circle"",""red"",""hori"",""left"",[-150,0],[150,0]]",circle,red,hori,left,"[-150,0]","[150,0]",up,0,1.067,,,,,,001,2025-03-10_17h39.28.884,SL_base_41,2021.2.3,Win32,59.52380952,,,36,0,36,0,1,,,,,,,,
,,"[""diamond"",""no_dis"",""hori"",""left"",[99999,99999],[106,-106]]",diamond,no_dis,hori,left,"[99999,99999]","[106,-106]",up,0,1.2103,,,,,,001,2025-03-10_17h39.28.884,SL_base_41,2021.2.3,Win32,59.52380952,,,37,0,37,0,1,,,,,,,,
,,"[""circle"",""red"",""hori"",""left"",[-150,0],[106,106]]",circle,red,hori,left,"[-150,0]","[106,106]",left,1,0.9648,,,,,,001,2025-03-10_17h39.28.884,SL_base_41,2021.2.3,Win32,59.52380952,,,38,0,38,0,1,,,,,,,,
,,"[""diamond"",""green"",""vert"",""up"",[-150,0],[150,0]]",diamond,green,vert,up,"[-150,0]","[150,0]",up,1,1.1286,,,,,,001,2025-03-10_17h39.28.884,SL_base_41,2021.2.3,Win32,59.52380952,,,39,0,39,0,1,,,,,,,,
,,"[""diamond"",""red"",""vert"",""up"",[-150,0],[106,106]]",diamond,red,vert,up,"[-150,0]","[106,106]",up,1,1.7299,,,,,,001,2025-03-10_17h39.28.884,SL_base_41,2021.2.3,Win32,59.52380952,,,40,0,40,0,1,,,,,,,,
,,"[""diamond"",""red"",""vert"",""up"",[106,-106],[-106,-106]]",diamond,red,vert,up,"[106,-106]","[-106,-106]",up,1,2.3466,,,,,,001,2025-03-10_17h39.28.884,SL_base_41,2021.2.3,Win32,59.52380952,,,41,0,41,0,1,,,,,,,,
,,"[""diamond"",""green"",""hori"",""left"",[106,106],[0,-150]]",diamond,green,hori,left,"[106,106]","[0,-150]",up,0,1.8443,,,,,,001,2025-03-10_17h39.28.884,SL_base_41,2021.2.3,Win32,59.52380952,,,42,0,42,0,1,,,,,,,,
,,"[""circle"",""no_dis"",""vert"",""up"",[99999,99999],[-106,-106]]",circle,no_dis,vert,up,"[99999,99999]","[-106,-106]",left,0,1.7362,,,,,,001,2025-03-10_17h39.28.884,SL_base_41,2021.2.3,Win32,59.52380952,,,43,0,43,0,1,,,,,,,,
,,"[""circle"",""green"",""vert"",""up"",[150,0],[0,150]]",circle,green,vert,up,"[150,0]","[0,150]",up,1,2.1142,,,,,,001,2025-03-10_17h39.28.884,SL_base_41,2021.2.3,Win32,59.52380952,,,44,0,44,0,1,,,,,,,,
,,"[""circle"",""no_dis"",""hori"",""left"",[99999,99999],[-150,0]]",circle,no_dis,hori,left,"[99999,99999]","[-150,0]",left,1,1.0121,,,,,,001,2025-03-10_17h39.28.884,SL_base_41,2021.2.3,Win32,59.52380952,,,45,0,45,0,1,,,,,,,,
,,"[""diamond"",""no_dis"",""hori"",""left"",[99999,99999],[-106,106]]",diamond,no_dis,hori,left,"[99999,99999]","[-106,106]",left,1,1.9984,,,,,,001,2025-03-10_17h39.28.884,SL_base_41,2021.2.3,Win32,59.52380952,,,46,0,46,0,1,,,,,,,,
,,"[""circle"",""no_dis"",""vert"",""up"",[99999,99999],[0,150]]",circle,no_dis,vert,up,"[99999,99999]","[0,150]",up,1,0.9319,,,,,,001,2025-03-10_17h39.28.884,SL_base_41,2021.2.3,Win32,59.52380952,,,47,0,47,0,1,,,,,,,,
,,"[""diamond"",""no_dis"",""hori"",""left"",[99999,99999],[0,-150]]",diamond,no_dis,hori,left,"[99999,99999]","[0,-150]",left,1,1.3165,,,,,,001,2025-03-10_17h39.28.884,SL_base_41,2021.2.3,Win32,59.52380952,,,48,0,48,0,1,,,,,,,,
,,"[""circle"",""red"",""vert"",""up"",[-150,0],[106,-106]]",circle,red,vert,up,"[-150,0]","[106,-106]",up,1,1.5635,,,,,,001,2025-03-10_17h39.28.884,SL_base_41,2021.2.3,Win32,59.52380952,,,49,0,49,0,1,,,,,,,,
,,"[""diamond"",""red"",""vert"",""up"",[-150,0],[0,150]]",diamond,red,vert,up,"[-150,0]","[0,150]",up,1,0.9789,,,,,,001,2025-03-10_17h39.28.884,SL_base_41,2021.2.3,Win32,59.52380952,,,50,0,50,0,1,,,,,,,,
,,"[""diamond"",""green"",""hori"",""left"",[0,150],[106,106]]",diamond,green,hori,left,"[0,150]","[106,106]",left,1,0.8108,,,,,,001,2025-03-10_17h39.28.884,SL_base_41,2021.2.3,Win32,59.52380952,,,51,0,51,0,1,,,,,,,,
,,"[""diamond"",""no_dis"",""vert"",""up"",[99999,99999],[-150,0]]",diamond,no_dis,vert,up,"[99999,99999]","[-150,0]",left,0,0.7592,,,,,,001,2025-03-10_17h39.28.884,SL_base_41,2021.2.3,Win32,59.52380952,,,52,0,52,0,1,,,,,,,,
,,"[""circle"",""no_dis"",""hori"",""left"",[99999,99999],[106,-106]]",circle,no_dis,hori,left,"[99999,99999]","[106,-106]",left,1,1.1955,,,,,,001,2025-03-10_17h39.28.884,SL_base_41,2021.2.3,Win32,59.52380952,,,53,0,53,0,1,,,,,,,,
,,"[""circle"",""red"",""hori"",""left"",[-106,106],[150,0]]",circle,red,hori,left,"[-106,106]","[150,0]",up,0,1.5241,,,,,,001,2025-03-10_17h39.28.884,SL_base_41,2021.2.3,Win32,59.52380952,,,54,0,54,0,1,,,,,,,,
,,"[""diamond"",""green"",""vert"",""up"",[-150,0],[106,106]]",diamond,green,vert,up,"[-150,0]","[106,106]",up,1,1.4653,,,,,,001,2025-03-10_17h39.28.884,SL_base_41,2021.2.3,Win32,59.52380952,,,55,0,55,0,1,,,,,,,,
,,"[""diamond"",""green"",""hori"",""left"",[-150,0],[0,150]]",diamond,green,hori,left,"[-150,0]","[0,150]",up,0,1.3989,,,,,,001,2025-03-10_17h39.28.884,SL_base_41,2021.2.3,Win32,59.52380952,,,56,0,56,0,1,,,,,,,,
,,"[""diamond"",""red"",""hori"",""left"",[0,150],[106,106]]",diamond,red,hori,left,"[0,150]","[106,106]",left,1,1.4829,,,,,,001,2025-03-10_17h39.28.884,SL_base_41,2021.2.3,Win32,59.52380952,,,57,0,57,0,1,,,,,,,,
,,"[""circle"",""no_dis"",""vert"",""up"",[99999,99999],[106,106]]",circle,no_dis,vert,up,"[99999,99999]","[106,106]",up,1,1.3732,,,,,,001,2025-03-10_17h39.28.884,SL_base_41,2021.2.3,Win32,59.52380952,,,58,0,58,0,1,,,,,,,,
,,"[""circle"",""green"",""hori"",""left"",[-106,-106],[150,0]]",circle,green,hori,left,"[-106,-106]","[150,0]",left,1,0.893,,,,,,001,2025-03-10_17h39.28.884,SL_base_41,2021.2.3,Win32,59.52380952,,,59,0,59,0,1,,,,,,,,
,,"[""diamond"",""red"",""hori"",""left"",[106,106],[-106,106]]",diamond,red,hori,left,"[106,106]","[-106,106]",up,0,1.6434,,,,,,001,2025-03-10_17h39.28.884,SL_base_41,2021.2.3,Win32,59.52380952,,,60,0,60,0,1,,,,,,,,
,,"[""diamond"",""green"",""vert"",""up"",[-150,0],[0,-150]]",diamond,green,vert,up,"[-150,0]","[0,-150]",up,1,1.8623,,,,,,001,2025-03-10_17h39.28.884,SL_base_41,2021.2.3,Win32,59.52380952,,,61,0,61,0,1,,,,,,,,
,,"[""diamond"",""green"",""vert"",""up"",[-150,0],[-106,-106]]",diamond,green,vert,up,"[-150,0]","[-106,-106]",up,1,1.8682,,,,,,001,2025-03-10_17h39.28.884,SL_base_41,2021.2.3,Win32,59.52380952,,,62,0,62,0,1,,,,,,,,
,,"[""circle"",""no_dis"",""vert"",""up"",[99999,99999],[0,-150]]",circle,no_dis,vert,up,"[99999,99999]","[0,-150]",up,1,1.7957,,,,,,001,2025-03-10_17h39.28.884,SL_base_41,2021.2.3,Win32,59.52380952,,,63,0,63,0,1,,,,,,,,
,,"[""diamond"",""red"",""vert"",""up"",[0,150],[0,-150]]",diamond,red,vert,up,"[0,150]","[0,-150]",left,0,1.2228,,,,,,001,2025-03-10_17h39.28.884,SL_base_41,2021.2.3,Win32,59.52380952,,,64,0,64,0,1,,,,,,,,
,,"[""diamond"",""red"",""hori"",""left"",[-150,0],[0,150]]",diamond,red,hori,left,"[-150,0]","[0,150]",left,1,1.6892,,,,,,001,2025-03-10_17h39.28.884,SL_base_41,2021.2.3,Win32,59.52380952,,,65,0,65,0,1,,,,,,,,
,,"[""diamond"",""green"",""hori"",""left"",[0,150],[-106,106]]",diamond,green,hori,left,"[0,150]","[-106,106]",left,1,2.3679,,,,,,001,2025-03-10_17h39.28.884,SL_base_41,2021.2.3,Win32,59.52380952,,,66,0,66,0,1,,,,,,,,
,,"[""circle"",""green"",""hori"",""left"",[106,106],[0,150]]",circle,green,hori,left,"[106,106]","[0,150]",left,1,2.0797,,,,,,001,2025-03-10_17h39.28.884,SL_base_41,2021.2.3,Win32,59.52380952,,,67,0,67,0,1,,,,,,,,
,,"[""circle"",""no_dis"",""hori"",""left"",[99999,99999],[-106,106]]",circle,no_dis,hori,left,"[99999,99999]","[-106,106]",left,1,1.0721,,,,,,001,2025-03-10_17h39.28.884,SL_base_41,2021.2.3,Win32,59.52380952,,,68,0,68,0,1,,,,,,,,
,,"[""circle"",""red"",""vert"",""up"",[-150,0],[106,106]]",circle,red,vert,up,"[-150,0]","[106,106]",up,1,1.4291,,,,,,001,2025-03-10_17h39.28.884,SL_base_41,2021.2.3,Win32,59.52380952,,,69,0,69,0,1,,,,,,,,
,,"[""circle"",""no_dis"",""vert"",""up"",[99999,99999],[150,0]]",circle,no_dis,vert,up,"[99999,99999]","[150,0]",up,1,1.35,,,,,,001,2025-03-10_17h39.28.884,SL_base_41,2021.2.3,Win32,59.52380952,,,70,0,70,0,1,,,,,,,,
,,"[""diamond"",""no_dis"",""vert"",""up"",[99999,99999],[106,106]]",diamond,no_dis,vert,up,"[99999,99999]","[106,106]",up,1,2.2196,,,,,,001,2025-03-10_17h39.28.884,SL_base_41,2021.2.3,Win32,59.52380952,,,71,0,71,0,1,,,,,,,,
,,"[""diamond"",""green"",""vert"",""up"",[-106,-106],[-150,0]]",diamond,green,vert,up,"[-106,-106]","[-150,0]",up,1,1.6388,,,,,,001,2025-03-10_17h39.28.884,SL_base_41,2021.2.3,Win32,59.52380952,,,72,0,72,0,1,,,,,,,,
,,"[""diamond"",""no_dis"",""vert"",""up"",[99999,99999],[150,0]]",diamond,no_dis,vert,up,"[99999,99999]","[150,0]",up,1,1.5015,,,,,,001,2025-03-10_17h39.28.884,SL_base_41,2021.2.3,Win32,59.52380952,,,73,0,73,0,1,,,,,,,,
,,"[""diamond"",""red"",""vert"",""up"",[106,-106],[-150,0]]",diamond,red,vert,up,"[106,-106]","[-150,0]",up,1,1.3662,,,,,,001,2025-03-10_17h39.28.884,SL_base_41,2021.2.3,Win32,59.52380952,,,74,0,74,0,1,,,,,,,,
,,"[""diamond"",""green"",""vert"",""up"",[-106,106],[106,-106]]",diamond,green,vert,up,"[-106,106]","[106,-106]",up,1,1.3083,,,,,,001,2025-03-10_17h39.28.884,SL_base_41,2021.2.3,Win32,59.52380952,,,75,0,75,0,1,,,,,,,,
,,"[""diamond"",""no_dis"",""hori"",""left"",[99999,99999],[-106,106]]",diamond,no_dis,hori,left,"[99999,99999]","[-106,106]",left,1,1.043,,,,,,001,2025-03-10_17h39.28.884,SL_base_41,2021.2.3,Win32,59.52380952,,,76,0,76,0,1,,,,,,,,
,,"[""diamond"",""red"",""hori"",""left"",[150,0],[0,-150]]",diamond,red,hori,left,"[150,0]","[0,-150]",up,0,1.4253,,,,,,001,2025-03-10_17h39.28.884,SL_base_41,2021.2.3,Win32,59.52380952,,,77,0,77,0,1,,,,,,,,
,,"[""circle"",""red"",""vert"",""up"",[106,-106],[-150,0]]",circle,red,vert,up,"[106,-106]","[-150,0]",up,1,1.6828,,,,,,001,2025-03-10_17h39.28.884,SL_base_41,2021.2.3,Win32,59.52380952,,,78,0,78,0,1,,,,,,,,
,,"[""circle"",""green"",""hori"",""left"",[0,-150],[-106,106]]",circle,green,hori,left,"[0,-150]","[-106,106]",left,1,2.4987,,,,,,001,2025-03-10_17h39.28.884,SL_base_41,2021.2.3,Win32,59.52380952,,,79,0,79,0,1,,,,,,,,
,,"[""circle"",""no_dis"",""hori"",""left"",[99999,99999],[0,150]]",circle,no_dis,hori,left,"[99999,99999]","[0,150]",left,1,1.0769,,,,,,001,2025-03-10_17h39.28.884,SL_base_41,2021.2.3,Win32,59.52380952,,,80,0,80,0,1,,,,,,,,
,,"[""diamond"",""red"",""hori"",""left"",[0,-150],[106,-106]]",diamond,red,hori,left,"[0,-150]","[106,-106]",left,1,1.4232,,,,,,001,2025-03-10_17h39.28.884,SL_base_41,2021.2.3,Win32,59.52380952,,,81,0,81,0,1,,,,,,,,
,,"[""diamond"",""no_dis"",""hori"",""left"",[99999,99999],[0,150]]",diamond,no_dis,hori,left,"[99999,99999]","[0,150]",left,1,2.3531,,,,,,001,2025-03-10_17h39.28.884,SL_base_41,2021.2.3,Win32,59.52380952,,,82,0,82,0,1,,,,,,,,
,,"[""circle"",""green"",""vert"",""up"",[106,106],[0,-150]]",circle,green,vert,up,"[106,106]","[0,-150]",up,1,1.3307,,,,,,001,2025-03-10_17h39.28.884,SL_base_41,2021.2.3,Win32,59.52380952,,,83,0,83,0,1,,,,,,,,
,,"[""circle"",""red"",""vert"",""up"",[-150,0],[-106,-106]]",circle,red,vert,up,"[-150,0]","[-106,-106]",up,1,1.2618,,,,,,001,2025-03-10_17h39.28.884,SL_base_41,2021.2.3,Win32,59.52380952,,,84,0,84,0,1,,,,,,,,
,,"[""diamond"",""red"",""hori"",""left"",[-150,0],[106,106]]",diamond,red,hori,left,"[-150,0]","[106,106]",left,1,1.6762,,,,,,001,2025-03-10_17h39.28.884,SL_base_41,2021.2.3,Win32,59.52380952,,,85,0,85,0,1,,,,,,,,
,,"[""circle"",""red"",""hori"",""left"",[-150,0],[106,-106]]",circle,red,hori,left,"[-150,0]","[106,-106]",left,1,1.1325,,,,,,001,2025-03-10_17h39.28.884,SL_base_41,2021.2.3,Win32,59.52380952,,,86,0,86,0,1,,,,,,,,
,,"[""circle"",""green"",""vert"",""up"",[-106,-106],[0,-150]]",circle,green,vert,up,"[-106,-106]","[0,-150]",up,1,1.0663,,,,,,001,2025-03-10_17h39.28.884,SL_base_41,2021.2.3,Win32,59.52380952,,,87,0,87,0,1,,,,,,,,
,,"[""circle"",""green"",""vert"",""up"",[-150,0],[106,-106]]",circle,green,vert,up,"[-150,0]","[106,-106]",up,1,0.8647,,,,,,001,2025-03-10_17h39.28.884,SL_base_41,2021.2.3,Win32,59.52380952,,,88,0,88,0,1,,,,,,,,
,,"[""circle"",""green"",""hori"",""left"",[-106,-106],[0,-150]]",circle,green,hori,left,"[-106,-106]","[0,-150]",left,1,1.5304,,,,,,001,2025-03-10_17h39.28.884,SL_base_41,2021.2.3,Win32,59.52380952,,,89,0,89,0,1,,,,,,,,
,,"[""circle"",""no_dis"",""hori"",""left"",[99999,99999],[106,106]]",circle,no_dis,hori,left,"[99999,99999]","[106,106]",left,1,0.7124,,,,,,001,2025-03-10_17h39.28.884,SL_base_41,2021.2.3,Win32,59.52380952,,,90,0,90,0,1,,,,,,,,
,,"[""circle"",""red"",""hori"",""left"",[106,106],[0,150]]",circle,red,hori,left,"[106,106]","[0,150]",left,1,1.4566,,,,,,001,2025-03-10_17h39.28.884,SL_base_41,2021.2.3,Win32,59.52380952,,,91,0,91,0,1,,,,,,,,
,,"[""circle"",""green"",""hori"",""left"",[-106,106],[106,-106]]",circle,green,hori,left,"[-106,106]","[106,-106]",left,1,0.9594,,,,,,001,2025-03-10_17h39.28.884,SL_base_41,2021.2.3,Win32,59.52380952,,,92,0,92,0,1,,,,,,,,
,,"[""diamond"",""green"",""hori"",""left"",[0,-150],[150,0]]",diamond,green,hori,left,"[0,-150]","[150,0]",left,1,1.544,,,,,,001,2025-03-10_17h39.28.884,SL_base_41,2021.2.3,Win32,59.52380952,,,93,0,93,0,1,,,,,,,,
,,"[""diamond"",""red"",""vert"",""up"",[-106,106],[-150,0]]",diamond,red,vert,up,"[-106,106]","[-150,0]",up,1,2.0445,,,,,,001,2025-03-10_17h39.28.884,SL_base_41,2021.2.3,Win32,59.52380952,,,94,0,94,0,1,,,,,,,,
,,"[""diamond"",""green"",""hori"",""left"",[150,0],[106,106]]",diamond,green,hori,left,"[150,0]","[106,106]",left,1,1.8114,,,,,,001,2025-03-10_17h39.28.884,SL_base_41,2021.2.3,Win32,59.52380952,,,95,0,95,0,1,,,,,,,,
,,"[""circle"",""green"",""vert"",""up"",[-106,-106],[0,150]]",circle,green,vert,up,"[-106,-106]","[0,150]",up,1,1.1343,,,,,,001,2025-03-10_17h39.28.884,SL_base_41,2021.2.3,Win32,59.52380952,,,96,0,96,0,1,,,,,,,,
,,"[""circle"",""green"",""vert"",""up"",[150,0],[-150,0]]",circle,green,vert,up,"[150,0]","[-150,0]",up,1,0.7513,,,,,,001,2025-03-10_17h39.28.884,SL_base_41,2021.2.3,Win32,59.52380952,,,97,0,97,0,1,,,,,,,,
,,"[""circle"",""red"",""hori"",""left"",[0,150],[-106,106]]",circle,red,hori,left,"[0,150]","[-106,106]",left,1,1.4087,,,,,,001,2025-03-10_17h39.28.884,SL_base_41,2021.2.3,Win32,59.52380952,,,98,0,98,0,1,,,,,,,,
,,"[""diamond"",""no_dis"",""vert"",""up"",[99999,99999],[106,106]]",diamond,no_dis,vert,up,"[99999,99999]","[106,106]",up,1,1.0173,,,,,,001,2025-03-10_17h39.28.884,SL_base_41,2021.2.3,Win32,59.52380952,,,99,0,99,0,1,,,,,,,,
,,"[""diamond"",""no_dis"",""hori"",""left"",[99999,99999],[-106,106]]",diamond,no_dis,hori,left,"[99999,99999]","[-106,106]",left,1,1.3759,,,,,,001,2025-03-10_17h39.28.884,SL_base_41,2021.2.3,Win32,59.52380952,,,100,0,100,0,1,,,,,,,,
,,"[""circle"",""green"",""vert"",""up"",[-106,-106],[-150,0]]",circle,green,vert,up,"[-106,-106]","[-150,0]",up,1,1.5202,,,,,,001,2025-03-10_17h39.28.884,SL_base_41,2021.2.3,Win32,59.52380952,,,101,0,101,0,1,,,,,,,,
,,"[""diamond"",""no_dis"",""vert"",""up"",[99999,99999],[0,-150]]",diamond,no_dis,vert,up,"[99999,99999]","[0,-150]",up,1,2.0449,,,,,,001,2025-03-10_17h39.28.884,SL_base_41,2021.2.3,Win32,59.52380952,,,102,0,102,0,1,,,,,,,,
,,"[""diamond"",""green"",""vert"",""up"",[0,-150],[106,106]]",diamond,green,vert,up,"[0,-150]","[106,106]",up,1,2.373,,,,,,001,2025-03-10_17h39.28.884,SL_base_41,2021.2.3,Win32,59.52380952,,,103,0,103,0,1,,,,,,,,
,,"[""diamond"",""red"",""hori"",""left"",[106,-106],[150,0]]",diamond,red,hori,left,"[106,-106]","[150,0]",left,1,2.1429,,,,,,001,2025-03-10_17h39.28.884,SL_base_41,2021.2.3,Win32,59.52380952,,,104,0,104,0,1,,,,,,,,
,,"[""diamond"",""red"",""vert"",""up"",[-106,106],[106,106]]",diamond,red,vert,up,"[-106,106]","[106,106]",up,1,1.3278,,,,,,001,2025-03-10_17h39.28.884,SL_base_41,2021.2.3,Win32,59.52380952,,,105,0,105,0,1,,,,,,,,
,,"[""diamond"",""red"",""vert"",""up"",[0,-150],[106,-106]]",diamond,red,vert,up,"[0,-150]","[106,-106]",left,0,1.0316,,,,,,001,2025-03-10_17h39.28.884,SL_base_41,2021.2.3,Win32,59.52380952,,,106,0,106,0,1,,,,,,,,
,,"[""diamond"",""red"",""hori"",""left"",[-106,-106],[0,150]]",diamond,red,hori,left,"[-106,-106]","[0,150]",left,1,1.0449,,,,,,001,2025-03-10_17h39.28.884,SL_base_41,2021.2.3,Win32,59.52380952,,,107,0,107,0,1,,,,,,,,
,,"[""circle"",""green"",""hori"",""left"",[-150,0],[0,-150]]",circle,green,hori,left,"[-150,0]","[0,-150]",left,1,1.1517,,,,,,001,2025-03-10_17h39.28.884,SL_base_41,2021.2.3,Win32,59.52380952,,,108,0,108,0,1,,,,,,,,
,,"[""circle"",""green"",""vert"",""up"",[106,106],[0,150]]",circle,green,vert,up,"[106,106]","[0,150]",up,1,0.7508,,,,,,001,2025-03-10_17h39.28.884,SL_base_41,2021.2.3,Win32,59.52380952,,,109,0,109,0,1,,,,,,,,
,,"[""circle"",""red"",""hori"",""left"",[-150,0],[-106,106]]",circle,red,hori,left,"[-150,0]","[-106,106]",left,1,1.1446,,,,,,001,2025-03-10_17h39.28.884,SL_base_41,2021.2.3,Win32,59.52380952,,,110,0,110,0,1,,,,,,,,
,,"[""circle"",""no_dis"",""vert"",""up"",[99999,99999],[106,-106]]",circle,no_dis,vert,up,"[99999,99999]","[106,-106]",left,0,1.0217,,,,,,001,2025-03-10_17h39.28.884,SL_base_41,2021.2.3,Win32,59.52380952,,,111,0,111,0,1,,,,,,,,
,,"[""circle"",""green"",""vert"",""up"",[-150,0],[106,-106]]",circle,green,vert,up,"[-150,0]","[106,-106]",up,1,1.0455,,,,,,001,2025-03-10_17h39.28.884,SL_base_41,2021.2.3,Win32,59.52380952,,,112,0,112,0,1,,,,,,,,
,,"[""circle"",""no_dis"",""hori"",""left"",[99999,99999],[-150,0]]",circle,no_dis,hori,left,"[99999,99999]","[-150,0]",left,1,0.9301,,,,,,001,2025-03-10_17h39.28.884,SL_base_41,2021.2.3,Win32,59.52380952,,,113,0,113,0,1,,,,,,,,
,,"[""diamond"",""no_dis"",""vert"",""up"",[99999,99999],[150,0]]",diamond,no_dis,vert,up,"[99999,99999]","[150,0]",up,1,1.0861,,,,,,001,2025-03-10_17h39.28.884,SL_base_41,2021.2.3,Win32,59.52380952,,,114,0,114,0,1,,,,,,,,
,,"[""circle"",""green"",""hori"",""left"",[-150,0],[0,150]]",circle,green,hori,left,"[-150,0]","[0,150]",left,1,1.1003,,,,,,001,2025-03-10_17h39.28.884,SL_base_41,2021.2.3,Win32,59.52380952,,,115,0,115,0,1,,,,,,,,
,,"[""circle"",""no_dis"",""hori"",""left"",[99999,99999],[-150,0]]",circle,no_dis,hori,left,"[99999,99999]","[-150,0]",left,1,1.1195,,,,,,001,2025-03-10_17h39.28.884,SL_base_41,2021.2.3,Win32,59.52380952,,,116,0,116,0,1,,,,,,,,
,,"[""diamond"",""no_dis"",""vert"",""up"",[99999,99999],[150,0]]",diamond,no_dis,vert,up,"[99999,99999]","[150,0]",up,1,1.0742,,,,,,001,2025-03-10_17h39.28.884,SL_base_41,2021.2.3,Win32,59.52380952,,,117,0,117,0,1,,,,,,,,
,,"[""circle"",""red"",""vert"",""up"",[0,150],[-106,-106]]",circle,red,vert,up,"[0,150]","[-106,-106]",up,1,1.2625,,,,,,001,2025-03-10_17h39.28.884,SL_base_41,2021.2.3,Win32,59.52380952,,,118,0,118,0,1,,,,,,,,
,,"[""circle"",""red"",""vert"",""up"",[-106,-106],[0,-150]]",circle,red,vert,up,"[-106,-106]","[0,-150]",left,0,1.0481,,,,,,001,2025-03-10_17h39.28.884,SL_base_41,2021.2.3,Win32,59.52380952,,,119,0,119,0,1,,,,,,,,
,,"[""circle"",""no_dis"",""vert"",""up"",[99999,99999],[-106,106]]",circle,no_dis,vert,up,"[99999,99999]","[-106,106]",up,1,1.3162,,,,,,001,2025-03-10_17h39.28.884,SL_base_41,2021.2.3,Win32,59.52380952,,,120,0,120,0,1,,,,,,,,
,,"[""diamond"",""green"",""vert"",""up"",[0,150],[-106,106]]",diamond,green,vert,up,"[0,150]","[-106,106]",left,0,2.0082,,,,,,001,2025-03-10_17h39.28.884,SL_base_41,2021.2.3,Win32,59.52380952,,,121,0,121,0,1,,,,,,,,
,,"[""circle"",""red"",""vert"",""up"",[-150,0],[0,150]]",circle,red,vert,up,"[-150,0]","[0,150]",up,1,1.5892,,,,,,001,2025-03-10_17h39.28.884,SL_base_41,2021.2.3,Win32,59.52380952,,,122,0,122,0,1,,,,,,,,
,,"[""diamond"",""red"",""hori"",""left"",[0,-150],[106,106]]",diamond,red,hori,left,"[0,-150]","[106,106]",left,1,1.5104,,,,,,001,2025-03-10_17h39.28.884,SL_base_41,2021.2.3,Win32,59.52380952,,,123,0,123,0,1,,,,,,,,
,,"[""circle"",""no_dis"",""vert"",""up"",[99999,99999],[-106,-106]]",circle,no_dis,vert,up,"[99999,99999]","[-106,-106]",up,1,1.1234,,,,,,001,2025-03-10_17h39.28.884,SL_base_41,2021.2.3,Win32,59.52380952,,,124,0,124,0,1,,,,,,,,
,,"[""diamond"",""green"",""vert"",""up"",[150,0],[-106,-106]]",diamond,green,vert,up,"[150,0]","[-106,-106]",up,1,1.8139,,,,,,001,2025-03-10_17h39.28.884,SL_base_41,2021.2.3,Win32,59.52380952,,,125,0,125,0,1,,,,,,,,
,,"[""circle"",""no_dis"",""hori"",""left"",[99999,99999],[-106,-106]]",circle,no_dis,hori,left,"[99999,99999]","[-106,-106]",left,1,1.0336,,,,,,001,2025-03-10_17h39.28.884,SL_base_41,2021.2.3,Win32,59.52380952,,,126,0,126,0,1,,,,,,,,
,,"[""circle"",""red"",""hori"",""left"",[0,150],[-106,-106]]",circle,red,hori,left,"[0,150]","[-106,-106]",left,1,1.0208,,,,,,001,2025-03-10_17h39.28.884,SL_base_41,2021.2.3,Win32,59.52380952,,,127,0,127,0,1,,,,,,,,
,,,,,,,,,,,,,,,,,001,2025-03-10_17h39.28.884,SL_base_41,2021.2.3,Win32,59.52380952,,,,,,,,2,space,285.9363,1,0,1,0,1
,,"[""diamond"",""green"",""hori"",""left"",[-150,0],[0,150]]",diamond,green,hori,left,"[-150,0]","[0,150]",left,1,1.7644,,,,,,001,2025-03-10_17h39.28.884,SL_base_41,2021.2.3,Win32,59.52380952,,,0,0,0,0,1,,,,,,,,
,,"[""circle"",""no_dis"",""vert"",""up"",[99999,99999],[-106,-106]]",circle,no_dis,vert,up,"[99999,99999]","[-106,-106]",up,1,0.9694,,,,,,001,2025-03-10_17h39.28.884,SL_base_41,2021.2.3,Win32,59.52380952,,,1,0,1,0,1,,,,,,,,
,,"[""diamond"",""no_dis"",""vert"",""up"",[99999,99999],[106,106]]",diamond,no_dis,vert,up,"[99999,99999]","[106,106]",up,1,0.898,,,,,,001,2025-03-10_17h39.28.884,SL_base_41,2021.2.3,Win32,59.52380952,,,2,0,2,0,1,,,,,,,,
,,"[""diamond"",""red"",""vert"",""up"",[-150,0],[150,0]]",diamond,red,vert,up,"[-150,0]","[150,0]",left,0,0.9797,,,,,,001,2025-03-10_17h39.28.884,SL_base_41,2021.2.3,Win32,59.52380952,,,3,0,3,0,1,,,,,,,,
,,"[""circle"",""green"",""hori"",""left"",[0,-150],[-106,106]]",circle,green,hori,left,"[0,-150]","[-106,106]",left,1,1.368,,,,,,001,2025-03-10_17h39.28.884,SL_base_41,2021.2.3,Win32,59.52380952,,,4,0,4,0,1,,,,,,,,
,,"[""diamond"",""no_dis"",""hori"",""left"",[99999,99999],[106,106]]",diamond,no_dis,hori,left,"[99999,99999]","[106,106]",left,1,1.5002,,,,,,001,2025-03-10_17h39.28.884,SL_base_41,2021.2.3,Win32,59.52380952,,,5,0,5,0,1,,,,,,,,
,,"[""diamond"",""green"",""hori"",""left"",[150,0],[106,106]]",diamond,green,hori,left,"[150,0]","[106,106]",left,1,1.2014,,,,,,001,2025-03-10_17h39.28.884,SL_base_41,2021.2.3,Win32,59.52380952,,,6,0,6,0,1,,,,,,,,
,,"[""circle"",""red"",""vert"",""up"",[-150,0],[-106,-106]]",circle,red,vert,up,"[-150,0]","[-106,-106]",up,1,1.4172,,,,,,001,2025-03-10_17h39.28.884,SL_base_41,2021.2.3,Win32,59.52380952,,,7,0,7,0,1,,,,,,,,
,,"[""circle"",""no_dis"",""vert"",""up"",[99999,99999],[0,150]]",circle,no_dis,vert,up,"[99999,99999]","[0,150]",up,1,1.5175,,,,,,001,2025-03-10_17h39.28.884,SL_base_41,2021.2.3,Win32,59.52380952,,,8,0,8,0,1,,,,,,,,
,,"[""circle"",""no_dis"",""hori"",""left"",[99999,99999],[0,-150]]",circle,no_dis,hori,left,"[99999,99999]","[0,-150]",left,1,0.9605,,,,,,001,2025-03-10_17h39.28.884,SL_base_41,2021.2.3,Win32,59.52380952,,,9,0,9,0,1,,,,,,,,
,,"[""circle"",""no_dis"",""vert"",""up"",[99999,99999],[0,-150]]",circle,no_dis,vert,up,"[99999,99999]","[0,-150]",up,1,1.3345,,,,,,001,2025-03-10_17h39.28.884,SL_base_41,2021.2.3,Win32,59.52380952,,,10,0,10,0,1,,,,,,,,
,,"[""diamond"",""red"",""vert"",""up"",[0,-150],[106,-106]]",diamond,red,vert,up,"[0,-150]","[106,-106]",left,0,1.968,,,,,,001,2025-03-10_17h39.28.884,SL_base_41,2021.2.3,Win32,59.52380952,,,11,0,11,0,1,,,,,,,,
,,"[""diamond"",""red"",""vert"",""up"",[-150,0],[106,106]]",diamond,red,vert,up,"[-150,0]","[106,106]",left,0,2.1845,,,,,,001,2025-03-10_17h39.28.884,SL_base_41,2021.2.3,Win32,59.52380952,,,12,0,12,0,1,,,,,,,,
,,"[""diamond"",""red"",""hori"",""left"",[0,-150],[106,106]]",diamond,red,hori,left,"[0,-150]","[106,106]",left,1,1.2836,,,,,,001,2025-03-10_17h39.28.884,SL_base_41,2021.2.3,Win32,59.52380952,,,13,0,13,0,1,,,,,,,,
,,"[""diamond"",""green"",""hori"",""left"",[150,0],[106,-106]]",diamond,green,hori,left,"[150,0]","[106,-106]",left,1,1.4723,,,,,,001,2025-03-10_17h39.28.884,SL_base_41,2021.2.3,Win32,59.52380952,,,14,0,14,0,1,,,,,,,,
,,"[""diamond"",""green"",""hori"",""left"",[0,150],[-106,106]]",diamond,green,hori,left,"[0,150]","[-106,106]",left,1,1.3681,,,,,,001,2025-03-10_17h39.28.884,SL_base_41,2021.2.3,Win32,59.52380952,,,15,0,15,0,1,,,,,,,,
,,"[""diamond"",""green"",""vert"",""up"",[-106,-106],[-150,0]]",diamond,green,vert,up,"[-106,-106]","[-150,0]",up,1,1.1496,,,,,,001,2025-03-10_17h39.28.884,SL_base_41,2021.2.3,Win32,59.52380952,,,16,0,16,0,1,,,,,,,,
,,"[""diamond"",""green"",""vert"",""up"",[-150,0],[106,106]]",diamond,green,vert,up,"[-150,0]","[106,106]",up,1,1.2006,,,,,,001,2025-03-10_17h39.28.884,SL_base_41,2021.2.3,Win32,59.52380952,,,17,0,17,0,1,,,,,,,,
,,"[""diamond"",""red"",""hori"",""left"",[150,0],[106,-106]]",diamond,red,hori,left,"[150,0]","[106,-106]",left,1,1.2008,,,,,,001,2025-03-10_17h39.28.884,SL_base_41,2021.2.3,Win32,59.52380952,,,18,0,18,0,1,,,,,,,,
,,"[""diamond"",""no_dis"",""vert"",""up"",[99999,99999],[106,-106]]",diamond,no_dis,vert,up,"[99999,99999]","[106,-106]",up,1,1.3178,,,,,,001,2025-03-10_17h39.28.884,SL_base_41,2021.2.3,Win32,59.52380952,,,19,0,19,0,1,,,,,,,,
,,"[""circle"",""green"",""vert"",""up"",[-106,-106],[0,150]]",circle,green,vert,up,"[-106,-106]","[0,150]",up,1,1.7845,,,,,,001,2025-03-10_17h39.28.884,SL_base_41,2021.2.3,Win32,59.52380952,,,20,0,20,0,1,,,,,,,,
,,"[""diamond"",""no_dis"",""vert"",""up"",[99999,99999],[0,-150]]",diamond,no_dis,vert,up,"[99999,99999]","[0,-150]",up,1,1.7349,,,,,,001,2025-03-10_17h39.28.884,SL_base_41,2021.2.3,Win32,59.52380952,,,21,0,21,0,1,,,,,,,,
,,"[""diamond"",""no_dis"",""hori"",""left"",[99999,99999],[-106,-106]]",diamond,no_dis,hori,left,"[99999,99999]","[-106,-106]",left,1,1.3333,,,,,,001,2025-03-10_17h39.28.884,SL_base_41,2021.2.3,Win32,59.52380952,,,22,0,22,0,1,,,,,,,,
,,"[""diamond"",""no_dis"",""vert"",""up"",[99999,99999],[-150,0]]",diamond,no_dis,vert,up,"[99999,99999]","[-150,0]",up,1,1.4349,,,,,,001,2025-03-10_17h39.28.884,SL_base_41,2021.2.3,Win32,59.52380952,,,23,0,23,0,1,,,,,,,,
,,"[""circle"",""no_dis"",""hori"",""left"",[99999,99999],[106,106]]",circle,no_dis,hori,left,"[99999,99999]","[106,106]",left,1,1.0176,,,,,,001,2025-03-10_17h39.28.884,SL_base_41,2021.2.3,Win32,59.52380952,,,24,0,24,0,1,,,,,,,,
,,"[""diamond"",""green"",""hori"",""left"",[106,106],[0,-150]]",diamond,green,hori,left,"[106,106]","[0,-150]",left,1,2.0176,,,,,,001,2025-03-10_17h39.28.884,SL_base_41,2021.2.3,Win32,59.52380952,,,25,0,25,0,1,,,,,,,,
,,"[""diamond"",""red"",""vert"",""up"",[106,-106],[-106,-106]]",diamond,red,vert,up,"[106,-106]","[-106,-106]",up,1,1.0347,,,,,,001,2025-03-10_17h39.28.884,SL_base_41,2021.2.3,Win32,59.52380952,,,26,0,26,0,1,,,,,,,,
,,"[""circle"",""no_dis"",""hori"",""left"",[99999,99999],[-106,106]]",circle,no_dis,hori,left,"[99999,99999]","[-106,106]",left,1,0.8505,,,,,,001,2025-03-10_17h39.28.884,SL_base_41,2021.2.3,Win32,59.52380952,,,27,0,27,0,1,,,,,,,,
,,"[""circle"",""red"",""vert"",""up"",[0,150],[-106,-106]]",circle,red,vert,up,"[0,150]","[-106,-106]",up,1,1.3512,,,,,,001,2025-03-10_17h39.28.884,SL_base_41,2021.2.3,Win32,59.52380952,,,28,0,28,0,1,,,,,,,,
,,"[""circle"",""no_dis"",""hori"",""left"",[99999,99999],[-150,0]]",circle,no_dis,hori,left,"[99999,99999]","[-150,0]",left,1,0.8849,,,,,,001,2025-03-10_17h39.28.884,SL_base_41,2021.2.3,Win32,59.52380952,,,29,0,29,0,1,,,,,,,,
,,"[""circle"",""green"",""hori"",""left"",[-106,-106],[150,0]]",circle,green,hori,left,"[-106,-106]","[150,0]",up,0,0.7343,,,,,,001,2025-03-10_17h39.28.884,SL_base_41,2021.2.3,Win32,59.52380952,,,30,0,30,0,1,,,,,,,,
,,"[""diamond"",""red"",""hori"",""left"",[106,-106],[150,0]]",diamond,red,hori,left,"[106,-106]","[150,0]",left,1,1.2351,,,,,,001,2025-03-10_17h39.28.884,SL_base_41,2021.2.3,Win32,59.52380952,,,31,0,31,0,1,,,,,,,,
,,"[""diamond"",""no_dis"",""vert"",""up"",[99999,99999],[106,106]]",diamond,no_dis,vert,up,"[99999,99999]","[106,106]",up,1,0.8172,,,,,,001,2025-03-10_17h39.28.884,SL_base_41,2021.2.3,Win32,59.52380952,,,32,0,32,0,1,,,,,,,,
,,"[""diamond"",""green"",""vert"",""up"",[106,106],[-150,0]]",diamond,green,vert,up,"[106,106]","[-150,0]",up,1,1.1839,,,,,,001,2025-03-10_17h39.28.884,SL_base_41,2021.2.3,Win32,59.52380952,,,33,0,33,0,1,,,,,,,,
,,"[""circle"",""red"",""vert"",""up"",[-150,0],[106,106]]",circle,red,vert,up,"[-150,0]","[106,106]",up,1,1.0508,,,,,,001,2025-03-10_17h39.28.884,SL_base_41,2021.2.3,Win32,59.52380952,,,34,0,34,0,1,,,,,,,,
,,"[""circle"",""red"",""hori"",""left"",[-150,0],[150,0]]",circle,red,hori,left,"[-150,0]","[150,0]",left,1,1.1011,,,,,,001,2025-03-10_17h39.28.884,SL_base_41,2021.2.3,Win32,59.52380952,,,35,0,35,0,1,,,,,,,,
,,"[""circle"",""red"",""vert"",""up"",[106,-106],[-150,0]]",circle,red,vert,up,"[106,-106]","[-150,0]",up,1,1.2011,,,,,,001,2025-03-10_17h39.28.884,SL_base_41,2021.2.3,Win32,59.52380952,,,36,0,36,0,1,,,,,,,,
,,"[""diamond"",""green"",""vert"",""up"",[-150,0],[0,-150]]",diamond,green,vert,up,"[-150,0]","[0,-150]",left,0,2.0181,,,,,,001,2025-03-10_17h39.28.884,SL_base_41,2021.2.3,Win32,59.52380952,,,37,0,37,0,1,,,,,,,,
,,"[""diamond"",""red"",""hori"",""left"",[-106,-106],[0,150]]",diamond,red,hori,left,"[-106,-106]","[0,150]",left,1,1.5515,,,,,,001,2025-03-10_17h39.28.884,SL_base_41,2021.2.3,Win32,59.52380952,,,38,0,38,0,1,,,,,,,,
,,"[""circle"",""no_dis"",""vert"",""up"",[99999,99999],[106,106]]",circle,no_dis,vert,up,"[99999,99999]","[106,106]",up,1,0.9504,,,,,,001,2025-03-10_17h39.28.884,SL_base_41,2021.2.3,Win32,59.52380952,,,39,0,39,0,1,,,,,,,,
,,"[""diamond"",""red"",""hori"",""left"",[-150,0],[106,106]]",diamond,red,hori,left,"[-150,0]","[106,106]",left,1,1.3346,,,,,,001,2025-03-10_17h39.28.884,SL_base_41,2021.2.3,Win32,59.52380952,,,40,0,40,0,1,,,,,,,,
,,"[""circle"",""red"",""hori"",""left"",[106,-106],[-106,-106]]",circle,red,hori,left,"[106,-106]","[-106,-106]",left,1,1.1347,,,,,,001,2025-03-10_17h39.28.884,SL_base_41,2021.2.3,Win32,59.52380952,,,41,0,41,0,1,,,,,,,,
,,"[""diamond"",""no_dis"",""hori"",""left"",[99999,99999],[150,0]]",diamond,no_dis,hori,left,"[99999,99999]","[150,0]",left,1,0.9675,,,,,,001,2025-03-10_17h39.28.884,SL_base_41,2021.2.3,Win32,59.52380952,,,42,0,42,0,1,,,,,,,,
,,"[""circle"",""red"",""hori"",""left"",[0,150],[-106,-106]]",circle,red,hori,left,"[0,150]","[-106,-106]",left,1,1.1833,,,,,,001,2025-03-10_17h39.28.884,SL_base_41,2021.2.3,Win32,59.52380952,,,43,0,43,0,1,,,,,,,,
,,"[""circle"",""no_dis"",""hori"",""left"",[99999,99999],[-150,0]]",circle,no_dis,hori,left,"[99999,99999]","[-150,0]",left,1,0.7677,,,,,,001,2025-03-10_17h39.28.884,SL_base_41,2021.2.3,Win32,59.52380952,,,44,0,44,0,1,,,,,,,,
,,"[""circle"",""green"",""vert"",""up"",[150,0],[0,150]]",circle,green,vert,up,"[150,0]","[0,150]",up,1,0.9345,,,,,,001,2025-03-10_17h39.28.884,SL_base_41,2021.2.3,Win32,59.52380952,,,45,0,45,0,1,,,,,,,,
,,"[""diamond"",""no_dis"",""hori"",""left"",[99999,99999],[106,-106]]",diamond,no_dis,hori,left,"[99999,99999]","[106,-106]",left,1,1.2011,,,,,,001,2025-03-10_17h39.28.884,SL_base_41,2021.2.3,Win32,59.52380952,,,46,0,46,0,1,,,,,,,,
,,"[""diamond"",""red"",""vert"",""up"",[-150,0],[106,-106]]",diamond,red,vert,up,"[-150,0]","[106,-106]",up,1,1.1005,,,,,,001,2025-03-10_17h39.28.884,SL_base_41,2021.2.3,Win32,59.52380952,,,47,0,47,0,1,,,,,,,,
,,"[""diamond"",""green"",""vert"",""up"",[-150,0],[-106,-106]]",diamond,green,vert,up,"[-150,0]","[-106,-106]",up,1,1.0671,,,,,,001,2025-03-10_17h39.28.884,SL_base_41,2021.2.3,Win32,59.52380952,,,48,0,48,0,1,,,,,,,,
,,"[""diamond"",""no_dis"",""vert"",""up"",[99999,99999],[150,0]]",diamond,no_dis,vert,up,"[99999,99999]","[150,0]",up,1,1.0846,,,,,,001,2025-03-10_17h39.28.884,SL_base_41,2021.2.3,Win32,59.52380952,,,49,0,49,0,1,,,,,,,,
,,"[""diamond"",""red"",""vert"",""up"",[0,150],[0,-150]]",diamond,red,vert,up,"[0,150]","[0,-150]",up,1,1.0507,,,,,,001,2025-03-10_17h39.28.884,SL_base_41,2021.2.3,Win32,59.52380952,,,50,0,50,0,1,,,,,,,,
,,"[""circle"",""red"",""hori"",""left"",[-150,0],[0,150]]",circle,red,hori,left,"[-150,0]","[0,150]",left,1,0.968,,,,,,001,2025-03-10_17h39.28.884,SL_base_41,2021.2.3,Win32,59.52380952,,,51,0,51,0,1,,,,,,,,
,,"[""diamond"",""green"",""vert"",""up"",[150,0],[-106,-106]]",diamond,green,vert,up,"[150,0]","[-106,-106]",up,1,1.0858,,,,,,001,2025-03-10_17h39.28.884,SL_base_41,2021.2.3,Win32,59.52380952,,,52,0,52,0,1,,,,,,,,
,,"[""circle"",""no_dis"",""vert"",""up"",[99999,99999],[150,0]]",circle,no_dis,vert,up,"[99999,99999]","[150,0]",up,1,1.1842,,,,,,001,2025-03-10_17h39.28.884,SL_base_41,2021.2.3,Win32,59.52380952,,,53,0,53,0,1,,,,,,,,
,,"[""diamond"",""green"",""hori"",""left"",[106,-106],[0,-150]]",diamond,green,hori,left,"[106,-106]","[0,-150]",left,1,1.1518,,,,,,001,2025-03-10_17h39.28.884,SL_base_41,2021.2.3,Win32,59.52380952,,,54,0,54,0,1,,,,,,,,
,,"[""diamond"",""red"",""vert"",""up"",[106,-106],[-150,0]]",diamond,red,vert,up,"[106,-106]","[-150,0]",up,1,1.3836,,,,,,001,2025-03-10_17h39.28.884,SL_base_41,2021.2.3,Win32,59.52380952,,,55,0,55,0,1,,,,,,,,
,,"[""diamond"",""no_dis"",""hori"",""left"",[99999,99999],[-106,106]]",diamond,no_dis,hori,left,"[99999,99999]","[-106,106]",left,1,1.0346,,,,,,001,2025-03-10_17h39.28.884,SL_base_41,2021.2.3,Win32,59.52380952,,,56,0,56,0,1,,,,,,,,
,,"[""circle"",""no_dis"",""vert"",""up"",[99999,99999],[106,-106]]",circle,no_dis,vert,up,"[99999,99999]","[106,-106]",left,0,1.1176,,,,,,001,2025-03-10_17h39.28.884,SL_base_41,2021.2.3,Win32,59.52380952,,,57,0,57,0,1,,,,,,,,
,,"[""diamond"",""green"",""vert"",""up"",[0,150],[-106,106]]",diamond,green,vert,up,"[0,150]","[-106,106]",up,1,1.1898,,,,,,001,2025-03-10_17h39.28.884,SL_base_41,2021.2.3,Win32,59.52380952,,,58,0,58,0,1,,,,,,,,
,,"[""circle"",""no_dis"",""vert"",""up"",[99999,99999],[-106,106]]",circle,no_dis,vert,up,"[99999,99999]","[-106,106]",up,1,0.9572,,,,,,001,2025-03-10_17h39.28.884,SL_base_41,2021.2.3,Win32,59.52380952,,,59,0,59,0,1,,,,,,,,
,,"[""circle"",""green"",""hori"",""left"",[-150,0],[0,150]]",circle,green,hori,left,"[-150,0]","[0,150]",left,1,1.3737,,,,,,001,2025-03-10_17h39.28.884,SL_base_41,2021.2.3,Win32,59.52380952,,,60,0,60,0,1,,,,,,,,
,,"[""circle"",""red"",""hori"",""left"",[-106,106],[150,0]]",circle,red,hori,left,"[-106,106]","[150,0]",left,1,1.1692,,,,,,001,2025-03-10_17h39.28.884,SL_base_41,2021.2.3,Win32,59.52380952,,,61,0,61,0,1,,,,,,,,
,,"[""circle"",""green"",""vert"",""up"",[-106,-106],[-150,0]]",circle,green,vert,up,"[-106,-106]","[-150,0]",up,1,0.8566,,,,,,001,2025-03-10_17h39.28.884,SL_base_41,2021.2.3,Win32,59.52380952,,,62,0,62,0,1,,,,,,,,
,,"[""diamond"",""red"",""vert"",""up"",[-150,0],[106,-106]]",diamond,red,vert,up,"[-150,0]","[106,-106]",up,1,1.148,,,,,,001,2025-03-10_17h39.28.884,SL_base_41,2021.2.3,Win32,59.52380952,,,63,0,63,0,1,,,,,,,,
,,"[""circle"",""green"",""vert"",""up"",[-150,0],[106,-106]]",circle,green,vert,up,"[-150,0]","[106,-106]",up,1,1.8391,,,,,,001,2025-03-10_17h39.28.884,SL_base_41,2021.2.3,Win32,59.52380952,,,64,0,64,0,1,,,,,,,,
,,"[""circle"",""no_dis"",""hori"",""left"",[99999,99999],[0,150]]",circle,no_dis,hori,left,"[99999,99999]","[0,150]",left,1,0.7956,,,,,,001,2025-03-10_17h39.28.884,SL_base_41,2021.2.3,Win32,59.52380952,,,65,0,65,0,1,,,,,,,,
,,"[""diamond"",""red"",""vert"",""up"",[-106,106],[-150,0]]",diamond,red,vert,up,"[-106,106]","[-150,0]",up,1,2.2257,,,,,,001,2025-03-10_17h39.28.884,SL_base_41,2021.2.3,Win32,59.52380952,,,66,0,66,0,1,,,,,,,,
,,"[""circle"",""red"",""vert"",""up"",[-150,0],[106,-106]]",circle,red,vert,up,"[-150,0]","[106,-106]",up,1,1.1098,,,,,,001,2025-03-10_17h39.28.884,SL_base_41,2021.2.3,Win32,59.52380952,,,67,0,67,0,1,,,,,,,,
,,"[""circle"",""green"",""hori"",""left"",[-106,106],[106,-106]]",circle,green,hori,left,"[-106,106]","[106,-106]",left,1,0.8468,,,,,,001,2025-03-10_17h39.28.884,SL_base_41,2021.2.3,Win32,59.52380952,,,68,0,68,0,1,,,,,,,,
,,"[""diamond"",""red"",""hori"",""left"",[106,106],[-106,106]]",diamond,red,hori,left,"[106,106]","[-106,106]",up,0,0.7125,,,,,,001,2025-03-10_17h39.28.884,SL_base_41,2021.2.3,Win32,59.52380952,,,69,0,69,0,1,,,,,,,,
,,"[""diamond"",""red"",""hori"",""left"",[-150,0],[0,150]]",diamond,red,hori,left,"[-150,0]","[0,150]",left,1,1.6427,,,,,,001,2025-03-10_17h39.28.884,SL_base_41,2021.2.3,Win32,59.52380952,,,70,0,70,0,1,,,,,,,,
,,"[""circle"",""green"",""vert"",""up"",[150,0],[-150,0]]",circle,green,vert,up,"[150,0]","[-150,0]",up,1,0.9291,,,,,,001,2025-03-10_17h39.28.884,SL_base_41,2021.2.3,Win32,59.52380952,,,71,0,71,0,1,,,,,,,,
,,"[""diamond"",""no_dis"",""vert"",""up"",[99999,99999],[150,0]]",diamond,no_dis,vert,up,"[99999,99999]","[150,0]",up,1,1.1578,,,,,,001,2025-03-10_17h39.28.884,SL_base_41,2021.2.3,Win32,59.52380952,,,72,0,72,0,1,,,,,,,,
,,"[""circle"",""green"",""hori"",""left"",[106,106],[0,150]]",circle,green,hori,left,"[106,106]","[0,150]",left,1,0.8997,,,,,,001,2025-03-10_17h39.28.884,SL_base_41,2021.2.3,Win32,59.52380952,,,73,0,73,0,1,,,,,,,,
,,"[""circle"",""green"",""vert"",""up"",[-150,0],[0,-150]]",circle,green,vert,up,"[-150,0]","[0,-150]",up,1,0.9016,,,,,,001,2025-03-10_17h39.28.884,SL_base_41,2021.2.3,Win32,59.52380952,,,74,0,74,0,1,,,,,,,,
,,"[""circle"",""green"",""hori"",""left"",[-150,0],[-106,-106]]",circle,green,hori,left,"[-150,0]","[-106,-106]",left,1,1.0098,,,,,,001,2025-03-10_17h39.28.884,SL_base_41,2021.2.3,Win32,59.52380952,,,75,0,75,0,1,,,,,,,,
,,"[""diamond"",""green"",""hori"",""left"",[0,150],[106,106]]",diamond,green,hori,left,"[0,150]","[106,106]",left,1,1.0202,,,,,,001,2025-03-10_17h39.28.884,SL_base_41,2021.2.3,Win32,59.52380952,,,76,0,76,0,1,,,,,,,,
,,"[""diamond"",""no_dis"",""vert"",""up"",[99999,99999],[-150,0]]",diamond,no_dis,vert,up,"[99999,99999]","[-150,0]",up,1,1.3387,,,,,,001,2025-03-10_17h39.28.884,SL_base_41,2021.2.3,Win32,59.52380952,,,77,0,77,0,1,,,,,,,,
,,"[""diamond"",""green"",""hori"",""left"",[-150,0],[-106,-106]]",diamond,green,hori,left,"[-150,0]","[-106,-106]",left,1,2.0524,,,,,,001,2025-03-10_17h39.28.884,SL_base_41,2021.2.3,Win32,59.52380952,,,78,0,78,0,1,,,,,,,,
,,"[""circle"",""green"",""vert"",""up"",[-106,-106],[0,-150]]",circle,green,vert,up,"[-106,-106]","[0,-150]",up,1,1.702,,,,,,001,2025-03-10_17h39.28.884,SL_base_41,2021.2.3,Win32,59.52380952,,,79,0,79,0,1,,,,,,,,
,,"[""diamond"",""no_dis"",""hori"",""left"",[99999,99999],[-106,106]]",diamond,no_dis,hori,left,"[99999,99999]","[-106,106]",left,1,1.7512,,,,,,001,2025-03-10_17h39.28.884,SL_base_41,2021.2.3,Win32,59.52380952,,,80,0,80,0,1,,,,,,,,
,,"[""diamond"",""green"",""hori"",""left"",[-150,0],[0,150]]",diamond,green,hori,left,"[-150,0]","[0,150]",up,0,1.3731,,,,,,001,2025-03-10_17h39.28.884,SL_base_41,2021.2.3,Win32,59.52380952,,,81,0,81,0,1,,,,,,,,
,,"[""diamond"",""red"",""hori"",""left"",[0,-150],[106,-106]]",diamond,red,hori,left,"[0,-150]","[106,-106]",left,1,1.0792,,,,,,001,2025-03-10_17h39.28.884,SL_base_41,2021.2.3,Win32,59.52380952,,,82,0,82,0,1,,,,,,,,
,,"[""circle"",""no_dis"",""vert"",""up"",[99999,99999],[-106,-106]]",circle,no_dis,vert,up,"[99999,99999]","[-106,-106]",up,1,0.7252,,,,,,001,2025-03-10_17h39.28.884,SL_base_41,2021.2.3,Win32,59.52380952,,,83,0,83,0,1,,,,,,,,
,,"[""circle"",""green"",""hori"",""left"",[106,-106],[-106,106]]",circle,green,hori,left,"[106,-106]","[-106,106]",left,1,0.7955,,,,,,001,2025-03-10_17h39.28.884,SL_base_41,2021.2.3,Win32,59.52380952,,,84,0,84,0,1,,,,,,,,
,,"[""diamond"",""no_dis"",""hori"",""left"",[99999,99999],[0,150]]",diamond,no_dis,hori,left,"[99999,99999]","[0,150]",left,1,1.8972,,,,,,001,2025-03-10_17h39.28.884,SL_base_41,2021.2.3,Win32,59.52380952,,,85,0,85,0,1,,,,,,,,
,,"[""circle"",""no_dis"",""vert"",""up"",[99999,99999],[-106,-106]]",circle,no_dis,vert,up,"[99999,99999]","[-106,-106]",up,1,0.8696,,,,,,001,2025-03-10_17h39.28.884,SL_base_41,2021.2.3,Win32,59.52380952,,,86,0,86,0,1,,,,,,,,
,,"[""circle"",""red"",""vert"",""up"",[-106,106],[0,-150]]",circle,red,vert,up,"[-106,106]","[0,-150]",up,1,0.9849,,,,,,001,2025-03-10_17h39.28.884,SL_base_41,2021.2.3,Win32,59.52380952,,,87,0,87,0,1,,,,,,,,
,,"[""circle"",""red"",""vert"",""up"",[106,106],[-150,0]]",circle,red,vert,up,"[106,106]","[-150,0]",up,1,1.1078,,,,,,001,2025-03-10_17h39.28.884,SL_base_41,2021.2.3,Win32,59.52380952,,,88,0,88,0,1,,,,,,,,
,,"[""diamond"",""red"",""hori"",""left"",[-106,106],[0,150]]",diamond,red,hori,left,"[-106,106]","[0,150]",left,1,1.767,,,,,,001,2025-03-10_17h39.28.884,SL_base_41,2021.2.3,Win32,59.52380952,,,89,0,89,0,1,,,,,,,,
,,"[""circle"",""red"",""vert"",""up"",[-106,-106],[0,-150]]",circle,red,vert,up,"[-106,-106]","[0,-150]",up,1,1.561,,,,,,001,2025-03-10_17h39.28.884,SL_base_41,2021.2.3,Win32,59.52380952,,,90,0,90,0,1,,,,,,,,
,,"[""circle"",""green"",""vert"",""up"",[106,106],[0,150]]",circle,green,vert,up,"[106,106]","[0,150]",left,0,1.2444,,,,,,001,2025-03-10_17h39.28.884,SL_base_41,2021.2.3,Win32,59.52380952,,,91,0,91,0,1,,,,,,,,
,,"[""circle"",""red"",""hori"",""left"",[-150,0],[106,106]]",circle,red,hori,left,"[-150,0]","[106,106]",left,1,0.9018,,,,,,001,2025-03-10_17h39.28.884,SL_base_41,2021.2.3,Win32,59.52380952,,,92,0,92,0,1,,,,,,,,
,,"[""diamond"",""green"",""vert"",""up"",[-106,106],[106,-106]]",diamond,green,vert,up,"[-106,106]","[106,-106]",up,1,1.2272,,,,,,001,2025-03-10_17h39.28.884,SL_base_41,2021.2.3,Win32,59.52380952,,,93,0,93,0,1,,,,,,,,
,,"[""circle"",""no_dis"",""hori"",""left"",[99999,99999],[-106,-106]]",circle,no_dis,hori,left,"[99999,99999]","[-106,-106]",left,1,0.8042,,,,,,001,2025-03-10_17h39.28.884,SL_base_41,2021.2.3,Win32,59.52380952,,,94,0,94,0,1,,,,,,,,
,,"[""diamond"",""green"",""vert"",""up"",[-106,106],[0,-150]]",diamond,green,vert,up,"[-106,106]","[0,-150]",up,1,0.961,,,,,,001,2025-03-10_17h39.28.884,SL_base_41,2021.2.3,Win32,59.52380952,,,95,0,95,0,1,,,,,,,,
,,"[""diamond"",""no_dis"",""hori"",""left"",[99999,99999],[0,-150]]",diamond,no_dis,hori,left,"[99999,99999]","[0,-150]",left,1,1.2653,,,,,,001,2025-03-10_17h39.28.884,SL_base_41,2021.2.3,Win32,59.52380952,,,96,0,96,0,1,,,,,,,,
,,"[""diamond"",""red"",""hori"",""left"",[150,0],[0,-150]]",diamond,red,hori,left,"[150,0]","[0,-150]",left,1,0.9028,,,,,,001,2025-03-10_17h39.28.884,SL_base_41,2021.2.3,Win32,59.52380952,,,97,0,97,0,1,,,,,,,,
,,"[""circle"",""red"",""hori"",""left"",[106,106],[0,150]]",circle,red,hori,left,"[106,106]","[0,150]",left,1,1.6293,,,,,,001,2025-03-10_17h39.28.884,SL_base_41,2021.2.3,Win32,59.52380952,,,98,0,98,0,1,,,,,,,,
,,"[""circle"",""green"",""hori"",""left"",[-106,-106],[0,-150]]",circle,green,hori,left,"[-106,-106]","[0,-150]",up,0,1.1493,,,,,,001,2025-03-10_17h39.28.884,SL_base_41,2021.2.3,Win32,59.52380952,,,99,0,99,0,1,,,,,,,,
,,"[""circle"",""red"",""vert"",""up"",[106,-106],[-150,0]]",circle,red,vert,up,"[106,-106]","[-150,0]",up,1,0.9724,,,,,,001,2025-03-10_17h39.28.884,SL_base_41,2021.2.3,Win32,59.52380952,,,100,0,100,0,1,,,,,,,,
,,"[""circle"",""green"",""hori"",""left"",[-150,0],[106,106]]",circle,green,hori,left,"[-150,0]","[106,106]",left,1,1.2145,,,,,,001,2025-03-10_17h39.28.884,SL_base_41,2021.2.3,Win32,59.52380952,,,101,0,101,0,1,,,,,,,,
,,"[""circle"",""green"",""vert"",""up"",[-150,0],[106,106]]",circle,green,vert,up,"[-150,0]","[106,106]",up,1,0.7268,,,,,,001,2025-03-10_17h39.28.884,SL_base_41,2021.2.3,Win32,59.52380952,,,102,0,102,0,1,,,,,,,,
,,"[""diamond"",""red"",""vert"",""up"",[-106,106],[106,106]]",diamond,red,vert,up,"[-106,106]","[106,106]",up,1,1.4929,,,,,,001,2025-03-10_17h39.28.884,SL_base_41,2021.2.3,Win32,59.52380952,,,103,0,103,0,1,,,,,,,,
,,"[""circle"",""no_dis"",""hori"",""left"",[99999,99999],[0,-150]]",circle,no_dis,hori,left,"[99999,99999]","[0,-150]",left,1,1.7629,,,,,,001,2025-03-10_17h39.28.884,SL_base_41,2021.2.3,Win32,59.52380952,,,104,0,104,0,1,,,,,,,,
,,"[""diamond"",""green"",""hori"",""left"",[150,0],[106,106]]",diamond,green,hori,left,"[150,0]","[106,106]",left,1,1.6633,,,,,,001,2025-03-10_17h39.28.884,SL_base_41,2021.2.3,Win32,59.52380952,,,105,0,105,0,1,,,,,,,,
,,"[""circle"",""green"",""vert"",""up"",[106,106],[0,-150]]",circle,green,vert,up,"[106,106]","[0,-150]",up,1,1.0301,,,,,,001,2025-03-10_17h39.28.884,SL_base_41,2021.2.3,Win32,59.52380952,,,106,0,106,0,1,,,,,,,,
,,"[""diamond"",""no_dis"",""hori"",""left"",[99999,99999],[-106,106]]",diamond,no_dis,hori,left,"[99999,99999]","[-106,106]",left,1,0.9089,,,,,,001,2025-03-10_17h39.28.884,SL_base_41,2021.2.3,Win32,59.52380952,,,107,0,107,0,1,,,,,,,,
,,"[""circle"",""green"",""hori"",""left"",[0,-150],[-150,0]]",circle,green,hori,left,"[0,-150]","[-150,0]",left,1,0.98,,,,,,001,2025-03-10_17h39.28.884,SL_base_41,2021.2.3,Win32,59.52380952,,,108,0,108,0,1,,,,,,,,
,,"[""circle"",""no_dis"",""hori"",""left"",[99999,99999],[106,-106]]",circle,no_dis,hori,left,"[99999,99999]","[106,-106]",left,1,1.2708,,,,,,001,2025-03-10_17h39.28.884,SL_base_41,2021.2.3,Win32,59.52380952,,,109,0,109,0,1,,,,,,,,
,,"[""diamond"",""green"",""vert"",""up"",[-150,0],[150,0]]",diamond,green,vert,up,"[-150,0]","[150,0]",up,1,0.9194,,,,,,001,2025-03-10_17h39.28.884,SL_base_41,2021.2.3,Win32,59.52380952,,,110,0,110,0,1,,,,,,,,
,,"[""diamond"",""no_dis"",""vert"",""up"",[99999,99999],[150,0]]",diamond,no_dis,vert,up,"[99999,99999]","[150,0]",up,1,0.8461,,,,,,001,2025-03-10_17h39.28.884,SL_base_41,2021.2.3,Win32,59.52380952,,,111,0,111,0,1,,,,,,,,
,,"[""diamond"",""no_dis"",""hori"",""left"",[99999,99999],[106,-106]]",diamond,no_dis,hori,left,"[99999,99999]","[106,-106]",left,1,1.745,,,,,,001,2025-03-10_17h39.28.884,SL_base_41,2021.2.3,Win32,59.52380952,,,112,0,112,0,1,,,,,,,,
,,"[""circle"",""red"",""hori"",""left"",[-150,0],[-106,106]]",circle,red,hori,left,"[-150,0]","[-106,106]",left,1,1.2619,,,,,,001,2025-03-10_17h39.28.884,SL_base_41,2021.2.3,Win32,59.52380952,,,113,0,113,0,1,,,,,,,,
,,"[""diamond"",""red"",""vert"",""up"",[-150,0],[0,150]]",diamond,red,vert,up,"[-150,0]","[0,150]",up,1,1.539,,,,,,001,2025-03-10_17h39.28.884,SL_base_41,2021.2.3,Win32,59.52380952,,,114,0,114,0,1,,,,,,,,
,,"[""diamond"",""green"",""hori"",""left"",[0,-150],[150,0]]",diamond,green,hori,left,"[0,-150]","[150,0]",up,0,1.633,,,,,,001,2025-03-10_17h39.28.884,SL_base_41,2021.2.3,Win32,59.52380952,,,115,0,115,0,1,,,,,,,,
,,"[""circle"",""red"",""hori"",""left"",[-150,0],[106,-106]]",circle,red,hori,left,"[-150,0]","[106,-106]",left,1,0.8751,,,,,,001,2025-03-10_17h39.28.884,SL_base_41,2021.2.3,Win32,59.52380952,,,116,0,116,0,1,,,,,,,,
,,"[""circle"",""red"",""hori"",""left"",[0,150],[-106,106]]",circle,red,hori,left,"[0,150]","[-106,106]",left,1,1.149,,,,,,001,2025-03-10_17h39.28.884,SL_base_41,2021.2.3,Win32,59.52380952,,,117,0,117,0,1,,,,,,,,
,,"[""circle"",""red"",""vert"",""up"",[-150,0],[0,150]]",circle,red,vert,up,"[-150,0]","[0,150]",up,1,1.5831,,,,,,001,2025-03-10_17h39.28.884,SL_base_41,2021.2.3,Win32,59.52380952,,,118,0,118,0,1,,,,,,,,
,,"[""circle"",""red"",""vert"",""up"",[-150,0],[0,150]]",circle,red,vert,up,"[-150,0]","[0,150]",up,1,0.8477,,,,,,001,2025-03-10_17h39.28.884,SL_base_41,2021.2.3,Win32,59.52380952,,,119,0,119,0,1,,,,,,,,
,,"[""diamond"",""green"",""vert"",""up"",[0,-150],[106,106]]",diamond,green,vert,up,"[0,-150]","[106,106]",up,1,1.8963,,,,,,001,2025-03-10_17h39.28.884,SL_base_41,2021.2.3,Win32,59.52380952,,,120,0,120,0,1,,,,,,,,
,,"[""circle"",""green"",""hori"",""left"",[-150,0],[0,-150]]",circle,green,hori,left,"[-150,0]","[0,-150]",left,1,0.9795,,,,,,001,2025-03-10_17h39.28.884,SL_base_41,2021.2.3,Win32,59.52380952,,,121,0,121,0,1,,,,,,,,
,,"[""diamond"",""red"",""hori"",""left"",[0,150],[106,106]]",diamond,red,hori,left,"[0,150]","[106,106]",up,0,1.5927,,,,,,001,2025-03-10_17h39.28.884,SL_base_41,2021.2.3,Win32,59.52380952,,,122,0,122,0,1,,,,,,,,
,,"[""circle"",""red"",""hori"",""left"",[0,-150],[-150,0]]",circle,red,hori,left,"[0,-150]","[-150,0]",left,1,1.0712,,,,,,001,2025-03-10_17h39.28.884,SL_base_41,2021.2.3,Win32,59.52380952,,,123,0,123,0,1,,,,,,,,
,,"[""circle"",""no_dis"",""hori"",""left"",[99999,99999],[-150,0]]",circle,no_dis,hori,left,"[99999,99999]","[-150,0]",left,1,1.0124,,,,,,001,2025-03-10_17h39.28.884,SL_base_41,2021.2.3,Win32,59.52380952,,,124,0,124,0,1,,,,,,,,
,,"[""circle"",""green"",""vert"",""up"",[-150,0],[106,-106]]",circle,green,vert,up,"[-150,0]","[106,-106]",up,1,1.1649,,,,,,001,2025-03-10_17h39.28.884,SL_base_41,2021.2.3,Win32,59.52380952,,,125,0,125,0,1,,,,,,,,
,,"[""circle"",""no_dis"",""vert"",""up"",[99999,99999],[0,150]]",circle,no_dis,vert,up,"[99999,99999]","[0,150]",up,1,0.8292,,,,,,001,2025-03-10_17h39.28.884,SL_base_41,2021.2.3,Win32,59.52380952,,,126,0,126,0,1,,,,,,,,
,,"[""diamond"",""no_dis"",""vert"",""up"",[99999,99999],[0,150]]",diamond,no_dis,vert,up,"[99999,99999]","[0,150]",up,1,1.6585,,,,,,001,2025-03-10_17h39.28.884,SL_base_41,2021.2.3,Win32,59.52380952,,,127,0,127,0,1,,,,,,,,
,,,,,,,,,,,,,,,,,001,2025-03-10_17h39.28.884,SL_base_41,2021.2.3,Win32,59.52380952,,,,,,,,3,space,11.3419,2,0,2,0,1
,,"[""circle"",""red"",""hori"",""left"",[0,-150],[-150,0]]",circle,red,hori,left,"[0,-150]","[-150,0]",left,1,1.0658,,,,,,001,2025-03-10_17h39.28.884,SL_base_41,2021.2.3,Win32,59.52380952,,,0,0,0,0,1,,,,,,,,
,,"[""circle"",""green"",""vert"",""up"",[106,106],[0,150]]",circle,green,vert,up,"[106,106]","[0,150]",up,1,0.8281,,,,,,001,2025-03-10_17h39.28.884,SL_base_41,2021.2.3,Win32,59.52380952,,,1,0,1,0,1,,,,,,,,
,,"[""diamond"",""no_dis"",""hori"",""left"",[99999,99999],[-106,106]]",diamond,no_dis,hori,left,"[99999,99999]","[-106,106]",left,1,0.9503,,,,,,001,2025-03-10_17h39.28.884,SL_base_41,2021.2.3,Win32,59.52380952,,,2,0,2,0,1,,,,,,,,
,,"[""diamond"",""no_dis"",""hori"",""left"",[99999,99999],[0,-150]]",diamond,no_dis,hori,left,"[99999,99999]","[0,-150]",left,1,0.9842,,,,,,001,2025-03-10_17h39.28.884,SL_base_41,2021.2.3,Win32,59.52380952,,,3,0,3,0,1,,,,,,,,
,,"[""circle"",""red"",""vert"",""up"",[-106,106],[0,-150]]",circle,red,vert,up,"[-106,106]","[0,-150]",up,1,0.8272,,,,,,001,2025-03-10_17h39.28.884,SL_base_41,2021.2.3,Win32,59.52380952,,,4,0,4,0,1,,,,,,,,
,,"[""circle"",""red"",""hori"",""left"",[-150,0],[-106,106]]",circle,red,hori,left,"[-150,0]","[-106,106]",left,1,0.8658,,,,,,001,2025-03-10_17h39.28.884,SL_base_41,2021.2.3,Win32,59.52380952,,,5,0,5,0,1,,,,,,,,
,,"[""circle"",""red"",""vert"",""up"",[106,-106],[-150,0]]",circle,red,vert,up,"[106,-106]","[-150,0]",left,0,0.6517,,,,,,001,2025-03-10_17h39.28.884,SL_base_41,2021.2.3,Win32,59.52380952,,,6,0,6,0,1,,,,,,,,
,,"[""diamond"",""red"",""vert"",""up"",[-150,0],[0,150]]",diamond,red,vert,up,"[-150,0]","[0,150]",up,1,1.5328,,,,,,001,2025-03-10_17h39.28.884,SL_base_41,2021.2.3,Win32,59.52380952,,,7,0,7,0,1,,,,,,,,
,,"[""circle"",""green"",""hori"",""left"",[-106,106],[106,-106]]",circle,green,hori,left,"[-106,106]","[106,-106]",left,1,0.7948,,,,,,001,2025-03-10_17h39.28.884,SL_base_41,2021.2.3,Win32,59.52380952,,,8,0,8,0,1,,,,,,,,
,,"[""circle"",""red"",""vert"",""up"",[-150,0],[0,150]]",circle,red,vert,up,"[-150,0]","[0,150]",left,0,1.1635,,,,,,001,2025-03-10_17h39.28.884,SL_base_41,2021.2.3,Win32,59.52380952,,,9,0,9,0,1,,,,,,,,
,,"[""diamond"",""green"",""vert"",""up"",[-150,0],[0,-150]]",diamond,green,vert,up,"[-150,0]","[0,-150]",left,0,0.739,,,,,,001,2025-03-10_17h39.28.884,SL_base_41,2021.2.3,Win32,59.52380952,,,10,0,10,0,1,,,,,,,,
,,"[""circle"",""no_dis"",""vert"",""up"",[99999,99999],[106,-106]]",circle,no_dis,vert,up,"[99999,99999]","[106,-106]",up,1,0.8177,,,,,,001,2025-03-10_17h39.28.884,SL_base_41,2021.2.3,Win32,59.52380952,,,11,0,11,0,1,,,,,,,,
,,"[""diamond"",""red"",""hori"",""left"",[0,-150],[106,-106]]",diamond,red,hori,left,"[0,-150]","[106,-106]",left,1,1.601,,,,,,001,2025-03-10_17h39.28.884,SL_base_41,2021.2.3,Win32,59.52380952,,,12,0,12,0,1,,,,,,,,
,,"[""diamond"",""red"",""vert"",""up"",[-150,0],[106,106]]",diamond,red,vert,up,"[-150,0]","[106,106]",up,1,1.5249,,,,,,001,2025-03-10_17h39.28.884,SL_base_41,2021.2.3,Win32,59.52380952,,,13,0,13,0,1,,,,,,,,
,,"[""diamond"",""red"",""hori"",""left"",[150,0],[106,-106]]",diamond,red,hori,left,"[150,0]","[106,-106]",left,1,1.9396,,,,,,001,2025-03-10_17h39.28.884,SL_base_41,2021.2.3,Win32,59.52380952,,,14,0,14,0,1,,,,,,,,
,,"[""circle"",""no_dis"",""vert"",""up"",[99999,99999],[0,150]]",circle,no_dis,vert,up,"[99999,99999]","[0,150]",up,1,1.145,,,,,,001,2025-03-10_17h39.28.884,SL_base_41,2021.2.3,Win32,59.52380952,,,15,0,15,0,1,,,,,,,,
,,"[""diamond"",""red"",""vert"",""up"",[106,-106],[-150,0]]",diamond,red,vert,up,"[106,-106]","[-150,0]",up,1,1.25,,,,,,001,2025-03-10_17h39.28.884,SL_base_41,2021.2.3,Win32,59.52380952,,,16,0,16,0,1,,,,,,,,
,,"[""diamond"",""green"",""vert"",""up"",[-106,-106],[-150,0]]",diamond,green,vert,up,"[-106,-106]","[-150,0]",up,1,1.2876,,,,,,001,2025-03-10_17h39.28.884,SL_base_41,2021.2.3,Win32,59.52380952,,,17,0,17,0,1,,,,,,,,
,,"[""diamond"",""red"",""vert"",""up"",[-106,106],[106,106]]",diamond,red,vert,up,"[-106,106]","[106,106]",up,1,1.7102,,,,,,001,2025-03-10_17h39.28.884,SL_base_41,2021.2.3,Win32,59.52380952,,,18,0,18,0,1,,,,,,,,
,,"[""diamond"",""green"",""hori"",""left"",[0,-150],[150,0]]",diamond,green,hori,left,"[0,-150]","[150,0]",left,1,1.2791,,,,,,001,2025-03-10_17h39.28.884,SL_base_41,2021.2.3,Win32,59.52380952,,,19,0,19,0,1,,,,,,,,
,,"[""diamond"",""red"",""vert"",""up"",[-150,0],[106,-106]]",diamond,red,vert,up,"[-150,0]","[106,-106]",up,1,1.2702,,,,,,001,2025-03-10_17h39.28.884,SL_base_41,2021.2.3,Win32,59.52380952,,,20,0,20,0,1,,,,,,,,
,,"[""circle"",""no_dis"",""vert"",""up"",[99999,99999],[106,106]]",circle,no_dis,vert,up,"[99999,99999]","[106,106]",left,0,0.9807,,,,,,001,2025-03-10_17h39.28.884,SL_base_41,2021.2.3,Win32,59.52380952,,,21,0,21,0,1,,,,,,,,
,,"[""diamond"",""green"",""vert"",""up"",[-150,0],[-106,-106]]",diamond,green,vert,up,"[-150,0]","[-106,-106]",up,1,0.9697,,,,,,001,2025-03-10_17h39.28.884,SL_base_41,2021.2.3,Win32,59.52380952,,,22,0,22,0,1,,,,,,,,
,,"[""diamond"",""red"",""vert"",""up"",[0,-150],[106,-106]]",diamond,red,vert,up,"[0,-150]","[106,-106]",up,1,1.0665,,,,,,001,2025-03-10_17h39.28.884,SL_base_41,2021.2.3,Win32,59.52380952,,,23,0,23,0,1,,,,,,,,
,,"[""diamond"",""green"",""hori"",""left"",[150,0],[106,-106]]",diamond,green,hori,left,"[150,0]","[106,-106]",left,1,0.7176,,,,,,001,2025-03-10_17h39.28.884,SL_base_41,2021.2.3,Win32,59.52380952,,,24,0,24,0,1,,,,,,,,
,,"[""circle"",""green"",""hori"",""left"",[0,-150],[-150,0]]",circle,green,hori,left,"[0,-150]","[-150,0]",left,1,1.2463,,,,,,001,2025-03-10_17h39.28.884,SL_base_41,2021.2.3,Win32,59.52380952,,,25,0,25,0,1,,,,,,,,
,,"[""circle"",""no_dis"",""hori"",""left"",[99999,99999],[106,-106]]",circle,no_dis,hori,left,"[99999,99999]","[106,-106]",left,1,0.6853,,,,,,001,2025-03-10_17h39.28.884,SL_base_41,2021.2.3,Win32,59.52380952,,,26,0,26,0,1,,,,,,,,
,,"[""diamond"",""green"",""hori"",""left"",[-150,0],[0,150]]",diamond,green,hori,left,"[-150,0]","[0,150]",left,1,1.6542,,,,,,001,2025-03-10_17h39.28.884,SL_base_41,2021.2.3,Win32,59.52380952,,,27,0,27,0,1,,,,,,,,
,,"[""circle"",""green"",""vert"",""up"",[150,0],[-150,0]]",circle,green,vert,up,"[150,0]","[-150,0]",left,0,1.0836,,,,,,001,2025-03-10_17h39.28.884,SL_base_41,2021.2.3,Win32,59.52380952,,,28,0,28,0,1,,,,,,,,
,,"[""circle"",""no_dis"",""hori"",""left"",[99999,99999],[0,-150]]",circle,no_dis,hori,left,"[99999,99999]","[0,-150]",left,1,1.1569,,,,,,001,2025-03-10_17h39.28.884,SL_base_41,2021.2.3,Win32,59.52380952,,,29,0,29,0,1,,,,,,,,
,,"[""diamond"",""green"",""hori"",""left"",[150,0],[106,106]]",diamond,green,hori,left,"[150,0]","[106,106]",up,0,1.7461,,,,,,001,2025-03-10_17h39.28.884,SL_base_41,2021.2.3,Win32,59.52380952,,,30,0,30,0,1,,,,,,,,
,,"[""circle"",""green"",""hori"",""left"",[-150,0],[106,106]]",circle,green,hori,left,"[-150,0]","[106,106]",up,0,1.554,,,,,,001,2025-03-10_17h39.28.884,SL_base_41,2021.2.3,Win32,59.52380952,,,31,0,31,0,1,,,,,,,,
,,"[""circle"",""red"",""vert"",""up"",[0,150],[-106,-106]]",circle,red,vert,up,"[0,150]","[-106,-106]",left,0,1.2412,,,,,,001,2025-03-10_17h39.28.884,SL_base_41,2021.2.3,Win32,59.52380952,,,32,0,32,0,1,,,,,,,,
,,"[""circle"",""red"",""vert"",""up"",[-150,0],[106,106]]",circle,red,vert,up,"[-150,0]","[106,106]",up,1,0.933,,,,,,001,2025-03-10_17h39.28.884,SL_base_41,2021.2.3,Win32,59.52380952,,,33,0,33,0,1,,,,,,,,
,,"[""circle"",""no_dis"",""vert"",""up"",[99999,99999],[-106,-106]]",circle,no_dis,vert,up,"[99999,99999]","[-106,-106]",up,1,1.3124,,,,,,001,2025-03-10_17h39.28.884,SL_base_41,2021.2.3,Win32,59.52380952,,,34,0,34,0,1,,,,,,,,
,,"[""circle"",""green"",""hori"",""left"",[-150,0],[0,-150]]",circle,green,hori,left,"[-150,0]","[0,-150]",left,1,1.0644,,,,,,001,2025-03-10_17h39.28.884,SL_base_41,2021.2.3,Win32,59.52380952,,,35,0,35,0,1,,,,,,,,
,,"[""diamond"",""red"",""hori"",""left"",[106,106],[-106,106]]",diamond,red,hori,left,"[106,106]","[-106,106]",left,1,1.287,,,,,,001,2025-03-10_17h39.28.884,SL_base_41,2021.2.3,Win32,59.52380952,,,36,0,36,0,1,,,,,,,,
,,"[""diamond"",""red"",""hori"",""left"",[0,150],[106,106]]",diamond,red,hori,left,"[0,150]","[106,106]",left,1,1.4006,,,,,,001,2025-03-10_17h39.28.884,SL_base_41,2021.2.3,Win32,59.52380952,,,37,0,37,0,1,,,,,,,,
,,"[""circle"",""no_dis"",""hori"",""left"",[99999,99999],[-106,106]]",circle,no_dis,hori,left,"[99999,99999]","[-106,106]",left,1,1.1868,,,,,,001,2025-03-10_17h39.28.884,SL_base_41,2021.2.3,Win32,59.52380952,,,38,0,38,0,1,,,,,,,,
,,"[""circle"",""red"",""vert"",""up"",[-150,0],[0,150]]",circle,red,vert,up,"[-150,0]","[0,150]",up,1,1.1494,,,,,,001,2025-03-10_17h39.28.884,SL_base_41,2021.2.3,Win32,59.52380952,,,39,0,39,0,1,,,,,,,,
,,"[""circle"",""green"",""hori"",""left"",[-150,0],[-106,-106]]",circle,green,hori,left,"[-150,0]","[-106,-106]",left,1,1.2471,,,,,,001,2025-03-10_17h39.28.884,SL_base_41,2021.2.3,Win32,59.52380952,,,40,0,40,0,1,,,,,,,,
,,"[""diamond"",""green"",""hori"",""left"",[0,150],[-106,106]]",diamond,green,hori,left,"[0,150]","[-106,106]",left,1,2.4688,,,,,,001,2025-03-10_17h39.28.884,SL_base_41,2021.2.3,Win32,59.52380952,,,41,0,41,0,1,,,,,,,,
,,"[""circle"",""green"",""hori"",""left"",[106,-106],[-106,106]]",circle,green,hori,left,"[106,-106]","[-106,106]",left,1,1.9679,,,,,,001,2025-03-10_17h39.28.884,SL_base_41,2021.2.3,Win32,59.52380952,,,42,0,42,0,1,,,,,,,,
,,"[""circle"",""no_dis"",""hori"",""left"",[99999,99999],[-106,-106]]",circle,no_dis,hori,left,"[99999,99999]","[-106,-106]",left,1,1.1514,,,,,,001,2025-03-10_17h39.28.884,SL_base_41,2021.2.3,Win32,59.52380952,,,43,0,43,0,1,,,,,,,,
,,"[""diamond"",""green"",""hori"",""left"",[106,-106],[0,-150]]",diamond,green,hori,left,"[106,-106]","[0,-150]",left,1,2.4064,,,,,,001,2025-03-10_17h39.28.884,SL_base_41,2021.2.3,Win32,59.52380952,,,44,0,44,0,1,,,,,,,,
,,"[""diamond"",""no_dis"",""vert"",""up"",[99999,99999],[150,0]]",diamond,no_dis,vert,up,"[99999,99999]","[150,0]",up,1,0.9097,,,,,,001,2025-03-10_17h39.28.884,SL_base_41,2021.2.3,Win32,59.52380952,,,45,0,45,0,1,,,,,,,,
,,"[""diamond"",""no_dis"",""vert"",""up"",[99999,99999],[-150,0]]",diamond,no_dis,vert,up,"[99999,99999]","[-150,0]",up,1,1.0019,,,,,,001,2025-03-10_17h39.28.884,SL_base_41,2021.2.3,Win32,59.52380952,,,46,0,46,0,1,,,,,,,,
,,"[""diamond"",""green"",""hori"",""left"",[0,150],[106,106]]",diamond,green,hori,left,"[0,150]","[106,106]",left,1,1.0334,,,,,,001,2025-03-10_17h39.28.884,SL_base_41,2021.2.3,Win32,59.52380952,,,47,0,47,0,1,,,,,,,,
,,"[""diamond"",""no_dis"",""hori"",""left"",[99999,99999],[106,-106]]",diamond,no_dis,hori,left,"[99999,99999]","[106,-106]",left,1,1.3584,,,,,,001,2025-03-10_17h39.28.884,SL_base_41,2021.2.3,Win32,59.52380952,,,48,0,48,0,1,,,,,,,,
,,"[""circle"",""green"",""vert"",""up"",[-106,-106],[-150,0]]",circle,green,vert,up,"[-106,-106]","[-150,0]",up,1,1.2046,,,,,,001,2025-03-10_17h39.28.884,SL_base_41,2021.2.3,Win32,59.52380952,,,49,0,49,0,1,,,,,,,,
,,"[""circle"",""green"",""hori"",""left"",[0,-150],[-106,106]]",circle,green,hori,left,"[0,-150]","[-106,106]",left,1,1.3106,,,,,,001,2025-03-10_17h39.28.884,SL_base_41,2021.2.3,Win32,59.52380952,,,50,0,50,0,1,,,,,,,,
,,"[""circle"",""no_dis"",""hori"",""left"",[99999,99999],[106,106]]",circle,no_dis,hori,left,"[99999,99999]","[106,106]",left,1,1.6549,,,,,,001,2025-03-10_17h39.28.884,SL_base_41,2021.2.3,Win32,59.52380952,,,51,0,51,0,1,,,,,,,,
,,"[""diamond"",""no_dis"",""hori"",""left"",[99999,99999],[106,106]]",diamond,no_dis,hori,left,"[99999,99999]","[106,106]",left,1,1.2714,,,,,,001,2025-03-10_17h39.28.884,SL_base_41,2021.2.3,Win32,59.52380952,,,52,0,52,0,1,,,,,,,,
,,"[""diamond"",""green"",""vert"",""up"",[-150,0],[106,106]]",diamond,green,vert,up,"[-150,0]","[106,106]",up,1,1.8199,,,,,,001,2025-03-10_17h39.28.884,SL_base_41,2021.2.3,Win32,59.52380952,,,53,0,53,0,1,,,,,,,,
,,"[""diamond"",""green"",""hori"",""left"",[-150,0],[-106,-106]]",diamond,green,hori,left,"[-150,0]","[-106,-106]",left,1,1.5079,,,,,,001,2025-03-10_17h39.28.884,SL_base_41,2021.2.3,Win32,59.52380952,,,54,0,54,0,1,,,,,,,,
,,"[""circle"",""no_dis"",""hori"",""left"",[99999,99999],[-150,0]]",circle,no_dis,hori,left,"[99999,99999]","[-150,0]",left,1,1.5548,,,,,,001,2025-03-10_17h39.28.884,SL_base_41,2021.2.3,Win32,59.52380952,,,55,0,55,0,1,,,,,,,,
,,"[""diamond"",""red"",""hori"",""left"",[106,-106],[150,0]]",diamond,red,hori,left,"[106,-106]","[150,0]",left,1,1.3594,,,,,,001,2025-03-10_17h39.28.884,SL_base_41,2021.2.3,Win32,59.52380952,,,56,0,56,0,1,,,,,,,,
,,"[""circle"",""red"",""hori"",""left"",[-150,0],[106,106]]",circle,red,hori,left,"[-150,0]","[106,106]",left,1,1.4897,,,,,,001,2025-03-10_17h39.28.884,SL_base_41,2021.2.3,Win32,59.52380952,,,57,0,57,0,1,,,,,,,,
,,"[""circle"",""red"",""hori"",""left"",[-150,0],[106,-106]]",circle,red,hori,left,"[-150,0]","[106,-106]",left,1,1.278,,,,,,001,2025-03-10_17h39.28.884,SL_base_41,2021.2.3,Win32,59.52380952,,,58,0,58,0,1,,,,,,,,
,,"[""diamond"",""no_dis"",""vert"",""up"",[99999,99999],[106,106]]",diamond,no_dis,vert,up,"[99999,99999]","[106,106]",up,1,0.8926,,,,,,001,2025-03-10_17h39.28.884,SL_base_41,2021.2.3,Win32,59.52380952,,,59,0,59,0,1,,,,,,,,
,,"[""diamond"",""red"",""hori"",""left"",[-106,-106],[0,150]]",diamond,red,hori,left,"[-106,-106]","[0,150]",left,1,1.5711,,,,,,001,2025-03-10_17h39.28.884,SL_base_41,2021.2.3,Win32,59.52380952,,,60,0,60,0,1,,,,,,,,
,,"[""circle"",""red"",""hori"",""left"",[0,150],[-106,-106]]",circle,red,hori,left,"[0,150]","[-106,-106]",left,1,1.2317,,,,,,001,2025-03-10_17h39.28.884,SL_base_41,2021.2.3,Win32,59.52380952,,,61,0,61,0,1,,,,,,,,
