﻿key_resp.keys,key_resp.rt,trial_para,tar_shape,dis_color_condi,tar_line,cor_resp,dis_loc,tar_loc,resp.keys,resp.corr,trials.thisRepN,trials.thisTrialN,trials.thisN,trials.thisIndex,trials.ran,participant,date,expName,psychopyVersion,OS,frameRate,resp.rt,key_resp_2.keys,key_resp_2.rt,trials_2.thisRepN,trials_2.thisTrialN,trials_2.thisN,trials_2.thisIndex,trials_2.ran,block_num,key_resp_3.keys,key_resp_3.rt,trials_3.thisRepN,trials_3.thisTrialN,trials_3.thisN,trials_3.thisIndex,trials_3.ran
space,74.4632,"[""circle"",""red"",""vert"",""up"",[150,0],[-150,0]]",circle,red,vert,up,"[150,0]","[-150,0]",,0,0,0,0,0,1,001,2025-03-17_14h42.44.714,SL_base_41,2021.2.3,Win32,60.24096386,,,,,,,,,,,,,,,,
,,"[""circle"",""no_dis"",""vert"",""up"",[99999,99999],[150,0]]",circle,no_dis,vert,up,"[99999,99999]","[150,0]",left,0,1,0,1,0,1,001,2025-03-17_14h42.44.714,SL_base_41,2021.2.3,Win32,60.24096386,1.6391,,,,,,,,,,,,,,,
,,"[""diamond"",""green"",""hori"",""left"",[0,150],[-106,106]]",diamond,green,hori,left,"[0,150]","[-106,106]",left,1,2,0,2,0,1,001,2025-03-17_14h42.44.714,SL_base_41,2021.2.3,Win32,60.24096386,2.7313,,,,,,,,,,,,,,,
,,"[""diamond"",""no_dis"",""hori"",""left"",[99999,99999],[0,150]]",diamond,no_dis,hori,left,"[99999,99999]","[0,150]",left,1,3,0,3,0,1,001,2025-03-17_14h42.44.714,SL_base_41,2021.2.3,Win32,60.24096386,2.5982,,,,,,,,,,,,,,,
,,"[""diamond"",""green"",""vert"",""up"",[0,150],[0,-150]]",diamond,green,vert,up,"[0,150]","[0,-150]",up,1,4,0,4,0,1,001,2025-03-17_14h42.44.714,SL_base_41,2021.2.3,Win32,60.24096386,1.7229,,,,,,,,,,,,,,,
,,"[""diamond"",""green"",""vert"",""up"",[150,0],[-150,0]]",diamond,green,vert,up,"[150,0]","[-150,0]",up,1,5,0,5,0,1,001,2025-03-17_14h42.44.714,SL_base_41,2021.2.3,Win32,60.24096386,0.9059,,,,,,,,,,,,,,,
,,"[""diamond"",""no_dis"",""vert"",""up"",[99999,99999],[106,-106]]",diamond,no_dis,vert,up,"[99999,99999]","[106,-106]",,0,6,0,6,0,1,001,2025-03-17_14h42.44.714,SL_base_41,2021.2.3,Win32,60.24096386,,,,,,,,,,,,,,,,
,,"[""diamond"",""green"",""vert"",""up"",[-150,0],[106,-106]]",diamond,green,vert,up,"[-150,0]","[106,-106]",left,0,7,0,7,0,1,001,2025-03-17_14h42.44.714,SL_base_41,2021.2.3,Win32,60.24096386,1.7462,,,,,,,,,,,,,,,
,,"[""circle"",""green"",""hori"",""left"",[106,106],[106,-106]]",circle,green,hori,left,"[106,106]","[106,-106]",left,1,8,0,8,0,1,001,2025-03-17_14h42.44.714,SL_base_41,2021.2.3,Win32,60.24096386,1.7688,,,,,,,,,,,,,,,
,,"[""circle"",""green"",""hori"",""left"",[-150,0],[106,-106]]",circle,green,hori,left,"[-150,0]","[106,-106]",left,1,9,0,9,0,1,001,2025-03-17_14h42.44.714,SL_base_41,2021.2.3,Win32,60.24096386,2.539,,,,,,,,,,,,,,,
,,"[""circle"",""red"",""vert"",""up"",[150,0],[-150,0]]",circle,red,vert,up,"[150,0]","[-150,0]",left,0,,,,,,001,2025-03-17_14h42.44.714,SL_base_41,2021.2.3,Win32,60.24096386,2.1852,space,13.6001,0,0,0,0,1,,,,,,,,
,,"[""circle"",""no_dis"",""vert"",""up"",[99999,99999],[150,0]]",circle,no_dis,vert,up,"[99999,99999]","[150,0]",up,1,,,,,,001,2025-03-17_14h42.44.714,SL_base_41,2021.2.3,Win32,60.24096386,2.1058,,,1,0,1,0,1,,,,,,,,
,,"[""diamond"",""green"",""hori"",""left"",[0,150],[-106,106]]",diamond,green,hori,left,"[0,150]","[-106,106]",,0,,,,,,001,2025-03-17_14h42.44.714,SL_base_41,2021.2.3,Win32,60.24096386,,,,2,0,2,0,1,,,,,,,,
,,"[""diamond"",""no_dis"",""hori"",""left"",[99999,99999],[0,150]]",diamond,no_dis,hori,left,"[99999,99999]","[0,150]",left,1,,,,,,001,2025-03-17_14h42.44.714,SL_base_41,2021.2.3,Win32,60.24096386,2.6472,,,3,0,3,0,1,,,,,,,,
,,"[""diamond"",""green"",""vert"",""up"",[0,150],[0,-150]]",diamond,green,vert,up,"[0,150]","[0,-150]",up,1,,,,,,001,2025-03-17_14h42.44.714,SL_base_41,2021.2.3,Win32,60.24096386,1.914,,,4,0,4,0,1,,,,,,,,
,,"[""diamond"",""green"",""vert"",""up"",[150,0],[-150,0]]",diamond,green,vert,up,"[150,0]","[-150,0]",up,1,,,,,,001,2025-03-17_14h42.44.714,SL_base_41,2021.2.3,Win32,60.24096386,2.0653,,,5,0,5,0,1,,,,,,,,
,,"[""diamond"",""no_dis"",""vert"",""up"",[99999,99999],[106,-106]]",diamond,no_dis,vert,up,"[99999,99999]","[106,-106]",up,1,,,,,,001,2025-03-17_14h42.44.714,SL_base_41,2021.2.3,Win32,60.24096386,1.9613,,,6,0,6,0,1,,,,,,,,
,,"[""diamond"",""green"",""vert"",""up"",[-150,0],[106,-106]]",diamond,green,vert,up,"[-150,0]","[106,-106]",up,1,,,,,,001,2025-03-17_14h42.44.714,SL_base_41,2021.2.3,Win32,60.24096386,2.2626,,,7,0,7,0,1,,,,,,,,
,,"[""circle"",""green"",""hori"",""left"",[106,106],[106,-106]]",circle,green,hori,left,"[106,106]","[106,-106]",left,1,,,,,,001,2025-03-17_14h42.44.714,SL_base_41,2021.2.3,Win32,60.24096386,1.5354,,,8,0,8,0,1,,,,,,,,
,,"[""circle"",""green"",""hori"",""left"",[-150,0],[106,-106]]",circle,green,hori,left,"[-150,0]","[106,-106]",up,0,,,,,,001,2025-03-17_14h42.44.714,SL_base_41,2021.2.3,Win32,60.24096386,2.403,,,9,0,9,0,1,,,,,,,,
,,"[""circle"",""no_dis"",""vert"",""up"",[99999,99999],[106,106]]",circle,no_dis,vert,up,"[99999,99999]","[106,106]",up,1,,,,,,001,2025-03-17_14h42.44.714,SL_base_41,2021.2.3,Win32,60.24096386,2.0488,,,10,0,10,0,1,,,,,,,,
,,"[""circle"",""no_dis"",""vert"",""up"",[99999,99999],[0,150]]",circle,no_dis,vert,up,"[99999,99999]","[0,150]",up,1,,,,,,001,2025-03-17_14h42.44.714,SL_base_41,2021.2.3,Win32,60.24096386,2.0567,,,11,0,11,0,1,,,,,,,,
,,"[""circle"",""no_dis"",""hori"",""left"",[99999,99999],[-150,0]]",circle,no_dis,hori,left,"[99999,99999]","[-150,0]",left,1,,,,,,001,2025-03-17_14h42.44.714,SL_base_41,2021.2.3,Win32,60.24096386,1.2945,,,12,0,12,0,1,,,,,,,,
,,"[""circle"",""red"",""hori"",""left"",[-106,-106],[-106,106]]",circle,red,hori,left,"[-106,-106]","[-106,106]",,0,,,,,,001,2025-03-17_14h42.44.714,SL_base_41,2021.2.3,Win32,60.24096386,,,,13,0,13,0,1,,,,,,,,
,,"[""diamond"",""red"",""vert"",""up"",[0,-150],[-150,0]]",diamond,red,vert,up,"[0,-150]","[-150,0]",up,1,,,,,,001,2025-03-17_14h42.44.714,SL_base_41,2021.2.3,Win32,60.24096386,1.8041,,,14,0,14,0,1,,,,,,,,
,,"[""circle"",""green"",""vert"",""up"",[-106,106],[106,106]]",circle,green,vert,up,"[-106,106]","[106,106]",up,1,,,,,,001,2025-03-17_14h42.44.714,SL_base_41,2021.2.3,Win32,60.24096386,2.58,,,15,0,15,0,1,,,,,,,,
,,"[""circle"",""red"",""hori"",""left"",[150,0],[-106,-106]]",circle,red,hori,left,"[150,0]","[-106,-106]",,0,,,,,,001,2025-03-17_14h42.44.714,SL_base_41,2021.2.3,Win32,60.24096386,,,,16,0,16,0,1,,,,,,,,
,,"[""diamond"",""green"",""vert"",""up"",[-150,0],[150,0]]",diamond,green,vert,up,"[-150,0]","[150,0]",up,1,,,,,,001,2025-03-17_14h42.44.714,SL_base_41,2021.2.3,Win32,60.24096386,1.7152,,,17,0,17,0,1,,,,,,,,
,,"[""diamond"",""no_dis"",""hori"",""left"",[99999,99999],[106,-106]]",diamond,no_dis,hori,left,"[99999,99999]","[106,-106]",left,1,,,,,,001,2025-03-17_14h42.44.714,SL_base_41,2021.2.3,Win32,60.24096386,1.5006,,,18,0,18,0,1,,,,,,,,
,,"[""circle"",""red"",""hori"",""left"",[-106,106],[106,-106]]",circle,red,hori,left,"[-106,106]","[106,-106]",up,0,,,,,,001,2025-03-17_14h42.44.714,SL_base_41,2021.2.3,Win32,60.24096386,2.2026,,,19,0,19,0,1,,,,,,,,
,,"[""diamond"",""no_dis"",""vert"",""up"",[99999,99999],[0,-150]]",diamond,no_dis,vert,up,"[99999,99999]","[0,-150]",up,1,,,,,,001,2025-03-17_14h42.44.714,SL_base_41,2021.2.3,Win32,60.24096386,2.4222,,,20,0,20,0,1,,,,,,,,
,,"[""circle"",""no_dis"",""hori"",""left"",[99999,99999],[-106,-106]]",circle,no_dis,hori,left,"[99999,99999]","[-106,-106]",left,1,,,,,,001,2025-03-17_14h42.44.714,SL_base_41,2021.2.3,Win32,60.24096386,1.7599,,,21,0,21,0,1,,,,,,,,
,,"[""circle"",""red"",""vert"",""up"",[-150,0],[0,150]]",circle,red,vert,up,"[-150,0]","[0,150]",left,0,,,,,,001,2025-03-17_14h42.44.714,SL_base_41,2021.2.3,Win32,60.24096386,2.1049,,,22,0,22,0,1,,,,,,,,
,,"[""diamond"",""green"",""vert"",""up"",[-150,0],[150,0]]",diamond,green,vert,up,"[-150,0]","[150,0]",up,1,,,,,,001,2025-03-17_14h42.44.714,SL_base_41,2021.2.3,Win32,60.24096386,1.4485,,,23,0,23,0,1,,,,,,,,
,,"[""diamond"",""green"",""hori"",""left"",[-150,0],[0,-150]]",diamond,green,hori,left,"[-150,0]","[0,-150]",left,1,,,,,,001,2025-03-17_14h42.44.714,SL_base_41,2021.2.3,Win32,60.24096386,2.4196,,,24,0,24,0,1,,,,,,,,
,,"[""circle"",""no_dis"",""hori"",""left"",[99999,99999],[-150,0]]",circle,no_dis,hori,left,"[99999,99999]","[-150,0]",up,0,,,,,,001,2025-03-17_14h42.44.714,SL_base_41,2021.2.3,Win32,60.24096386,1.6605,,,25,0,25,0,1,,,,,,,,
,,"[""circle"",""red"",""hori"",""left"",[-150,0],[-106,106]]",circle,red,hori,left,"[-150,0]","[-106,106]",up,0,,,,,,001,2025-03-17_14h42.44.714,SL_base_41,2021.2.3,Win32,60.24096386,2.4357,,,26,0,26,0,1,,,,,,,,
,,"[""diamond"",""green"",""vert"",""up"",[106,-106],[-150,0]]",diamond,green,vert,up,"[106,-106]","[-150,0]",up,1,,,,,,001,2025-03-17_14h42.44.714,SL_base_41,2021.2.3,Win32,60.24096386,2.3189,,,27,0,27,0,1,,,,,,,,
,,"[""circle"",""no_dis"",""vert"",""up"",[99999,99999],[106,106]]",circle,no_dis,vert,up,"[99999,99999]","[106,106]",up,1,,,,,,001,2025-03-17_14h42.44.714,SL_base_41,2021.2.3,Win32,60.24096386,2.0213,,,28,0,28,0,1,,,,,,,,
,,"[""diamond"",""green"",""hori"",""left"",[0,150],[106,-106]]",diamond,green,hori,left,"[0,150]","[106,-106]",left,1,,,,,,001,2025-03-17_14h42.44.714,SL_base_41,2021.2.3,Win32,60.24096386,1.5654,,,29,0,29,0,1,,,,,,,,
,,"[""circle"",""no_dis"",""hori"",""left"",[99999,99999],[106,-106]]",circle,no_dis,hori,left,"[99999,99999]","[106,-106]",left,1,,,,,,001,2025-03-17_14h42.44.714,SL_base_41,2021.2.3,Win32,60.24096386,1.4106,,,30,0,30,0,1,,,,,,,,
,,"[""diamond"",""red"",""hori"",""left"",[150,0],[-106,-106]]",diamond,red,hori,left,"[150,0]","[-106,-106]",left,1,,,,,,001,2025-03-17_14h42.44.714,SL_base_41,2021.2.3,Win32,60.24096386,2.0973,,,31,0,31,0,1,,,,,,,,
,,"[""circle"",""red"",""hori"",""left"",[-106,106],[-150,0]]",circle,red,hori,left,"[-106,106]","[-150,0]",left,1,,,,,,001,2025-03-17_14h42.44.714,SL_base_41,2021.2.3,Win32,60.24096386,1.8653,,,32,0,32,0,1,,,,,,,,
,,"[""circle"",""no_dis"",""vert"",""up"",[99999,99999],[0,150]]",circle,no_dis,vert,up,"[99999,99999]","[0,150]",up,1,,,,,,001,2025-03-17_14h42.44.714,SL_base_41,2021.2.3,Win32,60.24096386,2.8956,,,33,0,33,0,1,,,,,,,,
,,"[""diamond"",""no_dis"",""hori"",""left"",[99999,99999],[106,-106]]",diamond,no_dis,hori,left,"[99999,99999]","[106,-106]",left,1,,,,,,001,2025-03-17_14h42.44.714,SL_base_41,2021.2.3,Win32,60.24096386,1.4475,,,34,0,34,0,1,,,,,,,,
,,"[""diamond"",""red"",""vert"",""up"",[0,-150],[-150,0]]",diamond,red,vert,up,"[0,-150]","[-150,0]",up,1,,,,,,001,2025-03-17_14h42.44.714,SL_base_41,2021.2.3,Win32,60.24096386,2.0057,,,35,0,35,0,1,,,,,,,,
,,"[""diamond"",""red"",""hori"",""left"",[-150,0],[0,150]]",diamond,red,hori,left,"[-150,0]","[0,150]",left,1,,,,,,001,2025-03-17_14h42.44.714,SL_base_41,2021.2.3,Win32,60.24096386,2.0464,,,36,0,36,0,1,,,,,,,,
,,"[""circle"",""red"",""vert"",""up"",[0,-150],[106,-106]]",circle,red,vert,up,"[0,-150]","[106,-106]",up,1,,,,,,001,2025-03-17_14h42.44.714,SL_base_41,2021.2.3,Win32,60.24096386,2.5403,,,37,0,37,0,1,,,,,,,,
,,"[""circle"",""red"",""vert"",""up"",[-150,0],[-106,-106]]",circle,red,vert,up,"[-150,0]","[-106,-106]",,0,,,,,,001,2025-03-17_14h42.44.714,SL_base_41,2021.2.3,Win32,60.24096386,,,,38,0,38,0,1,,,,,,,,
,,"[""diamond"",""green"",""hori"",""left"",[106,-106],[106,106]]",diamond,green,hori,left,"[106,-106]","[106,106]",left,1,,,,,,001,2025-03-17_14h42.44.714,SL_base_41,2021.2.3,Win32,60.24096386,1.9819,,,39,0,39,0,1,,,,,,,,
,,"[""diamond"",""green"",""vert"",""up"",[0,150],[0,-150]]",diamond,green,vert,up,"[0,150]","[0,-150]",up,1,,,,,,001,2025-03-17_14h42.44.714,SL_base_41,2021.2.3,Win32,60.24096386,1.4297,,,40,0,40,0,1,,,,,,,,
,,"[""circle"",""red"",""vert"",""up"",[-150,0],[-106,-106]]",circle,red,vert,up,"[-150,0]","[-106,-106]",left,0,,,,,,001,2025-03-17_14h42.44.714,SL_base_41,2021.2.3,Win32,60.24096386,2.7489,,,41,0,41,0,1,,,,,,,,
,,"[""diamond"",""no_dis"",""vert"",""up"",[99999,99999],[-106,106]]",diamond,no_dis,vert,up,"[99999,99999]","[-106,106]",,0,,,,,,001,2025-03-17_14h42.44.714,SL_base_41,2021.2.3,Win32,60.24096386,,,,42,0,42,0,1,,,,,,,,
,,"[""circle"",""green"",""vert"",""up"",[-150,0],[0,150]]",circle,green,vert,up,"[-150,0]","[0,150]",up,1,,,,,,001,2025-03-17_14h42.44.714,SL_base_41,2021.2.3,Win32,60.24096386,1.9666,,,43,0,43,0,1,,,,,,,,
,,"[""diamond"",""green"",""vert"",""up"",[-150,0],[150,0]]",diamond,green,vert,up,"[-150,0]","[150,0]",up,1,,,,,,001,2025-03-17_14h42.44.714,SL_base_41,2021.2.3,Win32,60.24096386,1.6552,,,44,0,44,0,1,,,,,,,,
,,"[""diamond"",""green"",""vert"",""up"",[106,-106],[106,106]]",diamond,green,vert,up,"[106,-106]","[106,106]",up,1,,,,,,001,2025-03-17_14h42.44.714,SL_base_41,2021.2.3,Win32,60.24096386,1.3823,,,45,0,45,0,1,,,,,,,,
,,"[""circle"",""green"",""hori"",""left"",[-150,0],[106,-106]]",circle,green,hori,left,"[-150,0]","[106,-106]",left,1,,,,,,001,2025-03-17_14h42.44.714,SL_base_41,2021.2.3,Win32,60.24096386,1.8989,,,46,0,46,0,1,,,,,,,,
,,"[""diamond"",""red"",""hori"",""left"",[106,-106],[150,0]]",diamond,red,hori,left,"[106,-106]","[150,0]",left,1,,,,,,001,2025-03-17_14h42.44.714,SL_base_41,2021.2.3,Win32,60.24096386,1.848,,,47,0,47,0,1,,,,,,,,
,,"[""diamond"",""green"",""hori"",""left"",[-150,0],[150,0]]",diamond,green,hori,left,"[-150,0]","[150,0]",left,1,,,,,,001,2025-03-17_14h42.44.714,SL_base_41,2021.2.3,Win32,60.24096386,1.6318,,,48,0,48,0,1,,,,,,,,
,,"[""circle"",""green"",""vert"",""up"",[-106,-106],[150,0]]",circle,green,vert,up,"[-106,-106]","[150,0]",up,1,,,,,,001,2025-03-17_14h42.44.714,SL_base_41,2021.2.3,Win32,60.24096386,1.4037,,,49,0,49,0,1,,,,,,,,
,,"[""circle"",""green"",""vert"",""up"",[-106,106],[0,-150]]",circle,green,vert,up,"[-106,106]","[0,-150]",up,1,,,,,,001,2025-03-17_14h42.44.714,SL_base_41,2021.2.3,Win32,60.24096386,1.6763,,,50,0,50,0,1,,,,,,,,
,,"[""circle"",""no_dis"",""vert"",""up"",[99999,99999],[-150,0]]",circle,no_dis,vert,up,"[99999,99999]","[-150,0]",up,1,,,,,,001,2025-03-17_14h42.44.714,SL_base_41,2021.2.3,Win32,60.24096386,1.063,,,51,0,51,0,1,,,,,,,,
,,"[""diamond"",""red"",""hori"",""left"",[-150,0],[150,0]]",diamond,red,hori,left,"[-150,0]","[150,0]",up,0,,,,,,001,2025-03-17_14h42.44.714,SL_base_41,2021.2.3,Win32,60.24096386,1.8189,,,52,0,52,0,1,,,,,,,,
,,"[""diamond"",""green"",""hori"",""left"",[-150,0],[106,106]]",diamond,green,hori,left,"[-150,0]","[106,106]",left,1,,,,,,001,2025-03-17_14h42.44.714,SL_base_41,2021.2.3,Win32,60.24096386,1.769,,,53,0,53,0,1,,,,,,,,
,,"[""circle"",""no_dis"",""hori"",""left"",[99999,99999],[-106,106]]",circle,no_dis,hori,left,"[99999,99999]","[-106,106]",left,1,,,,,,001,2025-03-17_14h42.44.714,SL_base_41,2021.2.3,Win32,60.24096386,1.4284,,,54,0,54,0,1,,,,,,,,
,,"[""diamond"",""red"",""vert"",""up"",[-150,0],[106,106]]",diamond,red,vert,up,"[-150,0]","[106,106]",up,1,,,,,,001,2025-03-17_14h42.44.714,SL_base_41,2021.2.3,Win32,60.24096386,2.1931,,,55,0,55,0,1,,,,,,,,
,,"[""diamond"",""red"",""hori"",""left"",[-106,-106],[106,-106]]",diamond,red,hori,left,"[-106,-106]","[106,-106]",up,0,,,,,,001,2025-03-17_14h42.44.714,SL_base_41,2021.2.3,Win32,60.24096386,1.8224,,,56,0,56,0,1,,,,,,,,
,,"[""circle"",""no_dis"",""hori"",""left"",[99999,99999],[0,150]]",circle,no_dis,hori,left,"[99999,99999]","[0,150]",left,1,,,,,,001,2025-03-17_14h42.44.714,SL_base_41,2021.2.3,Win32,60.24096386,2.6487,,,57,0,57,0,1,,,,,,,,
,,"[""diamond"",""no_dis"",""hori"",""left"",[99999,99999],[150,0]]",diamond,no_dis,hori,left,"[99999,99999]","[150,0]",left,1,,,,,,001,2025-03-17_14h42.44.714,SL_base_41,2021.2.3,Win32,60.24096386,2.0975,,,58,0,58,0,1,,,,,,,,
,,"[""diamond"",""red"",""hori"",""left"",[150,0],[106,106]]",diamond,red,hori,left,"[150,0]","[106,106]",left,1,,,,,,001,2025-03-17_14h42.44.714,SL_base_41,2021.2.3,Win32,60.24096386,1.8967,,,59,0,59,0,1,,,,,,,,
,,"[""circle"",""no_dis"",""vert"",""up"",[99999,99999],[150,0]]",circle,no_dis,vert,up,"[99999,99999]","[150,0]",left,0,,,,,,001,2025-03-17_14h42.44.714,SL_base_41,2021.2.3,Win32,60.24096386,1.983,,,60,0,60,0,1,,,,,,,,
,,"[""diamond"",""green"",""hori"",""left"",[-106,106],[150,0]]",diamond,green,hori,left,"[-106,106]","[150,0]",left,1,,,,,,001,2025-03-17_14h42.44.714,SL_base_41,2021.2.3,Win32,60.24096386,2.2453,,,61,0,61,0,1,,,,,,,,
,,"[""circle"",""green"",""hori"",""left"",[-150,0],[150,0]]",circle,green,hori,left,"[-150,0]","[150,0]",left,1,,,,,,001,2025-03-17_14h42.44.714,SL_base_41,2021.2.3,Win32,60.24096386,2.546,,,62,0,62,0,1,,,,,,,,
,,"[""circle"",""no_dis"",""hori"",""left"",[99999,99999],[-106,106]]",circle,no_dis,hori,left,"[99999,99999]","[-106,106]",left,1,,,,,,001,2025-03-17_14h42.44.714,SL_base_41,2021.2.3,Win32,60.24096386,1.549,,,63,0,63,0,1,,,,,,,,
,,"[""circle"",""red"",""hori"",""left"",[106,-106],[-106,-106]]",circle,red,hori,left,"[106,-106]","[-106,-106]",left,1,,,,,,001,2025-03-17_14h42.44.714,SL_base_41,2021.2.3,Win32,60.24096386,1.5514,,,64,0,64,0,1,,,,,,,,
,,"[""circle"",""green"",""vert"",""up"",[-150,0],[106,-106]]",circle,green,vert,up,"[-150,0]","[106,-106]",up,1,,,,,,001,2025-03-17_14h42.44.714,SL_base_41,2021.2.3,Win32,60.24096386,1.6862,,,65,0,65,0,1,,,,,,,,
,,"[""circle"",""red"",""hori"",""left"",[0,150],[-150,0]]",circle,red,hori,left,"[0,150]","[-150,0]",left,1,,,,,,001,2025-03-17_14h42.44.714,SL_base_41,2021.2.3,Win32,60.24096386,1.7099,,,66,0,66,0,1,,,,,,,,
,,"[""diamond"",""no_dis"",""vert"",""up"",[99999,99999],[-106,-106]]",diamond,no_dis,vert,up,"[99999,99999]","[-106,-106]",up,1,,,,,,001,2025-03-17_14h42.44.714,SL_base_41,2021.2.3,Win32,60.24096386,1.7455,,,67,0,67,0,1,,,,,,,,
,,"[""diamond"",""green"",""vert"",""up"",[-150,0],[-106,106]]",diamond,green,vert,up,"[-150,0]","[-106,106]",up,1,,,,,,001,2025-03-17_14h42.44.714,SL_base_41,2021.2.3,Win32,60.24096386,1.6808,,,68,0,68,0,1,,,,,,,,
,,"[""diamond"",""no_dis"",""hori"",""left"",[99999,99999],[106,106]]",diamond,no_dis,hori,left,"[99999,99999]","[106,106]",left,1,,,,,,001,2025-03-17_14h42.44.714,SL_base_41,2021.2.3,Win32,60.24096386,1.9062,,,69,0,69,0,1,,,,,,,,
,,"[""circle"",""green"",""vert"",""up"",[-106,-106],[-150,0]]",circle,green,vert,up,"[-106,-106]","[-150,0]",up,1,,,,,,001,2025-03-17_14h42.44.714,SL_base_41,2021.2.3,Win32,60.24096386,1.4593,,,70,0,70,0,1,,,,,,,,
,,"[""diamond"",""green"",""hori"",""left"",[0,150],[-106,106]]",diamond,green,hori,left,"[0,150]","[-106,106]",left,1,,,,,,001,2025-03-17_14h42.44.714,SL_base_41,2021.2.3,Win32,60.24096386,1.7144,,,71,0,71,0,1,,,,,,,,
,,"[""circle"",""green"",""hori"",""left"",[106,-106],[0,-150]]",circle,green,hori,left,"[106,-106]","[0,-150]",left,1,,,,,,001,2025-03-17_14h42.44.714,SL_base_41,2021.2.3,Win32,60.24096386,1.5594,,,72,0,72,0,1,,,,,,,,
,,"[""diamond"",""no_dis"",""hori"",""left"",[99999,99999],[0,-150]]",diamond,no_dis,hori,left,"[99999,99999]","[0,-150]",left,1,,,,,,001,2025-03-17_14h42.44.714,SL_base_41,2021.2.3,Win32,60.24096386,1.819,,,73,0,73,0,1,,,,,,,,
,,"[""circle"",""green"",""hori"",""left"",[-150,0],[150,0]]",circle,green,hori,left,"[-150,0]","[150,0]",left,1,,,,,,001,2025-03-17_14h42.44.714,SL_base_41,2021.2.3,Win32,60.24096386,1.8126,,,74,0,74,0,1,,,,,,,,
,,"[""diamond"",""no_dis"",""hori"",""left"",[99999,99999],[0,-150]]",diamond,no_dis,hori,left,"[99999,99999]","[0,-150]",left,1,,,,,,001,2025-03-17_14h42.44.714,SL_base_41,2021.2.3,Win32,60.24096386,1.1104,,,75,0,75,0,1,,,,,,,,
,,"[""circle"",""green"",""vert"",""up"",[106,106],[-150,0]]",circle,green,vert,up,"[106,106]","[-150,0]",up,1,,,,,,001,2025-03-17_14h42.44.714,SL_base_41,2021.2.3,Win32,60.24096386,1.6694,,,76,0,76,0,1,,,,,,,,
,,"[""circle"",""green"",""vert"",""up"",[-150,0],[0,-150]]",circle,green,vert,up,"[-150,0]","[0,-150]",up,1,,,,,,001,2025-03-17_14h42.44.714,SL_base_41,2021.2.3,Win32,60.24096386,1.684,,,77,0,77,0,1,,,,,,,,
,,"[""circle"",""green"",""hori"",""left"",[-150,0],[150,0]]",circle,green,hori,left,"[-150,0]","[150,0]",left,1,,,,,,001,2025-03-17_14h42.44.714,SL_base_41,2021.2.3,Win32,60.24096386,1.2339,,,78,0,78,0,1,,,,,,,,
,,"[""diamond"",""green"",""hori"",""left"",[106,106],[106,-106]]",diamond,green,hori,left,"[106,106]","[106,-106]",up,0,,,,,,001,2025-03-17_14h42.44.714,SL_base_41,2021.2.3,Win32,60.24096386,2.9286,,,79,0,79,0,1,,,,,,,,
,,"[""circle"",""no_dis"",""hori"",""left"",[99999,99999],[0,-150]]",circle,no_dis,hori,left,"[99999,99999]","[0,-150]",left,1,,,,,,001,2025-03-17_14h42.44.714,SL_base_41,2021.2.3,Win32,60.24096386,2.5242,,,80,0,80,0,1,,,,,,,,
,,"[""diamond"",""red"",""vert"",""up"",[0,-150],[-150,0]]",diamond,red,vert,up,"[0,-150]","[-150,0]",up,1,,,,,,001,2025-03-17_14h42.44.714,SL_base_41,2021.2.3,Win32,60.24096386,1.5875,,,81,0,81,0,1,,,,,,,,
,,"[""diamond"",""no_dis"",""vert"",""up"",[99999,99999],[106,106]]",diamond,no_dis,vert,up,"[99999,99999]","[106,106]",up,1,,,,,,001,2025-03-17_14h42.44.714,SL_base_41,2021.2.3,Win32,60.24096386,1.6632,,,82,0,82,0,1,,,,,,,,
,,"[""diamond"",""red"",""vert"",""up"",[106,-106],[0,-150]]",diamond,red,vert,up,"[106,-106]","[0,-150]",up,1,,,,,,001,2025-03-17_14h42.44.714,SL_base_41,2021.2.3,Win32,60.24096386,1.179,,,83,0,83,0,1,,,,,,,,
,,"[""circle"",""red"",""hori"",""left"",[0,-150],[106,-106]]",circle,red,hori,left,"[0,-150]","[106,-106]",left,1,,,,,,001,2025-03-17_14h42.44.714,SL_base_41,2021.2.3,Win32,60.24096386,1.4831,,,84,0,84,0,1,,,,,,,,
,,"[""circle"",""green"",""hori"",""left"",[150,0],[-106,-106]]",circle,green,hori,left,"[150,0]","[-106,-106]",left,1,,,,,,001,2025-03-17_14h42.44.714,SL_base_41,2021.2.3,Win32,60.24096386,1.646,,,85,0,85,0,1,,,,,,,,
,,"[""diamond"",""red"",""vert"",""up"",[-150,0],[-106,-106]]",diamond,red,vert,up,"[-150,0]","[-106,-106]",up,1,,,,,,001,2025-03-17_14h42.44.714,SL_base_41,2021.2.3,Win32,60.24096386,1.7945,,,86,0,86,0,1,,,,,,,,
,,"[""circle"",""green"",""hori"",""left"",[0,-150],[-106,106]]",circle,green,hori,left,"[0,-150]","[-106,106]",left,1,,,,,,001,2025-03-17_14h42.44.714,SL_base_41,2021.2.3,Win32,60.24096386,2.0726,,,87,0,87,0,1,,,,,,,,
,,"[""circle"",""no_dis"",""hori"",""left"",[99999,99999],[-106,106]]",circle,no_dis,hori,left,"[99999,99999]","[-106,106]",left,1,,,,,,001,2025-03-17_14h42.44.714,SL_base_41,2021.2.3,Win32,60.24096386,1.089,,,88,0,88,0,1,,,,,,,,
,,"[""diamond"",""no_dis"",""vert"",""up"",[99999,99999],[-150,0]]",diamond,no_dis,vert,up,"[99999,99999]","[-150,0]",up,1,,,,,,001,2025-03-17_14h42.44.714,SL_base_41,2021.2.3,Win32,60.24096386,1.819,,,89,0,89,0,1,,,,,,,,
,,"[""diamond"",""no_dis"",""vert"",""up"",[99999,99999],[150,0]]",diamond,no_dis,vert,up,"[99999,99999]","[150,0]",up,1,,,,,,001,2025-03-17_14h42.44.714,SL_base_41,2021.2.3,Win32,60.24096386,0.9372,,,90,0,90,0,1,,,,,,,,
,,"[""circle"",""red"",""vert"",""up"",[-150,0],[150,0]]",circle,red,vert,up,"[-150,0]","[150,0]",left,0,,,,,,001,2025-03-17_14h42.44.714,SL_base_41,2021.2.3,Win32,60.24096386,1.8975,,,91,0,91,0,1,,,,,,,,
,,"[""circle"",""green"",""vert"",""up"",[106,106],[106,-106]]",circle,green,vert,up,"[106,106]","[106,-106]",up,1,,,,,,001,2025-03-17_14h42.44.714,SL_base_41,2021.2.3,Win32,60.24096386,2.113,,,92,0,92,0,1,,,,,,,,
,,"[""circle"",""red"",""vert"",""up"",[-150,0],[106,-106]]",circle,red,vert,up,"[-150,0]","[106,-106]",up,1,,,,,,001,2025-03-17_14h42.44.714,SL_base_41,2021.2.3,Win32,60.24096386,1.3784,,,93,0,93,0,1,,,,,,,,
,,"[""diamond"",""no_dis"",""vert"",""up"",[99999,99999],[-106,-106]]",diamond,no_dis,vert,up,"[99999,99999]","[-106,-106]",up,1,,,,,,001,2025-03-17_14h42.44.714,SL_base_41,2021.2.3,Win32,60.24096386,1.6035,,,94,0,94,0,1,,,,,,,,
,,"[""circle"",""green"",""vert"",""up"",[150,0],[106,-106]]",circle,green,vert,up,"[150,0]","[106,-106]",up,1,,,,,,001,2025-03-17_14h42.44.714,SL_base_41,2021.2.3,Win32,60.24096386,1.7307,,,95,0,95,0,1,,,,,,,,
,,"[""diamond"",""red"",""hori"",""left"",[-150,0],[106,106]]",diamond,red,hori,left,"[-150,0]","[106,106]",left,1,,,,,,001,2025-03-17_14h42.44.714,SL_base_41,2021.2.3,Win32,60.24096386,2.3609,,,96,0,96,0,1,,,,,,,,
,,"[""circle"",""red"",""hori"",""left"",[106,106],[106,-106]]",circle,red,hori,left,"[106,106]","[106,-106]",left,1,,,,,,001,2025-03-17_14h42.44.714,SL_base_41,2021.2.3,Win32,60.24096386,1.6202,,,97,0,97,0,1,,,,,,,,
,,"[""diamond"",""no_dis"",""hori"",""left"",[99999,99999],[-106,-106]]",diamond,no_dis,hori,left,"[99999,99999]","[-106,-106]",left,1,,,,,,001,2025-03-17_14h42.44.714,SL_base_41,2021.2.3,Win32,60.24096386,2.1721,,,98,0,98,0,1,,,,,,,,
,,"[""diamond"",""red"",""vert"",""up"",[-106,106],[0,-150]]",diamond,red,vert,up,"[-106,106]","[0,-150]",up,1,,,,,,001,2025-03-17_14h42.44.714,SL_base_41,2021.2.3,Win32,60.24096386,1.5982,,,99,0,99,0,1,,,,,,,,
,,"[""circle"",""no_dis"",""vert"",""up"",[99999,99999],[0,150]]",circle,no_dis,vert,up,"[99999,99999]","[0,150]",up,1,,,,,,001,2025-03-17_14h42.44.714,SL_base_41,2021.2.3,Win32,60.24096386,1.5858,,,100,0,100,0,1,,,,,,,,
,,"[""diamond"",""no_dis"",""hori"",""left"",[99999,99999],[-106,106]]",diamond,no_dis,hori,left,"[99999,99999]","[-106,106]",left,1,,,,,,001,2025-03-17_14h42.44.714,SL_base_41,2021.2.3,Win32,60.24096386,1.6009,,,101,0,101,0,1,,,,,,,,
,,"[""diamond"",""red"",""hori"",""left"",[0,-150],[106,106]]",diamond,red,hori,left,"[0,-150]","[106,106]",left,1,,,,,,001,2025-03-17_14h42.44.714,SL_base_41,2021.2.3,Win32,60.24096386,2.0721,,,102,0,102,0,1,,,,,,,,
,,"[""circle"",""red"",""vert"",""up"",[106,106],[106,-106]]",circle,red,vert,up,"[106,106]","[106,-106]",up,1,,,,,,001,2025-03-17_14h42.44.714,SL_base_41,2021.2.3,Win32,60.24096386,2.2846,,,103,0,103,0,1,,,,,,,,
,,"[""circle"",""green"",""hori"",""left"",[-106,106],[-106,-106]]",circle,green,hori,left,"[-106,106]","[-106,-106]",left,1,,,,,,001,2025-03-17_14h42.44.714,SL_base_41,2021.2.3,Win32,60.24096386,1.2406,,,104,0,104,0,1,,,,,,,,
,,"[""diamond"",""no_dis"",""hori"",""left"",[99999,99999],[0,-150]]",diamond,no_dis,hori,left,"[99999,99999]","[0,-150]",left,1,,,,,,001,2025-03-17_14h42.44.714,SL_base_41,2021.2.3,Win32,60.24096386,1.6741,,,105,0,105,0,1,,,,,,,,
,,"[""diamond"",""red"",""vert"",""up"",[106,106],[0,150]]",diamond,red,vert,up,"[106,106]","[0,150]",up,1,,,,,,001,2025-03-17_14h42.44.714,SL_base_41,2021.2.3,Win32,60.24096386,1.946,,,106,0,106,0,1,,,,,,,,
,,"[""diamond"",""red"",""vert"",""up"",[0,150],[-106,-106]]",diamond,red,vert,up,"[0,150]","[-106,-106]",up,1,,,,,,001,2025-03-17_14h42.44.714,SL_base_41,2021.2.3,Win32,60.24096386,1.4903,,,107,0,107,0,1,,,,,,,,
,,"[""circle"",""green"",""vert"",""up"",[-106,-106],[0,-150]]",circle,green,vert,up,"[-106,-106]","[0,-150]",up,1,,,,,,001,2025-03-17_14h42.44.714,SL_base_41,2021.2.3,Win32,60.24096386,1.6499,,,108,0,108,0,1,,,,,,,,
,,"[""circle"",""no_dis"",""hori"",""left"",[99999,99999],[150,0]]",circle,no_dis,hori,left,"[99999,99999]","[150,0]",left,1,,,,,,001,2025-03-17_14h42.44.714,SL_base_41,2021.2.3,Win32,60.24096386,1.5651,,,109,0,109,0,1,,,,,,,,
,,"[""diamond"",""red"",""vert"",""up"",[106,106],[-150,0]]",diamond,red,vert,up,"[106,106]","[-150,0]",up,1,,,,,,001,2025-03-17_14h42.44.714,SL_base_41,2021.2.3,Win32,60.24096386,1.4657,,,110,0,110,0,1,,,,,,,,
,,"[""diamond"",""no_dis"",""vert"",""up"",[99999,99999],[-106,-106]]",diamond,no_dis,vert,up,"[99999,99999]","[-106,-106]",up,1,,,,,,001,2025-03-17_14h42.44.714,SL_base_41,2021.2.3,Win32,60.24096386,1.533,,,111,0,111,0,1,,,,,,,,
,,"[""circle"",""red"",""vert"",""up"",[-150,0],[106,-106]]",circle,red,vert,up,"[-150,0]","[106,-106]",up,1,,,,,,001,2025-03-17_14h42.44.714,SL_base_41,2021.2.3,Win32,60.24096386,1.4483,,,112,0,112,0,1,,,,,,,,
,,"[""diamond"",""no_dis"",""vert"",""up"",[99999,99999],[-150,0]]",diamond,no_dis,vert,up,"[99999,99999]","[-150,0]",up,1,,,,,,001,2025-03-17_14h42.44.714,SL_base_41,2021.2.3,Win32,60.24096386,1.3987,,,113,0,113,0,1,,,,,,,,
,,"[""diamond"",""green"",""vert"",""up"",[0,-150],[106,-106]]",diamond,green,vert,up,"[0,-150]","[106,-106]",up,1,,,,,,001,2025-03-17_14h42.44.714,SL_base_41,2021.2.3,Win32,60.24096386,1.2455,,,114,0,114,0,1,,,,,,,,
,,"[""diamond"",""green"",""hori"",""left"",[-150,0],[106,106]]",diamond,green,hori,left,"[-150,0]","[106,106]",left,1,,,,,,001,2025-03-17_14h42.44.714,SL_base_41,2021.2.3,Win32,60.24096386,1.4967,,,115,0,115,0,1,,,,,,,,
,,"[""circle"",""green"",""hori"",""left"",[-150,0],[0,-150]]",circle,green,hori,left,"[-150,0]","[0,-150]",left,1,,,,,,001,2025-03-17_14h42.44.714,SL_base_41,2021.2.3,Win32,60.24096386,1.8506,,,116,0,116,0,1,,,,,,,,
,,"[""circle"",""red"",""vert"",""up"",[0,150],[106,106]]",circle,red,vert,up,"[0,150]","[106,106]",up,1,,,,,,001,2025-03-17_14h42.44.714,SL_base_41,2021.2.3,Win32,60.24096386,1.6751,,,117,0,117,0,1,,,,,,,,
,,"[""circle"",""no_dis"",""vert"",""up"",[99999,99999],[106,-106]]",circle,no_dis,vert,up,"[99999,99999]","[106,-106]",left,0,,,,,,001,2025-03-17_14h42.44.714,SL_base_41,2021.2.3,Win32,60.24096386,1.4965,,,118,0,118,0,1,,,,,,,,
,,"[""circle"",""red"",""hori"",""left"",[-106,-106],[106,-106]]",circle,red,hori,left,"[-106,-106]","[106,-106]",left,1,,,,,,001,2025-03-17_14h42.44.714,SL_base_41,2021.2.3,Win32,60.24096386,1.9249,,,119,0,119,0,1,,,,,,,,
,,"[""circle"",""no_dis"",""vert"",""up"",[99999,99999],[106,106]]",circle,no_dis,vert,up,"[99999,99999]","[106,106]",up,1,,,,,,001,2025-03-17_14h42.44.714,SL_base_41,2021.2.3,Win32,60.24096386,1.7881,,,120,0,120,0,1,,,,,,,,
,,"[""circle"",""red"",""hori"",""left"",[-106,-106],[150,0]]",circle,red,hori,left,"[-106,-106]","[150,0]",left,1,,,,,,001,2025-03-17_14h42.44.714,SL_base_41,2021.2.3,Win32,60.24096386,1.8178,,,121,0,121,0,1,,,,,,,,
,,"[""diamond"",""red"",""hori"",""left"",[-150,0],[150,0]]",diamond,red,hori,left,"[-150,0]","[150,0]",left,1,,,,,,001,2025-03-17_14h42.44.714,SL_base_41,2021.2.3,Win32,60.24096386,1.763,,,122,0,122,0,1,,,,,,,,
,,"[""diamond"",""red"",""hori"",""left"",[-106,106],[106,-106]]",diamond,red,hori,left,"[-106,106]","[106,-106]",left,1,,,,,,001,2025-03-17_14h42.44.714,SL_base_41,2021.2.3,Win32,60.24096386,1.569,,,123,0,123,0,1,,,,,,,,
,,"[""circle"",""red"",""vert"",""up"",[106,-106],[0,150]]",circle,red,vert,up,"[106,-106]","[0,150]",up,1,,,,,,001,2025-03-17_14h42.44.714,SL_base_41,2021.2.3,Win32,60.24096386,1.3174,,,124,0,124,0,1,,,,,,,,
,,"[""diamond"",""red"",""vert"",""up"",[-106,-106],[106,-106]]",diamond,red,vert,up,"[-106,-106]","[106,-106]",up,1,,,,,,001,2025-03-17_14h42.44.714,SL_base_41,2021.2.3,Win32,60.24096386,1.9463,,,125,0,125,0,1,,,,,,,,
,,"[""diamond"",""green"",""hori"",""left"",[150,0],[106,106]]",diamond,green,hori,left,"[150,0]","[106,106]",left,1,,,,,,001,2025-03-17_14h42.44.714,SL_base_41,2021.2.3,Win32,60.24096386,1.3219,,,126,0,126,0,1,,,,,,,,
,,"[""diamond"",""red"",""hori"",""left"",[-150,0],[106,-106]]",diamond,red,hori,left,"[-150,0]","[106,-106]",left,1,,,,,,001,2025-03-17_14h42.44.714,SL_base_41,2021.2.3,Win32,60.24096386,2.0528,,,127,0,127,0,1,,,,,,,,
,,,,,,,,,,,,,,,,001,2025-03-17_14h42.44.714,SL_base_41,2021.2.3,Win32,60.24096386,,,,,,,,,1,space,58.153,0,0,0,0,1
,,"[""circle"",""green"",""vert"",""up"",[-150,0],[0,-150]]",circle,green,vert,up,"[-150,0]","[0,-150]",up,1,,,,,,001,2025-03-17_14h42.44.714,SL_base_41,2021.2.3,Win32,60.24096386,1.3653,,,0,0,0,0,1,,,,,,,,
,,"[""circle"",""red"",""hori"",""left"",[0,-150],[106,-106]]",circle,red,hori,left,"[0,-150]","[106,-106]",left,1,,,,,,001,2025-03-17_14h42.44.714,SL_base_41,2021.2.3,Win32,60.24096386,1.3257,,,1,0,1,0,1,,,,,,,,
,,"[""circle"",""red"",""vert"",""up"",[106,106],[106,-106]]",circle,red,vert,up,"[106,106]","[106,-106]",up,1,,,,,,001,2025-03-17_14h42.44.714,SL_base_41,2021.2.3,Win32,60.24096386,1.623,,,2,0,2,0,1,,,,,,,,
,,"[""diamond"",""red"",""hori"",""left"",[106,-106],[150,0]]",diamond,red,hori,left,"[106,-106]","[150,0]",left,1,,,,,,001,2025-03-17_14h42.44.714,SL_base_41,2021.2.3,Win32,60.24096386,2.2195,,,3,0,3,0,1,,,,,,,,
,,"[""circle"",""no_dis"",""vert"",""up"",[99999,99999],[0,150]]",circle,no_dis,vert,up,"[99999,99999]","[0,150]",up,1,,,,,,001,2025-03-17_14h42.44.714,SL_base_41,2021.2.3,Win32,60.24096386,1.7057,,,4,0,4,0,1,,,,,,,,
,,"[""circle"",""green"",""vert"",""up"",[-106,-106],[-150,0]]",circle,green,vert,up,"[-106,-106]","[-150,0]",up,1,,,,,,001,2025-03-17_14h42.44.714,SL_base_41,2021.2.3,Win32,60.24096386,1.223,,,5,0,5,0,1,,,,,,,,
,,"[""circle"",""green"",""hori"",""left"",[0,-150],[-106,106]]",circle,green,hori,left,"[0,-150]","[-106,106]",left,1,,,,,,001,2025-03-17_14h42.44.714,SL_base_41,2021.2.3,Win32,60.24096386,1.1642,,,6,0,6,0,1,,,,,,,,
,,"[""diamond"",""no_dis"",""vert"",""up"",[99999,99999],[106,-106]]",diamond,no_dis,vert,up,"[99999,99999]","[106,-106]",up,1,,,,,,001,2025-03-17_14h42.44.714,SL_base_41,2021.2.3,Win32,60.24096386,1.471,,,7,0,7,0,1,,,,,,,,
,,"[""diamond"",""red"",""vert"",""up"",[-106,106],[0,-150]]",diamond,red,vert,up,"[-106,106]","[0,-150]",up,1,,,,,,001,2025-03-17_14h42.44.714,SL_base_41,2021.2.3,Win32,60.24096386,2.4492,,,8,0,8,0,1,,,,,,,,
,,"[""diamond"",""green"",""vert"",""up"",[150,0],[-150,0]]",diamond,green,vert,up,"[150,0]","[-150,0]",up,1,,,,,,001,2025-03-17_14h42.44.714,SL_base_41,2021.2.3,Win32,60.24096386,0.8724,,,9,0,9,0,1,,,,,,,,
,,"[""diamond"",""green"",""vert"",""up"",[0,-150],[106,-106]]",diamond,green,vert,up,"[0,-150]","[106,-106]",up,1,,,,,,001,2025-03-17_14h42.44.714,SL_base_41,2021.2.3,Win32,60.24096386,1.2681,,,10,0,10,0,1,,,,,,,,
,,"[""circle"",""red"",""vert"",""up"",[-150,0],[106,-106]]",circle,red,vert,up,"[-150,0]","[106,-106]",up,1,,,,,,001,2025-03-17_14h42.44.714,SL_base_41,2021.2.3,Win32,60.24096386,1.4767,,,11,0,11,0,1,,,,,,,,
,,"[""circle"",""red"",""vert"",""up"",[150,0],[-150,0]]",circle,red,vert,up,"[150,0]","[-150,0]",left,0,,,,,,001,2025-03-17_14h42.44.714,SL_base_41,2021.2.3,Win32,60.24096386,2.7755,,,12,0,12,0,1,,,,,,,,
,,"[""circle"",""green"",""vert"",""up"",[106,106],[106,-106]]",circle,green,vert,up,"[106,106]","[106,-106]",up,1,,,,,,001,2025-03-17_14h42.44.714,SL_base_41,2021.2.3,Win32,60.24096386,1.9051,,,13,0,13,0,1,,,,,,,,
,,"[""circle"",""red"",""vert"",""up"",[0,150],[106,106]]",circle,red,vert,up,"[0,150]","[106,106]",up,1,,,,,,001,2025-03-17_14h42.44.714,SL_base_41,2021.2.3,Win32,60.24096386,2.2372,,,14,0,14,0,1,,,,,,,,
,,"[""diamond"",""no_dis"",""hori"",""left"",[99999,99999],[0,-150]]",diamond,no_dis,hori,left,"[99999,99999]","[0,-150]",left,1,,,,,,001,2025-03-17_14h42.44.714,SL_base_41,2021.2.3,Win32,60.24096386,1.6275,,,15,0,15,0,1,,,,,,,,
,,"[""circle"",""green"",""vert"",""up"",[-150,0],[0,150]]",circle,green,vert,up,"[-150,0]","[0,150]",up,1,,,,,,001,2025-03-17_14h42.44.714,SL_base_41,2021.2.3,Win32,60.24096386,1.6638,,,16,0,16,0,1,,,,,,,,
,,"[""diamond"",""no_dis"",""hori"",""left"",[99999,99999],[0,-150]]",diamond,no_dis,hori,left,"[99999,99999]","[0,-150]",,0,,,,,,001,2025-03-17_14h42.44.714,SL_base_41,2021.2.3,Win32,60.24096386,,,,17,0,17,0,1,,,,,,,,
,,"[""diamond"",""green"",""vert"",""up"",[0,150],[0,-150]]",diamond,green,vert,up,"[0,150]","[0,-150]",up,1,,,,,,001,2025-03-17_14h42.44.714,SL_base_41,2021.2.3,Win32,60.24096386,2.3302,,,18,0,18,0,1,,,,,,,,
,,"[""circle"",""red"",""hori"",""left"",[-150,0],[-106,106]]",circle,red,hori,left,"[-150,0]","[-106,106]",,0,,,,,,001,2025-03-17_14h42.44.714,SL_base_41,2021.2.3,Win32,60.24096386,,,,19,0,19,0,1,,,,,,,,
,,"[""circle"",""green"",""hori"",""left"",[-150,0],[0,-150]]",circle,green,hori,left,"[-150,0]","[0,-150]",left,1,,,,,,001,2025-03-17_14h42.44.714,SL_base_41,2021.2.3,Win32,60.24096386,2.1333,,,20,0,20,0,1,,,,,,,,
,,"[""circle"",""no_dis"",""vert"",""up"",[99999,99999],[106,106]]",circle,no_dis,vert,up,"[99999,99999]","[106,106]",up,1,,,,,,001,2025-03-17_14h42.44.714,SL_base_41,2021.2.3,Win32,60.24096386,1.2872,,,21,0,21,0,1,,,,,,,,
,,"[""circle"",""no_dis"",""vert"",""up"",[99999,99999],[106,106]]",circle,no_dis,vert,up,"[99999,99999]","[106,106]",up,1,,,,,,001,2025-03-17_14h42.44.714,SL_base_41,2021.2.3,Win32,60.24096386,2.0157,,,22,0,22,0,1,,,,,,,,
,,"[""circle"",""red"",""vert"",""up"",[-150,0],[106,-106]]",circle,red,vert,up,"[-150,0]","[106,-106]",up,1,,,,,,001,2025-03-17_14h42.44.714,SL_base_41,2021.2.3,Win32,60.24096386,1.6997,,,23,0,23,0,1,,,,,,,,
,,"[""circle"",""green"",""vert"",""up"",[-150,0],[106,-106]]",circle,green,vert,up,"[-150,0]","[106,-106]",up,1,,,,,,001,2025-03-17_14h42.44.714,SL_base_41,2021.2.3,Win32,60.24096386,0.8653,,,24,0,24,0,1,,,,,,,,
,,"[""diamond"",""no_dis"",""hori"",""left"",[99999,99999],[0,150]]",diamond,no_dis,hori,left,"[99999,99999]","[0,150]",left,1,,,,,,001,2025-03-17_14h42.44.714,SL_base_41,2021.2.3,Win32,60.24096386,1.6447,,,25,0,25,0,1,,,,,,,,
,,"[""diamond"",""red"",""vert"",""up"",[-150,0],[-106,-106]]",diamond,red,vert,up,"[-150,0]","[-106,-106]",up,1,,,,,,001,2025-03-17_14h42.44.714,SL_base_41,2021.2.3,Win32,60.24096386,1.7306,,,26,0,26,0,1,,,,,,,,
,,"[""circle"",""green"",""hori"",""left"",[106,-106],[0,-150]]",circle,green,hori,left,"[106,-106]","[0,-150]",left,1,,,,,,001,2025-03-17_14h42.44.714,SL_base_41,2021.2.3,Win32,60.24096386,1.8922,,,27,0,27,0,1,,,,,,,,
,,"[""diamond"",""no_dis"",""vert"",""up"",[99999,99999],[-106,-106]]",diamond,no_dis,vert,up,"[99999,99999]","[-106,-106]",up,1,,,,,,001,2025-03-17_14h42.44.714,SL_base_41,2021.2.3,Win32,60.24096386,1.7817,,,28,0,28,0,1,,,,,,,,
,,"[""diamond"",""green"",""hori"",""left"",[0,150],[-106,106]]",diamond,green,hori,left,"[0,150]","[-106,106]",left,1,,,,,,001,2025-03-17_14h42.44.714,SL_base_41,2021.2.3,Win32,60.24096386,1.6704,,,29,0,29,0,1,,,,,,,,
,,"[""diamond"",""no_dis"",""hori"",""left"",[99999,99999],[-106,106]]",diamond,no_dis,hori,left,"[99999,99999]","[-106,106]",left,1,,,,,,001,2025-03-17_14h42.44.714,SL_base_41,2021.2.3,Win32,60.24096386,1.2221,,,30,0,30,0,1,,,,,,,,
,,"[""diamond"",""green"",""vert"",""up"",[-150,0],[150,0]]",diamond,green,vert,up,"[-150,0]","[150,0]",up,1,,,,,,001,2025-03-17_14h42.44.714,SL_base_41,2021.2.3,Win32,60.24096386,1.1997,,,31,0,31,0,1,,,,,,,,
,,"[""diamond"",""red"",""vert"",""up"",[106,106],[-150,0]]",diamond,red,vert,up,"[106,106]","[-150,0]",up,1,,,,,,001,2025-03-17_14h42.44.714,SL_base_41,2021.2.3,Win32,60.24096386,2.5783,,,32,0,32,0,1,,,,,,,,
,,"[""circle"",""red"",""vert"",""up"",[-150,0],[-106,-106]]",circle,red,vert,up,"[-150,0]","[-106,-106]",left,0,,,,,,001,2025-03-17_14h42.44.714,SL_base_41,2021.2.3,Win32,60.24096386,1.241,,,33,0,33,0,1,,,,,,,,
,,"[""circle"",""green"",""hori"",""left"",[106,106],[106,-106]]",circle,green,hori,left,"[106,106]","[106,-106]",left,1,,,,,,001,2025-03-17_14h42.44.714,SL_base_41,2021.2.3,Win32,60.24096386,2.076,,,34,0,34,0,1,,,,,,,,
,,"[""circle"",""green"",""hori"",""left"",[-106,106],[-106,-106]]",circle,green,hori,left,"[-106,106]","[-106,-106]",left,1,,,,,,001,2025-03-17_14h42.44.714,SL_base_41,2021.2.3,Win32,60.24096386,2.0228,,,35,0,35,0,1,,,,,,,,
,,"[""circle"",""no_dis"",""hori"",""left"",[99999,99999],[0,150]]",circle,no_dis,hori,left,"[99999,99999]","[0,150]",left,1,,,,,,001,2025-03-17_14h42.44.714,SL_base_41,2021.2.3,Win32,60.24096386,1.26,,,36,0,36,0,1,,,,,,,,
,,"[""circle"",""green"",""vert"",""up"",[-106,-106],[150,0]]",circle,green,vert,up,"[-106,-106]","[150,0]",up,1,,,,,,001,2025-03-17_14h42.44.714,SL_base_41,2021.2.3,Win32,60.24096386,1.0855,,,37,0,37,0,1,,,,,,,,
,,"[""diamond"",""green"",""vert"",""up"",[-150,0],[150,0]]",diamond,green,vert,up,"[-150,0]","[150,0]",up,1,,,,,,001,2025-03-17_14h42.44.714,SL_base_41,2021.2.3,Win32,60.24096386,2.2911,,,38,0,38,0,1,,,,,,,,
,,"[""diamond"",""no_dis"",""vert"",""up"",[99999,99999],[-106,-106]]",diamond,no_dis,vert,up,"[99999,99999]","[-106,-106]",up,1,,,,,,001,2025-03-17_14h42.44.714,SL_base_41,2021.2.3,Win32,60.24096386,1.3643,,,39,0,39,0,1,,,,,,,,
,,"[""diamond"",""green"",""hori"",""left"",[106,106],[106,-106]]",diamond,green,hori,left,"[106,106]","[106,-106]",left,1,,,,,,001,2025-03-17_14h42.44.714,SL_base_41,2021.2.3,Win32,60.24096386,1.6197,,,40,0,40,0,1,,,,,,,,
,,"[""circle"",""green"",""hori"",""left"",[-150,0],[150,0]]",circle,green,hori,left,"[-150,0]","[150,0]",left,1,,,,,,001,2025-03-17_14h42.44.714,SL_base_41,2021.2.3,Win32,60.24096386,2.3903,,,41,0,41,0,1,,,,,,,,
,,"[""diamond"",""red"",""vert"",""up"",[-150,0],[106,106]]",diamond,red,vert,up,"[-150,0]","[106,106]",up,1,,,,,,001,2025-03-17_14h42.44.714,SL_base_41,2021.2.3,Win32,60.24096386,1.9945,,,42,0,42,0,1,,,,,,,,
,,"[""circle"",""green"",""hori"",""left"",[-150,0],[106,-106]]",circle,green,hori,left,"[-150,0]","[106,-106]",left,1,,,,,,001,2025-03-17_14h42.44.714,SL_base_41,2021.2.3,Win32,60.24096386,1.4176,,,43,0,43,0,1,,,,,,,,
,,"[""diamond"",""green"",""vert"",""up"",[106,-106],[106,106]]",diamond,green,vert,up,"[106,-106]","[106,106]",up,1,,,,,,001,2025-03-17_14h42.44.714,SL_base_41,2021.2.3,Win32,60.24096386,1.416,,,44,0,44,0,1,,,,,,,,
,,"[""circle"",""green"",""vert"",""up"",[106,106],[-150,0]]",circle,green,vert,up,"[106,106]","[-150,0]",up,1,,,,,,001,2025-03-17_14h42.44.714,SL_base_41,2021.2.3,Win32,60.24096386,1.143,,,45,0,45,0,1,,,,,,,,
,,"[""diamond"",""red"",""hori"",""left"",[-150,0],[106,-106]]",diamond,red,hori,left,"[-150,0]","[106,-106]",left,1,,,,,,001,2025-03-17_14h42.44.714,SL_base_41,2021.2.3,Win32,60.24096386,1.5219,,,46,0,46,0,1,,,,,,,,
,,"[""diamond"",""green"",""hori"",""left"",[0,150],[106,-106]]",diamond,green,hori,left,"[0,150]","[106,-106]",left,1,,,,,,001,2025-03-17_14h42.44.714,SL_base_41,2021.2.3,Win32,60.24096386,1.6621,,,47,0,47,0,1,,,,,,,,
,,"[""diamond"",""no_dis"",""vert"",""up"",[99999,99999],[-150,0]]",diamond,no_dis,vert,up,"[99999,99999]","[-150,0]",up,1,,,,,,001,2025-03-17_14h42.44.714,SL_base_41,2021.2.3,Win32,60.24096386,1.3594,,,48,0,48,0,1,,,,,,,,
,,"[""circle"",""no_dis"",""vert"",""up"",[99999,99999],[106,-106]]",circle,no_dis,vert,up,"[99999,99999]","[106,-106]",up,1,,,,,,001,2025-03-17_14h42.44.714,SL_base_41,2021.2.3,Win32,60.24096386,1.8367,,,49,0,49,0,1,,,,,,,,
,,"[""circle"",""red"",""hori"",""left"",[-106,106],[106,-106]]",circle,red,hori,left,"[-106,106]","[106,-106]",left,1,,,,,,001,2025-03-17_14h42.44.714,SL_base_41,2021.2.3,Win32,60.24096386,1.2302,,,50,0,50,0,1,,,,,,,,
,,"[""diamond"",""green"",""hori"",""left"",[-150,0],[106,106]]",diamond,green,hori,left,"[-150,0]","[106,106]",left,1,,,,,,001,2025-03-17_14h42.44.714,SL_base_41,2021.2.3,Win32,60.24096386,1.6978,,,51,0,51,0,1,,,,,,,,
,,"[""diamond"",""red"",""vert"",""up"",[0,150],[-106,-106]]",diamond,red,vert,up,"[0,150]","[-106,-106]",up,1,,,,,,001,2025-03-17_14h42.44.714,SL_base_41,2021.2.3,Win32,60.24096386,1.7,,,52,0,52,0,1,,,,,,,,
,,"[""circle"",""no_dis"",""hori"",""left"",[99999,99999],[-106,106]]",circle,no_dis,hori,left,"[99999,99999]","[-106,106]",left,1,,,,,,001,2025-03-17_14h42.44.714,SL_base_41,2021.2.3,Win32,60.24096386,1.2249,,,53,0,53,0,1,,,,,,,,
,,"[""diamond"",""red"",""vert"",""up"",[106,-106],[0,-150]]",diamond,red,vert,up,"[106,-106]","[0,-150]",up,1,,,,,,001,2025-03-17_14h42.44.714,SL_base_41,2021.2.3,Win32,60.24096386,1.4935,,,54,0,54,0,1,,,,,,,,
,,"[""circle"",""no_dis"",""vert"",""up"",[99999,99999],[150,0]]",circle,no_dis,vert,up,"[99999,99999]","[150,0]",up,1,,,,,,001,2025-03-17_14h42.44.714,SL_base_41,2021.2.3,Win32,60.24096386,1.1664,,,55,0,55,0,1,,,,,,,,
,,"[""circle"",""green"",""vert"",""up"",[-106,106],[106,106]]",circle,green,vert,up,"[-106,106]","[106,106]",up,1,,,,,,001,2025-03-17_14h42.44.714,SL_base_41,2021.2.3,Win32,60.24096386,1.6784,,,56,0,56,0,1,,,,,,,,
,,"[""circle"",""no_dis"",""hori"",""left"",[99999,99999],[150,0]]",circle,no_dis,hori,left,"[99999,99999]","[150,0]",left,1,,,,,,001,2025-03-17_14h42.44.714,SL_base_41,2021.2.3,Win32,60.24096386,1.2132,,,57,0,57,0,1,,,,,,,,
,,"[""diamond"",""green"",""hori"",""left"",[-150,0],[106,106]]",diamond,green,hori,left,"[-150,0]","[106,106]",left,1,,,,,,001,2025-03-17_14h42.44.714,SL_base_41,2021.2.3,Win32,60.24096386,1.5534,,,58,0,58,0,1,,,,,,,,
,,"[""circle"",""green"",""vert"",""up"",[-106,-106],[0,-150]]",circle,green,vert,up,"[-106,-106]","[0,-150]",up,1,,,,,,001,2025-03-17_14h42.44.714,SL_base_41,2021.2.3,Win32,60.24096386,1.3905,,,59,0,59,0,1,,,,,,,,
,,"[""circle"",""red"",""hori"",""left"",[-106,-106],[150,0]]",circle,red,hori,left,"[-106,-106]","[150,0]",left,1,,,,,,001,2025-03-17_14h42.44.714,SL_base_41,2021.2.3,Win32,60.24096386,1.4217,,,60,0,60,0,1,,,,,,,,
,,"[""circle"",""no_dis"",""hori"",""left"",[99999,99999],[0,-150]]",circle,no_dis,hori,left,"[99999,99999]","[0,-150]",left,1,,,,,,001,2025-03-17_14h42.44.714,SL_base_41,2021.2.3,Win32,60.24096386,1.0201,,,61,0,61,0,1,,,,,,,,
,,"[""diamond"",""no_dis"",""hori"",""left"",[99999,99999],[-106,-106]]",diamond,no_dis,hori,left,"[99999,99999]","[-106,-106]",left,1,,,,,,001,2025-03-17_14h42.44.714,SL_base_41,2021.2.3,Win32,60.24096386,1.3366,,,62,0,62,0,1,,,,,,,,
,,"[""diamond"",""red"",""vert"",""up"",[-106,-106],[106,-106]]",diamond,red,vert,up,"[-106,-106]","[106,-106]",up,1,,,,,,001,2025-03-17_14h42.44.714,SL_base_41,2021.2.3,Win32,60.24096386,1.4277,,,63,0,63,0,1,,,,,,,,
,,"[""circle"",""no_dis"",""hori"",""left"",[99999,99999],[-106,106]]",circle,no_dis,hori,left,"[99999,99999]","[-106,106]",left,1,,,,,,001,2025-03-17_14h42.44.714,SL_base_41,2021.2.3,Win32,60.24096386,2.2484,,,64,0,64,0,1,,,,,,,,
,,"[""circle"",""red"",""vert"",""up"",[-150,0],[-106,-106]]",circle,red,vert,up,"[-150,0]","[-106,-106]",up,1,,,,,,001,2025-03-17_14h42.44.714,SL_base_41,2021.2.3,Win32,60.24096386,2.1376,,,65,0,65,0,1,,,,,,,,
,,"[""diamond"",""no_dis"",""vert"",""up"",[99999,99999],[-106,-106]]",diamond,no_dis,vert,up,"[99999,99999]","[-106,-106]",up,1,,,,,,001,2025-03-17_14h42.44.714,SL_base_41,2021.2.3,Win32,60.24096386,1.937,,,66,0,66,0,1,,,,,,,,
,,"[""circle"",""green"",""hori"",""left"",[-150,0],[150,0]]",circle,green,hori,left,"[-150,0]","[150,0]",left,1,,,,,,001,2025-03-17_14h42.44.714,SL_base_41,2021.2.3,Win32,60.24096386,0.9629,,,67,0,67,0,1,,,,,,,,
,,"[""diamond"",""green"",""hori"",""left"",[150,0],[106,106]]",diamond,green,hori,left,"[150,0]","[106,106]",left,1,,,,,,001,2025-03-17_14h42.44.714,SL_base_41,2021.2.3,Win32,60.24096386,1.7963,,,68,0,68,0,1,,,,,,,,
,,"[""diamond"",""no_dis"",""vert"",""up"",[99999,99999],[-106,106]]",diamond,no_dis,vert,up,"[99999,99999]","[-106,106]",up,1,,,,,,001,2025-03-17_14h42.44.714,SL_base_41,2021.2.3,Win32,60.24096386,2.0638,,,69,0,69,0,1,,,,,,,,
,,"[""circle"",""green"",""hori"",""left"",[150,0],[-106,-106]]",circle,green,hori,left,"[150,0]","[-106,-106]",left,1,,,,,,001,2025-03-17_14h42.44.714,SL_base_41,2021.2.3,Win32,60.24096386,1.5824,,,70,0,70,0,1,,,,,,,,
,,"[""circle"",""no_dis"",""hori"",""left"",[99999,99999],[-106,-106]]",circle,no_dis,hori,left,"[99999,99999]","[-106,-106]",left,1,,,,,,001,2025-03-17_14h42.44.714,SL_base_41,2021.2.3,Win32,60.24096386,1.2484,,,71,0,71,0,1,,,,,,,,
,,"[""circle"",""red"",""hori"",""left"",[106,106],[106,-106]]",circle,red,hori,left,"[106,106]","[106,-106]",left,1,,,,,,001,2025-03-17_14h42.44.714,SL_base_41,2021.2.3,Win32,60.24096386,1.4091,,,72,0,72,0,1,,,,,,,,
,,"[""diamond"",""no_dis"",""hori"",""left"",[99999,99999],[106,106]]",diamond,no_dis,hori,left,"[99999,99999]","[106,106]",up,0,,,,,,001,2025-03-17_14h42.44.714,SL_base_41,2021.2.3,Win32,60.24096386,1.3593,,,73,0,73,0,1,,,,,,,,
,,"[""diamond"",""red"",""hori"",""left"",[0,-150],[106,106]]",diamond,red,hori,left,"[0,-150]","[106,106]",left,1,,,,,,001,2025-03-17_14h42.44.714,SL_base_41,2021.2.3,Win32,60.24096386,1.4238,,,74,0,74,0,1,,,,,,,,
,,"[""diamond"",""green"",""hori"",""left"",[-106,106],[150,0]]",diamond,green,hori,left,"[-106,106]","[150,0]",left,1,,,,,,001,2025-03-17_14h42.44.714,SL_base_41,2021.2.3,Win32,60.24096386,1.7296,,,75,0,75,0,1,,,,,,,,
,,"[""circle"",""red"",""vert"",""up"",[-150,0],[150,0]]",circle,red,vert,up,"[-150,0]","[150,0]",up,1,,,,,,001,2025-03-17_14h42.44.714,SL_base_41,2021.2.3,Win32,60.24096386,1.532,,,76,0,76,0,1,,,,,,,,
,,"[""circle"",""no_dis"",""hori"",""left"",[99999,99999],[-106,106]]",circle,no_dis,hori,left,"[99999,99999]","[-106,106]",left,1,,,,,,001,2025-03-17_14h42.44.714,SL_base_41,2021.2.3,Win32,60.24096386,1.8575,,,77,0,77,0,1,,,,,,,,
,,"[""circle"",""red"",""vert"",""up"",[106,-106],[0,150]]",circle,red,vert,up,"[106,-106]","[0,150]",up,1,,,,,,001,2025-03-17_14h42.44.714,SL_base_41,2021.2.3,Win32,60.24096386,1.2414,,,78,0,78,0,1,,,,,,,,
,,"[""circle"",""red"",""hori"",""left"",[-106,106],[-150,0]]",circle,red,hori,left,"[-106,106]","[-150,0]",left,1,,,,,,001,2025-03-17_14h42.44.714,SL_base_41,2021.2.3,Win32,60.24096386,2.0692,,,79,0,79,0,1,,,,,,,,
,,"[""diamond"",""red"",""hori"",""left"",[-106,-106],[106,-106]]",diamond,red,hori,left,"[-106,-106]","[106,-106]",left,1,,,,,,001,2025-03-17_14h42.44.714,SL_base_41,2021.2.3,Win32,60.24096386,1.3161,,,80,0,80,0,1,,,,,,,,
,,"[""diamond"",""red"",""hori"",""left"",[-150,0],[150,0]]",diamond,red,hori,left,"[-150,0]","[150,0]",left,1,,,,,,001,2025-03-17_14h42.44.714,SL_base_41,2021.2.3,Win32,60.24096386,1.3799,,,81,0,81,0,1,,,,,,,,
,,"[""diamond"",""no_dis"",""vert"",""up"",[99999,99999],[-150,0]]",diamond,no_dis,vert,up,"[99999,99999]","[-150,0]",up,1,,,,,,001,2025-03-17_14h42.44.714,SL_base_41,2021.2.3,Win32,60.24096386,1.0584,,,82,0,82,0,1,,,,,,,,
,,"[""diamond"",""green"",""hori"",""left"",[-150,0],[0,-150]]",diamond,green,hori,left,"[-150,0]","[0,-150]",left,1,,,,,,001,2025-03-17_14h42.44.714,SL_base_41,2021.2.3,Win32,60.24096386,1.0224,,,83,0,83,0,1,,,,,,,,
,,"[""circle"",""red"",""vert"",""up"",[0,-150],[106,-106]]",circle,red,vert,up,"[0,-150]","[106,-106]",left,0,,,,,,001,2025-03-17_14h42.44.714,SL_base_41,2021.2.3,Win32,60.24096386,1.8375,,,84,0,84,0,1,,,,,,,,
,,"[""circle"",""no_dis"",""hori"",""left"",[99999,99999],[106,-106]]",circle,no_dis,hori,left,"[99999,99999]","[106,-106]",left,1,,,,,,001,2025-03-17_14h42.44.714,SL_base_41,2021.2.3,Win32,60.24096386,2.1181,,,85,0,85,0,1,,,,,,,,
,,"[""circle"",""no_dis"",""vert"",""up"",[99999,99999],[150,0]]",circle,no_dis,vert,up,"[99999,99999]","[150,0]",up,1,,,,,,001,2025-03-17_14h42.44.714,SL_base_41,2021.2.3,Win32,60.24096386,1.6201,,,86,0,86,0,1,,,,,,,,
,,"[""circle"",""red"",""hori"",""left"",[0,150],[-150,0]]",circle,red,hori,left,"[0,150]","[-150,0]",up,0,,,,,,001,2025-03-17_14h42.44.714,SL_base_41,2021.2.3,Win32,60.24096386,2.201,,,87,0,87,0,1,,,,,,,,
,,"[""circle"",""no_dis"",""vert"",""up"",[99999,99999],[-150,0]]",circle,no_dis,vert,up,"[99999,99999]","[-150,0]",,0,,,,,,001,2025-03-17_14h42.44.714,SL_base_41,2021.2.3,Win32,60.24096386,,,,88,0,88,0,1,,,,,,,,
,,"[""circle"",""red"",""hori"",""left"",[150,0],[-106,-106]]",circle,red,hori,left,"[150,0]","[-106,-106]",left,1,,,,,,001,2025-03-17_14h42.44.714,SL_base_41,2021.2.3,Win32,60.24096386,1.2995,,,89,0,89,0,1,,,,,,,,
,,"[""circle"",""green"",""vert"",""up"",[-106,106],[0,-150]]",circle,green,vert,up,"[-106,106]","[0,-150]",up,1,,,,,,001,2025-03-17_14h42.44.714,SL_base_41,2021.2.3,Win32,60.24096386,2.5418,,,90,0,90,0,1,,,,,,,,
,,"[""diamond"",""red"",""hori"",""left"",[-150,0],[106,106]]",diamond,red,hori,left,"[-150,0]","[106,106]",left,1,,,,,,001,2025-03-17_14h42.44.714,SL_base_41,2021.2.3,Win32,60.24096386,1.4685,,,91,0,91,0,1,,,,,,,,
,,"[""diamond"",""red"",""vert"",""up"",[0,-150],[-150,0]]",diamond,red,vert,up,"[0,-150]","[-150,0]",up,1,,,,,,001,2025-03-17_14h42.44.714,SL_base_41,2021.2.3,Win32,60.24096386,1.3327,,,92,0,92,0,1,,,,,,,,
,,"[""diamond"",""red"",""hori"",""left"",[-150,0],[150,0]]",diamond,red,hori,left,"[-150,0]","[150,0]",left,1,,,,,,001,2025-03-17_14h42.44.714,SL_base_41,2021.2.3,Win32,60.24096386,1.296,,,93,0,93,0,1,,,,,,,,
,,"[""diamond"",""green"",""vert"",""up"",[-150,0],[150,0]]",diamond,green,vert,up,"[-150,0]","[150,0]",up,1,,,,,,001,2025-03-17_14h42.44.714,SL_base_41,2021.2.3,Win32,60.24096386,1.1596,,,94,0,94,0,1,,,,,,,,
,,"[""circle"",""no_dis"",""hori"",""left"",[99999,99999],[-150,0]]",circle,no_dis,hori,left,"[99999,99999]","[-150,0]",left,1,,,,,,001,2025-03-17_14h42.44.714,SL_base_41,2021.2.3,Win32,60.24096386,2.1549,,,95,0,95,0,1,,,,,,,,
,,"[""diamond"",""no_dis"",""hori"",""left"",[99999,99999],[106,-106]]",diamond,no_dis,hori,left,"[99999,99999]","[106,-106]",left,1,,,,,,001,2025-03-17_14h42.44.714,SL_base_41,2021.2.3,Win32,60.24096386,0.998,,,96,0,96,0,1,,,,,,,,
,,"[""diamond"",""green"",""hori"",""left"",[0,150],[-106,106]]",diamond,green,hori,left,"[0,150]","[-106,106]",left,1,,,,,,001,2025-03-17_14h42.44.714,SL_base_41,2021.2.3,Win32,60.24096386,1.7383,,,97,0,97,0,1,,,,,,,,
,,"[""diamond"",""no_dis"",""hori"",""left"",[99999,99999],[0,-150]]",diamond,no_dis,hori,left,"[99999,99999]","[0,-150]",left,1,,,,,,001,2025-03-17_14h42.44.714,SL_base_41,2021.2.3,Win32,60.24096386,1.2132,,,98,0,98,0,1,,,,,,,,
,,"[""diamond"",""red"",""hori"",""left"",[-106,106],[106,-106]]",diamond,red,hori,left,"[-106,106]","[106,-106]",left,1,,,,,,001,2025-03-17_14h42.44.714,SL_base_41,2021.2.3,Win32,60.24096386,2.1605,,,99,0,99,0,1,,,,,,,,
,,"[""diamond"",""green"",""hori"",""left"",[-150,0],[150,0]]",diamond,green,hori,left,"[-150,0]","[150,0]",left,1,,,,,,001,2025-03-17_14h42.44.714,SL_base_41,2021.2.3,Win32,60.24096386,0.9969,,,100,0,100,0,1,,,,,,,,
,,"[""circle"",""no_dis"",""vert"",""up"",[99999,99999],[0,150]]",circle,no_dis,vert,up,"[99999,99999]","[0,150]",up,1,,,,,,001,2025-03-17_14h42.44.714,SL_base_41,2021.2.3,Win32,60.24096386,1.2404,,,101,0,101,0,1,,,,,,,,
,,"[""circle"",""green"",""hori"",""left"",[-150,0],[106,-106]]",circle,green,hori,left,"[-150,0]","[106,-106]",left,1,,,,,,001,2025-03-17_14h42.44.714,SL_base_41,2021.2.3,Win32,60.24096386,1.5994,,,102,0,102,0,1,,,,,,,,
,,"[""diamond"",""red"",""hori"",""left"",[150,0],[106,106]]",diamond,red,hori,left,"[150,0]","[106,106]",left,1,,,,,,001,2025-03-17_14h42.44.714,SL_base_41,2021.2.3,Win32,60.24096386,1.4544,,,103,0,103,0,1,,,,,,,,
,,"[""diamond"",""no_dis"",""hori"",""left"",[99999,99999],[106,-106]]",diamond,no_dis,hori,left,"[99999,99999]","[106,-106]",left,1,,,,,,001,2025-03-17_14h42.44.714,SL_base_41,2021.2.3,Win32,60.24096386,1.609,,,104,0,104,0,1,,,,,,,,
,,"[""diamond"",""green"",""vert"",""up"",[0,150],[0,-150]]",diamond,green,vert,up,"[0,150]","[0,-150]",up,1,,,,,,001,2025-03-17_14h42.44.714,SL_base_41,2021.2.3,Win32,60.24096386,1.2018,,,105,0,105,0,1,,,,,,,,
,,"[""diamond"",""red"",""hori"",""left"",[150,0],[-106,-106]]",diamond,red,hori,left,"[150,0]","[-106,-106]",left,1,,,,,,001,2025-03-17_14h42.44.714,SL_base_41,2021.2.3,Win32,60.24096386,2.4675,,,106,0,106,0,1,,,,,,,,
,,"[""diamond"",""green"",""hori"",""left"",[106,-106],[106,106]]",diamond,green,hori,left,"[106,-106]","[106,106]",left,1,,,,,,001,2025-03-17_14h42.44.714,SL_base_41,2021.2.3,Win32,60.24096386,1.717,,,107,0,107,0,1,,,,,,,,
,,"[""diamond"",""red"",""vert"",""up"",[0,-150],[-150,0]]",diamond,red,vert,up,"[0,-150]","[-150,0]",left,0,,,,,,001,2025-03-17_14h42.44.714,SL_base_41,2021.2.3,Win32,60.24096386,2.6996,,,108,0,108,0,1,,,,,,,,
,,"[""diamond"",""no_dis"",""vert"",""up"",[99999,99999],[150,0]]",diamond,no_dis,vert,up,"[99999,99999]","[150,0]",up,1,,,,,,001,2025-03-17_14h42.44.714,SL_base_41,2021.2.3,Win32,60.24096386,1.5842,,,109,0,109,0,1,,,,,,,,
,,"[""circle"",""no_dis"",""vert"",""up"",[99999,99999],[106,106]]",circle,no_dis,vert,up,"[99999,99999]","[106,106]",up,1,,,,,,001,2025-03-17_14h42.44.714,SL_base_41,2021.2.3,Win32,60.24096386,2.8005,,,110,0,110,0,1,,,,,,,,
,,"[""diamond"",""red"",""vert"",""up"",[0,-150],[-150,0]]",diamond,red,vert,up,"[0,-150]","[-150,0]",up,1,,,,,,001,2025-03-17_14h42.44.714,SL_base_41,2021.2.3,Win32,60.24096386,1.6513,,,111,0,111,0,1,,,,,,,,
,,"[""circle"",""green"",""vert"",""up"",[150,0],[106,-106]]",circle,green,vert,up,"[150,0]","[106,-106]",up,1,,,,,,001,2025-03-17_14h42.44.714,SL_base_41,2021.2.3,Win32,60.24096386,1.7553,,,112,0,112,0,1,,,,,,,,
,,"[""circle"",""green"",""hori"",""left"",[-150,0],[150,0]]",circle,green,hori,left,"[-150,0]","[150,0]",left,1,,,,,,001,2025-03-17_14h42.44.714,SL_base_41,2021.2.3,Win32,60.24096386,1.2516,,,113,0,113,0,1,,,,,,,,
,,"[""circle"",""red"",""hori"",""left"",[-106,-106],[-106,106]]",circle,red,hori,left,"[-106,-106]","[-106,106]",left,1,,,,,,001,2025-03-17_14h42.44.714,SL_base_41,2021.2.3,Win32,60.24096386,1.8009,,,114,0,114,0,1,,,,,,,,
,,"[""circle"",""red"",""vert"",""up"",[-150,0],[0,150]]",circle,red,vert,up,"[-150,0]","[0,150]",up,1,,,,,,001,2025-03-17_14h42.44.714,SL_base_41,2021.2.3,Win32,60.24096386,1.5363,,,115,0,115,0,1,,,,,,,,
,,"[""diamond"",""red"",""hori"",""left"",[-150,0],[0,150]]",diamond,red,hori,left,"[-150,0]","[0,150]",left,1,,,,,,001,2025-03-17_14h42.44.714,SL_base_41,2021.2.3,Win32,60.24096386,2.2676,,,116,0,116,0,1,,,,,,,,
,,"[""diamond"",""no_dis"",""vert"",""up"",[99999,99999],[0,-150]]",diamond,no_dis,vert,up,"[99999,99999]","[0,-150]",up,1,,,,,,001,2025-03-17_14h42.44.714,SL_base_41,2021.2.3,Win32,60.24096386,1.6338,,,117,0,117,0,1,,,,,,,,
,,"[""circle"",""red"",""hori"",""left"",[-106,-106],[106,-106]]",circle,red,hori,left,"[-106,-106]","[106,-106]",left,1,,,,,,001,2025-03-17_14h42.44.714,SL_base_41,2021.2.3,Win32,60.24096386,1.4327,,,118,0,118,0,1,,,,,,,,
,,"[""circle"",""no_dis"",""hori"",""left"",[99999,99999],[-150,0]]",circle,no_dis,hori,left,"[99999,99999]","[-150,0]",left,1,,,,,,001,2025-03-17_14h42.44.714,SL_base_41,2021.2.3,Win32,60.24096386,2.2174,,,119,0,119,0,1,,,,,,,,
,,"[""diamond"",""green"",""vert"",""up"",[-150,0],[-106,106]]",diamond,green,vert,up,"[-150,0]","[-106,106]",up,1,,,,,,001,2025-03-17_14h42.44.714,SL_base_41,2021.2.3,Win32,60.24096386,1.7336,,,120,0,120,0,1,,,,,,,,
,,"[""circle"",""no_dis"",""vert"",""up"",[99999,99999],[0,150]]",circle,no_dis,vert,up,"[99999,99999]","[0,150]",up,1,,,,,,001,2025-03-17_14h42.44.714,SL_base_41,2021.2.3,Win32,60.24096386,2.8913,,,121,0,121,0,1,,,,,,,,
,,"[""diamond"",""green"",""vert"",""up"",[-150,0],[106,-106]]",diamond,green,vert,up,"[-150,0]","[106,-106]",up,1,,,,,,001,2025-03-17_14h42.44.714,SL_base_41,2021.2.3,Win32,60.24096386,1.3545,,,122,0,122,0,1,,,,,,,,
,,"[""diamond"",""no_dis"",""hori"",""left"",[99999,99999],[150,0]]",diamond,no_dis,hori,left,"[99999,99999]","[150,0]",left,1,,,,,,001,2025-03-17_14h42.44.714,SL_base_41,2021.2.3,Win32,60.24096386,1.1671,,,123,0,123,0,1,,,,,,,,
,,"[""diamond"",""no_dis"",""vert"",""up"",[99999,99999],[106,106]]",diamond,no_dis,vert,up,"[99999,99999]","[106,106]",up,1,,,,,,001,2025-03-17_14h42.44.714,SL_base_41,2021.2.3,Win32,60.24096386,1.3377,,,124,0,124,0,1,,,,,,,,
,,"[""diamond"",""red"",""vert"",""up"",[106,106],[0,150]]",diamond,red,vert,up,"[106,106]","[0,150]",up,1,,,,,,001,2025-03-17_14h42.44.714,SL_base_41,2021.2.3,Win32,60.24096386,1.4261,,,125,0,125,0,1,,,,,,,,
,,"[""diamond"",""green"",""vert"",""up"",[106,-106],[-150,0]]",diamond,green,vert,up,"[106,-106]","[-150,0]",up,1,,,,,,001,2025-03-17_14h42.44.714,SL_base_41,2021.2.3,Win32,60.24096386,1.758,,,126,0,126,0,1,,,,,,,,
,,"[""circle"",""red"",""hori"",""left"",[106,-106],[-106,-106]]",circle,red,hori,left,"[106,-106]","[-106,-106]",left,1,,,,,,001,2025-03-17_14h42.44.714,SL_base_41,2021.2.3,Win32,60.24096386,1.2767,,,127,0,127,0,1,,,,,,,,
,,,,,,,,,,,,,,,,001,2025-03-17_14h42.44.714,SL_base_41,2021.2.3,Win32,60.24096386,,,,,,,,,2,space,109.524,1,0,1,0,1
,,"[""diamond"",""no_dis"",""vert"",""up"",[99999,99999],[-106,-106]]",diamond,no_dis,vert,up,"[99999,99999]","[-106,-106]",up,1,,,,,,001,2025-03-17_14h42.44.714,SL_base_41,2021.2.3,Win32,60.24096386,1.3342,,,0,0,0,0,1,,,,,,,,
,,"[""diamond"",""red"",""hori"",""left"",[-150,0],[150,0]]",diamond,red,hori,left,"[-150,0]","[150,0]",left,1,,,,,,001,2025-03-17_14h42.44.714,SL_base_41,2021.2.3,Win32,60.24096386,1.2008,,,1,0,1,0,1,,,,,,,,
,,"[""diamond"",""red"",""vert"",""up"",[0,-150],[-150,0]]",diamond,red,vert,up,"[0,-150]","[-150,0]",up,1,,,,,,001,2025-03-17_14h42.44.714,SL_base_41,2021.2.3,Win32,60.24096386,1.1841,,,2,0,2,0,1,,,,,,,,
,,"[""circle"",""no_dis"",""vert"",""up"",[99999,99999],[-150,0]]",circle,no_dis,vert,up,"[99999,99999]","[-150,0]",up,1,,,,,,001,2025-03-17_14h42.44.714,SL_base_41,2021.2.3,Win32,60.24096386,1.7001,,,3,0,3,0,1,,,,,,,,
,,"[""diamond"",""green"",""vert"",""up"",[-150,0],[106,-106]]",diamond,green,vert,up,"[-150,0]","[106,-106]",up,1,,,,,,001,2025-03-17_14h42.44.714,SL_base_41,2021.2.3,Win32,60.24096386,1.1016,,,4,0,4,0,1,,,,,,,,
,,"[""diamond"",""no_dis"",""vert"",""up"",[99999,99999],[-150,0]]",diamond,no_dis,vert,up,"[99999,99999]","[-150,0]",up,1,,,,,,001,2025-03-17_14h42.44.714,SL_base_41,2021.2.3,Win32,60.24096386,1.8502,,,5,0,5,0,1,,,,,,,,
,,"[""diamond"",""red"",""vert"",""up"",[-150,0],[-106,-106]]",diamond,red,vert,up,"[-150,0]","[-106,-106]",up,1,,,,,,001,2025-03-17_14h42.44.714,SL_base_41,2021.2.3,Win32,60.24096386,1.3171,,,6,0,6,0,1,,,,,,,,
,,"[""circle"",""no_dis"",""hori"",""left"",[99999,99999],[0,-150]]",circle,no_dis,hori,left,"[99999,99999]","[0,-150]",left,1,,,,,,001,2025-03-17_14h42.44.714,SL_base_41,2021.2.3,Win32,60.24096386,1.9773,,,7,0,7,0,1,,,,,,,,
,,"[""diamond"",""no_dis"",""vert"",""up"",[99999,99999],[106,-106]]",diamond,no_dis,vert,up,"[99999,99999]","[106,-106]",up,1,,,,,,001,2025-03-17_14h42.44.714,SL_base_41,2021.2.3,Win32,60.24096386,1.5128,,,8,0,8,0,1,,,,,,,,
,,"[""circle"",""red"",""vert"",""up"",[0,150],[106,106]]",circle,red,vert,up,"[0,150]","[106,106]",up,1,,,,,,001,2025-03-17_14h42.44.714,SL_base_41,2021.2.3,Win32,60.24096386,1.6464,,,9,0,9,0,1,,,,,,,,
,,"[""circle"",""green"",""hori"",""left"",[150,0],[-106,-106]]",circle,green,hori,left,"[150,0]","[-106,-106]",left,1,,,,,,001,2025-03-17_14h42.44.714,SL_base_41,2021.2.3,Win32,60.24096386,1.0776,,,10,0,10,0,1,,,,,,,,
,,"[""diamond"",""green"",""vert"",""up"",[0,-150],[106,-106]]",diamond,green,vert,up,"[0,-150]","[106,-106]",up,1,,,,,,001,2025-03-17_14h42.44.714,SL_base_41,2021.2.3,Win32,60.24096386,1.2899,,,11,0,11,0,1,,,,,,,,
,,"[""diamond"",""no_dis"",""hori"",""left"",[99999,99999],[150,0]]",diamond,no_dis,hori,left,"[99999,99999]","[150,0]",left,1,,,,,,001,2025-03-17_14h42.44.714,SL_base_41,2021.2.3,Win32,60.24096386,1.4258,,,12,0,12,0,1,,,,,,,,
,,"[""circle"",""no_dis"",""vert"",""up"",[99999,99999],[106,106]]",circle,no_dis,vert,up,"[99999,99999]","[106,106]",up,1,,,,,,001,2025-03-17_14h42.44.714,SL_base_41,2021.2.3,Win32,60.24096386,1.534,,,13,0,13,0,1,,,,,,,,
,,"[""circle"",""green"",""vert"",""up"",[-106,-106],[0,-150]]",circle,green,vert,up,"[-106,-106]","[0,-150]",up,1,,,,,,001,2025-03-17_14h42.44.714,SL_base_41,2021.2.3,Win32,60.24096386,1.9167,,,14,0,14,0,1,,,,,,,,
,,"[""diamond"",""green"",""hori"",""left"",[-150,0],[150,0]]",diamond,green,hori,left,"[-150,0]","[150,0]",left,1,,,,,,001,2025-03-17_14h42.44.714,SL_base_41,2021.2.3,Win32,60.24096386,2.0341,,,15,0,15,0,1,,,,,,,,
,,"[""diamond"",""red"",""hori"",""left"",[-150,0],[0,150]]",diamond,red,hori,left,"[-150,0]","[0,150]",left,1,,,,,,001,2025-03-17_14h42.44.714,SL_base_41,2021.2.3,Win32,60.24096386,1.8671,,,16,0,16,0,1,,,,,,,,
,,"[""diamond"",""green"",""hori"",""left"",[-150,0],[0,-150]]",diamond,green,hori,left,"[-150,0]","[0,-150]",left,1,,,,,,001,2025-03-17_14h42.44.714,SL_base_41,2021.2.3,Win32,60.24096386,1.343,,,17,0,17,0,1,,,,,,,,
,,"[""circle"",""no_dis"",""vert"",""up"",[99999,99999],[0,150]]",circle,no_dis,vert,up,"[99999,99999]","[0,150]",up,1,,,,,,001,2025-03-17_14h42.44.714,SL_base_41,2021.2.3,Win32,60.24096386,2.5126,,,18,0,18,0,1,,,,,,,,
,,"[""circle"",""green"",""vert"",""up"",[-150,0],[106,-106]]",circle,green,vert,up,"[-150,0]","[106,-106]",up,1,,,,,,001,2025-03-17_14h42.44.714,SL_base_41,2021.2.3,Win32,60.24096386,1.317,,,19,0,19,0,1,,,,,,,,
,,"[""circle"",""red"",""hori"",""left"",[-106,106],[106,-106]]",circle,red,hori,left,"[-106,106]","[106,-106]",left,1,,,,,,001,2025-03-17_14h42.44.714,SL_base_41,2021.2.3,Win32,60.24096386,1.8837,,,20,0,20,0,1,,,,,,,,
,,"[""diamond"",""red"",""vert"",""up"",[106,-106],[0,-150]]",diamond,red,vert,up,"[106,-106]","[0,-150]",up,1,,,,,,001,2025-03-17_14h42.44.714,SL_base_41,2021.2.3,Win32,60.24096386,2.3165,,,21,0,21,0,1,,,,,,,,
,,"[""diamond"",""green"",""vert"",""up"",[-150,0],[150,0]]",diamond,green,vert,up,"[-150,0]","[150,0]",up,1,,,,,,001,2025-03-17_14h42.44.714,SL_base_41,2021.2.3,Win32,60.24096386,1.1006,,,22,0,22,0,1,,,,,,,,
,,"[""diamond"",""no_dis"",""vert"",""up"",[99999,99999],[150,0]]",diamond,no_dis,vert,up,"[99999,99999]","[150,0]",up,1,,,,,,001,2025-03-17_14h42.44.714,SL_base_41,2021.2.3,Win32,60.24096386,1.4198,,,23,0,23,0,1,,,,,,,,
,,"[""circle"",""no_dis"",""vert"",""up"",[99999,99999],[106,106]]",circle,no_dis,vert,up,"[99999,99999]","[106,106]",up,1,,,,,,001,2025-03-17_14h42.44.714,SL_base_41,2021.2.3,Win32,60.24096386,1.2505,,,24,0,24,0,1,,,,,,,,
,,"[""circle"",""green"",""hori"",""left"",[-150,0],[106,-106]]",circle,green,hori,left,"[-150,0]","[106,-106]",left,1,,,,,,001,2025-03-17_14h42.44.714,SL_base_41,2021.2.3,Win32,60.24096386,0.8011,,,25,0,25,0,1,,,,,,,,
,,"[""circle"",""no_dis"",""hori"",""left"",[99999,99999],[-106,-106]]",circle,no_dis,hori,left,"[99999,99999]","[-106,-106]",left,1,,,,,,001,2025-03-17_14h42.44.714,SL_base_41,2021.2.3,Win32,60.24096386,0.8904,,,26,0,26,0,1,,,,,,,,
,,"[""circle"",""red"",""hori"",""left"",[106,-106],[-106,-106]]",circle,red,hori,left,"[106,-106]","[-106,-106]",left,1,,,,,,001,2025-03-17_14h42.44.714,SL_base_41,2021.2.3,Win32,60.24096386,2.034,,,27,0,27,0,1,,,,,,,,
,,"[""diamond"",""no_dis"",""vert"",""up"",[99999,99999],[-106,-106]]",diamond,no_dis,vert,up,"[99999,99999]","[-106,-106]",,0,,,,,,001,2025-03-17_14h42.44.714,SL_base_41,2021.2.3,Win32,60.24096386,,,,28,0,28,0,1,,,,,,,,
,,"[""diamond"",""red"",""vert"",""up"",[106,106],[0,150]]",diamond,red,vert,up,"[106,106]","[0,150]",up,1,,,,,,001,2025-03-17_14h42.44.714,SL_base_41,2021.2.3,Win32,60.24096386,1.8006,,,29,0,29,0,1,,,,,,,,
,,"[""circle"",""green"",""hori"",""left"",[-150,0],[150,0]]",circle,green,hori,left,"[-150,0]","[150,0]",left,1,,,,,,001,2025-03-17_14h42.44.714,SL_base_41,2021.2.3,Win32,60.24096386,2.0666,,,30,0,30,0,1,,,,,,,,
,,"[""circle"",""red"",""vert"",""up"",[106,106],[106,-106]]",circle,red,vert,up,"[106,106]","[106,-106]",left,0,,,,,,001,2025-03-17_14h42.44.714,SL_base_41,2021.2.3,Win32,60.24096386,2.423,,,31,0,31,0,1,,,,,,,,
,,"[""diamond"",""no_dis"",""vert"",""up"",[99999,99999],[-150,0]]",diamond,no_dis,vert,up,"[99999,99999]","[-150,0]",up,1,,,,,,001,2025-03-17_14h42.44.714,SL_base_41,2021.2.3,Win32,60.24096386,1.6936,,,32,0,32,0,1,,,,,,,,
,,"[""diamond"",""no_dis"",""hori"",""left"",[99999,99999],[106,106]]",diamond,no_dis,hori,left,"[99999,99999]","[106,106]",left,1,,,,,,001,2025-03-17_14h42.44.714,SL_base_41,2021.2.3,Win32,60.24096386,0.9584,,,33,0,33,0,1,,,,,,,,
,,"[""circle"",""red"",""vert"",""up"",[150,0],[-150,0]]",circle,red,vert,up,"[150,0]","[-150,0]",up,1,,,,,,001,2025-03-17_14h42.44.714,SL_base_41,2021.2.3,Win32,60.24096386,1.6169,,,34,0,34,0,1,,,,,,,,
,,"[""circle"",""green"",""hori"",""left"",[106,-106],[0,-150]]",circle,green,hori,left,"[106,-106]","[0,-150]",left,1,,,,,,001,2025-03-17_14h42.44.714,SL_base_41,2021.2.3,Win32,60.24096386,1.2837,,,35,0,35,0,1,,,,,,,,
,,"[""circle"",""no_dis"",""hori"",""left"",[99999,99999],[150,0]]",circle,no_dis,hori,left,"[99999,99999]","[150,0]",left,1,,,,,,001,2025-03-17_14h42.44.714,SL_base_41,2021.2.3,Win32,60.24096386,2,,,36,0,36,0,1,,,,,,,,
,,"[""circle"",""red"",""vert"",""up"",[0,-150],[106,-106]]",circle,red,vert,up,"[0,-150]","[106,-106]",up,1,,,,,,001,2025-03-17_14h42.44.714,SL_base_41,2021.2.3,Win32,60.24096386,1.3841,,,37,0,37,0,1,,,,,,,,
,,"[""circle"",""red"",""vert"",""up"",[-150,0],[150,0]]",circle,red,vert,up,"[-150,0]","[150,0]",up,1,,,,,,001,2025-03-17_14h42.44.714,SL_base_41,2021.2.3,Win32,60.24096386,1.5709,,,38,0,38,0,1,,,,,,,,
,,"[""circle"",""green"",""vert"",""up"",[-106,106],[0,-150]]",circle,green,vert,up,"[-106,106]","[0,-150]",up,1,,,,,,001,2025-03-17_14h42.44.714,SL_base_41,2021.2.3,Win32,60.24096386,1.8369,,,39,0,39,0,1,,,,,,,,
,,"[""diamond"",""no_dis"",""vert"",""up"",[99999,99999],[0,-150]]",diamond,no_dis,vert,up,"[99999,99999]","[0,-150]",up,1,,,,,,001,2025-03-17_14h42.44.714,SL_base_41,2021.2.3,Win32,60.24096386,2.1673,,,40,0,40,0,1,,,,,,,,
,,"[""circle"",""green"",""vert"",""up"",[-150,0],[0,-150]]",circle,green,vert,up,"[-150,0]","[0,-150]",up,1,,,,,,001,2025-03-17_14h42.44.714,SL_base_41,2021.2.3,Win32,60.24096386,1.4174,,,41,0,41,0,1,,,,,,,,
,,"[""diamond"",""red"",""hori"",""left"",[-150,0],[150,0]]",diamond,red,hori,left,"[-150,0]","[150,0]",left,1,,,,,,001,2025-03-17_14h42.44.714,SL_base_41,2021.2.3,Win32,60.24096386,1.7042,,,42,0,42,0,1,,,,,,,,
,,"[""diamond"",""green"",""hori"",""left"",[106,106],[106,-106]]",diamond,green,hori,left,"[106,106]","[106,-106]",left,1,,,,,,001,2025-03-17_14h42.44.714,SL_base_41,2021.2.3,Win32,60.24096386,1.2217,,,43,0,43,0,1,,,,,,,,
,,"[""diamond"",""green"",""vert"",""up"",[-150,0],[-106,106]]",diamond,green,vert,up,"[-150,0]","[-106,106]",up,1,,,,,,001,2025-03-17_14h42.44.714,SL_base_41,2021.2.3,Win32,60.24096386,1.0841,,,44,0,44,0,1,,,,,,,,
,,"[""circle"",""no_dis"",""hori"",""left"",[99999,99999],[-106,106]]",circle,no_dis,hori,left,"[99999,99999]","[-106,106]",left,1,,,,,,001,2025-03-17_14h42.44.714,SL_base_41,2021.2.3,Win32,60.24096386,1.5867,,,45,0,45,0,1,,,,,,,,
,,"[""circle"",""no_dis"",""hori"",""left"",[99999,99999],[-150,0]]",circle,no_dis,hori,left,"[99999,99999]","[-150,0]",left,1,,,,,,001,2025-03-17_14h42.44.714,SL_base_41,2021.2.3,Win32,60.24096386,2.167,,,46,0,46,0,1,,,,,,,,
,,"[""circle"",""red"",""hori"",""left"",[-106,106],[-150,0]]",circle,red,hori,left,"[-106,106]","[-150,0]",left,1,,,,,,001,2025-03-17_14h42.44.714,SL_base_41,2021.2.3,Win32,60.24096386,1.5219,,,47,0,47,0,1,,,,,,,,
,,"[""circle"",""green"",""hori"",""left"",[-106,106],[-106,-106]]",circle,green,hori,left,"[-106,106]","[-106,-106]",left,1,,,,,,001,2025-03-17_14h42.44.714,SL_base_41,2021.2.3,Win32,60.24096386,1.1502,,,48,0,48,0,1,,,,,,,,
,,"[""circle"",""no_dis"",""vert"",""up"",[99999,99999],[0,150]]",circle,no_dis,vert,up,"[99999,99999]","[0,150]",up,1,,,,,,001,2025-03-17_14h42.44.714,SL_base_41,2021.2.3,Win32,60.24096386,1.1841,,,49,0,49,0,1,,,,,,,,
,,"[""diamond"",""red"",""hori"",""left"",[106,-106],[150,0]]",diamond,red,hori,left,"[106,-106]","[150,0]",left,1,,,,,,001,2025-03-17_14h42.44.714,SL_base_41,2021.2.3,Win32,60.24096386,1.7007,,,50,0,50,0,1,,,,,,,,
,,"[""circle"",""green"",""hori"",""left"",[-150,0],[0,-150]]",circle,green,hori,left,"[-150,0]","[0,-150]",left,1,,,,,,001,2025-03-17_14h42.44.714,SL_base_41,2021.2.3,Win32,60.24096386,1.4206,,,51,0,51,0,1,,,,,,,,
,,"[""diamond"",""no_dis"",""vert"",""up"",[99999,99999],[-106,106]]",diamond,no_dis,vert,up,"[99999,99999]","[-106,106]",up,1,,,,,,001,2025-03-17_14h42.44.714,SL_base_41,2021.2.3,Win32,60.24096386,1.117,,,52,0,52,0,1,,,,,,,,
,,"[""diamond"",""red"",""hori"",""left"",[-150,0],[106,106]]",diamond,red,hori,left,"[-150,0]","[106,106]",up,0,,,,,,001,2025-03-17_14h42.44.714,SL_base_41,2021.2.3,Win32,60.24096386,1.8998,,,53,0,53,0,1,,,,,,,,
,,"[""circle"",""no_dis"",""hori"",""left"",[99999,99999],[-106,106]]",circle,no_dis,hori,left,"[99999,99999]","[-106,106]",left,1,,,,,,001,2025-03-17_14h42.44.714,SL_base_41,2021.2.3,Win32,60.24096386,1.8673,,,54,0,54,0,1,,,,,,,,
,,"[""circle"",""red"",""hori"",""left"",[-106,-106],[-106,106]]",circle,red,hori,left,"[-106,-106]","[-106,106]",left,1,,,,,,001,2025-03-17_14h42.44.714,SL_base_41,2021.2.3,Win32,60.24096386,1.3175,,,55,0,55,0,1,,,,,,,,
,,"[""diamond"",""no_dis"",""vert"",""up"",[99999,99999],[-106,-106]]",diamond,no_dis,vert,up,"[99999,99999]","[-106,-106]",up,1,,,,,,001,2025-03-17_14h42.44.714,SL_base_41,2021.2.3,Win32,60.24096386,1.9499,,,56,0,56,0,1,,,,,,,,
,,"[""diamond"",""no_dis"",""hori"",""left"",[99999,99999],[0,-150]]",diamond,no_dis,hori,left,"[99999,99999]","[0,-150]",left,1,,,,,,001,2025-03-17_14h42.44.714,SL_base_41,2021.2.3,Win32,60.24096386,1.4441,,,57,0,57,0,1,,,,,,,,
,,"[""circle"",""no_dis"",""vert"",""up"",[99999,99999],[106,106]]",circle,no_dis,vert,up,"[99999,99999]","[106,106]",up,1,,,,,,001,2025-03-17_14h42.44.714,SL_base_41,2021.2.3,Win32,60.24096386,1.5507,,,58,0,58,0,1,,,,,,,,
,,"[""circle"",""red"",""hori"",""left"",[0,-150],[106,-106]]",circle,red,hori,left,"[0,-150]","[106,-106]",left,1,,,,,,001,2025-03-17_14h42.44.714,SL_base_41,2021.2.3,Win32,60.24096386,1.3892,,,59,0,59,0,1,,,,,,,,
,,"[""circle"",""no_dis"",""hori"",""left"",[99999,99999],[-150,0]]",circle,no_dis,hori,left,"[99999,99999]","[-150,0]",left,1,,,,,,001,2025-03-17_14h42.44.714,SL_base_41,2021.2.3,Win32,60.24096386,1.5229,,,60,0,60,0,1,,,,,,,,
,,"[""diamond"",""green"",""hori"",""left"",[0,150],[-106,106]]",diamond,green,hori,left,"[0,150]","[-106,106]",left,1,,,,,,001,2025-03-17_14h42.44.714,SL_base_41,2021.2.3,Win32,60.24096386,1.7343,,,61,0,61,0,1,,,,,,,,
,,"[""circle"",""red"",""hori"",""left"",[-106,-106],[150,0]]",circle,red,hori,left,"[-106,-106]","[150,0]",up,0,,,,,,001,2025-03-17_14h42.44.714,SL_base_41,2021.2.3,Win32,60.24096386,1.684,,,62,0,62,0,1,,,,,,,,
,,"[""circle"",""no_dis"",""hori"",""left"",[99999,99999],[0,150]]",circle,no_dis,hori,left,"[99999,99999]","[0,150]",left,1,,,,,,001,2025-03-17_14h42.44.714,SL_base_41,2021.2.3,Win32,60.24096386,2.7673,,,63,0,63,0,1,,,,,,,,
,,"[""circle"",""red"",""vert"",""up"",[-150,0],[106,-106]]",circle,red,vert,up,"[-150,0]","[106,-106]",up,1,,,,,,001,2025-03-17_14h42.44.714,SL_base_41,2021.2.3,Win32,60.24096386,1.184,,,64,0,64,0,1,,,,,,,,
,,"[""diamond"",""no_dis"",""hori"",""left"",[99999,99999],[-106,106]]",diamond,no_dis,hori,left,"[99999,99999]","[-106,106]",left,1,,,,,,001,2025-03-17_14h42.44.714,SL_base_41,2021.2.3,Win32,60.24096386,1.4743,,,65,0,65,0,1,,,,,,,,
,,"[""circle"",""red"",""hori"",""left"",[-150,0],[-106,106]]",circle,red,hori,left,"[-150,0]","[-106,106]",left,1,,,,,,001,2025-03-17_14h42.44.714,SL_base_41,2021.2.3,Win32,60.24096386,2.0339,,,66,0,66,0,1,,,,,,,,
,,"[""circle"",""green"",""vert"",""up"",[-106,-106],[150,0]]",circle,green,vert,up,"[-106,-106]","[150,0]",up,1,,,,,,001,2025-03-17_14h42.44.714,SL_base_41,2021.2.3,Win32,60.24096386,2.4343,,,67,0,67,0,1,,,,,,,,
,,"[""circle"",""green"",""vert"",""up"",[-106,-106],[-150,0]]",circle,green,vert,up,"[-106,-106]","[-150,0]",up,1,,,,,,001,2025-03-17_14h42.44.714,SL_base_41,2021.2.3,Win32,60.24096386,1.4347,,,68,0,68,0,1,,,,,,,,
,,"[""diamond"",""red"",""vert"",""up"",[-106,106],[0,-150]]",diamond,red,vert,up,"[-106,106]","[0,-150]",up,1,,,,,,001,2025-03-17_14h42.44.714,SL_base_41,2021.2.3,Win32,60.24096386,1.5167,,,69,0,69,0,1,,,,,,,,
,,"[""circle"",""no_dis"",""hori"",""left"",[99999,99999],[106,-106]]",circle,no_dis,hori,left,"[99999,99999]","[106,-106]",left,1,,,,,,001,2025-03-17_14h42.44.714,SL_base_41,2021.2.3,Win32,60.24096386,1.2041,,,70,0,70,0,1,,,,,,,,
,,"[""diamond"",""no_dis"",""hori"",""left"",[99999,99999],[0,150]]",diamond,no_dis,hori,left,"[99999,99999]","[0,150]",left,1,,,,,,001,2025-03-17_14h42.44.714,SL_base_41,2021.2.3,Win32,60.24096386,1.5672,,,71,0,71,0,1,,,,,,,,
,,"[""circle"",""no_dis"",""vert"",""up"",[99999,99999],[0,150]]",circle,no_dis,vert,up,"[99999,99999]","[0,150]",up,1,,,,,,001,2025-03-17_14h42.44.714,SL_base_41,2021.2.3,Win32,60.24096386,1.4376,,,72,0,72,0,1,,,,,,,,
,,"[""diamond"",""green"",""vert"",""up"",[-150,0],[150,0]]",diamond,green,vert,up,"[-150,0]","[150,0]",up,1,,,,,,001,2025-03-17_14h42.44.714,SL_base_41,2021.2.3,Win32,60.24096386,1.3766,,,73,0,73,0,1,,,,,,,,
,,"[""diamond"",""no_dis"",""hori"",""left"",[99999,99999],[-106,-106]]",diamond,no_dis,hori,left,"[99999,99999]","[-106,-106]",left,1,,,,,,001,2025-03-17_14h42.44.714,SL_base_41,2021.2.3,Win32,60.24096386,1.2835,,,74,0,74,0,1,,,,,,,,
,,"[""circle"",""no_dis"",""vert"",""up"",[99999,99999],[150,0]]",circle,no_dis,vert,up,"[99999,99999]","[150,0]",up,1,,,,,,001,2025-03-17_14h42.44.714,SL_base_41,2021.2.3,Win32,60.24096386,1.6341,,,75,0,75,0,1,,,,,,,,
,,"[""diamond"",""green"",""hori"",""left"",[-106,106],[150,0]]",diamond,green,hori,left,"[-106,106]","[150,0]",left,1,,,,,,001,2025-03-17_14h42.44.714,SL_base_41,2021.2.3,Win32,60.24096386,1.7044,,,76,0,76,0,1,,,,,,,,
,,"[""diamond"",""green"",""vert"",""up"",[106,-106],[106,106]]",diamond,green,vert,up,"[106,-106]","[106,106]",up,1,,,,,,001,2025-03-17_14h42.44.714,SL_base_41,2021.2.3,Win32,60.24096386,1.1169,,,77,0,77,0,1,,,,,,,,
,,"[""circle"",""green"",""vert"",""up"",[-150,0],[0,150]]",circle,green,vert,up,"[-150,0]","[0,150]",up,1,,,,,,001,2025-03-17_14h42.44.714,SL_base_41,2021.2.3,Win32,60.24096386,2.3864,,,78,0,78,0,1,,,,,,,,
,,"[""diamond"",""red"",""vert"",""up"",[106,106],[-150,0]]",diamond,red,vert,up,"[106,106]","[-150,0]",up,1,,,,,,001,2025-03-17_14h42.44.714,SL_base_41,2021.2.3,Win32,60.24096386,1.1832,,,79,0,79,0,1,,,,,,,,
,,"[""diamond"",""green"",""vert"",""up"",[0,150],[0,-150]]",diamond,green,vert,up,"[0,150]","[0,-150]",up,1,,,,,,001,2025-03-17_14h42.44.714,SL_base_41,2021.2.3,Win32,60.24096386,1.1748,,,80,0,80,0,1,,,,,,,,
,,"[""circle"",""green"",""hori"",""left"",[-150,0],[150,0]]",circle,green,hori,left,"[-150,0]","[150,0]",left,1,,,,,,001,2025-03-17_14h42.44.714,SL_base_41,2021.2.3,Win32,60.24096386,1.5365,,,81,0,81,0,1,,,,,,,,
,,"[""circle"",""green"",""hori"",""left"",[-150,0],[150,0]]",circle,green,hori,left,"[-150,0]","[150,0]",left,1,,,,,,001,2025-03-17_14h42.44.714,SL_base_41,2021.2.3,Win32,60.24096386,2.0501,,,82,0,82,0,1,,,,,,,,
,,"[""diamond"",""red"",""hori"",""left"",[150,0],[106,106]]",diamond,red,hori,left,"[150,0]","[106,106]",left,1,,,,,,001,2025-03-17_14h42.44.714,SL_base_41,2021.2.3,Win32,60.24096386,1.2272,,,83,0,83,0,1,,,,,,,,
,,"[""diamond"",""red"",""vert"",""up"",[0,150],[-106,-106]]",diamond,red,vert,up,"[0,150]","[-106,-106]",up,1,,,,,,001,2025-03-17_14h42.44.714,SL_base_41,2021.2.3,Win32,60.24096386,1.2336,,,84,0,84,0,1,,,,,,,,
,,"[""diamond"",""green"",""vert"",""up"",[150,0],[-150,0]]",diamond,green,vert,up,"[150,0]","[-150,0]",up,1,,,,,,001,2025-03-17_14h42.44.714,SL_base_41,2021.2.3,Win32,60.24096386,1.6949,,,85,0,85,0,1,,,,,,,,
,,"[""diamond"",""green"",""hori"",""left"",[-150,0],[106,106]]",diamond,green,hori,left,"[-150,0]","[106,106]",left,1,,,,,,001,2025-03-17_14h42.44.714,SL_base_41,2021.2.3,Win32,60.24096386,1.0174,,,86,0,86,0,1,,,,,,,,
,,"[""circle"",""green"",""vert"",""up"",[150,0],[106,-106]]",circle,green,vert,up,"[150,0]","[106,-106]",up,1,,,,,,001,2025-03-17_14h42.44.714,SL_base_41,2021.2.3,Win32,60.24096386,1.1333,,,87,0,87,0,1,,,,,,,,
,,"[""circle"",""red"",""hori"",""left"",[-106,-106],[106,-106]]",circle,red,hori,left,"[-106,-106]","[106,-106]",left,1,,,,,,001,2025-03-17_14h42.44.714,SL_base_41,2021.2.3,Win32,60.24096386,1.9836,,,88,0,88,0,1,,,,,,,,
,,"[""diamond"",""green"",""vert"",""up"",[106,-106],[-150,0]]",diamond,green,vert,up,"[106,-106]","[-150,0]",up,1,,,,,,001,2025-03-17_14h42.44.714,SL_base_41,2021.2.3,Win32,60.24096386,1.3006,,,89,0,89,0,1,,,,,,,,
,,"[""circle"",""no_dis"",""vert"",""up"",[99999,99999],[106,-106]]",circle,no_dis,vert,up,"[99999,99999]","[106,-106]",up,1,,,,,,001,2025-03-17_14h42.44.714,SL_base_41,2021.2.3,Win32,60.24096386,2.2771,,,90,0,90,0,1,,,,,,,,
,,"[""circle"",""green"",""vert"",""up"",[-106,106],[106,106]]",circle,green,vert,up,"[-106,106]","[106,106]",up,1,,,,,,001,2025-03-17_14h42.44.714,SL_base_41,2021.2.3,Win32,60.24096386,1.1583,,,91,0,91,0,1,,,,,,,,
,,"[""diamond"",""no_dis"",""hori"",""left"",[99999,99999],[106,-106]]",diamond,no_dis,hori,left,"[99999,99999]","[106,-106]",up,0,,,,,,001,2025-03-17_14h42.44.714,SL_base_41,2021.2.3,Win32,60.24096386,1.6921,,,92,0,92,0,1,,,,,,,,
,,"[""circle"",""green"",""hori"",""left"",[-150,0],[106,-106]]",circle,green,hori,left,"[-150,0]","[106,-106]",left,1,,,,,,001,2025-03-17_14h42.44.714,SL_base_41,2021.2.3,Win32,60.24096386,0.9547,,,93,0,93,0,1,,,,,,,,
,,"[""circle"",""red"",""vert"",""up"",[-150,0],[106,-106]]",circle,red,vert,up,"[-150,0]","[106,-106]",left,0,,,,,,001,2025-03-17_14h42.44.714,SL_base_41,2021.2.3,Win32,60.24096386,0.8452,,,94,0,94,0,1,,,,,,,,
,,"[""diamond"",""green"",""vert"",""up"",[-150,0],[150,0]]",diamond,green,vert,up,"[-150,0]","[150,0]",up,1,,,,,,001,2025-03-17_14h42.44.714,SL_base_41,2021.2.3,Win32,60.24096386,1.1339,,,95,0,95,0,1,,,,,,,,
,,"[""circle"",""no_dis"",""vert"",""up"",[99999,99999],[150,0]]",circle,no_dis,vert,up,"[99999,99999]","[150,0]",up,1,,,,,,001,2025-03-17_14h42.44.714,SL_base_41,2021.2.3,Win32,60.24096386,1.7875,,,96,0,96,0,1,,,,,,,,
,,"[""diamond"",""no_dis"",""hori"",""left"",[99999,99999],[106,-106]]",diamond,no_dis,hori,left,"[99999,99999]","[106,-106]",left,1,,,,,,001,2025-03-17_14h42.44.714,SL_base_41,2021.2.3,Win32,60.24096386,1.3557,,,97,0,97,0,1,,,,,,,,
,,"[""diamond"",""red"",""vert"",""up"",[0,-150],[-150,0]]",diamond,red,vert,up,"[0,-150]","[-150,0]",up,1,,,,,,001,2025-03-17_14h42.44.714,SL_base_41,2021.2.3,Win32,60.24096386,1.3005,,,98,0,98,0,1,,,,,,,,
,,"[""diamond"",""green"",""hori"",""left"",[-150,0],[106,106]]",diamond,green,hori,left,"[-150,0]","[106,106]",left,1,,,,,,001,2025-03-17_14h42.44.714,SL_base_41,2021.2.3,Win32,60.24096386,1.2172,,,99,0,99,0,1,,,,,,,,
,,"[""circle"",""red"",""vert"",""up"",[106,-106],[0,150]]",circle,red,vert,up,"[106,-106]","[0,150]",up,1,,,,,,001,2025-03-17_14h42.44.714,SL_base_41,2021.2.3,Win32,60.24096386,2.2006,,,100,0,100,0,1,,,,,,,,
,,"[""circle"",""green"",""vert"",""up"",[106,106],[106,-106]]",circle,green,vert,up,"[106,106]","[106,-106]",up,1,,,,,,001,2025-03-17_14h42.44.714,SL_base_41,2021.2.3,Win32,60.24096386,1.3548,,,101,0,101,0,1,,,,,,,,
,,"[""circle"",""red"",""hori"",""left"",[150,0],[-106,-106]]",circle,red,hori,left,"[150,0]","[-106,-106]",left,1,,,,,,001,2025-03-17_14h42.44.714,SL_base_41,2021.2.3,Win32,60.24096386,2.1905,,,102,0,102,0,1,,,,,,,,
,,"[""circle"",""green"",""vert"",""up"",[106,106],[-150,0]]",circle,green,vert,up,"[106,106]","[-150,0]",up,1,,,,,,001,2025-03-17_14h42.44.714,SL_base_41,2021.2.3,Win32,60.24096386,1.246,,,103,0,103,0,1,,,,,,,,
,,"[""diamond"",""red"",""vert"",""up"",[-106,-106],[106,-106]]",diamond,red,vert,up,"[-106,-106]","[106,-106]",up,1,,,,,,001,2025-03-17_14h42.44.714,SL_base_41,2021.2.3,Win32,60.24096386,1.1241,,,104,0,104,0,1,,,,,,,,
,,"[""circle"",""red"",""hori"",""left"",[106,106],[106,-106]]",circle,red,hori,left,"[106,106]","[106,-106]",left,1,,,,,,001,2025-03-17_14h42.44.714,SL_base_41,2021.2.3,Win32,60.24096386,1.234,,,105,0,105,0,1,,,,,,,,
,,"[""diamond"",""red"",""hori"",""left"",[-150,0],[106,-106]]",diamond,red,hori,left,"[-150,0]","[106,-106]",left,1,,,,,,001,2025-03-17_14h42.44.714,SL_base_41,2021.2.3,Win32,60.24096386,2.6541,,,106,0,106,0,1,,,,,,,,
,,"[""circle"",""green"",""hori"",""left"",[106,106],[106,-106]]",circle,green,hori,left,"[106,106]","[106,-106]",left,1,,,,,,001,2025-03-17_14h42.44.714,SL_base_41,2021.2.3,Win32,60.24096386,1.3251,,,107,0,107,0,1,,,,,,,,
,,"[""circle"",""red"",""vert"",""up"",[-150,0],[-106,-106]]",circle,red,vert,up,"[-150,0]","[-106,-106]",up,1,,,,,,001,2025-03-17_14h42.44.714,SL_base_41,2021.2.3,Win32,60.24096386,1.084,,,108,0,108,0,1,,,,,,,,
,,"[""circle"",""red"",""vert"",""up"",[-150,0],[0,150]]",circle,red,vert,up,"[-150,0]","[0,150]",up,1,,,,,,001,2025-03-17_14h42.44.714,SL_base_41,2021.2.3,Win32,60.24096386,1.4841,,,109,0,109,0,1,,,,,,,,
,,"[""circle"",""red"",""vert"",""up"",[-150,0],[-106,-106]]",circle,red,vert,up,"[-150,0]","[-106,-106]",up,1,,,,,,001,2025-03-17_14h42.44.714,SL_base_41,2021.2.3,Win32,60.24096386,1.4114,,,110,0,110,0,1,,,,,,,,
,,"[""diamond"",""green"",""hori"",""left"",[0,150],[106,-106]]",diamond,green,hori,left,"[0,150]","[106,-106]",left,1,,,,,,001,2025-03-17_14h42.44.714,SL_base_41,2021.2.3,Win32,60.24096386,1.1728,,,111,0,111,0,1,,,,,,,,
,,"[""diamond"",""no_dis"",""vert"",""up"",[99999,99999],[106,106]]",diamond,no_dis,vert,up,"[99999,99999]","[106,106]",up,1,,,,,,001,2025-03-17_14h42.44.714,SL_base_41,2021.2.3,Win32,60.24096386,1.3009,,,112,0,112,0,1,,,,,,,,
,,"[""circle"",""no_dis"",""hori"",""left"",[99999,99999],[-106,106]]",circle,no_dis,hori,left,"[99999,99999]","[-106,106]",left,1,,,,,,001,2025-03-17_14h42.44.714,SL_base_41,2021.2.3,Win32,60.24096386,1.4372,,,113,0,113,0,1,,,,,,,,
,,"[""diamond"",""red"",""vert"",""up"",[-150,0],[106,106]]",diamond,red,vert,up,"[-150,0]","[106,106]",up,1,,,,,,001,2025-03-17_14h42.44.714,SL_base_41,2021.2.3,Win32,60.24096386,2.5907,,,114,0,114,0,1,,,,,,,,
,,"[""circle"",""green"",""hori"",""left"",[0,-150],[-106,106]]",circle,green,hori,left,"[0,-150]","[-106,106]",left,1,,,,,,001,2025-03-17_14h42.44.714,SL_base_41,2021.2.3,Win32,60.24096386,1.0674,,,115,0,115,0,1,,,,,,,,
,,"[""diamond"",""red"",""hori"",""left"",[150,0],[-106,-106]]",diamond,red,hori,left,"[150,0]","[-106,-106]",left,1,,,,,,001,2025-03-17_14h42.44.714,SL_base_41,2021.2.3,Win32,60.24096386,1.5837,,,116,0,116,0,1,,,,,,,,
,,"[""diamond"",""red"",""hori"",""left"",[-106,-106],[106,-106]]",diamond,red,hori,left,"[-106,-106]","[106,-106]",left,1,,,,,,001,2025-03-17_14h42.44.714,SL_base_41,2021.2.3,Win32,60.24096386,1.0676,,,117,0,117,0,1,,,,,,,,
,,"[""diamond"",""red"",""vert"",""up"",[0,-150],[-150,0]]",diamond,red,vert,up,"[0,-150]","[-150,0]",up,1,,,,,,001,2025-03-17_14h42.44.714,SL_base_41,2021.2.3,Win32,60.24096386,1.4463,,,118,0,118,0,1,,,,,,,,
,,"[""diamond"",""red"",""hori"",""left"",[0,-150],[106,106]]",diamond,red,hori,left,"[0,-150]","[106,106]",left,1,,,,,,001,2025-03-17_14h42.44.714,SL_base_41,2021.2.3,Win32,60.24096386,0.8339,,,119,0,119,0,1,,,,,,,,
,,"[""diamond"",""red"",""hori"",""left"",[-106,106],[106,-106]]",diamond,red,hori,left,"[-106,106]","[106,-106]",left,1,,,,,,001,2025-03-17_14h42.44.714,SL_base_41,2021.2.3,Win32,60.24096386,0.9379,,,120,0,120,0,1,,,,,,,,
,,"[""circle"",""red"",""hori"",""left"",[0,150],[-150,0]]",circle,red,hori,left,"[0,150]","[-150,0]",left,1,,,,,,001,2025-03-17_14h42.44.714,SL_base_41,2021.2.3,Win32,60.24096386,1.5503,,,121,0,121,0,1,,,,,,,,
,,"[""diamond"",""no_dis"",""hori"",""left"",[99999,99999],[0,-150]]",diamond,no_dis,hori,left,"[99999,99999]","[0,-150]",left,1,,,,,,001,2025-03-17_14h42.44.714,SL_base_41,2021.2.3,Win32,60.24096386,0.9675,,,122,0,122,0,1,,,,,,,,
,,"[""diamond"",""green"",""hori"",""left"",[106,-106],[106,106]]",diamond,green,hori,left,"[106,-106]","[106,106]",left,1,,,,,,001,2025-03-17_14h42.44.714,SL_base_41,2021.2.3,Win32,60.24096386,2.2168,,,123,0,123,0,1,,,,,,,,
,,"[""diamond"",""green"",""hori"",""left"",[150,0],[106,106]]",diamond,green,hori,left,"[150,0]","[106,106]",left,1,,,,,,001,2025-03-17_14h42.44.714,SL_base_41,2021.2.3,Win32,60.24096386,1.5358,,,124,0,124,0,1,,,,,,,,
,,"[""diamond"",""green"",""hori"",""left"",[0,150],[-106,106]]",diamond,green,hori,left,"[0,150]","[-106,106]",left,1,,,,,,001,2025-03-17_14h42.44.714,SL_base_41,2021.2.3,Win32,60.24096386,0.9504,,,125,0,125,0,1,,,,,,,,
,,"[""diamond"",""no_dis"",""hori"",""left"",[99999,99999],[0,-150]]",diamond,no_dis,hori,left,"[99999,99999]","[0,-150]",left,1,,,,,,001,2025-03-17_14h42.44.714,SL_base_41,2021.2.3,Win32,60.24096386,0.951,,,126,0,126,0,1,,,,,,,,
,,"[""diamond"",""green"",""vert"",""up"",[0,150],[0,-150]]",diamond,green,vert,up,"[0,150]","[0,-150]",up,1,,,,,,001,2025-03-17_14h42.44.714,SL_base_41,2021.2.3,Win32,60.24096386,1.1778,,,127,0,127,0,1,,,,,,,,
,,,,,,,,,,,,,,,,001,2025-03-17_14h42.44.714,SL_base_41,2021.2.3,Win32,60.24096386,,,,,,,,,3,space,146.1401,2,0,2,0,1
,,"[""circle"",""red"",""hori"",""left"",[-106,-106],[150,0]]",circle,red,hori,left,"[-106,-106]","[150,0]",up,0,,,,,,001,2025-03-17_14h42.44.714,SL_base_41,2021.2.3,Win32,60.24096386,1.6837,,,0,0,0,0,1,,,,,,,,
,,"[""circle"",""green"",""hori"",""left"",[150,0],[-106,-106]]",circle,green,hori,left,"[150,0]","[-106,-106]",left,1,,,,,,001,2025-03-17_14h42.44.714,SL_base_41,2021.2.3,Win32,60.24096386,1.1073,,,1,0,1,0,1,,,,,,,,
,,"[""diamond"",""no_dis"",""hori"",""left"",[99999,99999],[106,-106]]",diamond,no_dis,hori,left,"[99999,99999]","[106,-106]",left,1,,,,,,001,2025-03-17_14h42.44.714,SL_base_41,2021.2.3,Win32,60.24096386,1.5498,,,2,0,2,0,1,,,,,,,,
,,"[""diamond"",""green"",""hori"",""left"",[150,0],[106,106]]",diamond,green,hori,left,"[150,0]","[106,106]",left,1,,,,,,001,2025-03-17_14h42.44.714,SL_base_41,2021.2.3,Win32,60.24096386,1.4008,,,3,0,3,0,1,,,,,,,,
,,"[""circle"",""green"",""hori"",""left"",[-106,106],[-106,-106]]",circle,green,hori,left,"[-106,106]","[-106,-106]",left,1,,,,,,001,2025-03-17_14h42.44.714,SL_base_41,2021.2.3,Win32,60.24096386,1.2668,,,4,0,4,0,1,,,,,,,,
,,"[""circle"",""red"",""vert"",""up"",[-150,0],[106,-106]]",circle,red,vert,up,"[-150,0]","[106,-106]",up,1,,,,,,001,2025-03-17_14h42.44.714,SL_base_41,2021.2.3,Win32,60.24096386,1.717,,,5,0,5,0,1,,,,,,,,
,,"[""circle"",""green"",""vert"",""up"",[150,0],[106,-106]]",circle,green,vert,up,"[150,0]","[106,-106]",up,1,,,,,,001,2025-03-17_14h42.44.714,SL_base_41,2021.2.3,Win32,60.24096386,0.8172,,,6,0,6,0,1,,,,,,,,
,,"[""diamond"",""green"",""hori"",""left"",[106,106],[106,-106]]",diamond,green,hori,left,"[106,106]","[106,-106]",left,1,,,,,,001,2025-03-17_14h42.44.714,SL_base_41,2021.2.3,Win32,60.24096386,1.6176,,,7,0,7,0,1,,,,,,,,
,,"[""circle"",""green"",""vert"",""up"",[-150,0],[0,-150]]",circle,green,vert,up,"[-150,0]","[0,-150]",up,1,,,,,,001,2025-03-17_14h42.44.714,SL_base_41,2021.2.3,Win32,60.24096386,1.3708,,,8,0,8,0,1,,,,,,,,
,,"[""diamond"",""no_dis"",""vert"",""up"",[99999,99999],[-106,-106]]",diamond,no_dis,vert,up,"[99999,99999]","[-106,-106]",up,1,,,,,,001,2025-03-17_14h42.44.714,SL_base_41,2021.2.3,Win32,60.24096386,2.1668,,,9,0,9,0,1,,,,,,,,
,,"[""diamond"",""green"",""hori"",""left"",[-150,0],[106,106]]",diamond,green,hori,left,"[-150,0]","[106,106]",left,1,,,,,,001,2025-03-17_14h42.44.714,SL_base_41,2021.2.3,Win32,60.24096386,1.2052,,,10,0,10,0,1,,,,,,,,
,,"[""diamond"",""red"",""hori"",""left"",[-106,-106],[106,-106]]",diamond,red,hori,left,"[-106,-106]","[106,-106]",left,1,,,,,,001,2025-03-17_14h42.44.714,SL_base_41,2021.2.3,Win32,60.24096386,1.5546,,,11,0,11,0,1,,,,,,,,
,,"[""circle"",""green"",""vert"",""up"",[106,106],[106,-106]]",circle,green,vert,up,"[106,106]","[106,-106]",up,1,,,,,,001,2025-03-17_14h42.44.714,SL_base_41,2021.2.3,Win32,60.24096386,1.2584,,,12,0,12,0,1,,,,,,,,
,,"[""circle"",""green"",""hori"",""left"",[-150,0],[0,-150]]",circle,green,hori,left,"[-150,0]","[0,-150]",left,1,,,,,,001,2025-03-17_14h42.44.714,SL_base_41,2021.2.3,Win32,60.24096386,1.7506,,,13,0,13,0,1,,,,,,,,
,,"[""circle"",""green"",""hori"",""left"",[-150,0],[150,0]]",circle,green,hori,left,"[-150,0]","[150,0]",left,1,,,,,,001,2025-03-17_14h42.44.714,SL_base_41,2021.2.3,Win32,60.24096386,1.3672,,,14,0,14,0,1,,,,,,,,
,,"[""circle"",""green"",""vert"",""up"",[-106,106],[106,106]]",circle,green,vert,up,"[-106,106]","[106,106]",up,1,,,,,,001,2025-03-17_14h42.44.714,SL_base_41,2021.2.3,Win32,60.24096386,1.0281,,,15,0,15,0,1,,,,,,,,
,,"[""circle"",""no_dis"",""vert"",""up"",[99999,99999],[106,106]]",circle,no_dis,vert,up,"[99999,99999]","[106,106]",up,1,,,,,,001,2025-03-17_14h42.44.714,SL_base_41,2021.2.3,Win32,60.24096386,1.1333,,,16,0,16,0,1,,,,,,,,
,,"[""diamond"",""green"",""hori"",""left"",[106,-106],[106,106]]",diamond,green,hori,left,"[106,-106]","[106,106]",left,1,,,,,,001,2025-03-17_14h42.44.714,SL_base_41,2021.2.3,Win32,60.24096386,1.4503,,,17,0,17,0,1,,,,,,,,
,,"[""circle"",""green"",""vert"",""up"",[106,106],[-150,0]]",circle,green,vert,up,"[106,106]","[-150,0]",up,1,,,,,,001,2025-03-17_14h42.44.714,SL_base_41,2021.2.3,Win32,60.24096386,2.6227,,,18,0,18,0,1,,,,,,,,
,,"[""circle"",""green"",""vert"",""up"",[-106,-106],[150,0]]",circle,green,vert,up,"[-106,-106]","[150,0]",up,1,,,,,,001,2025-03-17_14h42.44.714,SL_base_41,2021.2.3,Win32,60.24096386,1.5175,,,19,0,19,0,1,,,,,,,,
,,"[""circle"",""red"",""vert"",""up"",[0,-150],[106,-106]]",circle,red,vert,up,"[0,-150]","[106,-106]",up,1,,,,,,001,2025-03-17_14h42.44.714,SL_base_41,2021.2.3,Win32,60.24096386,2.5507,,,20,0,20,0,1,,,,,,,,
,,"[""diamond"",""red"",""vert"",""up"",[0,150],[-106,-106]]",diamond,red,vert,up,"[0,150]","[-106,-106]",up,1,,,,,,001,2025-03-17_14h42.44.714,SL_base_41,2021.2.3,Win32,60.24096386,1.8843,,,21,0,21,0,1,,,,,,,,
,,"[""circle"",""no_dis"",""hori"",""left"",[99999,99999],[0,150]]",circle,no_dis,hori,left,"[99999,99999]","[0,150]",left,1,,,,,,001,2025-03-17_14h42.44.714,SL_base_41,2021.2.3,Win32,60.24096386,1.4338,,,22,0,22,0,1,,,,,,,,
,,"[""diamond"",""green"",""hori"",""left"",[-150,0],[0,-150]]",diamond,green,hori,left,"[-150,0]","[0,-150]",left,1,,,,,,001,2025-03-17_14h42.44.714,SL_base_41,2021.2.3,Win32,60.24096386,1.5038,,,23,0,23,0,1,,,,,,,,
,,"[""diamond"",""no_dis"",""hori"",""left"",[99999,99999],[106,106]]",diamond,no_dis,hori,left,"[99999,99999]","[106,106]",left,1,,,,,,001,2025-03-17_14h42.44.714,SL_base_41,2021.2.3,Win32,60.24096386,1.7906,,,24,0,24,0,1,,,,,,,,
,,"[""circle"",""red"",""hori"",""left"",[106,106],[106,-106]]",circle,red,hori,left,"[106,106]","[106,-106]",left,1,,,,,,001,2025-03-17_14h42.44.714,SL_base_41,2021.2.3,Win32,60.24096386,1.5175,,,25,0,25,0,1,,,,,,,,
,,"[""diamond"",""green"",""vert"",""up"",[-150,0],[106,-106]]",diamond,green,vert,up,"[-150,0]","[106,-106]",up,1,,,,,,001,2025-03-17_14h42.44.714,SL_base_41,2021.2.3,Win32,60.24096386,1.2035,,,26,0,26,0,1,,,,,,,,
,,"[""circle"",""red"",""vert"",""up"",[-150,0],[150,0]]",circle,red,vert,up,"[-150,0]","[150,0]",up,1,,,,,,001,2025-03-17_14h42.44.714,SL_base_41,2021.2.3,Win32,60.24096386,1.3872,,,27,0,27,0,1,,,,,,,,
,,"[""circle"",""green"",""vert"",""up"",[-106,-106],[-150,0]]",circle,green,vert,up,"[-106,-106]","[-150,0]",up,1,,,,,,001,2025-03-17_14h42.44.714,SL_base_41,2021.2.3,Win32,60.24096386,1.7842,,,28,0,28,0,1,,,,,,,,
,,"[""circle"",""red"",""vert"",""up"",[0,150],[106,106]]",circle,red,vert,up,"[0,150]","[106,106]",up,1,,,,,,001,2025-03-17_14h42.44.714,SL_base_41,2021.2.3,Win32,60.24096386,2.1838,,,29,0,29,0,1,,,,,,,,
,,"[""diamond"",""no_dis"",""vert"",""up"",[99999,99999],[0,-150]]",diamond,no_dis,vert,up,"[99999,99999]","[0,-150]",up,1,,,,,,001,2025-03-17_14h42.44.714,SL_base_41,2021.2.3,Win32,60.24096386,0.9668,,,30,0,30,0,1,,,,,,,,
,,"[""diamond"",""green"",""hori"",""left"",[-150,0],[106,106]]",diamond,green,hori,left,"[-150,0]","[106,106]",left,1,,,,,,001,2025-03-17_14h42.44.714,SL_base_41,2021.2.3,Win32,60.24096386,1.7007,,,31,0,31,0,1,,,,,,,,
,,"[""circle"",""red"",""vert"",""up"",[150,0],[-150,0]]",circle,red,vert,up,"[150,0]","[-150,0]",up,1,,,,,,001,2025-03-17_14h42.44.714,SL_base_41,2021.2.3,Win32,60.24096386,1.417,,,32,0,32,0,1,,,,,,,,
,,"[""diamond"",""no_dis"",""vert"",""up"",[99999,99999],[-106,-106]]",diamond,no_dis,vert,up,"[99999,99999]","[-106,-106]",up,1,,,,,,001,2025-03-17_14h42.44.714,SL_base_41,2021.2.3,Win32,60.24096386,1.5344,,,33,0,33,0,1,,,,,,,,
,,"[""circle"",""no_dis"",""vert"",""up"",[99999,99999],[106,-106]]",circle,no_dis,vert,up,"[99999,99999]","[106,-106]",up,1,,,,,,001,2025-03-17_14h42.44.714,SL_base_41,2021.2.3,Win32,60.24096386,1.7184,,,34,0,34,0,1,,,,,,,,
,,"[""diamond"",""red"",""hori"",""left"",[-150,0],[150,0]]",diamond,red,hori,left,"[-150,0]","[150,0]",left,1,,,,,,001,2025-03-17_14h42.44.714,SL_base_41,2021.2.3,Win32,60.24096386,1.1555,,,35,0,35,0,1,,,,,,,,
,,"[""diamond"",""green"",""hori"",""left"",[0,150],[-106,106]]",diamond,green,hori,left,"[0,150]","[-106,106]",left,1,,,,,,001,2025-03-17_14h42.44.714,SL_base_41,2021.2.3,Win32,60.24096386,1.2841,,,36,0,36,0,1,,,,,,,,
,,"[""diamond"",""green"",""hori"",""left"",[0,150],[106,-106]]",diamond,green,hori,left,"[0,150]","[106,-106]",left,1,,,,,,001,2025-03-17_14h42.44.714,SL_base_41,2021.2.3,Win32,60.24096386,0.9843,,,37,0,37,0,1,,,,,,,,
,,"[""diamond"",""red"",""vert"",""up"",[-150,0],[106,106]]",diamond,red,vert,up,"[-150,0]","[106,106]",up,1,,,,,,001,2025-03-17_14h42.44.714,SL_base_41,2021.2.3,Win32,60.24096386,1.5173,,,38,0,38,0,1,,,,,,,,
,,"[""diamond"",""green"",""vert"",""up"",[0,-150],[106,-106]]",diamond,green,vert,up,"[0,-150]","[106,-106]",up,1,,,,,,001,2025-03-17_14h42.44.714,SL_base_41,2021.2.3,Win32,60.24096386,0.984,,,39,0,39,0,1,,,,,,,,
,,"[""circle"",""red"",""hori"",""left"",[-106,106],[-150,0]]",circle,red,hori,left,"[-106,106]","[-150,0]",left,1,,,,,,001,2025-03-17_14h42.44.714,SL_base_41,2021.2.3,Win32,60.24096386,1.2391,,,40,0,40,0,1,,,,,,,,
,,"[""diamond"",""green"",""hori"",""left"",[-106,106],[150,0]]",diamond,green,hori,left,"[-106,106]","[150,0]",left,1,,,,,,001,2025-03-17_14h42.44.714,SL_base_41,2021.2.3,Win32,60.24096386,1.1674,,,41,0,41,0,1,,,,,,,,
,,"[""diamond"",""green"",""hori"",""left"",[-150,0],[150,0]]",diamond,green,hori,left,"[-150,0]","[150,0]",left,1,,,,,,001,2025-03-17_14h42.44.714,SL_base_41,2021.2.3,Win32,60.24096386,0.8508,,,42,0,42,0,1,,,,,,,,
,,"[""diamond"",""no_dis"",""vert"",""up"",[99999,99999],[106,-106]]",diamond,no_dis,vert,up,"[99999,99999]","[106,-106]",up,1,,,,,,001,2025-03-17_14h42.44.714,SL_base_41,2021.2.3,Win32,60.24096386,1.1169,,,43,0,43,0,1,,,,,,,,
,,"[""diamond"",""red"",""vert"",""up"",[0,-150],[-150,0]]",diamond,red,vert,up,"[0,-150]","[-150,0]",up,1,,,,,,001,2025-03-17_14h42.44.714,SL_base_41,2021.2.3,Win32,60.24096386,1.3099,,,44,0,44,0,1,,,,,,,,
,,"[""circle"",""red"",""vert"",""up"",[-150,0],[-106,-106]]",circle,red,vert,up,"[-150,0]","[-106,-106]",,0,,,,,,001,2025-03-17_14h42.44.714,SL_base_41,2021.2.3,Win32,60.24096386,,,,45,0,45,0,1,,,,,,,,
,,"[""circle"",""no_dis"",""vert"",""up"",[99999,99999],[0,150]]",circle,no_dis,vert,up,"[99999,99999]","[0,150]",up,1,,,,,,001,2025-03-17_14h42.44.714,SL_base_41,2021.2.3,Win32,60.24096386,1.1209,,,46,0,46,0,1,,,,,,,,
,,"[""diamond"",""green"",""vert"",""up"",[-150,0],[150,0]]",diamond,green,vert,up,"[-150,0]","[150,0]",up,1,,,,,,001,2025-03-17_14h42.44.714,SL_base_41,2021.2.3,Win32,60.24096386,2.2876,,,47,0,47,0,1,,,,,,,,
,,"[""circle"",""red"",""hori"",""left"",[-106,106],[106,-106]]",circle,red,hori,left,"[-106,106]","[106,-106]",left,1,,,,,,001,2025-03-17_14h42.44.714,SL_base_41,2021.2.3,Win32,60.24096386,2.1749,,,48,0,48,0,1,,,,,,,,
,,"[""diamond"",""no_dis"",""hori"",""left"",[99999,99999],[150,0]]",diamond,no_dis,hori,left,"[99999,99999]","[150,0]",left,1,,,,,,001,2025-03-17_14h42.44.714,SL_base_41,2021.2.3,Win32,60.24096386,2.0091,,,49,0,49,0,1,,,,,,,,
,,"[""circle"",""no_dis"",""hori"",""left"",[99999,99999],[-106,-106]]",circle,no_dis,hori,left,"[99999,99999]","[-106,-106]",left,1,,,,,,001,2025-03-17_14h42.44.714,SL_base_41,2021.2.3,Win32,60.24096386,0.9173,,,50,0,50,0,1,,,,,,,,
,,"[""circle"",""green"",""vert"",""up"",[-150,0],[0,150]]",circle,green,vert,up,"[-150,0]","[0,150]",up,1,,,,,,001,2025-03-17_14h42.44.714,SL_base_41,2021.2.3,Win32,60.24096386,0.8669,,,51,0,51,0,1,,,,,,,,
,,"[""circle"",""red"",""hori"",""left"",[-106,-106],[106,-106]]",circle,red,hori,left,"[-106,-106]","[106,-106]",up,0,,,,,,001,2025-03-17_14h42.44.714,SL_base_41,2021.2.3,Win32,60.24096386,1.7345,,,52,0,52,0,1,,,,,,,,
,,"[""diamond"",""red"",""hori"",""left"",[-150,0],[106,106]]",diamond,red,hori,left,"[-150,0]","[106,106]",left,1,,,,,,001,2025-03-17_14h42.44.714,SL_base_41,2021.2.3,Win32,60.24096386,0.884,,,53,0,53,0,1,,,,,,,,
,,"[""circle"",""red"",""hori"",""left"",[0,150],[-150,0]]",circle,red,hori,left,"[0,150]","[-150,0]",left,1,,,,,,001,2025-03-17_14h42.44.714,SL_base_41,2021.2.3,Win32,60.24096386,1.5578,,,54,0,54,0,1,,,,,,,,
,,"[""diamond"",""red"",""vert"",""up"",[0,-150],[-150,0]]",diamond,red,vert,up,"[0,-150]","[-150,0]",up,1,,,,,,001,2025-03-17_14h42.44.714,SL_base_41,2021.2.3,Win32,60.24096386,1.1176,,,55,0,55,0,1,,,,,,,,
,,"[""circle"",""no_dis"",""hori"",""left"",[99999,99999],[150,0]]",circle,no_dis,hori,left,"[99999,99999]","[150,0]",up,0,,,,,,001,2025-03-17_14h42.44.714,SL_base_41,2021.2.3,Win32,60.24096386,1.1171,,,56,0,56,0,1,,,,,,,,
,,"[""circle"",""no_dis"",""vert"",""up"",[99999,99999],[106,106]]",circle,no_dis,vert,up,"[99999,99999]","[106,106]",up,1,,,,,,001,2025-03-17_14h42.44.714,SL_base_41,2021.2.3,Win32,60.24096386,1.5006,,,57,0,57,0,1,,,,,,,,
,,"[""circle"",""no_dis"",""vert"",""up"",[99999,99999],[0,150]]",circle,no_dis,vert,up,"[99999,99999]","[0,150]",up,1,,,,,,001,2025-03-17_14h42.44.714,SL_base_41,2021.2.3,Win32,60.24096386,1.9284,,,58,0,58,0,1,,,,,,,,
,,"[""circle"",""green"",""hori"",""left"",[0,-150],[-106,106]]",circle,green,hori,left,"[0,-150]","[-106,106]",left,1,,,,,,001,2025-03-17_14h42.44.714,SL_base_41,2021.2.3,Win32,60.24096386,2.3463,,,59,0,59,0,1,,,,,,,,
,,"[""diamond"",""no_dis"",""vert"",""up"",[99999,99999],[106,106]]",diamond,no_dis,vert,up,"[99999,99999]","[106,106]",up,1,,,,,,001,2025-03-17_14h42.44.714,SL_base_41,2021.2.3,Win32,60.24096386,1.4672,,,60,0,60,0,1,,,,,,,,
