﻿key_resp.keys,key_resp.rt,trial_para,tar_shape,dis_color_condi,tar_line,cor_resp,dis_loc,tar_loc,resp.keys,resp.corr,resp.rt,trials.thisRepN,trials.thisTrialN,trials.thisN,trials.thisIndex,trials.ran,participant,date,expName,psychopyVersion,OS,frameRate,key_resp_2.keys,key_resp_2.rt,trials_2.thisRepN,trials_2.thisTrialN,trials_2.thisN,trials_2.thisIndex,trials_2.ran,block_num,key_resp_3.keys,key_resp_3.rt,trials_3.thisRepN,trials_3.thisTrialN,trials_3.thisN,trials_3.thisIndex,trials_3.ran
space,18.3012,"[""circle"",""green"",""vert"",""up"",[-106,-106],[0,-150]]",circle,green,vert,up,"[-106,-106]","[0,-150]",up,1,1.5598,0,0,0,0,1,001,2025-03-10_21h39.17.949,SL_base_41,2021.2.3,Win32,62.5,,,,,,,,,,,,,,,
,,"[""circle"",""no_dis"",""vert"",""up"",[99999,99999],[0,-150]]",circle,no_dis,vert,up,"[99999,99999]","[0,-150]",,0,,1,0,1,0,1,001,2025-03-10_21h39.17.949,SL_base_41,2021.2.3,Win32,62.5,,,,,,,,,,,,,,,
,,"[""diamond"",""red"",""vert"",""up"",[106,-106],[-150,0]]",diamond,red,vert,up,"[106,-106]","[-150,0]",up,1,1.5435,2,0,2,0,1,001,2025-03-10_21h39.17.949,SL_base_41,2021.2.3,Win32,62.5,,,,,,,,,,,,,,,
,,"[""diamond"",""green"",""vert"",""up"",[0,-150],[-106,106]]",diamond,green,vert,up,"[0,-150]","[-106,106]",,0,,3,0,3,0,1,001,2025-03-10_21h39.17.949,SL_base_41,2021.2.3,Win32,62.5,,,,,,,,,,,,,,,
,,"[""diamond"",""no_dis"",""hori"",""left"",[99999,99999],[106,-106]]",diamond,no_dis,hori,left,"[99999,99999]","[106,-106]",left,1,1.188,4,0,4,0,1,001,2025-03-10_21h39.17.949,SL_base_41,2021.2.3,Win32,62.5,,,,,,,,,,,,,,,
,,"[""circle"",""no_dis"",""vert"",""up"",[99999,99999],[150,0]]",circle,no_dis,vert,up,"[99999,99999]","[150,0]",up,1,1.7431,5,0,5,0,1,001,2025-03-10_21h39.17.949,SL_base_41,2021.2.3,Win32,62.5,,,,,,,,,,,,,,,
,,"[""circle"",""green"",""vert"",""up"",[150,0],[-106,106]]",circle,green,vert,up,"[150,0]","[-106,106]",up,1,2.099,6,0,6,0,1,001,2025-03-10_21h39.17.949,SL_base_41,2021.2.3,Win32,62.5,,,,,,,,,,,,,,,
,,"[""circle"",""no_dis"",""hori"",""left"",[99999,99999],[-150,0]]",circle,no_dis,hori,left,"[99999,99999]","[-150,0]",left,1,1.15,7,0,7,0,1,001,2025-03-10_21h39.17.949,SL_base_41,2021.2.3,Win32,62.5,,,,,,,,,,,,,,,
,,"[""circle"",""red"",""hori"",""left"",[150,0],[-106,-106]]",circle,red,hori,left,"[150,0]","[-106,-106]",up,0,1.0421,8,0,8,0,1,001,2025-03-10_21h39.17.949,SL_base_41,2021.2.3,Win32,62.5,,,,,,,,,,,,,,,
,,"[""diamond"",""no_dis"",""hori"",""left"",[99999,99999],[-106,-106]]",diamond,no_dis,hori,left,"[99999,99999]","[-106,-106]",left,1,1.29,9,0,9,0,1,001,2025-03-10_21h39.17.949,SL_base_41,2021.2.3,Win32,62.5,,,,,,,,,,,,,,,
,,"[""circle"",""green"",""vert"",""up"",[-106,-106],[0,-150]]",circle,green,vert,up,"[-106,-106]","[0,-150]",up,1,1.9492,,,,,,001,2025-03-10_21h39.17.949,SL_base_41,2021.2.3,Win32,62.5,space,6.579,0,0,0,0,1,,,,,,,,
,,"[""circle"",""no_dis"",""vert"",""up"",[99999,99999],[0,-150]]",circle,no_dis,vert,up,"[99999,99999]","[0,-150]",up,1,1.5157,,,,,,001,2025-03-10_21h39.17.949,SL_base_41,2021.2.3,Win32,62.5,,,1,0,1,0,1,,,,,,,,
,,"[""diamond"",""red"",""vert"",""up"",[106,-106],[-150,0]]",diamond,red,vert,up,"[106,-106]","[-150,0]",up,1,2.0491,,,,,,001,2025-03-10_21h39.17.949,SL_base_41,2021.2.3,Win32,62.5,,,2,0,2,0,1,,,,,,,,
,,"[""diamond"",""green"",""vert"",""up"",[0,-150],[-106,106]]",diamond,green,vert,up,"[0,-150]","[-106,106]",up,1,1.449,,,,,,001,2025-03-10_21h39.17.949,SL_base_41,2021.2.3,Win32,62.5,,,3,0,3,0,1,,,,,,,,
,,"[""diamond"",""no_dis"",""hori"",""left"",[99999,99999],[106,-106]]",diamond,no_dis,hori,left,"[99999,99999]","[106,-106]",left,1,0.9835,,,,,,001,2025-03-10_21h39.17.949,SL_base_41,2021.2.3,Win32,62.5,,,4,0,4,0,1,,,,,,,,
,,"[""circle"",""no_dis"",""vert"",""up"",[99999,99999],[150,0]]",circle,no_dis,vert,up,"[99999,99999]","[150,0]",up,1,2.5477,,,,,,001,2025-03-10_21h39.17.949,SL_base_41,2021.2.3,Win32,62.5,,,5,0,5,0,1,,,,,,,,
,,"[""circle"",""green"",""vert"",""up"",[150,0],[-106,106]]",circle,green,vert,up,"[150,0]","[-106,106]",up,1,0.8999,,,,,,001,2025-03-10_21h39.17.949,SL_base_41,2021.2.3,Win32,62.5,,,6,0,6,0,1,,,,,,,,
,,"[""circle"",""no_dis"",""hori"",""left"",[99999,99999],[-150,0]]",circle,no_dis,hori,left,"[99999,99999]","[-150,0]",left,1,1.0816,,,,,,001,2025-03-10_21h39.17.949,SL_base_41,2021.2.3,Win32,62.5,,,7,0,7,0,1,,,,,,,,
,,"[""circle"",""red"",""hori"",""left"",[150,0],[-106,-106]]",circle,red,hori,left,"[150,0]","[-106,-106]",left,1,1.3162,,,,,,001,2025-03-10_21h39.17.949,SL_base_41,2021.2.3,Win32,62.5,,,8,0,8,0,1,,,,,,,,
,,"[""diamond"",""no_dis"",""hori"",""left"",[99999,99999],[-106,-106]]",diamond,no_dis,hori,left,"[99999,99999]","[-106,-106]",left,1,1.4213,,,,,,001,2025-03-10_21h39.17.949,SL_base_41,2021.2.3,Win32,62.5,,,9,0,9,0,1,,,,,,,,
,,"[""circle"",""green"",""hori"",""left"",[-106,106],[106,106]]",circle,green,hori,left,"[-106,106]","[106,106]",left,1,1.303,,,,,,001,2025-03-10_21h39.17.949,SL_base_41,2021.2.3,Win32,62.5,,,10,0,10,0,1,,,,,,,,
,,"[""diamond"",""no_dis"",""vert"",""up"",[99999,99999],[0,150]]",diamond,no_dis,vert,up,"[99999,99999]","[0,150]",up,1,2.3047,,,,,,001,2025-03-10_21h39.17.949,SL_base_41,2021.2.3,Win32,62.5,,,11,0,11,0,1,,,,,,,,
,,"[""circle"",""no_dis"",""hori"",""left"",[99999,99999],[150,0]]",circle,no_dis,hori,left,"[99999,99999]","[150,0]",left,1,1.3341,,,,,,001,2025-03-10_21h39.17.949,SL_base_41,2021.2.3,Win32,62.5,,,12,0,12,0,1,,,,,,,,
,,"[""diamond"",""green"",""vert"",""up"",[0,-150],[-106,-106]]",diamond,green,vert,up,"[0,-150]","[-106,-106]",left,0,1.4153,,,,,,001,2025-03-10_21h39.17.949,SL_base_41,2021.2.3,Win32,62.5,,,13,0,13,0,1,,,,,,,,
,,"[""diamond"",""red"",""vert"",""up"",[-106,106],[0,150]]",diamond,red,vert,up,"[-106,106]","[0,150]",up,1,1.7979,,,,,,001,2025-03-10_21h39.17.949,SL_base_41,2021.2.3,Win32,62.5,,,14,0,14,0,1,,,,,,,,
,,"[""diamond"",""red"",""vert"",""up"",[-106,-106],[0,150]]",diamond,red,vert,up,"[-106,-106]","[0,150]",up,1,1.1004,,,,,,001,2025-03-10_21h39.17.949,SL_base_41,2021.2.3,Win32,62.5,,,15,0,15,0,1,,,,,,,,
,,"[""circle"",""green"",""vert"",""up"",[150,0],[-150,0]]",circle,green,vert,up,"[150,0]","[-150,0]",up,1,1.4373,,,,,,001,2025-03-10_21h39.17.949,SL_base_41,2021.2.3,Win32,62.5,,,16,0,16,0,1,,,,,,,,
,,"[""diamond"",""green"",""hori"",""left"",[0,150],[-106,-106]]",diamond,green,hori,left,"[0,150]","[-106,-106]",left,1,0.9329,,,,,,001,2025-03-10_21h39.17.949,SL_base_41,2021.2.3,Win32,62.5,,,17,0,17,0,1,,,,,,,,
,,"[""diamond"",""red"",""hori"",""left"",[0,-150],[-150,0]]",diamond,red,hori,left,"[0,-150]","[-150,0]",left,1,1.5328,,,,,,001,2025-03-10_21h39.17.949,SL_base_41,2021.2.3,Win32,62.5,,,18,0,18,0,1,,,,,,,,
,,"[""circle"",""green"",""hori"",""left"",[106,106],[0,150]]",circle,green,hori,left,"[106,106]","[0,150]",left,1,2.202,,,,,,001,2025-03-10_21h39.17.949,SL_base_41,2021.2.3,Win32,62.5,,,19,0,19,0,1,,,,,,,,
,,"[""diamond"",""green"",""vert"",""up"",[150,0],[106,106]]",diamond,green,vert,up,"[150,0]","[106,106]",up,1,1.2829,,,,,,001,2025-03-10_21h39.17.949,SL_base_41,2021.2.3,Win32,62.5,,,20,0,20,0,1,,,,,,,,
,,"[""circle"",""green"",""vert"",""up"",[-106,-106],[150,0]]",circle,green,vert,up,"[-106,-106]","[150,0]",up,1,1.387,,,,,,001,2025-03-10_21h39.17.949,SL_base_41,2021.2.3,Win32,62.5,,,21,0,21,0,1,,,,,,,,
,,"[""diamond"",""red"",""hori"",""left"",[150,0],[-106,106]]",diamond,red,hori,left,"[150,0]","[-106,106]",left,1,1.233,,,,,,001,2025-03-10_21h39.17.949,SL_base_41,2021.2.3,Win32,62.5,,,22,0,22,0,1,,,,,,,,
,,"[""circle"",""red"",""vert"",""up"",[-106,106],[-150,0]]",circle,red,vert,up,"[-106,106]","[-150,0]",up,1,1.2828,,,,,,001,2025-03-10_21h39.17.949,SL_base_41,2021.2.3,Win32,62.5,,,23,0,23,0,1,,,,,,,,
,,"[""circle"",""green"",""hori"",""left"",[0,150],[-106,106]]",circle,green,hori,left,"[0,150]","[-106,106]",left,1,1.2838,,,,,,001,2025-03-10_21h39.17.949,SL_base_41,2021.2.3,Win32,62.5,,,24,0,24,0,1,,,,,,,,
,,"[""diamond"",""no_dis"",""vert"",""up"",[99999,99999],[106,106]]",diamond,no_dis,vert,up,"[99999,99999]","[106,106]",up,1,1.1209,,,,,,001,2025-03-10_21h39.17.949,SL_base_41,2021.2.3,Win32,62.5,,,25,0,25,0,1,,,,,,,,
,,"[""diamond"",""red"",""hori"",""left"",[150,0],[0,-150]]",diamond,red,hori,left,"[150,0]","[0,-150]",left,1,1.5036,,,,,,001,2025-03-10_21h39.17.949,SL_base_41,2021.2.3,Win32,62.5,,,26,0,26,0,1,,,,,,,,
,,"[""diamond"",""green"",""hori"",""left"",[106,106],[-106,-106]]",diamond,green,hori,left,"[106,106]","[-106,-106]",left,1,0.9923,,,,,,001,2025-03-10_21h39.17.949,SL_base_41,2021.2.3,Win32,62.5,,,27,0,27,0,1,,,,,,,,
,,"[""circle"",""red"",""vert"",""up"",[-106,-106],[106,-106]]",circle,red,vert,up,"[-106,-106]","[106,-106]",up,1,1.766,,,,,,001,2025-03-10_21h39.17.949,SL_base_41,2021.2.3,Win32,62.5,,,28,0,28,0,1,,,,,,,,
,,"[""diamond"",""red"",""vert"",""up"",[150,0],[-150,0]]",diamond,red,vert,up,"[150,0]","[-150,0]",up,1,2.4323,,,,,,001,2025-03-10_21h39.17.949,SL_base_41,2021.2.3,Win32,62.5,,,29,0,29,0,1,,,,,,,,
,,"[""diamond"",""green"",""hori"",""left"",[150,0],[-106,-106]]",diamond,green,hori,left,"[150,0]","[-106,-106]",left,1,0.8668,,,,,,001,2025-03-10_21h39.17.949,SL_base_41,2021.2.3,Win32,62.5,,,30,0,30,0,1,,,,,,,,
,,"[""circle"",""green"",""hori"",""left"",[150,0],[-150,0]]",circle,green,hori,left,"[150,0]","[-150,0]",left,1,1.3172,,,,,,001,2025-03-10_21h39.17.949,SL_base_41,2021.2.3,Win32,62.5,,,31,0,31,0,1,,,,,,,,
,,"[""circle"",""no_dis"",""vert"",""up"",[99999,99999],[106,106]]",circle,no_dis,vert,up,"[99999,99999]","[106,106]",up,1,1.2074,,,,,,001,2025-03-10_21h39.17.949,SL_base_41,2021.2.3,Win32,62.5,,,32,0,32,0,1,,,,,,,,
,,"[""diamond"",""green"",""hori"",""left"",[-150,0],[0,150]]",diamond,green,hori,left,"[-150,0]","[0,150]",up,0,1.3825,,,,,,001,2025-03-10_21h39.17.949,SL_base_41,2021.2.3,Win32,62.5,,,33,0,33,0,1,,,,,,,,
,,"[""circle"",""red"",""hori"",""left"",[150,0],[0,150]]",circle,red,hori,left,"[150,0]","[0,150]",left,1,1.1487,,,,,,001,2025-03-10_21h39.17.949,SL_base_41,2021.2.3,Win32,62.5,,,34,0,34,0,1,,,,,,,,
,,"[""diamond"",""green"",""vert"",""up"",[-106,106],[0,150]]",diamond,green,vert,up,"[-106,106]","[0,150]",up,1,2.7318,,,,,,001,2025-03-10_21h39.17.949,SL_base_41,2021.2.3,Win32,62.5,,,35,0,35,0,1,,,,,,,,
,,"[""circle"",""no_dis"",""vert"",""up"",[99999,99999],[0,150]]",circle,no_dis,vert,up,"[99999,99999]","[0,150]",up,1,1.4163,,,,,,001,2025-03-10_21h39.17.949,SL_base_41,2021.2.3,Win32,62.5,,,36,0,36,0,1,,,,,,,,
,,"[""circle"",""green"",""vert"",""up"",[0,150],[106,106]]",circle,green,vert,up,"[0,150]","[106,106]",up,1,1.4735,,,,,,001,2025-03-10_21h39.17.949,SL_base_41,2021.2.3,Win32,62.5,,,37,0,37,0,1,,,,,,,,
,,"[""diamond"",""red"",""hori"",""left"",[150,0],[0,150]]",diamond,red,hori,left,"[150,0]","[0,150]",left,1,1.6893,,,,,,001,2025-03-10_21h39.17.949,SL_base_41,2021.2.3,Win32,62.5,,,38,0,38,0,1,,,,,,,,
,,"[""diamond"",""red"",""vert"",""up"",[-150,0],[0,-150]]",diamond,red,vert,up,"[-150,0]","[0,-150]",up,1,1.4001,,,,,,001,2025-03-10_21h39.17.949,SL_base_41,2021.2.3,Win32,62.5,,,39,0,39,0,1,,,,,,,,
,,"[""diamond"",""green"",""vert"",""up"",[106,-106],[0,-150]]",diamond,green,vert,up,"[106,-106]","[0,-150]",up,1,1.3676,,,,,,001,2025-03-10_21h39.17.949,SL_base_41,2021.2.3,Win32,62.5,,,40,0,40,0,1,,,,,,,,
,,"[""diamond"",""no_dis"",""vert"",""up"",[99999,99999],[106,106]]",diamond,no_dis,vert,up,"[99999,99999]","[106,106]",up,1,1.1761,,,,,,001,2025-03-10_21h39.17.949,SL_base_41,2021.2.3,Win32,62.5,,,41,0,41,0,1,,,,,,,,
,,"[""diamond"",""red"",""hori"",""left"",[-106,-106],[0,150]]",diamond,red,hori,left,"[-106,-106]","[0,150]",left,1,0.9102,,,,,,001,2025-03-10_21h39.17.949,SL_base_41,2021.2.3,Win32,62.5,,,42,0,42,0,1,,,,,,,,
,,"[""circle"",""green"",""vert"",""up"",[-106,106],[150,0]]",circle,green,vert,up,"[-106,106]","[150,0]",up,1,1.2608,,,,,,001,2025-03-10_21h39.17.949,SL_base_41,2021.2.3,Win32,62.5,,,43,0,43,0,1,,,,,,,,
,,"[""circle"",""green"",""hori"",""left"",[0,-150],[0,150]]",circle,green,hori,left,"[0,-150]","[0,150]",left,1,1.4483,,,,,,001,2025-03-10_21h39.17.949,SL_base_41,2021.2.3,Win32,62.5,,,44,0,44,0,1,,,,,,,,
,,"[""diamond"",""green"",""vert"",""up"",[106,-106],[-106,106]]",diamond,green,vert,up,"[106,-106]","[-106,106]",up,1,1.1337,,,,,,001,2025-03-10_21h39.17.949,SL_base_41,2021.2.3,Win32,62.5,,,45,0,45,0,1,,,,,,,,
,,"[""circle"",""green"",""vert"",""up"",[-150,0],[106,106]]",circle,green,vert,up,"[-150,0]","[106,106]",up,1,1.8814,,,,,,001,2025-03-10_21h39.17.949,SL_base_41,2021.2.3,Win32,62.5,,,46,0,46,0,1,,,,,,,,
,,"[""diamond"",""green"",""hori"",""left"",[-150,0],[106,-106]]",diamond,green,hori,left,"[-150,0]","[106,-106]",left,1,1.4818,,,,,,001,2025-03-10_21h39.17.949,SL_base_41,2021.2.3,Win32,62.5,,,47,0,47,0,1,,,,,,,,
,,"[""circle"",""no_dis"",""vert"",""up"",[99999,99999],[150,0]]",circle,no_dis,vert,up,"[99999,99999]","[150,0]",up,1,0.9833,,,,,,001,2025-03-10_21h39.17.949,SL_base_41,2021.2.3,Win32,62.5,,,48,0,48,0,1,,,,,,,,
,,"[""diamond"",""no_dis"",""vert"",""up"",[99999,99999],[106,106]]",diamond,no_dis,vert,up,"[99999,99999]","[106,106]",up,1,1.3009,,,,,,001,2025-03-10_21h39.17.949,SL_base_41,2021.2.3,Win32,62.5,,,49,0,49,0,1,,,,,,,,
,,"[""circle"",""green"",""vert"",""up"",[150,0],[0,150]]",circle,green,vert,up,"[150,0]","[0,150]",up,1,1.2674,,,,,,001,2025-03-10_21h39.17.949,SL_base_41,2021.2.3,Win32,62.5,,,50,0,50,0,1,,,,,,,,
,,"[""diamond"",""red"",""vert"",""up"",[150,0],[-150,0]]",diamond,red,vert,up,"[150,0]","[-150,0]",up,1,1.2738,,,,,,001,2025-03-10_21h39.17.949,SL_base_41,2021.2.3,Win32,62.5,,,51,0,51,0,1,,,,,,,,
,,"[""circle"",""green"",""hori"",""left"",[-150,0],[0,-150]]",circle,green,hori,left,"[-150,0]","[0,-150]",left,1,0.9826,,,,,,001,2025-03-10_21h39.17.949,SL_base_41,2021.2.3,Win32,62.5,,,52,0,52,0,1,,,,,,,,
,,"[""circle"",""green"",""hori"",""left"",[106,-106],[-106,-106]]",circle,green,hori,left,"[106,-106]","[-106,-106]",left,1,1.9651,,,,,,001,2025-03-10_21h39.17.949,SL_base_41,2021.2.3,Win32,62.5,,,53,0,53,0,1,,,,,,,,
,,"[""circle"",""no_dis"",""hori"",""left"",[99999,99999],[-106,-106]]",circle,no_dis,hori,left,"[99999,99999]","[-106,-106]",left,1,0.9997,,,,,,001,2025-03-10_21h39.17.949,SL_base_41,2021.2.3,Win32,62.5,,,54,0,54,0,1,,,,,,,,
,,"[""circle"",""green"",""hori"",""left"",[106,106],[0,150]]",circle,green,hori,left,"[106,106]","[0,150]",left,1,0.9406,,,,,,001,2025-03-10_21h39.17.949,SL_base_41,2021.2.3,Win32,62.5,,,55,0,55,0,1,,,,,,,,
,,"[""diamond"",""no_dis"",""vert"",""up"",[99999,99999],[106,-106]]",diamond,no_dis,vert,up,"[99999,99999]","[106,-106]",up,1,1.5208,,,,,,001,2025-03-10_21h39.17.949,SL_base_41,2021.2.3,Win32,62.5,,,56,0,56,0,1,,,,,,,,
,,"[""circle"",""red"",""hori"",""left"",[106,-106],[-106,-106]]",circle,red,hori,left,"[106,-106]","[-106,-106]",left,1,2.4153,,,,,,001,2025-03-10_21h39.17.949,SL_base_41,2021.2.3,Win32,62.5,,,57,0,57,0,1,,,,,,,,
,,"[""diamond"",""no_dis"",""vert"",""up"",[99999,99999],[-106,106]]",diamond,no_dis,vert,up,"[99999,99999]","[-106,106]",up,1,2.033,,,,,,001,2025-03-10_21h39.17.949,SL_base_41,2021.2.3,Win32,62.5,,,58,0,58,0,1,,,,,,,,
,,"[""circle"",""no_dis"",""vert"",""up"",[99999,99999],[-106,-106]]",circle,no_dis,vert,up,"[99999,99999]","[-106,-106]",up,1,1.3081,,,,,,001,2025-03-10_21h39.17.949,SL_base_41,2021.2.3,Win32,62.5,,,59,0,59,0,1,,,,,,,,
,,"[""diamond"",""red"",""hori"",""left"",[106,106],[-106,-106]]",diamond,red,hori,left,"[106,106]","[-106,-106]",left,1,0.9889,,,,,,001,2025-03-10_21h39.17.949,SL_base_41,2021.2.3,Win32,62.5,,,60,0,60,0,1,,,,,,,,
,,"[""circle"",""red"",""hori"",""left"",[0,-150],[150,0]]",circle,red,hori,left,"[0,-150]","[150,0]",left,1,1.5822,,,,,,001,2025-03-10_21h39.17.949,SL_base_41,2021.2.3,Win32,62.5,,,61,0,61,0,1,,,,,,,,
,,"[""circle"",""red"",""vert"",""up"",[150,0],[106,106]]",circle,red,vert,up,"[150,0]","[106,106]",up,1,1.5652,,,,,,001,2025-03-10_21h39.17.949,SL_base_41,2021.2.3,Win32,62.5,,,62,0,62,0,1,,,,,,,,
,,"[""circle"",""no_dis"",""vert"",""up"",[99999,99999],[150,0]]",circle,no_dis,vert,up,"[99999,99999]","[150,0]",up,1,0.8107,,,,,,001,2025-03-10_21h39.17.949,SL_base_41,2021.2.3,Win32,62.5,,,63,0,63,0,1,,,,,,,,
,,"[""diamond"",""red"",""vert"",""up"",[0,-150],[0,150]]",diamond,red,vert,up,"[0,-150]","[0,150]",up,1,1.7904,,,,,,001,2025-03-10_21h39.17.949,SL_base_41,2021.2.3,Win32,62.5,,,64,0,64,0,1,,,,,,,,
,,"[""circle"",""green"",""hori"",""left"",[-150,0],[0,-150]]",circle,green,hori,left,"[-150,0]","[0,-150]",left,1,1.4824,,,,,,001,2025-03-10_21h39.17.949,SL_base_41,2021.2.3,Win32,62.5,,,65,0,65,0,1,,,,,,,,
,,"[""circle"",""red"",""vert"",""up"",[150,0],[-106,-106]]",circle,red,vert,up,"[150,0]","[-106,-106]",up,1,1.6317,,,,,,001,2025-03-10_21h39.17.949,SL_base_41,2021.2.3,Win32,62.5,,,66,0,66,0,1,,,,,,,,
,,"[""diamond"",""no_dis"",""hori"",""left"",[99999,99999],[-150,0]]",diamond,no_dis,hori,left,"[99999,99999]","[-150,0]",left,1,1.5546,,,,,,001,2025-03-10_21h39.17.949,SL_base_41,2021.2.3,Win32,62.5,,,67,0,67,0,1,,,,,,,,
,,"[""diamond"",""green"",""hori"",""left"",[150,0],[106,106]]",diamond,green,hori,left,"[150,0]","[106,106]",left,1,1.8152,,,,,,001,2025-03-10_21h39.17.949,SL_base_41,2021.2.3,Win32,62.5,,,68,0,68,0,1,,,,,,,,
,,"[""diamond"",""green"",""hori"",""left"",[150,0],[0,150]]",diamond,green,hori,left,"[150,0]","[0,150]",left,1,1.0967,,,,,,001,2025-03-10_21h39.17.949,SL_base_41,2021.2.3,Win32,62.5,,,69,0,69,0,1,,,,,,,,
,,"[""diamond"",""no_dis"",""hori"",""left"",[99999,99999],[150,0]]",diamond,no_dis,hori,left,"[99999,99999]","[150,0]",left,1,1.2006,,,,,,001,2025-03-10_21h39.17.949,SL_base_41,2021.2.3,Win32,62.5,,,70,0,70,0,1,,,,,,,,
,,"[""diamond"",""red"",""vert"",""up"",[-106,106],[106,106]]",diamond,red,vert,up,"[-106,106]","[106,106]",up,1,1.2045,,,,,,001,2025-03-10_21h39.17.949,SL_base_41,2021.2.3,Win32,62.5,,,71,0,71,0,1,,,,,,,,
,,"[""diamond"",""no_dis"",""vert"",""up"",[99999,99999],[-150,0]]",diamond,no_dis,vert,up,"[99999,99999]","[-150,0]",up,1,1.7072,,,,,,001,2025-03-10_21h39.17.949,SL_base_41,2021.2.3,Win32,62.5,,,72,0,72,0,1,,,,,,,,
,,"[""circle"",""no_dis"",""hori"",""left"",[99999,99999],[0,-150]]",circle,no_dis,hori,left,"[99999,99999]","[0,-150]",left,1,1.0831,,,,,,001,2025-03-10_21h39.17.949,SL_base_41,2021.2.3,Win32,62.5,,,73,0,73,0,1,,,,,,,,
,,"[""diamond"",""green"",""hori"",""left"",[150,0],[106,106]]",diamond,green,hori,left,"[150,0]","[106,106]",left,1,1.0991,,,,,,001,2025-03-10_21h39.17.949,SL_base_41,2021.2.3,Win32,62.5,,,74,0,74,0,1,,,,,,,,
,,"[""diamond"",""no_dis"",""hori"",""left"",[99999,99999],[-106,106]]",diamond,no_dis,hori,left,"[99999,99999]","[-106,106]",left,1,1.1232,,,,,,001,2025-03-10_21h39.17.949,SL_base_41,2021.2.3,Win32,62.5,,,75,0,75,0,1,,,,,,,,
,,"[""circle"",""red"",""vert"",""up"",[-150,0],[-106,106]]",circle,red,vert,up,"[-150,0]","[-106,106]",up,1,2.2871,,,,,,001,2025-03-10_21h39.17.949,SL_base_41,2021.2.3,Win32,62.5,,,76,0,76,0,1,,,,,,,,
,,"[""diamond"",""red"",""hori"",""left"",[150,0],[-106,106]]",diamond,red,hori,left,"[150,0]","[-106,106]",left,1,1.4241,,,,,,001,2025-03-10_21h39.17.949,SL_base_41,2021.2.3,Win32,62.5,,,77,0,77,0,1,,,,,,,,
,,"[""circle"",""red"",""vert"",""up"",[0,150],[-106,106]]",circle,red,vert,up,"[0,150]","[-106,106]",up,1,1.9532,,,,,,001,2025-03-10_21h39.17.949,SL_base_41,2021.2.3,Win32,62.5,,,78,0,78,0,1,,,,,,,,
,,"[""circle"",""no_dis"",""hori"",""left"",[99999,99999],[106,-106]]",circle,no_dis,hori,left,"[99999,99999]","[106,-106]",left,1,1.5361,,,,,,001,2025-03-10_21h39.17.949,SL_base_41,2021.2.3,Win32,62.5,,,79,0,79,0,1,,,,,,,,
,,"[""circle"",""red"",""vert"",""up"",[106,106],[-106,106]]",circle,red,vert,up,"[106,106]","[-106,106]",up,1,1.115,,,,,,001,2025-03-10_21h39.17.949,SL_base_41,2021.2.3,Win32,62.5,,,80,0,80,0,1,,,,,,,,
,,"[""diamond"",""no_dis"",""vert"",""up"",[99999,99999],[0,150]]",diamond,no_dis,vert,up,"[99999,99999]","[0,150]",up,1,1.3165,,,,,,001,2025-03-10_21h39.17.949,SL_base_41,2021.2.3,Win32,62.5,,,81,0,81,0,1,,,,,,,,
,,"[""diamond"",""green"",""vert"",""up"",[-106,-106],[150,0]]",diamond,green,vert,up,"[-106,-106]","[150,0]",up,1,1.054,,,,,,001,2025-03-10_21h39.17.949,SL_base_41,2021.2.3,Win32,62.5,,,82,0,82,0,1,,,,,,,,
,,"[""circle"",""green"",""hori"",""left"",[106,-106],[-106,-106]]",circle,green,hori,left,"[106,-106]","[-106,-106]",left,1,1.2665,,,,,,001,2025-03-10_21h39.17.949,SL_base_41,2021.2.3,Win32,62.5,,,83,0,83,0,1,,,,,,,,
,,"[""diamond"",""red"",""vert"",""up"",[150,0],[0,150]]",diamond,red,vert,up,"[150,0]","[0,150]",up,1,1.1998,,,,,,001,2025-03-10_21h39.17.949,SL_base_41,2021.2.3,Win32,62.5,,,84,0,84,0,1,,,,,,,,
,,"[""diamond"",""red"",""vert"",""up"",[150,0],[106,-106]]",diamond,red,vert,up,"[150,0]","[106,-106]",up,1,2.4039,,,,,,001,2025-03-10_21h39.17.949,SL_base_41,2021.2.3,Win32,62.5,,,85,0,85,0,1,,,,,,,,
,,"[""diamond"",""red"",""hori"",""left"",[150,0],[106,106]]",diamond,red,hori,left,"[150,0]","[106,106]",left,1,0.9729,,,,,,001,2025-03-10_21h39.17.949,SL_base_41,2021.2.3,Win32,62.5,,,86,0,86,0,1,,,,,,,,
,,"[""diamond"",""green"",""vert"",""up"",[106,106],[-106,-106]]",diamond,green,vert,up,"[106,106]","[-106,-106]",up,1,1.5324,,,,,,001,2025-03-10_21h39.17.949,SL_base_41,2021.2.3,Win32,62.5,,,87,0,87,0,1,,,,,,,,
,,"[""diamond"",""no_dis"",""hori"",""left"",[99999,99999],[106,-106]]",diamond,no_dis,hori,left,"[99999,99999]","[106,-106]",left,1,0.7205,,,,,,001,2025-03-10_21h39.17.949,SL_base_41,2021.2.3,Win32,62.5,,,88,0,88,0,1,,,,,,,,
,,"[""circle"",""no_dis"",""vert"",""up"",[99999,99999],[-106,106]]",circle,no_dis,vert,up,"[99999,99999]","[-106,106]",up,1,1.3479,,,,,,001,2025-03-10_21h39.17.949,SL_base_41,2021.2.3,Win32,62.5,,,89,0,89,0,1,,,,,,,,
,,"[""circle"",""red"",""hori"",""left"",[106,106],[-106,106]]",circle,red,hori,left,"[106,106]","[-106,106]",left,1,0.9986,,,,,,001,2025-03-10_21h39.17.949,SL_base_41,2021.2.3,Win32,62.5,,,90,0,90,0,1,,,,,,,,
,,"[""diamond"",""no_dis"",""hori"",""left"",[99999,99999],[-106,-106]]",diamond,no_dis,hori,left,"[99999,99999]","[-106,-106]",left,1,1.0375,,,,,,001,2025-03-10_21h39.17.949,SL_base_41,2021.2.3,Win32,62.5,,,91,0,91,0,1,,,,,,,,
,,"[""circle"",""no_dis"",""hori"",""left"",[99999,99999],[106,-106]]",circle,no_dis,hori,left,"[99999,99999]","[106,-106]",left,1,1.5531,,,,,,001,2025-03-10_21h39.17.949,SL_base_41,2021.2.3,Win32,62.5,,,92,0,92,0,1,,,,,,,,
,,"[""circle"",""red"",""hori"",""left"",[150,0],[0,-150]]",circle,red,hori,left,"[150,0]","[0,-150]",left,1,1.0997,,,,,,001,2025-03-10_21h39.17.949,SL_base_41,2021.2.3,Win32,62.5,,,93,0,93,0,1,,,,,,,,
,,"[""diamond"",""green"",""hori"",""left"",[-150,0],[106,-106]]",diamond,green,hori,left,"[-150,0]","[106,-106]",left,1,1.1166,,,,,,001,2025-03-10_21h39.17.949,SL_base_41,2021.2.3,Win32,62.5,,,94,0,94,0,1,,,,,,,,
,,"[""diamond"",""red"",""vert"",""up"",[150,0],[0,-150]]",diamond,red,vert,up,"[150,0]","[0,-150]",up,1,1.3986,,,,,,001,2025-03-10_21h39.17.949,SL_base_41,2021.2.3,Win32,62.5,,,95,0,95,0,1,,,,,,,,
,,"[""diamond"",""green"",""vert"",""up"",[0,-150],[-106,106]]",diamond,green,vert,up,"[0,-150]","[-106,106]",up,1,1.8496,,,,,,001,2025-03-10_21h39.17.949,SL_base_41,2021.2.3,Win32,62.5,,,96,0,96,0,1,,,,,,,,
,,"[""circle"",""no_dis"",""vert"",""up"",[99999,99999],[0,-150]]",circle,no_dis,vert,up,"[99999,99999]","[0,-150]",up,1,1.0921,,,,,,001,2025-03-10_21h39.17.949,SL_base_41,2021.2.3,Win32,62.5,,,97,0,97,0,1,,,,,,,,
,,"[""diamond"",""no_dis"",""vert"",""up"",[99999,99999],[0,-150]]",diamond,no_dis,vert,up,"[99999,99999]","[0,-150]",up,1,0.8339,,,,,,001,2025-03-10_21h39.17.949,SL_base_41,2021.2.3,Win32,62.5,,,98,0,98,0,1,,,,,,,,
,,"[""circle"",""red"",""hori"",""left"",[0,150],[-106,106]]",circle,red,hori,left,"[0,150]","[-106,106]",left,1,1.0326,,,,,,001,2025-03-10_21h39.17.949,SL_base_41,2021.2.3,Win32,62.5,,,99,0,99,0,1,,,,,,,,
,,"[""circle"",""no_dis"",""hori"",""left"",[99999,99999],[106,106]]",circle,no_dis,hori,left,"[99999,99999]","[106,106]",left,1,2.0661,,,,,,001,2025-03-10_21h39.17.949,SL_base_41,2021.2.3,Win32,62.5,,,100,0,100,0,1,,,,,,,,
,,"[""diamond"",""no_dis"",""vert"",""up"",[99999,99999],[0,150]]",diamond,no_dis,vert,up,"[99999,99999]","[0,150]",up,1,1.1238,,,,,,001,2025-03-10_21h39.17.949,SL_base_41,2021.2.3,Win32,62.5,,,101,0,101,0,1,,,,,,,,
,,"[""diamond"",""green"",""hori"",""left"",[-106,106],[106,-106]]",diamond,green,hori,left,"[-106,106]","[106,-106]",left,1,1.1048,,,,,,001,2025-03-10_21h39.17.949,SL_base_41,2021.2.3,Win32,62.5,,,102,0,102,0,1,,,,,,,,
,,"[""circle"",""no_dis"",""hori"",""left"",[99999,99999],[0,-150]]",circle,no_dis,hori,left,"[99999,99999]","[0,-150]",left,1,1.2663,,,,,,001,2025-03-10_21h39.17.949,SL_base_41,2021.2.3,Win32,62.5,,,103,0,103,0,1,,,,,,,,
,,"[""circle"",""green"",""vert"",""up"",[-106,-106],[-150,0]]",circle,green,vert,up,"[-106,-106]","[-150,0]",up,1,1.0658,,,,,,001,2025-03-10_21h39.17.949,SL_base_41,2021.2.3,Win32,62.5,,,104,0,104,0,1,,,,,,,,
,,"[""diamond"",""green"",""vert"",""up"",[106,-106],[-106,106]]",diamond,green,vert,up,"[106,-106]","[-106,106]",up,1,1.1509,,,,,,001,2025-03-10_21h39.17.949,SL_base_41,2021.2.3,Win32,62.5,,,105,0,105,0,1,,,,,,,,
,,"[""circle"",""red"",""vert"",""up"",[150,0],[0,-150]]",circle,red,vert,up,"[150,0]","[0,-150]",up,1,1.1664,,,,,,001,2025-03-10_21h39.17.949,SL_base_41,2021.2.3,Win32,62.5,,,106,0,106,0,1,,,,,,,,
,,"[""circle"",""no_dis"",""hori"",""left"",[99999,99999],[-106,-106]]",circle,no_dis,hori,left,"[99999,99999]","[-106,-106]",left,1,1.1411,,,,,,001,2025-03-10_21h39.17.949,SL_base_41,2021.2.3,Win32,62.5,,,107,0,107,0,1,,,,,,,,
,,"[""diamond"",""red"",""hori"",""left"",[0,150],[106,106]]",diamond,red,hori,left,"[0,150]","[106,106]",left,1,1.8164,,,,,,001,2025-03-10_21h39.17.949,SL_base_41,2021.2.3,Win32,62.5,,,108,0,108,0,1,,,,,,,,
,,"[""circle"",""green"",""vert"",""up"",[150,0],[0,150]]",circle,green,vert,up,"[150,0]","[0,150]",up,1,1.8902,,,,,,001,2025-03-10_21h39.17.949,SL_base_41,2021.2.3,Win32,62.5,,,109,0,109,0,1,,,,,,,,
,,"[""circle"",""red"",""vert"",""up"",[150,0],[106,-106]]",circle,red,vert,up,"[150,0]","[106,-106]",up,1,2.0823,,,,,,001,2025-03-10_21h39.17.949,SL_base_41,2021.2.3,Win32,62.5,,,110,0,110,0,1,,,,,,,,
,,"[""circle"",""green"",""hori"",""left"",[-106,106],[0,-150]]",circle,green,hori,left,"[-106,106]","[0,-150]",left,1,1.2498,,,,,,001,2025-03-10_21h39.17.949,SL_base_41,2021.2.3,Win32,62.5,,,111,0,111,0,1,,,,,,,,
,,"[""circle"",""red"",""hori"",""left"",[106,-106],[-106,106]]",circle,red,hori,left,"[106,-106]","[-106,106]",left,1,1.6741,,,,,,001,2025-03-10_21h39.17.949,SL_base_41,2021.2.3,Win32,62.5,,,112,0,112,0,1,,,,,,,,
,,"[""circle"",""red"",""hori"",""left"",[106,106],[-106,106]]",circle,red,hori,left,"[106,106]","[-106,106]",left,1,1.2157,,,,,,001,2025-03-10_21h39.17.949,SL_base_41,2021.2.3,Win32,62.5,,,113,0,113,0,1,,,,,,,,
,,"[""diamond"",""no_dis"",""hori"",""left"",[99999,99999],[-106,106]]",diamond,no_dis,hori,left,"[99999,99999]","[-106,106]",left,1,1.7323,,,,,,001,2025-03-10_21h39.17.949,SL_base_41,2021.2.3,Win32,62.5,,,114,0,114,0,1,,,,,,,,
,,"[""circle"",""red"",""hori"",""left"",[150,0],[-106,-106]]",circle,red,hori,left,"[150,0]","[-106,-106]",left,1,1.2168,,,,,,001,2025-03-10_21h39.17.949,SL_base_41,2021.2.3,Win32,62.5,,,115,0,115,0,1,,,,,,,,
,,"[""diamond"",""green"",""vert"",""up"",[0,150],[106,106]]",diamond,green,vert,up,"[0,150]","[106,106]",up,1,1.233,,,,,,001,2025-03-10_21h39.17.949,SL_base_41,2021.2.3,Win32,62.5,,,116,0,116,0,1,,,,,,,,
,,"[""circle"",""red"",""hori"",""left"",[150,0],[-150,0]]",circle,red,hori,left,"[150,0]","[-150,0]",left,1,1.1511,,,,,,001,2025-03-10_21h39.17.949,SL_base_41,2021.2.3,Win32,62.5,,,117,0,117,0,1,,,,,,,,
,,"[""circle"",""no_dis"",""vert"",""up"",[99999,99999],[0,150]]",circle,no_dis,vert,up,"[99999,99999]","[0,150]",up,1,1.0681,,,,,,001,2025-03-10_21h39.17.949,SL_base_41,2021.2.3,Win32,62.5,,,118,0,118,0,1,,,,,,,,
,,"[""circle"",""no_dis"",""hori"",""left"",[99999,99999],[-150,0]]",circle,no_dis,hori,left,"[99999,99999]","[-150,0]",left,1,1.0999,,,,,,001,2025-03-10_21h39.17.949,SL_base_41,2021.2.3,Win32,62.5,,,119,0,119,0,1,,,,,,,,
,,"[""diamond"",""no_dis"",""hori"",""left"",[99999,99999],[-106,106]]",diamond,no_dis,hori,left,"[99999,99999]","[-106,106]",left,1,0.9835,,,,,,001,2025-03-10_21h39.17.949,SL_base_41,2021.2.3,Win32,62.5,,,120,0,120,0,1,,,,,,,,
,,"[""diamond"",""green"",""hori"",""left"",[0,150],[106,106]]",diamond,green,hori,left,"[0,150]","[106,106]",left,1,1.5659,,,,,,001,2025-03-10_21h39.17.949,SL_base_41,2021.2.3,Win32,62.5,,,121,0,121,0,1,,,,,,,,
,,"[""circle"",""red"",""vert"",""up"",[150,0],[-106,106]]",circle,red,vert,up,"[150,0]","[-106,106]",up,1,1.0997,,,,,,001,2025-03-10_21h39.17.949,SL_base_41,2021.2.3,Win32,62.5,,,122,0,122,0,1,,,,,,,,
,,"[""diamond"",""no_dis"",""hori"",""left"",[99999,99999],[-150,0]]",diamond,no_dis,hori,left,"[99999,99999]","[-150,0]",left,1,1.2173,,,,,,001,2025-03-10_21h39.17.949,SL_base_41,2021.2.3,Win32,62.5,,,123,0,123,0,1,,,,,,,,
,,"[""diamond"",""red"",""hori"",""left"",[0,-150],[-150,0]]",diamond,red,hori,left,"[0,-150]","[-150,0]",left,1,1.0834,,,,,,001,2025-03-10_21h39.17.949,SL_base_41,2021.2.3,Win32,62.5,,,124,0,124,0,1,,,,,,,,
,,"[""circle"",""red"",""vert"",""up"",[150,0],[-106,-106]]",circle,red,vert,up,"[150,0]","[-106,-106]",left,0,1.6678,,,,,,001,2025-03-10_21h39.17.949,SL_base_41,2021.2.3,Win32,62.5,,,125,0,125,0,1,,,,,,,,
,,"[""diamond"",""red"",""hori"",""left"",[-106,-106],[-106,106]]",diamond,red,hori,left,"[-106,-106]","[-106,106]",left,1,1.2504,,,,,,001,2025-03-10_21h39.17.949,SL_base_41,2021.2.3,Win32,62.5,,,126,0,126,0,1,,,,,,,,
,,"[""circle"",""green"",""vert"",""up"",[150,0],[-106,-106]]",circle,green,vert,up,"[150,0]","[-106,-106]",up,1,1.0328,,,,,,001,2025-03-10_21h39.17.949,SL_base_41,2021.2.3,Win32,62.5,,,127,0,127,0,1,,,,,,,,
,,,,,,,,,,,,,,,,,001,2025-03-10_21h39.17.949,SL_base_41,2021.2.3,Win32,62.5,,,,,,,,1,space,7.099,0,0,0,0,1
,,"[""diamond"",""green"",""vert"",""up"",[106,-106],[-106,106]]",diamond,green,vert,up,"[106,-106]","[-106,106]",up,1,1.5495,,,,,,001,2025-03-10_21h39.17.949,SL_base_41,2021.2.3,Win32,62.5,,,0,0,0,0,1,,,,,,,,
,,"[""diamond"",""red"",""hori"",""left"",[0,-150],[-150,0]]",diamond,red,hori,left,"[0,-150]","[-150,0]",left,1,1.3495,,,,,,001,2025-03-10_21h39.17.949,SL_base_41,2021.2.3,Win32,62.5,,,1,0,1,0,1,,,,,,,,
,,"[""circle"",""red"",""vert"",""up"",[150,0],[-106,106]]",circle,red,vert,up,"[150,0]","[-106,106]",up,1,1.0319,,,,,,001,2025-03-10_21h39.17.949,SL_base_41,2021.2.3,Win32,62.5,,,2,0,2,0,1,,,,,,,,
,,"[""diamond"",""green"",""hori"",""left"",[150,0],[106,106]]",diamond,green,hori,left,"[150,0]","[106,106]",left,1,1.1831,,,,,,001,2025-03-10_21h39.17.949,SL_base_41,2021.2.3,Win32,62.5,,,3,0,3,0,1,,,,,,,,
,,"[""circle"",""no_dis"",""vert"",""up"",[99999,99999],[-106,106]]",circle,no_dis,vert,up,"[99999,99999]","[-106,106]",up,1,0.9708,,,,,,001,2025-03-10_21h39.17.949,SL_base_41,2021.2.3,Win32,62.5,,,4,0,4,0,1,,,,,,,,
,,"[""diamond"",""red"",""hori"",""left"",[150,0],[106,106]]",diamond,red,hori,left,"[150,0]","[106,106]",left,1,1.9815,,,,,,001,2025-03-10_21h39.17.949,SL_base_41,2021.2.3,Win32,62.5,,,5,0,5,0,1,,,,,,,,
,,"[""diamond"",""green"",""hori"",""left"",[150,0],[0,150]]",diamond,green,hori,left,"[150,0]","[0,150]",left,1,1.3569,,,,,,001,2025-03-10_21h39.17.949,SL_base_41,2021.2.3,Win32,62.5,,,6,0,6,0,1,,,,,,,,
,,"[""circle"",""red"",""hori"",""left"",[106,106],[-106,106]]",circle,red,hori,left,"[106,106]","[-106,106]",left,1,0.9997,,,,,,001,2025-03-10_21h39.17.949,SL_base_41,2021.2.3,Win32,62.5,,,7,0,7,0,1,,,,,,,,
,,"[""diamond"",""no_dis"",""hori"",""left"",[99999,99999],[-106,106]]",diamond,no_dis,hori,left,"[99999,99999]","[-106,106]",left,1,1.0661,,,,,,001,2025-03-10_21h39.17.949,SL_base_41,2021.2.3,Win32,62.5,,,8,0,8,0,1,,,,,,,,
,,"[""circle"",""no_dis"",""hori"",""left"",[99999,99999],[106,-106]]",circle,no_dis,hori,left,"[99999,99999]","[106,-106]",left,1,1.3334,,,,,,001,2025-03-10_21h39.17.949,SL_base_41,2021.2.3,Win32,62.5,,,9,0,9,0,1,,,,,,,,
,,"[""circle"",""no_dis"",""vert"",""up"",[99999,99999],[0,-150]]",circle,no_dis,vert,up,"[99999,99999]","[0,-150]",up,1,0.9713,,,,,,001,2025-03-10_21h39.17.949,SL_base_41,2021.2.3,Win32,62.5,,,10,0,10,0,1,,,,,,,,
,,"[""diamond"",""no_dis"",""vert"",""up"",[99999,99999],[106,106]]",diamond,no_dis,vert,up,"[99999,99999]","[106,106]",up,1,2.1569,,,,,,001,2025-03-10_21h39.17.949,SL_base_41,2021.2.3,Win32,62.5,,,11,0,11,0,1,,,,,,,,
,,"[""circle"",""red"",""vert"",""up"",[-106,106],[-150,0]]",circle,red,vert,up,"[-106,106]","[-150,0]",up,1,1.1496,,,,,,001,2025-03-10_21h39.17.949,SL_base_41,2021.2.3,Win32,62.5,,,12,0,12,0,1,,,,,,,,
,,"[""circle"",""green"",""vert"",""up"",[150,0],[0,150]]",circle,green,vert,up,"[150,0]","[0,150]",up,1,1.0827,,,,,,001,2025-03-10_21h39.17.949,SL_base_41,2021.2.3,Win32,62.5,,,13,0,13,0,1,,,,,,,,
,,"[""circle"",""red"",""vert"",""up"",[-150,0],[-106,106]]",circle,red,vert,up,"[-150,0]","[-106,106]",up,1,1.2652,,,,,,001,2025-03-10_21h39.17.949,SL_base_41,2021.2.3,Win32,62.5,,,14,0,14,0,1,,,,,,,,
,,"[""circle"",""green"",""vert"",""up"",[-106,-106],[0,-150]]",circle,green,vert,up,"[-106,-106]","[0,-150]",up,1,1.3337,,,,,,001,2025-03-10_21h39.17.949,SL_base_41,2021.2.3,Win32,62.5,,,15,0,15,0,1,,,,,,,,
,,"[""circle"",""red"",""hori"",""left"",[0,-150],[150,0]]",circle,red,hori,left,"[0,-150]","[150,0]",left,1,1.0493,,,,,,001,2025-03-10_21h39.17.949,SL_base_41,2021.2.3,Win32,62.5,,,16,0,16,0,1,,,,,,,,
,,"[""circle"",""red"",""vert"",""up"",[150,0],[106,106]]",circle,red,vert,up,"[150,0]","[106,106]",up,1,1.049,,,,,,001,2025-03-10_21h39.17.949,SL_base_41,2021.2.3,Win32,62.5,,,17,0,17,0,1,,,,,,,,
,,"[""diamond"",""red"",""vert"",""up"",[-106,106],[106,106]]",diamond,red,vert,up,"[-106,106]","[106,106]",up,1,2.1822,,,,,,001,2025-03-10_21h39.17.949,SL_base_41,2021.2.3,Win32,62.5,,,18,0,18,0,1,,,,,,,,
,,"[""diamond"",""red"",""hori"",""left"",[-106,-106],[-106,106]]",diamond,red,hori,left,"[-106,-106]","[-106,106]",left,1,1.2,,,,,,001,2025-03-10_21h39.17.949,SL_base_41,2021.2.3,Win32,62.5,,,19,0,19,0,1,,,,,,,,
,,"[""diamond"",""red"",""vert"",""up"",[-106,106],[0,150]]",diamond,red,vert,up,"[-106,106]","[0,150]",up,1,0.8416,,,,,,001,2025-03-10_21h39.17.949,SL_base_41,2021.2.3,Win32,62.5,,,20,0,20,0,1,,,,,,,,
,,"[""circle"",""no_dis"",""vert"",""up"",[99999,99999],[106,106]]",circle,no_dis,vert,up,"[99999,99999]","[106,106]",up,1,1.3922,,,,,,001,2025-03-10_21h39.17.949,SL_base_41,2021.2.3,Win32,62.5,,,21,0,21,0,1,,,,,,,,
,,"[""circle"",""green"",""hori"",""left"",[-150,0],[0,-150]]",circle,green,hori,left,"[-150,0]","[0,-150]",up,0,1.2328,,,,,,001,2025-03-10_21h39.17.949,SL_base_41,2021.2.3,Win32,62.5,,,22,0,22,0,1,,,,,,,,
,,"[""diamond"",""red"",""vert"",""up"",[150,0],[-150,0]]",diamond,red,vert,up,"[150,0]","[-150,0]",up,1,1.2058,,,,,,001,2025-03-10_21h39.17.949,SL_base_41,2021.2.3,Win32,62.5,,,23,0,23,0,1,,,,,,,,
,,"[""diamond"",""green"",""hori"",""left"",[-150,0],[106,-106]]",diamond,green,hori,left,"[-150,0]","[106,-106]",left,1,1.0047,,,,,,001,2025-03-10_21h39.17.949,SL_base_41,2021.2.3,Win32,62.5,,,24,0,24,0,1,,,,,,,,
,,"[""circle"",""green"",""vert"",""up"",[150,0],[-106,-106]]",circle,green,vert,up,"[150,0]","[-106,-106]",up,1,1.2836,,,,,,001,2025-03-10_21h39.17.949,SL_base_41,2021.2.3,Win32,62.5,,,25,0,25,0,1,,,,,,,,
,,"[""diamond"",""green"",""hori"",""left"",[-150,0],[106,-106]]",diamond,green,hori,left,"[-150,0]","[106,-106]",left,1,0.9403,,,,,,001,2025-03-10_21h39.17.949,SL_base_41,2021.2.3,Win32,62.5,,,26,0,26,0,1,,,,,,,,
,,"[""circle"",""red"",""vert"",""up"",[150,0],[106,-106]]",circle,red,vert,up,"[150,0]","[106,-106]",up,1,1.0846,,,,,,001,2025-03-10_21h39.17.949,SL_base_41,2021.2.3,Win32,62.5,,,27,0,27,0,1,,,,,,,,
,,"[""circle"",""green"",""hori"",""left"",[106,106],[0,150]]",circle,green,hori,left,"[106,106]","[0,150]",left,1,1.0497,,,,,,001,2025-03-10_21h39.17.949,SL_base_41,2021.2.3,Win32,62.5,,,28,0,28,0,1,,,,,,,,
,,"[""diamond"",""red"",""vert"",""up"",[150,0],[-150,0]]",diamond,red,vert,up,"[150,0]","[-150,0]",up,1,1.241,,,,,,001,2025-03-10_21h39.17.949,SL_base_41,2021.2.3,Win32,62.5,,,29,0,29,0,1,,,,,,,,
,,"[""circle"",""green"",""hori"",""left"",[0,150],[-106,106]]",circle,green,hori,left,"[0,150]","[-106,106]",left,1,2.2832,,,,,,001,2025-03-10_21h39.17.949,SL_base_41,2021.2.3,Win32,62.5,,,30,0,30,0,1,,,,,,,,
,,"[""diamond"",""green"",""vert"",""up"",[0,150],[106,106]]",diamond,green,vert,up,"[0,150]","[106,106]",up,1,2.1323,,,,,,001,2025-03-10_21h39.17.949,SL_base_41,2021.2.3,Win32,62.5,,,31,0,31,0,1,,,,,,,,
,,"[""circle"",""no_dis"",""hori"",""left"",[99999,99999],[150,0]]",circle,no_dis,hori,left,"[99999,99999]","[150,0]",left,1,2.0327,,,,,,001,2025-03-10_21h39.17.949,SL_base_41,2021.2.3,Win32,62.5,,,32,0,32,0,1,,,,,,,,
,,"[""circle"",""red"",""hori"",""left"",[150,0],[-150,0]]",circle,red,hori,left,"[150,0]","[-150,0]",up,0,1.2203,,,,,,001,2025-03-10_21h39.17.949,SL_base_41,2021.2.3,Win32,62.5,,,33,0,33,0,1,,,,,,,,
,,"[""circle"",""green"",""vert"",""up"",[0,150],[106,106]]",circle,green,vert,up,"[0,150]","[106,106]",up,1,2.2175,,,,,,001,2025-03-10_21h39.17.949,SL_base_41,2021.2.3,Win32,62.5,,,34,0,34,0,1,,,,,,,,
,,"[""diamond"",""no_dis"",""vert"",""up"",[99999,99999],[-106,106]]",diamond,no_dis,vert,up,"[99999,99999]","[-106,106]",up,1,1.3827,,,,,,001,2025-03-10_21h39.17.949,SL_base_41,2021.2.3,Win32,62.5,,,35,0,35,0,1,,,,,,,,
,,"[""diamond"",""red"",""vert"",""up"",[106,-106],[-150,0]]",diamond,red,vert,up,"[106,-106]","[-150,0]",up,1,1.2004,,,,,,001,2025-03-10_21h39.17.949,SL_base_41,2021.2.3,Win32,62.5,,,36,0,36,0,1,,,,,,,,
,,"[""diamond"",""no_dis"",""hori"",""left"",[99999,99999],[-106,-106]]",diamond,no_dis,hori,left,"[99999,99999]","[-106,-106]",left,1,1.2555,,,,,,001,2025-03-10_21h39.17.949,SL_base_41,2021.2.3,Win32,62.5,,,37,0,37,0,1,,,,,,,,
,,"[""diamond"",""red"",""hori"",""left"",[150,0],[0,150]]",diamond,red,hori,left,"[150,0]","[0,150]",left,1,0.8748,,,,,,001,2025-03-10_21h39.17.949,SL_base_41,2021.2.3,Win32,62.5,,,38,0,38,0,1,,,,,,,,
,,"[""circle"",""green"",""hori"",""left"",[-106,106],[0,-150]]",circle,green,hori,left,"[-106,106]","[0,-150]",left,1,2.026,,,,,,001,2025-03-10_21h39.17.949,SL_base_41,2021.2.3,Win32,62.5,,,39,0,39,0,1,,,,,,,,
,,"[""circle"",""red"",""hori"",""left"",[150,0],[-106,-106]]",circle,red,hori,left,"[150,0]","[-106,-106]",left,1,0.7838,,,,,,001,2025-03-10_21h39.17.949,SL_base_41,2021.2.3,Win32,62.5,,,40,0,40,0,1,,,,,,,,
,,"[""diamond"",""green"",""vert"",""up"",[-106,-106],[150,0]]",diamond,green,vert,up,"[-106,-106]","[150,0]",up,1,1.0183,,,,,,001,2025-03-10_21h39.17.949,SL_base_41,2021.2.3,Win32,62.5,,,41,0,41,0,1,,,,,,,,
,,"[""diamond"",""no_dis"",""vert"",""up"",[99999,99999],[0,150]]",diamond,no_dis,vert,up,"[99999,99999]","[0,150]",up,1,0.867,,,,,,001,2025-03-10_21h39.17.949,SL_base_41,2021.2.3,Win32,62.5,,,42,0,42,0,1,,,,,,,,
,,"[""diamond"",""green"",""vert"",""up"",[106,106],[-106,-106]]",diamond,green,vert,up,"[106,106]","[-106,-106]",up,1,0.9173,,,,,,001,2025-03-10_21h39.17.949,SL_base_41,2021.2.3,Win32,62.5,,,43,0,43,0,1,,,,,,,,
,,"[""circle"",""no_dis"",""hori"",""left"",[99999,99999],[-150,0]]",circle,no_dis,hori,left,"[99999,99999]","[-150,0]",left,1,1.0535,,,,,,001,2025-03-10_21h39.17.949,SL_base_41,2021.2.3,Win32,62.5,,,44,0,44,0,1,,,,,,,,
,,"[""diamond"",""green"",""vert"",""up"",[150,0],[106,106]]",diamond,green,vert,up,"[150,0]","[106,106]",up,1,1.4154,,,,,,001,2025-03-10_21h39.17.949,SL_base_41,2021.2.3,Win32,62.5,,,45,0,45,0,1,,,,,,,,
,,"[""circle"",""red"",""vert"",""up"",[106,106],[-106,106]]",circle,red,vert,up,"[106,106]","[-106,106]",up,1,1.054,,,,,,001,2025-03-10_21h39.17.949,SL_base_41,2021.2.3,Win32,62.5,,,46,0,46,0,1,,,,,,,,
,,"[""diamond"",""no_dis"",""hori"",""left"",[99999,99999],[-106,-106]]",diamond,no_dis,hori,left,"[99999,99999]","[-106,-106]",left,1,0.8828,,,,,,001,2025-03-10_21h39.17.949,SL_base_41,2021.2.3,Win32,62.5,,,47,0,47,0,1,,,,,,,,
,,"[""circle"",""green"",""hori"",""left"",[106,106],[0,150]]",circle,green,hori,left,"[106,106]","[0,150]",left,1,1.3208,,,,,,001,2025-03-10_21h39.17.949,SL_base_41,2021.2.3,Win32,62.5,,,48,0,48,0,1,,,,,,,,
,,"[""diamond"",""red"",""vert"",""up"",[150,0],[0,-150]]",diamond,red,vert,up,"[150,0]","[0,-150]",up,1,0.8765,,,,,,001,2025-03-10_21h39.17.949,SL_base_41,2021.2.3,Win32,62.5,,,49,0,49,0,1,,,,,,,,
,,"[""circle"",""no_dis"",""vert"",""up"",[99999,99999],[0,-150]]",circle,no_dis,vert,up,"[99999,99999]","[0,-150]",up,1,0.6879,,,,,,001,2025-03-10_21h39.17.949,SL_base_41,2021.2.3,Win32,62.5,,,50,0,50,0,1,,,,,,,,
,,"[""circle"",""red"",""hori"",""left"",[106,-106],[-106,-106]]",circle,red,hori,left,"[106,-106]","[-106,-106]",left,1,2.0491,,,,,,001,2025-03-10_21h39.17.949,SL_base_41,2021.2.3,Win32,62.5,,,51,0,51,0,1,,,,,,,,
,,"[""diamond"",""no_dis"",""vert"",""up"",[99999,99999],[0,150]]",diamond,no_dis,vert,up,"[99999,99999]","[0,150]",up,1,1.3324,,,,,,001,2025-03-10_21h39.17.949,SL_base_41,2021.2.3,Win32,62.5,,,52,0,52,0,1,,,,,,,,
,,"[""diamond"",""green"",""vert"",""up"",[106,-106],[0,-150]]",diamond,green,vert,up,"[106,-106]","[0,-150]",up,1,0.8997,,,,,,001,2025-03-10_21h39.17.949,SL_base_41,2021.2.3,Win32,62.5,,,53,0,53,0,1,,,,,,,,
,,"[""diamond"",""no_dis"",""vert"",""up"",[99999,99999],[106,106]]",diamond,no_dis,vert,up,"[99999,99999]","[106,106]",up,1,0.884,,,,,,001,2025-03-10_21h39.17.949,SL_base_41,2021.2.3,Win32,62.5,,,54,0,54,0,1,,,,,,,,
,,"[""circle"",""red"",""hori"",""left"",[106,-106],[-106,106]]",circle,red,hori,left,"[106,-106]","[-106,106]",left,1,1.2583,,,,,,001,2025-03-10_21h39.17.949,SL_base_41,2021.2.3,Win32,62.5,,,55,0,55,0,1,,,,,,,,
,,"[""diamond"",""no_dis"",""hori"",""left"",[99999,99999],[-106,106]]",diamond,no_dis,hori,left,"[99999,99999]","[-106,106]",left,1,1.766,,,,,,001,2025-03-10_21h39.17.949,SL_base_41,2021.2.3,Win32,62.5,,,56,0,56,0,1,,,,,,,,
,,"[""diamond"",""red"",""hori"",""left"",[106,106],[-106,-106]]",diamond,red,hori,left,"[106,106]","[-106,-106]",left,1,1.8827,,,,,,001,2025-03-10_21h39.17.949,SL_base_41,2021.2.3,Win32,62.5,,,57,0,57,0,1,,,,,,,,
,,"[""circle"",""no_dis"",""hori"",""left"",[99999,99999],[0,-150]]",circle,no_dis,hori,left,"[99999,99999]","[0,-150]",left,1,1.4161,,,,,,001,2025-03-10_21h39.17.949,SL_base_41,2021.2.3,Win32,62.5,,,58,0,58,0,1,,,,,,,,
,,"[""circle"",""green"",""hori"",""left"",[150,0],[-150,0]]",circle,green,hori,left,"[150,0]","[-150,0]",left,1,0.9048,,,,,,001,2025-03-10_21h39.17.949,SL_base_41,2021.2.3,Win32,62.5,,,59,0,59,0,1,,,,,,,,
,,"[""circle"",""green"",""hori"",""left"",[0,-150],[0,150]]",circle,green,hori,left,"[0,-150]","[0,150]",left,1,0.8674,,,,,,001,2025-03-10_21h39.17.949,SL_base_41,2021.2.3,Win32,62.5,,,60,0,60,0,1,,,,,,,,
,,"[""circle"",""green"",""hori"",""left"",[106,-106],[-106,-106]]",circle,green,hori,left,"[106,-106]","[-106,-106]",left,1,0.6996,,,,,,001,2025-03-10_21h39.17.949,SL_base_41,2021.2.3,Win32,62.5,,,61,0,61,0,1,,,,,,,,
,,"[""diamond"",""no_dis"",""hori"",""left"",[99999,99999],[106,-106]]",diamond,no_dis,hori,left,"[99999,99999]","[106,-106]",left,1,0.9664,,,,,,001,2025-03-10_21h39.17.949,SL_base_41,2021.2.3,Win32,62.5,,,62,0,62,0,1,,,,,,,,
,,"[""circle"",""green"",""vert"",""up"",[150,0],[-150,0]]",circle,green,vert,up,"[150,0]","[-150,0]",left,0,0.9001,,,,,,001,2025-03-10_21h39.17.949,SL_base_41,2021.2.3,Win32,62.5,,,63,0,63,0,1,,,,,,,,
,,"[""diamond"",""green"",""hori"",""left"",[-150,0],[0,150]]",diamond,green,hori,left,"[-150,0]","[0,150]",left,1,1.1997,,,,,,001,2025-03-10_21h39.17.949,SL_base_41,2021.2.3,Win32,62.5,,,64,0,64,0,1,,,,,,,,
,,"[""diamond"",""red"",""hori"",""left"",[150,0],[-106,106]]",diamond,red,hori,left,"[150,0]","[-106,106]",left,1,1.1994,,,,,,001,2025-03-10_21h39.17.949,SL_base_41,2021.2.3,Win32,62.5,,,65,0,65,0,1,,,,,,,,
,,"[""circle"",""no_dis"",""vert"",""up"",[99999,99999],[-106,-106]]",circle,no_dis,vert,up,"[99999,99999]","[-106,-106]",up,1,1.3915,,,,,,001,2025-03-10_21h39.17.949,SL_base_41,2021.2.3,Win32,62.5,,,66,0,66,0,1,,,,,,,,
,,"[""circle"",""green"",""vert"",""up"",[150,0],[-106,106]]",circle,green,vert,up,"[150,0]","[-106,106]",up,1,1.2003,,,,,,001,2025-03-10_21h39.17.949,SL_base_41,2021.2.3,Win32,62.5,,,67,0,67,0,1,,,,,,,,
,,"[""diamond"",""green"",""hori"",""left"",[106,106],[-106,-106]]",diamond,green,hori,left,"[106,106]","[-106,-106]",left,1,1.0497,,,,,,001,2025-03-10_21h39.17.949,SL_base_41,2021.2.3,Win32,62.5,,,68,0,68,0,1,,,,,,,,
,,"[""diamond"",""no_dis"",""hori"",""left"",[99999,99999],[106,-106]]",diamond,no_dis,hori,left,"[99999,99999]","[106,-106]",left,1,1.1,,,,,,001,2025-03-10_21h39.17.949,SL_base_41,2021.2.3,Win32,62.5,,,69,0,69,0,1,,,,,,,,
,,"[""circle"",""green"",""vert"",""up"",[-106,106],[150,0]]",circle,green,vert,up,"[-106,106]","[150,0]",up,1,1.1591,,,,,,001,2025-03-10_21h39.17.949,SL_base_41,2021.2.3,Win32,62.5,,,70,0,70,0,1,,,,,,,,
,,"[""circle"",""red"",""vert"",""up"",[150,0],[0,-150]]",circle,red,vert,up,"[150,0]","[0,-150]",up,1,1.1404,,,,,,001,2025-03-10_21h39.17.949,SL_base_41,2021.2.3,Win32,62.5,,,71,0,71,0,1,,,,,,,,
,,"[""diamond"",""green"",""vert"",""up"",[0,-150],[-106,-106]]",diamond,green,vert,up,"[0,-150]","[-106,-106]",up,1,1.0337,,,,,,001,2025-03-10_21h39.17.949,SL_base_41,2021.2.3,Win32,62.5,,,72,0,72,0,1,,,,,,,,
,,"[""circle"",""no_dis"",""vert"",""up"",[99999,99999],[150,0]]",circle,no_dis,vert,up,"[99999,99999]","[150,0]",up,1,0.8333,,,,,,001,2025-03-10_21h39.17.949,SL_base_41,2021.2.3,Win32,62.5,,,73,0,73,0,1,,,,,,,,
,,"[""diamond"",""red"",""hori"",""left"",[-106,-106],[0,150]]",diamond,red,hori,left,"[-106,-106]","[0,150]",left,1,0.9839,,,,,,001,2025-03-10_21h39.17.949,SL_base_41,2021.2.3,Win32,62.5,,,74,0,74,0,1,,,,,,,,
,,"[""circle"",""red"",""hori"",""left"",[150,0],[-106,-106]]",circle,red,hori,left,"[150,0]","[-106,-106]",left,1,1.3546,,,,,,001,2025-03-10_21h39.17.949,SL_base_41,2021.2.3,Win32,62.5,,,75,0,75,0,1,,,,,,,,
,,"[""diamond"",""no_dis"",""hori"",""left"",[99999,99999],[150,0]]",diamond,no_dis,hori,left,"[99999,99999]","[150,0]",left,1,0.7256,,,,,,001,2025-03-10_21h39.17.949,SL_base_41,2021.2.3,Win32,62.5,,,76,0,76,0,1,,,,,,,,
,,"[""circle"",""red"",""vert"",""up"",[150,0],[-106,-106]]",circle,red,vert,up,"[150,0]","[-106,-106]",up,1,1.4986,,,,,,001,2025-03-10_21h39.17.949,SL_base_41,2021.2.3,Win32,62.5,,,77,0,77,0,1,,,,,,,,
,,"[""circle"",""no_dis"",""hori"",""left"",[99999,99999],[106,-106]]",circle,no_dis,hori,left,"[99999,99999]","[106,-106]",left,1,1.4171,,,,,,001,2025-03-10_21h39.17.949,SL_base_41,2021.2.3,Win32,62.5,,,78,0,78,0,1,,,,,,,,
,,"[""diamond"",""green"",""hori"",""left"",[0,150],[-106,-106]]",diamond,green,hori,left,"[0,150]","[-106,-106]",left,1,1.6163,,,,,,001,2025-03-10_21h39.17.949,SL_base_41,2021.2.3,Win32,62.5,,,79,0,79,0,1,,,,,,,,
,,"[""circle"",""green"",""vert"",""up"",[150,0],[0,150]]",circle,green,vert,up,"[150,0]","[0,150]",up,1,1.1828,,,,,,001,2025-03-10_21h39.17.949,SL_base_41,2021.2.3,Win32,62.5,,,80,0,80,0,1,,,,,,,,
,,"[""circle"",""no_dis"",""vert"",""up"",[99999,99999],[0,150]]",circle,no_dis,vert,up,"[99999,99999]","[0,150]",up,1,0.6675,,,,,,001,2025-03-10_21h39.17.949,SL_base_41,2021.2.3,Win32,62.5,,,81,0,81,0,1,,,,,,,,
,,"[""circle"",""green"",""hori"",""left"",[-106,106],[106,106]]",circle,green,hori,left,"[-106,106]","[106,106]",left,1,0.9924,,,,,,001,2025-03-10_21h39.17.949,SL_base_41,2021.2.3,Win32,62.5,,,82,0,82,0,1,,,,,,,,
,,"[""diamond"",""green"",""vert"",""up"",[-106,106],[0,150]]",diamond,green,vert,up,"[-106,106]","[0,150]",up,1,0.8327,,,,,,001,2025-03-10_21h39.17.949,SL_base_41,2021.2.3,Win32,62.5,,,83,0,83,0,1,,,,,,,,
,,"[""diamond"",""green"",""vert"",""up"",[106,-106],[-106,106]]",diamond,green,vert,up,"[106,-106]","[-106,106]",up,1,0.9893,,,,,,001,2025-03-10_21h39.17.949,SL_base_41,2021.2.3,Win32,62.5,,,84,0,84,0,1,,,,,,,,
,,"[""circle"",""no_dis"",""hori"",""left"",[99999,99999],[106,106]]",circle,no_dis,hori,left,"[99999,99999]","[106,106]",left,1,0.783,,,,,,001,2025-03-10_21h39.17.949,SL_base_41,2021.2.3,Win32,62.5,,,85,0,85,0,1,,,,,,,,
,,"[""diamond"",""red"",""hori"",""left"",[150,0],[-106,106]]",diamond,red,hori,left,"[150,0]","[-106,106]",left,1,0.7007,,,,,,001,2025-03-10_21h39.17.949,SL_base_41,2021.2.3,Win32,62.5,,,86,0,86,0,1,,,,,,,,
,,"[""diamond"",""no_dis"",""vert"",""up"",[99999,99999],[0,150]]",diamond,no_dis,vert,up,"[99999,99999]","[0,150]",up,1,0.6745,,,,,,001,2025-03-10_21h39.17.949,SL_base_41,2021.2.3,Win32,62.5,,,87,0,87,0,1,,,,,,,,
,,"[""diamond"",""red"",""hori"",""left"",[0,150],[106,106]]",diamond,red,hori,left,"[0,150]","[106,106]",left,1,1.3664,,,,,,001,2025-03-10_21h39.17.949,SL_base_41,2021.2.3,Win32,62.5,,,88,0,88,0,1,,,,,,,,
,,"[""circle"",""red"",""vert"",""up"",[-106,-106],[106,-106]]",circle,red,vert,up,"[-106,-106]","[106,-106]",up,1,1.0336,,,,,,001,2025-03-10_21h39.17.949,SL_base_41,2021.2.3,Win32,62.5,,,89,0,89,0,1,,,,,,,,
,,"[""circle"",""no_dis"",""hori"",""left"",[99999,99999],[-150,0]]",circle,no_dis,hori,left,"[99999,99999]","[-150,0]",left,1,1.4714,,,,,,001,2025-03-10_21h39.17.949,SL_base_41,2021.2.3,Win32,62.5,,,90,0,90,0,1,,,,,,,,
,,"[""diamond"",""green"",""hori"",""left"",[0,150],[106,106]]",diamond,green,hori,left,"[0,150]","[106,106]",left,1,1.0713,,,,,,001,2025-03-10_21h39.17.949,SL_base_41,2021.2.3,Win32,62.5,,,91,0,91,0,1,,,,,,,,
,,"[""diamond"",""no_dis"",""vert"",""up"",[99999,99999],[106,-106]]",diamond,no_dis,vert,up,"[99999,99999]","[106,-106]",up,1,0.7043,,,,,,001,2025-03-10_21h39.17.949,SL_base_41,2021.2.3,Win32,62.5,,,92,0,92,0,1,,,,,,,,
,,"[""diamond"",""red"",""vert"",""up"",[-106,-106],[0,150]]",diamond,red,vert,up,"[-106,-106]","[0,150]",up,1,0.6014,,,,,,001,2025-03-10_21h39.17.949,SL_base_41,2021.2.3,Win32,62.5,,,93,0,93,0,1,,,,,,,,
,,"[""diamond"",""red"",""vert"",""up"",[150,0],[0,150]]",diamond,red,vert,up,"[150,0]","[0,150]",up,1,0.5331,,,,,,001,2025-03-10_21h39.17.949,SL_base_41,2021.2.3,Win32,62.5,,,94,0,94,0,1,,,,,,,,
,,"[""diamond"",""no_dis"",""vert"",""up"",[99999,99999],[0,-150]]",diamond,no_dis,vert,up,"[99999,99999]","[0,-150]",up,1,0.6501,,,,,,001,2025-03-10_21h39.17.949,SL_base_41,2021.2.3,Win32,62.5,,,95,0,95,0,1,,,,,,,,
,,"[""circle"",""no_dis"",""hori"",""left"",[99999,99999],[0,-150]]",circle,no_dis,hori,left,"[99999,99999]","[0,-150]",left,1,1.5159,,,,,,001,2025-03-10_21h39.17.949,SL_base_41,2021.2.3,Win32,62.5,,,96,0,96,0,1,,,,,,,,
,,"[""diamond"",""green"",""hori"",""left"",[150,0],[-106,-106]]",diamond,green,hori,left,"[150,0]","[-106,-106]",left,1,1.4161,,,,,,001,2025-03-10_21h39.17.949,SL_base_41,2021.2.3,Win32,62.5,,,97,0,97,0,1,,,,,,,,
,,"[""diamond"",""red"",""hori"",""left"",[0,-150],[-150,0]]",diamond,red,hori,left,"[0,-150]","[-150,0]",left,1,1.151,,,,,,001,2025-03-10_21h39.17.949,SL_base_41,2021.2.3,Win32,62.5,,,98,0,98,0,1,,,,,,,,
,,"[""circle"",""green"",""vert"",""up"",[-106,-106],[-150,0]]",circle,green,vert,up,"[-106,-106]","[-150,0]",up,1,1.1239,,,,,,001,2025-03-10_21h39.17.949,SL_base_41,2021.2.3,Win32,62.5,,,99,0,99,0,1,,,,,,,,
,,"[""circle"",""red"",""hori"",""left"",[150,0],[0,150]]",circle,red,hori,left,"[150,0]","[0,150]",left,1,0.9605,,,,,,001,2025-03-10_21h39.17.949,SL_base_41,2021.2.3,Win32,62.5,,,100,0,100,0,1,,,,,,,,
,,"[""diamond"",""red"",""vert"",""up"",[-150,0],[0,-150]]",diamond,red,vert,up,"[-150,0]","[0,-150]",up,1,0.8556,,,,,,001,2025-03-10_21h39.17.949,SL_base_41,2021.2.3,Win32,62.5,,,101,0,101,0,1,,,,,,,,
,,"[""diamond"",""no_dis"",""hori"",""left"",[99999,99999],[-106,106]]",diamond,no_dis,hori,left,"[99999,99999]","[-106,106]",left,1,0.7844,,,,,,001,2025-03-10_21h39.17.949,SL_base_41,2021.2.3,Win32,62.5,,,102,0,102,0,1,,,,,,,,
,,"[""circle"",""green"",""vert"",""up"",[-106,-106],[150,0]]",circle,green,vert,up,"[-106,-106]","[150,0]",up,1,0.9326,,,,,,001,2025-03-10_21h39.17.949,SL_base_41,2021.2.3,Win32,62.5,,,103,0,103,0,1,,,,,,,,
,,"[""circle"",""no_dis"",""hori"",""left"",[99999,99999],[-106,-106]]",circle,no_dis,hori,left,"[99999,99999]","[-106,-106]",left,1,0.7174,,,,,,001,2025-03-10_21h39.17.949,SL_base_41,2021.2.3,Win32,62.5,,,104,0,104,0,1,,,,,,,,
,,"[""circle"",""green"",""hori"",""left"",[106,-106],[-106,-106]]",circle,green,hori,left,"[106,-106]","[-106,-106]",left,1,1.0366,,,,,,001,2025-03-10_21h39.17.949,SL_base_41,2021.2.3,Win32,62.5,,,105,0,105,0,1,,,,,,,,
,,"[""circle"",""no_dis"",""vert"",""up"",[99999,99999],[150,0]]",circle,no_dis,vert,up,"[99999,99999]","[150,0]",up,1,0.7833,,,,,,001,2025-03-10_21h39.17.949,SL_base_41,2021.2.3,Win32,62.5,,,106,0,106,0,1,,,,,,,,
,,"[""circle"",""green"",""hori"",""left"",[-150,0],[0,-150]]",circle,green,hori,left,"[-150,0]","[0,-150]",left,1,1.2099,,,,,,001,2025-03-10_21h39.17.949,SL_base_41,2021.2.3,Win32,62.5,,,107,0,107,0,1,,,,,,,,
,,"[""circle"",""red"",""hori"",""left"",[0,150],[-106,106]]",circle,red,hori,left,"[0,150]","[-106,106]",left,1,0.9711,,,,,,001,2025-03-10_21h39.17.949,SL_base_41,2021.2.3,Win32,62.5,,,108,0,108,0,1,,,,,,,,
,,"[""diamond"",""green"",""vert"",""up"",[0,-150],[-106,106]]",diamond,green,vert,up,"[0,-150]","[-106,106]",up,1,1.0673,,,,,,001,2025-03-10_21h39.17.949,SL_base_41,2021.2.3,Win32,62.5,,,109,0,109,0,1,,,,,,,,
,,"[""diamond"",""green"",""vert"",""up"",[0,-150],[-106,106]]",diamond,green,vert,up,"[0,-150]","[-106,106]",up,1,1.0494,,,,,,001,2025-03-10_21h39.17.949,SL_base_41,2021.2.3,Win32,62.5,,,110,0,110,0,1,,,,,,,,
,,"[""circle"",""red"",""vert"",""up"",[0,150],[-106,106]]",circle,red,vert,up,"[0,150]","[-106,106]",up,1,1.7319,,,,,,001,2025-03-10_21h39.17.949,SL_base_41,2021.2.3,Win32,62.5,,,111,0,111,0,1,,,,,,,,
,,"[""diamond"",""red"",""vert"",""up"",[0,-150],[0,150]]",diamond,red,vert,up,"[0,-150]","[0,150]",up,1,1.0004,,,,,,001,2025-03-10_21h39.17.949,SL_base_41,2021.2.3,Win32,62.5,,,112,0,112,0,1,,,,,,,,
,,"[""diamond"",""no_dis"",""vert"",""up"",[99999,99999],[-150,0]]",diamond,no_dis,vert,up,"[99999,99999]","[-150,0]",up,1,0.9508,,,,,,001,2025-03-10_21h39.17.949,SL_base_41,2021.2.3,Win32,62.5,,,113,0,113,0,1,,,,,,,,
,,"[""diamond"",""red"",""hori"",""left"",[150,0],[0,-150]]",diamond,red,hori,left,"[150,0]","[0,-150]",left,1,0.8335,,,,,,001,2025-03-10_21h39.17.949,SL_base_41,2021.2.3,Win32,62.5,,,114,0,114,0,1,,,,,,,,
,,"[""diamond"",""green"",""hori"",""left"",[-106,106],[106,-106]]",diamond,green,hori,left,"[-106,106]","[106,-106]",left,1,0.6669,,,,,,001,2025-03-10_21h39.17.949,SL_base_41,2021.2.3,Win32,62.5,,,115,0,115,0,1,,,,,,,,
,,"[""circle"",""red"",""vert"",""up"",[150,0],[-106,-106]]",circle,red,vert,up,"[150,0]","[-106,-106]",up,1,1.1532,,,,,,001,2025-03-10_21h39.17.949,SL_base_41,2021.2.3,Win32,62.5,,,116,0,116,0,1,,,,,,,,
,,"[""circle"",""red"",""hori"",""left"",[106,106],[-106,106]]",circle,red,hori,left,"[106,106]","[-106,106]",left,1,1.0176,,,,,,001,2025-03-10_21h39.17.949,SL_base_41,2021.2.3,Win32,62.5,,,117,0,117,0,1,,,,,,,,
,,"[""diamond"",""no_dis"",""vert"",""up"",[99999,99999],[106,106]]",diamond,no_dis,vert,up,"[99999,99999]","[106,106]",up,1,0.8405,,,,,,001,2025-03-10_21h39.17.949,SL_base_41,2021.2.3,Win32,62.5,,,118,0,118,0,1,,,,,,,,
,,"[""diamond"",""red"",""vert"",""up"",[150,0],[106,-106]]",diamond,red,vert,up,"[150,0]","[106,-106]",up,1,0.6212,,,,,,001,2025-03-10_21h39.17.949,SL_base_41,2021.2.3,Win32,62.5,,,119,0,119,0,1,,,,,,,,
,,"[""circle"",""no_dis"",""vert"",""up"",[99999,99999],[150,0]]",circle,no_dis,vert,up,"[99999,99999]","[150,0]",up,1,0.6028,,,,,,001,2025-03-10_21h39.17.949,SL_base_41,2021.2.3,Win32,62.5,,,120,0,120,0,1,,,,,,,,
,,"[""circle"",""no_dis"",""hori"",""left"",[99999,99999],[-106,-106]]",circle,no_dis,hori,left,"[99999,99999]","[-106,-106]",left,1,0.8502,,,,,,001,2025-03-10_21h39.17.949,SL_base_41,2021.2.3,Win32,62.5,,,121,0,121,0,1,,,,,,,,
,,"[""diamond"",""no_dis"",""hori"",""left"",[99999,99999],[-150,0]]",diamond,no_dis,hori,left,"[99999,99999]","[-150,0]",left,1,0.991,,,,,,001,2025-03-10_21h39.17.949,SL_base_41,2021.2.3,Win32,62.5,,,122,0,122,0,1,,,,,,,,
,,"[""circle"",""no_dis"",""vert"",""up"",[99999,99999],[0,150]]",circle,no_dis,vert,up,"[99999,99999]","[0,150]",up,1,0.6677,,,,,,001,2025-03-10_21h39.17.949,SL_base_41,2021.2.3,Win32,62.5,,,123,0,123,0,1,,,,,,,,
,,"[""diamond"",""no_dis"",""hori"",""left"",[99999,99999],[-150,0]]",diamond,no_dis,hori,left,"[99999,99999]","[-150,0]",left,1,0.7205,,,,,,001,2025-03-10_21h39.17.949,SL_base_41,2021.2.3,Win32,62.5,,,124,0,124,0,1,,,,,,,,
,,"[""circle"",""red"",""hori"",""left"",[150,0],[0,-150]]",circle,red,hori,left,"[150,0]","[0,-150]",left,1,0.773,,,,,,001,2025-03-10_21h39.17.949,SL_base_41,2021.2.3,Win32,62.5,,,125,0,125,0,1,,,,,,,,
,,"[""diamond"",""green"",""hori"",""left"",[150,0],[106,106]]",diamond,green,hori,left,"[150,0]","[106,106]",left,1,1.6377,,,,,,001,2025-03-10_21h39.17.949,SL_base_41,2021.2.3,Win32,62.5,,,126,0,126,0,1,,,,,,,,
,,"[""circle"",""green"",""vert"",""up"",[-150,0],[106,106]]",circle,green,vert,up,"[-150,0]","[106,106]",up,1,1.7829,,,,,,001,2025-03-10_21h39.17.949,SL_base_41,2021.2.3,Win32,62.5,,,127,0,127,0,1,,,,,,,,
,,,,,,,,,,,,,,,,,001,2025-03-10_21h39.17.949,SL_base_41,2021.2.3,Win32,62.5,,,,,,,,2,space,7.898,1,0,1,0,1
,,"[""circle"",""red"",""vert"",""up"",[0,150],[-106,106]]",circle,red,vert,up,"[0,150]","[-106,106]",up,1,1.6703,,,,,,001,2025-03-10_21h39.17.949,SL_base_41,2021.2.3,Win32,62.5,,,0,0,0,0,1,,,,,,,,
,,"[""circle"",""green"",""vert"",""up"",[150,0],[-106,106]]",circle,green,vert,up,"[150,0]","[-106,106]",up,1,1.4829,,,,,,001,2025-03-10_21h39.17.949,SL_base_41,2021.2.3,Win32,62.5,,,1,0,1,0,1,,,,,,,,
,,"[""diamond"",""no_dis"",""vert"",""up"",[99999,99999],[106,106]]",diamond,no_dis,vert,up,"[99999,99999]","[106,106]",up,1,1.2084,,,,,,001,2025-03-10_21h39.17.949,SL_base_41,2021.2.3,Win32,62.5,,,2,0,2,0,1,,,,,,,,
,,"[""diamond"",""no_dis"",""hori"",""left"",[99999,99999],[-106,-106]]",diamond,no_dis,hori,left,"[99999,99999]","[-106,-106]",left,1,0.9657,,,,,,001,2025-03-10_21h39.17.949,SL_base_41,2021.2.3,Win32,62.5,,,3,0,3,0,1,,,,,,,,
,,"[""circle"",""red"",""vert"",""up"",[-150,0],[-106,106]]",circle,red,vert,up,"[-150,0]","[-106,106]",up,1,0.9661,,,,,,001,2025-03-10_21h39.17.949,SL_base_41,2021.2.3,Win32,62.5,,,4,0,4,0,1,,,,,,,,
,,"[""circle"",""no_dis"",""vert"",""up"",[99999,99999],[0,-150]]",circle,no_dis,vert,up,"[99999,99999]","[0,-150]",up,1,1.2004,,,,,,001,2025-03-10_21h39.17.949,SL_base_41,2021.2.3,Win32,62.5,,,5,0,5,0,1,,,,,,,,
,,"[""circle"",""green"",""hori"",""left"",[-106,106],[0,-150]]",circle,green,hori,left,"[-106,106]","[0,-150]",left,1,1.0498,,,,,,001,2025-03-10_21h39.17.949,SL_base_41,2021.2.3,Win32,62.5,,,6,0,6,0,1,,,,,,,,
,,"[""circle"",""red"",""vert"",""up"",[150,0],[0,-150]]",circle,red,vert,up,"[150,0]","[0,-150]",up,1,1.0673,,,,,,001,2025-03-10_21h39.17.949,SL_base_41,2021.2.3,Win32,62.5,,,7,0,7,0,1,,,,,,,,
,,"[""diamond"",""no_dis"",""vert"",""up"",[99999,99999],[106,106]]",diamond,no_dis,vert,up,"[99999,99999]","[106,106]",up,1,1.0332,,,,,,001,2025-03-10_21h39.17.949,SL_base_41,2021.2.3,Win32,62.5,,,8,0,8,0,1,,,,,,,,
,,"[""diamond"",""no_dis"",""hori"",""left"",[99999,99999],[-106,106]]",diamond,no_dis,hori,left,"[99999,99999]","[-106,106]",left,1,1.0504,,,,,,001,2025-03-10_21h39.17.949,SL_base_41,2021.2.3,Win32,62.5,,,9,0,9,0,1,,,,,,,,
,,"[""circle"",""no_dis"",""hori"",""left"",[99999,99999],[150,0]]",circle,no_dis,hori,left,"[99999,99999]","[150,0]",left,1,0.9991,,,,,,001,2025-03-10_21h39.17.949,SL_base_41,2021.2.3,Win32,62.5,,,10,0,10,0,1,,,,,,,,
,,"[""circle"",""green"",""hori"",""left"",[-150,0],[0,-150]]",circle,green,hori,left,"[-150,0]","[0,-150]",left,1,0.8652,,,,,,001,2025-03-10_21h39.17.949,SL_base_41,2021.2.3,Win32,62.5,,,11,0,11,0,1,,,,,,,,
,,"[""diamond"",""no_dis"",""hori"",""left"",[99999,99999],[150,0]]",diamond,no_dis,hori,left,"[99999,99999]","[150,0]",left,1,0.6484,,,,,,001,2025-03-10_21h39.17.949,SL_base_41,2021.2.3,Win32,62.5,,,12,0,12,0,1,,,,,,,,
,,"[""circle"",""no_dis"",""vert"",""up"",[99999,99999],[-106,106]]",circle,no_dis,vert,up,"[99999,99999]","[-106,106]",up,1,0.7289,,,,,,001,2025-03-10_21h39.17.949,SL_base_41,2021.2.3,Win32,62.5,,,13,0,13,0,1,,,,,,,,
,,"[""circle"",""red"",""hori"",""left"",[0,150],[-106,106]]",circle,red,hori,left,"[0,150]","[-106,106]",left,1,1.8544,,,,,,001,2025-03-10_21h39.17.949,SL_base_41,2021.2.3,Win32,62.5,,,14,0,14,0,1,,,,,,,,
,,"[""circle"",""no_dis"",""hori"",""left"",[99999,99999],[-150,0]]",circle,no_dis,hori,left,"[99999,99999]","[-150,0]",left,1,1.2125,,,,,,001,2025-03-10_21h39.17.949,SL_base_41,2021.2.3,Win32,62.5,,,15,0,15,0,1,,,,,,,,
,,"[""circle"",""green"",""hori"",""left"",[106,106],[0,150]]",circle,green,hori,left,"[106,106]","[0,150]",left,1,0.9264,,,,,,001,2025-03-10_21h39.17.949,SL_base_41,2021.2.3,Win32,62.5,,,16,0,16,0,1,,,,,,,,
,,"[""diamond"",""red"",""hori"",""left"",[0,-150],[-150,0]]",diamond,red,hori,left,"[0,-150]","[-150,0]",left,1,1.0291,,,,,,001,2025-03-10_21h39.17.949,SL_base_41,2021.2.3,Win32,62.5,,,17,0,17,0,1,,,,,,,,
,,"[""diamond"",""green"",""hori"",""left"",[150,0],[106,106]]",diamond,green,hori,left,"[150,0]","[106,106]",left,1,1.2024,,,,,,001,2025-03-10_21h39.17.949,SL_base_41,2021.2.3,Win32,62.5,,,18,0,18,0,1,,,,,,,,
,,"[""diamond"",""red"",""hori"",""left"",[150,0],[0,150]]",diamond,red,hori,left,"[150,0]","[0,150]",left,1,0.6011,,,,,,001,2025-03-10_21h39.17.949,SL_base_41,2021.2.3,Win32,62.5,,,19,0,19,0,1,,,,,,,,
,,"[""diamond"",""red"",""vert"",""up"",[0,-150],[0,150]]",diamond,red,vert,up,"[0,-150]","[0,150]",up,1,0.7592,,,,,,001,2025-03-10_21h39.17.949,SL_base_41,2021.2.3,Win32,62.5,,,20,0,20,0,1,,,,,,,,
,,"[""diamond"",""red"",""vert"",""up"",[150,0],[0,-150]]",diamond,red,vert,up,"[150,0]","[0,-150]",up,1,0.7434,,,,,,001,2025-03-10_21h39.17.949,SL_base_41,2021.2.3,Win32,62.5,,,21,0,21,0,1,,,,,,,,
,,"[""diamond"",""green"",""hori"",""left"",[106,106],[-106,-106]]",diamond,green,hori,left,"[106,106]","[-106,-106]",left,1,1.0744,,,,,,001,2025-03-10_21h39.17.949,SL_base_41,2021.2.3,Win32,62.5,,,22,0,22,0,1,,,,,,,,
,,"[""diamond"",""green"",""vert"",""up"",[106,-106],[0,-150]]",diamond,green,vert,up,"[106,-106]","[0,-150]",up,1,0.8265,,,,,,001,2025-03-10_21h39.17.949,SL_base_41,2021.2.3,Win32,62.5,,,23,0,23,0,1,,,,,,,,
,,"[""diamond"",""red"",""hori"",""left"",[150,0],[-106,106]]",diamond,red,hori,left,"[150,0]","[-106,106]",left,1,0.9319,,,,,,001,2025-03-10_21h39.17.949,SL_base_41,2021.2.3,Win32,62.5,,,24,0,24,0,1,,,,,,,,
,,"[""circle"",""red"",""vert"",""up"",[-106,-106],[106,-106]]",circle,red,vert,up,"[-106,-106]","[106,-106]",up,1,1.1378,,,,,,001,2025-03-10_21h39.17.949,SL_base_41,2021.2.3,Win32,62.5,,,25,0,25,0,1,,,,,,,,
,,"[""circle"",""red"",""vert"",""up"",[150,0],[106,-106]]",circle,red,vert,up,"[150,0]","[106,-106]",up,1,1.0668,,,,,,001,2025-03-10_21h39.17.949,SL_base_41,2021.2.3,Win32,62.5,,,26,0,26,0,1,,,,,,,,
,,"[""diamond"",""no_dis"",""vert"",""up"",[99999,99999],[0,150]]",diamond,no_dis,vert,up,"[99999,99999]","[0,150]",up,1,0.6668,,,,,,001,2025-03-10_21h39.17.949,SL_base_41,2021.2.3,Win32,62.5,,,27,0,27,0,1,,,,,,,,
,,"[""circle"",""red"",""vert"",""up"",[150,0],[106,106]]",circle,red,vert,up,"[150,0]","[106,106]",up,1,1.1492,,,,,,001,2025-03-10_21h39.17.949,SL_base_41,2021.2.3,Win32,62.5,,,28,0,28,0,1,,,,,,,,
,,"[""circle"",""no_dis"",""hori"",""left"",[99999,99999],[0,-150]]",circle,no_dis,hori,left,"[99999,99999]","[0,-150]",left,1,1.0999,,,,,,001,2025-03-10_21h39.17.949,SL_base_41,2021.2.3,Win32,62.5,,,29,0,29,0,1,,,,,,,,
,,"[""diamond"",""no_dis"",""hori"",""left"",[99999,99999],[-150,0]]",diamond,no_dis,hori,left,"[99999,99999]","[-150,0]",left,1,1.2002,,,,,,001,2025-03-10_21h39.17.949,SL_base_41,2021.2.3,Win32,62.5,,,30,0,30,0,1,,,,,,,,
,,"[""circle"",""red"",""hori"",""left"",[106,-106],[-106,106]]",circle,red,hori,left,"[106,-106]","[-106,106]",left,1,1.0555,,,,,,001,2025-03-10_21h39.17.949,SL_base_41,2021.2.3,Win32,62.5,,,31,0,31,0,1,,,,,,,,
,,"[""diamond"",""green"",""hori"",""left"",[-150,0],[106,-106]]",diamond,green,hori,left,"[-150,0]","[106,-106]",left,1,1.1672,,,,,,001,2025-03-10_21h39.17.949,SL_base_41,2021.2.3,Win32,62.5,,,32,0,32,0,1,,,,,,,,
,,"[""diamond"",""green"",""vert"",""up"",[-106,-106],[150,0]]",diamond,green,vert,up,"[-106,-106]","[150,0]",up,1,1.0247,,,,,,001,2025-03-10_21h39.17.949,SL_base_41,2021.2.3,Win32,62.5,,,33,0,33,0,1,,,,,,,,
,,"[""diamond"",""red"",""hori"",""left"",[150,0],[0,-150]]",diamond,red,hori,left,"[150,0]","[0,-150]",up,0,1.1166,,,,,,001,2025-03-10_21h39.17.949,SL_base_41,2021.2.3,Win32,62.5,,,34,0,34,0,1,,,,,,,,
,,"[""diamond"",""red"",""hori"",""left"",[0,-150],[-150,0]]",diamond,red,hori,left,"[0,-150]","[-150,0]",left,1,0.9428,,,,,,001,2025-03-10_21h39.17.949,SL_base_41,2021.2.3,Win32,62.5,,,35,0,35,0,1,,,,,,,,
,,"[""diamond"",""red"",""vert"",""up"",[150,0],[0,150]]",diamond,red,vert,up,"[150,0]","[0,150]",up,1,0.9398,,,,,,001,2025-03-10_21h39.17.949,SL_base_41,2021.2.3,Win32,62.5,,,36,0,36,0,1,,,,,,,,
,,"[""circle"",""green"",""hori"",""left"",[0,-150],[0,150]]",circle,green,hori,left,"[0,-150]","[0,150]",left,1,1.7819,,,,,,001,2025-03-10_21h39.17.949,SL_base_41,2021.2.3,Win32,62.5,,,37,0,37,0,1,,,,,,,,
,,"[""circle"",""green"",""hori"",""left"",[106,-106],[-106,-106]]",circle,green,hori,left,"[106,-106]","[-106,-106]",left,1,1.2036,,,,,,001,2025-03-10_21h39.17.949,SL_base_41,2021.2.3,Win32,62.5,,,38,0,38,0,1,,,,,,,,
,,"[""circle"",""no_dis"",""vert"",""up"",[99999,99999],[150,0]]",circle,no_dis,vert,up,"[99999,99999]","[150,0]",up,1,0.9382,,,,,,001,2025-03-10_21h39.17.949,SL_base_41,2021.2.3,Win32,62.5,,,39,0,39,0,1,,,,,,,,
,,"[""circle"",""no_dis"",""hori"",""left"",[99999,99999],[-106,-106]]",circle,no_dis,hori,left,"[99999,99999]","[-106,-106]",left,1,1.7411,,,,,,001,2025-03-10_21h39.17.949,SL_base_41,2021.2.3,Win32,62.5,,,40,0,40,0,1,,,,,,,,
,,"[""diamond"",""no_dis"",""hori"",""left"",[99999,99999],[106,-106]]",diamond,no_dis,hori,left,"[99999,99999]","[106,-106]",left,1,0.9,,,,,,001,2025-03-10_21h39.17.949,SL_base_41,2021.2.3,Win32,62.5,,,41,0,41,0,1,,,,,,,,
,,"[""circle"",""green"",""vert"",""up"",[-106,-106],[0,-150]]",circle,green,vert,up,"[-106,-106]","[0,-150]",up,1,1.4332,,,,,,001,2025-03-10_21h39.17.949,SL_base_41,2021.2.3,Win32,62.5,,,42,0,42,0,1,,,,,,,,
,,"[""circle"",""green"",""vert"",""up"",[150,0],[0,150]]",circle,green,vert,up,"[150,0]","[0,150]",up,1,0.9045,,,,,,001,2025-03-10_21h39.17.949,SL_base_41,2021.2.3,Win32,62.5,,,43,0,43,0,1,,,,,,,,
,,"[""diamond"",""no_dis"",""vert"",""up"",[99999,99999],[-150,0]]",diamond,no_dis,vert,up,"[99999,99999]","[-150,0]",up,1,1.3386,,,,,,001,2025-03-10_21h39.17.949,SL_base_41,2021.2.3,Win32,62.5,,,44,0,44,0,1,,,,,,,,
,,"[""diamond"",""green"",""hori"",""left"",[0,150],[-106,-106]]",diamond,green,hori,left,"[0,150]","[-106,-106]",left,1,1.4159,,,,,,001,2025-03-10_21h39.17.949,SL_base_41,2021.2.3,Win32,62.5,,,45,0,45,0,1,,,,,,,,
,,"[""diamond"",""red"",""vert"",""up"",[106,-106],[-150,0]]",diamond,red,vert,up,"[106,-106]","[-150,0]",up,1,0.8167,,,,,,001,2025-03-10_21h39.17.949,SL_base_41,2021.2.3,Win32,62.5,,,46,0,46,0,1,,,,,,,,
,,"[""circle"",""no_dis"",""hori"",""left"",[99999,99999],[-106,-106]]",circle,no_dis,hori,left,"[99999,99999]","[-106,-106]",left,1,1.0933,,,,,,001,2025-03-10_21h39.17.949,SL_base_41,2021.2.3,Win32,62.5,,,47,0,47,0,1,,,,,,,,
,,"[""circle"",""red"",""hori"",""left"",[0,-150],[150,0]]",circle,red,hori,left,"[0,-150]","[150,0]",left,1,0.9335,,,,,,001,2025-03-10_21h39.17.949,SL_base_41,2021.2.3,Win32,62.5,,,48,0,48,0,1,,,,,,,,
,,"[""circle"",""green"",""hori"",""left"",[-106,106],[106,106]]",circle,green,hori,left,"[-106,106]","[106,106]",left,1,1.1006,,,,,,001,2025-03-10_21h39.17.949,SL_base_41,2021.2.3,Win32,62.5,,,49,0,49,0,1,,,,,,,,
,,"[""circle"",""red"",""vert"",""up"",[106,106],[-106,106]]",circle,red,vert,up,"[106,106]","[-106,106]",up,1,0.8825,,,,,,001,2025-03-10_21h39.17.949,SL_base_41,2021.2.3,Win32,62.5,,,50,0,50,0,1,,,,,,,,
,,"[""diamond"",""red"",""vert"",""up"",[-106,106],[0,150]]",diamond,red,vert,up,"[-106,106]","[0,150]",up,1,1.4994,,,,,,001,2025-03-10_21h39.17.949,SL_base_41,2021.2.3,Win32,62.5,,,51,0,51,0,1,,,,,,,,
,,"[""diamond"",""green"",""hori"",""left"",[150,0],[-106,-106]]",diamond,green,hori,left,"[150,0]","[-106,-106]",left,1,1.2914,,,,,,001,2025-03-10_21h39.17.949,SL_base_41,2021.2.3,Win32,62.5,,,52,0,52,0,1,,,,,,,,
,,"[""diamond"",""green"",""vert"",""up"",[-106,106],[0,150]]",diamond,green,vert,up,"[-106,106]","[0,150]",up,1,1.2159,,,,,,001,2025-03-10_21h39.17.949,SL_base_41,2021.2.3,Win32,62.5,,,53,0,53,0,1,,,,,,,,
,,"[""circle"",""red"",""hori"",""left"",[106,106],[-106,106]]",circle,red,hori,left,"[106,106]","[-106,106]",left,1,1.0657,,,,,,001,2025-03-10_21h39.17.949,SL_base_41,2021.2.3,Win32,62.5,,,54,0,54,0,1,,,,,,,,
,,"[""circle"",""green"",""vert"",""up"",[0,150],[106,106]]",circle,green,vert,up,"[0,150]","[106,106]",up,1,1.1823,,,,,,001,2025-03-10_21h39.17.949,SL_base_41,2021.2.3,Win32,62.5,,,55,0,55,0,1,,,,,,,,
,,"[""circle"",""green"",""vert"",""up"",[150,0],[-150,0]]",circle,green,vert,up,"[150,0]","[-150,0]",left,0,0.8672,,,,,,001,2025-03-10_21h39.17.949,SL_base_41,2021.2.3,Win32,62.5,,,56,0,56,0,1,,,,,,,,
,,"[""circle"",""no_dis"",""vert"",""up"",[99999,99999],[0,150]]",circle,no_dis,vert,up,"[99999,99999]","[0,150]",up,1,0.6504,,,,,,001,2025-03-10_21h39.17.949,SL_base_41,2021.2.3,Win32,62.5,,,57,0,57,0,1,,,,,,,,
,,"[""diamond"",""green"",""hori"",""left"",[0,150],[106,106]]",diamond,green,hori,left,"[0,150]","[106,106]",left,1,1.3674,,,,,,001,2025-03-10_21h39.17.949,SL_base_41,2021.2.3,Win32,62.5,,,58,0,58,0,1,,,,,,,,
,,"[""diamond"",""green"",""hori"",""left"",[-150,0],[106,-106]]",diamond,green,hori,left,"[-150,0]","[106,-106]",left,1,0.8321,,,,,,001,2025-03-10_21h39.17.949,SL_base_41,2021.2.3,Win32,62.5,,,59,0,59,0,1,,,,,,,,
,,"[""diamond"",""no_dis"",""vert"",""up"",[99999,99999],[0,150]]",diamond,no_dis,vert,up,"[99999,99999]","[0,150]",up,1,0.7986,,,,,,001,2025-03-10_21h39.17.949,SL_base_41,2021.2.3,Win32,62.5,,,60,0,60,0,1,,,,,,,,
,,"[""diamond"",""red"",""vert"",""up"",[-106,106],[106,106]]",diamond,red,vert,up,"[-106,106]","[106,106]",up,1,1.0612,,,,,,001,2025-03-10_21h39.17.949,SL_base_41,2021.2.3,Win32,62.5,,,61,0,61,0,1,,,,,,,,
,,"[""diamond"",""red"",""hori"",""left"",[-106,-106],[-106,106]]",diamond,red,hori,left,"[-106,-106]","[-106,106]",left,1,1.4719,,,,,,001,2025-03-10_21h39.17.949,SL_base_41,2021.2.3,Win32,62.5,,,62,0,62,0,1,,,,,,,,
,,"[""circle"",""red"",""hori"",""left"",[106,-106],[-106,-106]]",circle,red,hori,left,"[106,-106]","[-106,-106]",left,1,1.8503,,,,,,001,2025-03-10_21h39.17.949,SL_base_41,2021.2.3,Win32,62.5,,,63,0,63,0,1,,,,,,,,
,,"[""diamond"",""green"",""hori"",""left"",[-150,0],[0,150]]",diamond,green,hori,left,"[-150,0]","[0,150]",left,1,1.0881,,,,,,001,2025-03-10_21h39.17.949,SL_base_41,2021.2.3,Win32,62.5,,,64,0,64,0,1,,,,,,,,
,,"[""circle"",""red"",""hori"",""left"",[150,0],[0,150]]",circle,red,hori,left,"[150,0]","[0,150]",left,1,1.2841,,,,,,001,2025-03-10_21h39.17.949,SL_base_41,2021.2.3,Win32,62.5,,,65,0,65,0,1,,,,,,,,
,,"[""circle"",""red"",""vert"",""up"",[150,0],[-106,-106]]",circle,red,vert,up,"[150,0]","[-106,-106]",up,1,0.9603,,,,,,001,2025-03-10_21h39.17.949,SL_base_41,2021.2.3,Win32,62.5,,,66,0,66,0,1,,,,,,,,
,,"[""circle"",""no_dis"",""vert"",""up"",[99999,99999],[0,150]]",circle,no_dis,vert,up,"[99999,99999]","[0,150]",up,1,0.6678,,,,,,001,2025-03-10_21h39.17.949,SL_base_41,2021.2.3,Win32,62.5,,,67,0,67,0,1,,,,,,,,
,,"[""diamond"",""green"",""hori"",""left"",[-106,106],[106,-106]]",diamond,green,hori,left,"[-106,106]","[106,-106]",left,1,0.9503,,,,,,001,2025-03-10_21h39.17.949,SL_base_41,2021.2.3,Win32,62.5,,,68,0,68,0,1,,,,,,,,
,,"[""circle"",""no_dis"",""vert"",""up"",[99999,99999],[150,0]]",circle,no_dis,vert,up,"[99999,99999]","[150,0]",up,1,0.7562,,,,,,001,2025-03-10_21h39.17.949,SL_base_41,2021.2.3,Win32,62.5,,,69,0,69,0,1,,,,,,,,
,,"[""circle"",""green"",""vert"",""up"",[-106,-106],[150,0]]",circle,green,vert,up,"[-106,-106]","[150,0]",up,1,0.9072,,,,,,001,2025-03-10_21h39.17.949,SL_base_41,2021.2.3,Win32,62.5,,,70,0,70,0,1,,,,,,,,
,,"[""circle"",""no_dis"",""hori"",""left"",[99999,99999],[-150,0]]",circle,no_dis,hori,left,"[99999,99999]","[-150,0]",left,1,0.9333,,,,,,001,2025-03-10_21h39.17.949,SL_base_41,2021.2.3,Win32,62.5,,,71,0,71,0,1,,,,,,,,
,,"[""circle"",""no_dis"",""vert"",""up"",[99999,99999],[0,-150]]",circle,no_dis,vert,up,"[99999,99999]","[0,-150]",up,1,0.8493,,,,,,001,2025-03-10_21h39.17.949,SL_base_41,2021.2.3,Win32,62.5,,,72,0,72,0,1,,,,,,,,
,,"[""circle"",""red"",""hori"",""left"",[106,106],[-106,106]]",circle,red,hori,left,"[106,106]","[-106,106]",left,1,1.0669,,,,,,001,2025-03-10_21h39.17.949,SL_base_41,2021.2.3,Win32,62.5,,,73,0,73,0,1,,,,,,,,
,,"[""circle"",""red"",""hori"",""left"",[150,0],[-106,-106]]",circle,red,hori,left,"[150,0]","[-106,-106]",left,1,1.0159,,,,,,001,2025-03-10_21h39.17.949,SL_base_41,2021.2.3,Win32,62.5,,,74,0,74,0,1,,,,,,,,
,,"[""circle"",""red"",""hori"",""left"",[150,0],[-106,-106]]",circle,red,hori,left,"[150,0]","[-106,-106]",left,1,0.5878,,,,,,001,2025-03-10_21h39.17.949,SL_base_41,2021.2.3,Win32,62.5,,,75,0,75,0,1,,,,,,,,
,,"[""circle"",""green"",""hori"",""left"",[106,106],[0,150]]",circle,green,hori,left,"[106,106]","[0,150]",left,1,0.721,,,,,,001,2025-03-10_21h39.17.949,SL_base_41,2021.2.3,Win32,62.5,,,76,0,76,0,1,,,,,,,,
,,"[""circle"",""no_dis"",""vert"",""up"",[99999,99999],[150,0]]",circle,no_dis,vert,up,"[99999,99999]","[150,0]",up,1,0.7843,,,,,,001,2025-03-10_21h39.17.949,SL_base_41,2021.2.3,Win32,62.5,,,77,0,77,0,1,,,,,,,,
,,"[""diamond"",""red"",""vert"",""up"",[150,0],[-150,0]]",diamond,red,vert,up,"[150,0]","[-150,0]",up,1,1.7107,,,,,,001,2025-03-10_21h39.17.949,SL_base_41,2021.2.3,Win32,62.5,,,78,0,78,0,1,,,,,,,,
,,"[""diamond"",""no_dis"",""vert"",""up"",[99999,99999],[106,106]]",diamond,no_dis,vert,up,"[99999,99999]","[106,106]",up,1,0.673,,,,,,001,2025-03-10_21h39.17.949,SL_base_41,2021.2.3,Win32,62.5,,,79,0,79,0,1,,,,,,,,
,,"[""diamond"",""no_dis"",""vert"",""up"",[99999,99999],[0,-150]]",diamond,no_dis,vert,up,"[99999,99999]","[0,-150]",up,1,0.6726,,,,,,001,2025-03-10_21h39.17.949,SL_base_41,2021.2.3,Win32,62.5,,,80,0,80,0,1,,,,,,,,
,,"[""diamond"",""green"",""hori"",""left"",[150,0],[0,150]]",diamond,green,hori,left,"[150,0]","[0,150]",left,1,1.9602,,,,,,001,2025-03-10_21h39.17.949,SL_base_41,2021.2.3,Win32,62.5,,,81,0,81,0,1,,,,,,,,
,,"[""diamond"",""no_dis"",""vert"",""up"",[99999,99999],[106,-106]]",diamond,no_dis,vert,up,"[99999,99999]","[106,-106]",up,1,0.8082,,,,,,001,2025-03-10_21h39.17.949,SL_base_41,2021.2.3,Win32,62.5,,,82,0,82,0,1,,,,,,,,
,,"[""circle"",""green"",""hori"",""left"",[150,0],[-150,0]]",circle,green,hori,left,"[150,0]","[-150,0]",left,1,0.909,,,,,,001,2025-03-10_21h39.17.949,SL_base_41,2021.2.3,Win32,62.5,,,83,0,83,0,1,,,,,,,,
,,"[""circle"",""red"",""vert"",""up"",[150,0],[-106,-106]]",circle,red,vert,up,"[150,0]","[-106,-106]",up,1,1.2995,,,,,,001,2025-03-10_21h39.17.949,SL_base_41,2021.2.3,Win32,62.5,,,84,0,84,0,1,,,,,,,,
,,"[""circle"",""green"",""vert"",""up"",[150,0],[-106,-106]]",circle,green,vert,up,"[150,0]","[-106,-106]",up,1,0.7873,,,,,,001,2025-03-10_21h39.17.949,SL_base_41,2021.2.3,Win32,62.5,,,85,0,85,0,1,,,,,,,,
,,"[""circle"",""red"",""vert"",""up"",[-106,106],[-150,0]]",circle,red,vert,up,"[-106,106]","[-150,0]",up,1,1.0327,,,,,,001,2025-03-10_21h39.17.949,SL_base_41,2021.2.3,Win32,62.5,,,86,0,86,0,1,,,,,,,,
,,"[""diamond"",""red"",""hori"",""left"",[-106,-106],[0,150]]",diamond,red,hori,left,"[-106,-106]","[0,150]",left,1,0.95,,,,,,001,2025-03-10_21h39.17.949,SL_base_41,2021.2.3,Win32,62.5,,,87,0,87,0,1,,,,,,,,
,,"[""diamond"",""red"",""vert"",""up"",[150,0],[-150,0]]",diamond,red,vert,up,"[150,0]","[-150,0]",up,1,0.8167,,,,,,001,2025-03-10_21h39.17.949,SL_base_41,2021.2.3,Win32,62.5,,,88,0,88,0,1,,,,,,,,
,,"[""circle"",""green"",""hori"",""left"",[0,150],[-106,106]]",circle,green,hori,left,"[0,150]","[-106,106]",left,1,1.5656,,,,,,001,2025-03-10_21h39.17.949,SL_base_41,2021.2.3,Win32,62.5,,,89,0,89,0,1,,,,,,,,
,,"[""circle"",""no_dis"",""hori"",""left"",[99999,99999],[106,-106]]",circle,no_dis,hori,left,"[99999,99999]","[106,-106]",left,1,0.7338,,,,,,001,2025-03-10_21h39.17.949,SL_base_41,2021.2.3,Win32,62.5,,,90,0,90,0,1,,,,,,,,
,,"[""diamond"",""green"",""vert"",""up"",[0,-150],[-106,106]]",diamond,green,vert,up,"[0,-150]","[-106,106]",up,1,1.4507,,,,,,001,2025-03-10_21h39.17.949,SL_base_41,2021.2.3,Win32,62.5,,,91,0,91,0,1,,,,,,,,
,,"[""circle"",""red"",""hori"",""left"",[150,0],[0,-150]]",circle,red,hori,left,"[150,0]","[0,-150]",left,1,0.9368,,,,,,001,2025-03-10_21h39.17.949,SL_base_41,2021.2.3,Win32,62.5,,,92,0,92,0,1,,,,,,,,
,,"[""diamond"",""no_dis"",""hori"",""left"",[99999,99999],[-106,106]]",diamond,no_dis,hori,left,"[99999,99999]","[-106,106]",left,1,0.7829,,,,,,001,2025-03-10_21h39.17.949,SL_base_41,2021.2.3,Win32,62.5,,,93,0,93,0,1,,,,,,,,
,,"[""diamond"",""green"",""vert"",""up"",[0,150],[106,106]]",diamond,green,vert,up,"[0,150]","[106,106]",up,1,0.9558,,,,,,001,2025-03-10_21h39.17.949,SL_base_41,2021.2.3,Win32,62.5,,,94,0,94,0,1,,,,,,,,
,,"[""circle"",""no_dis"",""hori"",""left"",[99999,99999],[106,106]]",circle,no_dis,hori,left,"[99999,99999]","[106,106]",left,1,0.9382,,,,,,001,2025-03-10_21h39.17.949,SL_base_41,2021.2.3,Win32,62.5,,,95,0,95,0,1,,,,,,,,
,,"[""circle"",""green"",""vert"",""up"",[-150,0],[106,106]]",circle,green,vert,up,"[-150,0]","[106,106]",up,1,0.85,,,,,,001,2025-03-10_21h39.17.949,SL_base_41,2021.2.3,Win32,62.5,,,96,0,96,0,1,,,,,,,,
,,"[""diamond"",""no_dis"",""hori"",""left"",[99999,99999],[-150,0]]",diamond,no_dis,hori,left,"[99999,99999]","[-150,0]",left,1,1.4332,,,,,,001,2025-03-10_21h39.17.949,SL_base_41,2021.2.3,Win32,62.5,,,97,0,97,0,1,,,,,,,,
,,"[""diamond"",""red"",""vert"",""up"",[-150,0],[0,-150]]",diamond,red,vert,up,"[-150,0]","[0,-150]",up,1,0.8261,,,,,,001,2025-03-10_21h39.17.949,SL_base_41,2021.2.3,Win32,62.5,,,98,0,98,0,1,,,,,,,,
,,"[""diamond"",""red"",""hori"",""left"",[150,0],[-106,106]]",diamond,red,hori,left,"[150,0]","[-106,106]",left,1,0.8253,,,,,,001,2025-03-10_21h39.17.949,SL_base_41,2021.2.3,Win32,62.5,,,99,0,99,0,1,,,,,,,,
,,"[""diamond"",""no_dis"",""vert"",""up"",[99999,99999],[-106,106]]",diamond,no_dis,vert,up,"[99999,99999]","[-106,106]",up,1,0.7501,,,,,,001,2025-03-10_21h39.17.949,SL_base_41,2021.2.3,Win32,62.5,,,100,0,100,0,1,,,,,,,,
,,"[""circle"",""no_dis"",""vert"",""up"",[99999,99999],[-106,-106]]",circle,no_dis,vert,up,"[99999,99999]","[-106,-106]",up,1,1.0326,,,,,,001,2025-03-10_21h39.17.949,SL_base_41,2021.2.3,Win32,62.5,,,101,0,101,0,1,,,,,,,,
,,"[""diamond"",""green"",""vert"",""up"",[106,-106],[-106,106]]",diamond,green,vert,up,"[106,-106]","[-106,106]",up,1,0.6505,,,,,,001,2025-03-10_21h39.17.949,SL_base_41,2021.2.3,Win32,62.5,,,102,0,102,0,1,,,,,,,,
,,"[""circle"",""green"",""vert"",""up"",[150,0],[0,150]]",circle,green,vert,up,"[150,0]","[0,150]",up,1,0.8337,,,,,,001,2025-03-10_21h39.17.949,SL_base_41,2021.2.3,Win32,62.5,,,103,0,103,0,1,,,,,,,,
,,"[""diamond"",""no_dis"",""hori"",""left"",[99999,99999],[106,-106]]",diamond,no_dis,hori,left,"[99999,99999]","[106,-106]",left,1,0.7427,,,,,,001,2025-03-10_21h39.17.949,SL_base_41,2021.2.3,Win32,62.5,,,104,0,104,0,1,,,,,,,,
,,"[""diamond"",""red"",""hori"",""left"",[150,0],[106,106]]",diamond,red,hori,left,"[150,0]","[106,106]",left,1,0.7001,,,,,,001,2025-03-10_21h39.17.949,SL_base_41,2021.2.3,Win32,62.5,,,105,0,105,0,1,,,,,,,,
,,"[""circle"",""no_dis"",""hori"",""left"",[99999,99999],[0,-150]]",circle,no_dis,hori,left,"[99999,99999]","[0,-150]",left,1,0.9501,,,,,,001,2025-03-10_21h39.17.949,SL_base_41,2021.2.3,Win32,62.5,,,106,0,106,0,1,,,,,,,,
,,"[""diamond"",""red"",""hori"",""left"",[106,106],[-106,-106]]",diamond,red,hori,left,"[106,106]","[-106,-106]",left,1,0.7167,,,,,,001,2025-03-10_21h39.17.949,SL_base_41,2021.2.3,Win32,62.5,,,107,0,107,0,1,,,,,,,,
,,"[""diamond"",""green"",""hori"",""left"",[150,0],[106,106]]",diamond,green,hori,left,"[150,0]","[106,106]",left,1,0.683,,,,,,001,2025-03-10_21h39.17.949,SL_base_41,2021.2.3,Win32,62.5,,,108,0,108,0,1,,,,,,,,
,,"[""diamond"",""green"",""vert"",""up"",[0,-150],[-106,-106]]",diamond,green,vert,up,"[0,-150]","[-106,-106]",up,1,0.8903,,,,,,001,2025-03-10_21h39.17.949,SL_base_41,2021.2.3,Win32,62.5,,,109,0,109,0,1,,,,,,,,
,,"[""circle"",""no_dis"",""vert"",""up"",[99999,99999],[106,106]]",circle,no_dis,vert,up,"[99999,99999]","[106,106]",up,1,0.7338,,,,,,001,2025-03-10_21h39.17.949,SL_base_41,2021.2.3,Win32,62.5,,,110,0,110,0,1,,,,,,,,
,,"[""diamond"",""green"",""vert"",""up"",[106,106],[-106,-106]]",diamond,green,vert,up,"[106,106]","[-106,-106]",up,1,0.7555,,,,,,001,2025-03-10_21h39.17.949,SL_base_41,2021.2.3,Win32,62.5,,,111,0,111,0,1,,,,,,,,
,,"[""diamond"",""red"",""vert"",""up"",[-106,-106],[0,150]]",diamond,red,vert,up,"[-106,-106]","[0,150]",up,1,0.5674,,,,,,001,2025-03-10_21h39.17.949,SL_base_41,2021.2.3,Win32,62.5,,,112,0,112,0,1,,,,,,,,
,,"[""circle"",""no_dis"",""hori"",""left"",[99999,99999],[106,-106]]",circle,no_dis,hori,left,"[99999,99999]","[106,-106]",left,1,0.8502,,,,,,001,2025-03-10_21h39.17.949,SL_base_41,2021.2.3,Win32,62.5,,,113,0,113,0,1,,,,,,,,
,,"[""diamond"",""green"",""vert"",""up"",[150,0],[106,106]]",diamond,green,vert,up,"[150,0]","[106,106]",up,1,1.1338,,,,,,001,2025-03-10_21h39.17.949,SL_base_41,2021.2.3,Win32,62.5,,,114,0,114,0,1,,,,,,,,
,,"[""circle"",""red"",""hori"",""left"",[150,0],[-150,0]]",circle,red,hori,left,"[150,0]","[-150,0]",left,1,1.0819,,,,,,001,2025-03-10_21h39.17.949,SL_base_41,2021.2.3,Win32,62.5,,,115,0,115,0,1,,,,,,,,
,,"[""diamond"",""green"",""vert"",""up"",[0,-150],[-106,106]]",diamond,green,vert,up,"[0,-150]","[-106,106]",up,1,0.7084,,,,,,001,2025-03-10_21h39.17.949,SL_base_41,2021.2.3,Win32,62.5,,,116,0,116,0,1,,,,,,,,
,,"[""circle"",""green"",""hori"",""left"",[106,-106],[-106,-106]]",circle,green,hori,left,"[106,-106]","[-106,-106]",left,1,0.8328,,,,,,001,2025-03-10_21h39.17.949,SL_base_41,2021.2.3,Win32,62.5,,,117,0,117,0,1,,,,,,,,
,,"[""diamond"",""no_dis"",""hori"",""left"",[99999,99999],[-106,-106]]",diamond,no_dis,hori,left,"[99999,99999]","[-106,-106]",left,1,0.834,,,,,,001,2025-03-10_21h39.17.949,SL_base_41,2021.2.3,Win32,62.5,,,118,0,118,0,1,,,,,,,,
,,"[""diamond"",""no_dis"",""vert"",""up"",[99999,99999],[0,150]]",diamond,no_dis,vert,up,"[99999,99999]","[0,150]",up,1,0.677,,,,,,001,2025-03-10_21h39.17.949,SL_base_41,2021.2.3,Win32,62.5,,,119,0,119,0,1,,,,,,,,
,,"[""diamond"",""red"",""vert"",""up"",[150,0],[106,-106]]",diamond,red,vert,up,"[150,0]","[106,-106]",up,1,0.9839,,,,,,001,2025-03-10_21h39.17.949,SL_base_41,2021.2.3,Win32,62.5,,,120,0,120,0,1,,,,,,,,
,,"[""diamond"",""red"",""hori"",""left"",[0,150],[106,106]]",diamond,red,hori,left,"[0,150]","[106,106]",left,1,0.8579,,,,,,001,2025-03-10_21h39.17.949,SL_base_41,2021.2.3,Win32,62.5,,,121,0,121,0,1,,,,,,,,
,,"[""circle"",""green"",""vert"",""up"",[-106,106],[150,0]]",circle,green,vert,up,"[-106,106]","[150,0]",up,1,1.2705,,,,,,001,2025-03-10_21h39.17.949,SL_base_41,2021.2.3,Win32,62.5,,,122,0,122,0,1,,,,,,,,
,,"[""diamond"",""no_dis"",""hori"",""left"",[99999,99999],[-106,106]]",diamond,no_dis,hori,left,"[99999,99999]","[-106,106]",left,1,0.6503,,,,,,001,2025-03-10_21h39.17.949,SL_base_41,2021.2.3,Win32,62.5,,,123,0,123,0,1,,,,,,,,
,,"[""circle"",""red"",""vert"",""up"",[150,0],[-106,106]]",circle,red,vert,up,"[150,0]","[-106,106]",up,1,0.6835,,,,,,001,2025-03-10_21h39.17.949,SL_base_41,2021.2.3,Win32,62.5,,,124,0,124,0,1,,,,,,,,
,,"[""circle"",""green"",""hori"",""left"",[-150,0],[0,-150]]",circle,green,hori,left,"[-150,0]","[0,-150]",left,1,1.0663,,,,,,001,2025-03-10_21h39.17.949,SL_base_41,2021.2.3,Win32,62.5,,,125,0,125,0,1,,,,,,,,
,,"[""diamond"",""green"",""vert"",""up"",[106,-106],[-106,106]]",diamond,green,vert,up,"[106,-106]","[-106,106]",up,1,0.701,,,,,,001,2025-03-10_21h39.17.949,SL_base_41,2021.2.3,Win32,62.5,,,126,0,126,0,1,,,,,,,,
,,"[""circle"",""green"",""vert"",""up"",[-106,-106],[-150,0]]",circle,green,vert,up,"[-106,-106]","[-150,0]",up,1,0.7263,,,,,,001,2025-03-10_21h39.17.949,SL_base_41,2021.2.3,Win32,62.5,,,127,0,127,0,1,,,,,,,,
,,,,,,,,,,,,,,,,,001,2025-03-10_21h39.17.949,SL_base_41,2021.2.3,Win32,62.5,,,,,,,,3,space,13.4086,2,0,2,0,1
,,"[""diamond"",""red"",""hori"",""left"",[106,106],[-106,-106]]",diamond,red,hori,left,"[106,106]","[-106,-106]",left,1,1.4165,,,,,,001,2025-03-10_21h39.17.949,SL_base_41,2021.2.3,Win32,62.5,,,0,0,0,0,1,,,,,,,,
,,"[""diamond"",""green"",""hori"",""left"",[-150,0],[106,-106]]",diamond,green,hori,left,"[-150,0]","[106,-106]",left,1,0.6506,,,,,,001,2025-03-10_21h39.17.949,SL_base_41,2021.2.3,Win32,62.5,,,1,0,1,0,1,,,,,,,,
,,"[""diamond"",""red"",""hori"",""left"",[150,0],[0,150]]",diamond,red,hori,left,"[150,0]","[0,150]",left,1,0.5839,,,,,,001,2025-03-10_21h39.17.949,SL_base_41,2021.2.3,Win32,62.5,,,2,0,2,0,1,,,,,,,,
,,"[""circle"",""red"",""hori"",""left"",[106,-106],[-106,106]]",circle,red,hori,left,"[106,-106]","[-106,106]",left,1,1.6547,,,,,,001,2025-03-10_21h39.17.949,SL_base_41,2021.2.3,Win32,62.5,,,3,0,3,0,1,,,,,,,,
,,"[""circle"",""red"",""vert"",""up"",[150,0],[-106,106]]",circle,red,vert,up,"[150,0]","[-106,106]",up,1,0.8228,,,,,,001,2025-03-10_21h39.17.949,SL_base_41,2021.2.3,Win32,62.5,,,4,0,4,0,1,,,,,,,,
,,"[""circle"",""green"",""hori"",""left"",[106,-106],[-106,-106]]",circle,green,hori,left,"[106,-106]","[-106,-106]",left,1,1.05,,,,,,001,2025-03-10_21h39.17.949,SL_base_41,2021.2.3,Win32,62.5,,,5,0,5,0,1,,,,,,,,
,,"[""circle"",""no_dis"",""hori"",""left"",[99999,99999],[150,0]]",circle,no_dis,hori,left,"[99999,99999]","[150,0]",left,1,0.6219,,,,,,001,2025-03-10_21h39.17.949,SL_base_41,2021.2.3,Win32,62.5,,,6,0,6,0,1,,,,,,,,
,,"[""circle"",""green"",""hori"",""left"",[106,106],[0,150]]",circle,green,hori,left,"[106,106]","[0,150]",left,1,0.6936,,,,,,001,2025-03-10_21h39.17.949,SL_base_41,2021.2.3,Win32,62.5,,,7,0,7,0,1,,,,,,,,
,,"[""circle"",""red"",""hori"",""left"",[150,0],[-150,0]]",circle,red,hori,left,"[150,0]","[-150,0]",left,1,0.8,,,,,,001,2025-03-10_21h39.17.949,SL_base_41,2021.2.3,Win32,62.5,,,8,0,8,0,1,,,,,,,,
,,"[""circle"",""red"",""hori"",""left"",[150,0],[-106,-106]]",circle,red,hori,left,"[150,0]","[-106,-106]",left,1,0.5677,,,,,,001,2025-03-10_21h39.17.949,SL_base_41,2021.2.3,Win32,62.5,,,9,0,9,0,1,,,,,,,,
,,"[""circle"",""no_dis"",""vert"",""up"",[99999,99999],[-106,-106]]",circle,no_dis,vert,up,"[99999,99999]","[-106,-106]",left,0,0.5499,,,,,,001,2025-03-10_21h39.17.949,SL_base_41,2021.2.3,Win32,62.5,,,10,0,10,0,1,,,,,,,,
,,"[""circle"",""no_dis"",""hori"",""left"",[99999,99999],[0,-150]]",circle,no_dis,hori,left,"[99999,99999]","[0,-150]",left,1,0.7678,,,,,,001,2025-03-10_21h39.17.949,SL_base_41,2021.2.3,Win32,62.5,,,11,0,11,0,1,,,,,,,,
,,"[""circle"",""green"",""hori"",""left"",[0,-150],[0,150]]",circle,green,hori,left,"[0,-150]","[0,150]",left,1,0.7998,,,,,,001,2025-03-10_21h39.17.949,SL_base_41,2021.2.3,Win32,62.5,,,12,0,12,0,1,,,,,,,,
,,"[""circle"",""green"",""vert"",""up"",[-106,-106],[-150,0]]",circle,green,vert,up,"[-106,-106]","[-150,0]",up,1,0.9217,,,,,,001,2025-03-10_21h39.17.949,SL_base_41,2021.2.3,Win32,62.5,,,13,0,13,0,1,,,,,,,,
,,"[""diamond"",""green"",""hori"",""left"",[-150,0],[0,150]]",diamond,green,hori,left,"[-150,0]","[0,150]",left,1,1.1495,,,,,,001,2025-03-10_21h39.17.949,SL_base_41,2021.2.3,Win32,62.5,,,14,0,14,0,1,,,,,,,,
,,"[""diamond"",""no_dis"",""vert"",""up"",[99999,99999],[106,106]]",diamond,no_dis,vert,up,"[99999,99999]","[106,106]",up,1,0.8341,,,,,,001,2025-03-10_21h39.17.949,SL_base_41,2021.2.3,Win32,62.5,,,15,0,15,0,1,,,,,,,,
,,"[""diamond"",""green"",""hori"",""left"",[150,0],[106,106]]",diamond,green,hori,left,"[150,0]","[106,106]",left,1,0.7343,,,,,,001,2025-03-10_21h39.17.949,SL_base_41,2021.2.3,Win32,62.5,,,16,0,16,0,1,,,,,,,,
,,"[""circle"",""green"",""vert"",""up"",[150,0],[0,150]]",circle,green,vert,up,"[150,0]","[0,150]",up,1,0.9663,,,,,,001,2025-03-10_21h39.17.949,SL_base_41,2021.2.3,Win32,62.5,,,17,0,17,0,1,,,,,,,,
,,"[""circle"",""no_dis"",""vert"",""up"",[99999,99999],[0,150]]",circle,no_dis,vert,up,"[99999,99999]","[0,150]",up,1,0.5837,,,,,,001,2025-03-10_21h39.17.949,SL_base_41,2021.2.3,Win32,62.5,,,18,0,18,0,1,,,,,,,,
,,"[""diamond"",""green"",""vert"",""up"",[106,-106],[-106,106]]",diamond,green,vert,up,"[106,-106]","[-106,106]",up,1,1.4662,,,,,,001,2025-03-10_21h39.17.949,SL_base_41,2021.2.3,Win32,62.5,,,19,0,19,0,1,,,,,,,,
,,"[""circle"",""green"",""hori"",""left"",[-106,106],[0,-150]]",circle,green,hori,left,"[-106,106]","[0,-150]",left,1,1.0886,,,,,,001,2025-03-10_21h39.17.949,SL_base_41,2021.2.3,Win32,62.5,,,20,0,20,0,1,,,,,,,,
,,"[""circle"",""no_dis"",""vert"",""up"",[99999,99999],[0,-150]]",circle,no_dis,vert,up,"[99999,99999]","[0,-150]",up,1,1.0175,,,,,,001,2025-03-10_21h39.17.949,SL_base_41,2021.2.3,Win32,62.5,,,21,0,21,0,1,,,,,,,,
,,"[""diamond"",""no_dis"",""hori"",""left"",[99999,99999],[-106,106]]",diamond,no_dis,hori,left,"[99999,99999]","[-106,106]",left,1,1.0834,,,,,,001,2025-03-10_21h39.17.949,SL_base_41,2021.2.3,Win32,62.5,,,22,0,22,0,1,,,,,,,,
,,"[""circle"",""red"",""hori"",""left"",[106,106],[-106,106]]",circle,red,hori,left,"[106,106]","[-106,106]",left,1,1.3006,,,,,,001,2025-03-10_21h39.17.949,SL_base_41,2021.2.3,Win32,62.5,,,23,0,23,0,1,,,,,,,,
,,"[""diamond"",""green"",""hori"",""left"",[0,150],[-106,-106]]",diamond,green,hori,left,"[0,150]","[-106,-106]",left,1,1.0732,,,,,,001,2025-03-10_21h39.17.949,SL_base_41,2021.2.3,Win32,62.5,,,24,0,24,0,1,,,,,,,,
,,"[""circle"",""no_dis"",""hori"",""left"",[99999,99999],[106,106]]",circle,no_dis,hori,left,"[99999,99999]","[106,106]",left,1,1.2404,,,,,,001,2025-03-10_21h39.17.949,SL_base_41,2021.2.3,Win32,62.5,,,25,0,25,0,1,,,,,,,,
,,"[""circle"",""no_dis"",""vert"",""up"",[99999,99999],[0,-150]]",circle,no_dis,vert,up,"[99999,99999]","[0,-150]",up,1,0.733,,,,,,001,2025-03-10_21h39.17.949,SL_base_41,2021.2.3,Win32,62.5,,,26,0,26,0,1,,,,,,,,
,,"[""circle"",""green"",""vert"",""up"",[150,0],[-106,-106]]",circle,green,vert,up,"[150,0]","[-106,-106]",up,1,0.8506,,,,,,001,2025-03-10_21h39.17.949,SL_base_41,2021.2.3,Win32,62.5,,,27,0,27,0,1,,,,,,,,
,,"[""diamond"",""red"",""vert"",""up"",[150,0],[-150,0]]",diamond,red,vert,up,"[150,0]","[-150,0]",up,1,1.5652,,,,,,001,2025-03-10_21h39.17.949,SL_base_41,2021.2.3,Win32,62.5,,,28,0,28,0,1,,,,,,,,
,,"[""circle"",""green"",""hori"",""left"",[-150,0],[0,-150]]",circle,green,hori,left,"[-150,0]","[0,-150]",left,1,1.3829,,,,,,001,2025-03-10_21h39.17.949,SL_base_41,2021.2.3,Win32,62.5,,,29,0,29,0,1,,,,,,,,
,,"[""circle"",""green"",""hori"",""left"",[106,-106],[-106,-106]]",circle,green,hori,left,"[106,-106]","[-106,-106]",left,1,1.1834,,,,,,001,2025-03-10_21h39.17.949,SL_base_41,2021.2.3,Win32,62.5,,,30,0,30,0,1,,,,,,,,
,,"[""diamond"",""red"",""vert"",""up"",[150,0],[106,-106]]",diamond,red,vert,up,"[150,0]","[106,-106]",up,1,1.1663,,,,,,001,2025-03-10_21h39.17.949,SL_base_41,2021.2.3,Win32,62.5,,,31,0,31,0,1,,,,,,,,
,,"[""diamond"",""red"",""vert"",""up"",[106,-106],[-150,0]]",diamond,red,vert,up,"[106,-106]","[-150,0]",up,1,0.7891,,,,,,001,2025-03-10_21h39.17.949,SL_base_41,2021.2.3,Win32,62.5,,,32,0,32,0,1,,,,,,,,
,,"[""diamond"",""red"",""vert"",""up"",[0,-150],[0,150]]",diamond,red,vert,up,"[0,-150]","[0,150]",up,1,0.5678,,,,,,001,2025-03-10_21h39.17.949,SL_base_41,2021.2.3,Win32,62.5,,,33,0,33,0,1,,,,,,,,
,,"[""circle"",""red"",""vert"",""up"",[150,0],[106,-106]]",circle,red,vert,up,"[150,0]","[106,-106]",up,1,0.9007,,,,,,001,2025-03-10_21h39.17.949,SL_base_41,2021.2.3,Win32,62.5,,,34,0,34,0,1,,,,,,,,
,,"[""diamond"",""no_dis"",""vert"",""up"",[99999,99999],[0,150]]",diamond,no_dis,vert,up,"[99999,99999]","[0,150]",up,1,0.5839,,,,,,001,2025-03-10_21h39.17.949,SL_base_41,2021.2.3,Win32,62.5,,,35,0,35,0,1,,,,,,,,
,,"[""circle"",""red"",""vert"",""up"",[150,0],[106,106]]",circle,red,vert,up,"[150,0]","[106,106]",up,1,0.9,,,,,,001,2025-03-10_21h39.17.949,SL_base_41,2021.2.3,Win32,62.5,,,36,0,36,0,1,,,,,,,,
,,"[""circle"",""green"",""hori"",""left"",[-106,106],[106,106]]",circle,green,hori,left,"[-106,106]","[106,106]",left,1,0.733,,,,,,001,2025-03-10_21h39.17.949,SL_base_41,2021.2.3,Win32,62.5,,,37,0,37,0,1,,,,,,,,
,,"[""circle"",""green"",""vert"",""up"",[-106,106],[150,0]]",circle,green,vert,up,"[-106,106]","[150,0]",up,1,0.8399,,,,,,001,2025-03-10_21h39.17.949,SL_base_41,2021.2.3,Win32,62.5,,,38,0,38,0,1,,,,,,,,
,,"[""diamond"",""green"",""hori"",""left"",[-150,0],[106,-106]]",diamond,green,hori,left,"[-150,0]","[106,-106]",left,1,1.0502,,,,,,001,2025-03-10_21h39.17.949,SL_base_41,2021.2.3,Win32,62.5,,,39,0,39,0,1,,,,,,,,
,,"[""circle"",""green"",""vert"",""up"",[150,0],[-106,106]]",circle,green,vert,up,"[150,0]","[-106,106]",up,1,0.8327,,,,,,001,2025-03-10_21h39.17.949,SL_base_41,2021.2.3,Win32,62.5,,,40,0,40,0,1,,,,,,,,
,,"[""diamond"",""no_dis"",""hori"",""left"",[99999,99999],[106,-106]]",diamond,no_dis,hori,left,"[99999,99999]","[106,-106]",left,1,0.7003,,,,,,001,2025-03-10_21h39.17.949,SL_base_41,2021.2.3,Win32,62.5,,,41,0,41,0,1,,,,,,,,
,,"[""diamond"",""green"",""vert"",""up"",[-106,106],[0,150]]",diamond,green,vert,up,"[-106,106]","[0,150]",up,1,0.7376,,,,,,001,2025-03-10_21h39.17.949,SL_base_41,2021.2.3,Win32,62.5,,,42,0,42,0,1,,,,,,,,
,,"[""diamond"",""no_dis"",""vert"",""up"",[99999,99999],[0,-150]]",diamond,no_dis,vert,up,"[99999,99999]","[0,-150]",up,1,1.0334,,,,,,001,2025-03-10_21h39.17.949,SL_base_41,2021.2.3,Win32,62.5,,,43,0,43,0,1,,,,,,,,
,,"[""circle"",""no_dis"",""vert"",""up"",[99999,99999],[-106,106]]",circle,no_dis,vert,up,"[99999,99999]","[-106,106]",up,1,0.9225,,,,,,001,2025-03-10_21h39.17.949,SL_base_41,2021.2.3,Win32,62.5,,,44,0,44,0,1,,,,,,,,
,,"[""circle"",""green"",""hori"",""left"",[-150,0],[0,-150]]",circle,green,hori,left,"[-150,0]","[0,-150]",left,1,0.8167,,,,,,001,2025-03-10_21h39.17.949,SL_base_41,2021.2.3,Win32,62.5,,,45,0,45,0,1,,,,,,,,
,,"[""circle"",""no_dis"",""vert"",""up"",[99999,99999],[150,0]]",circle,no_dis,vert,up,"[99999,99999]","[150,0]",up,1,0.7244,,,,,,001,2025-03-10_21h39.17.949,SL_base_41,2021.2.3,Win32,62.5,,,46,0,46,0,1,,,,,,,,
,,"[""diamond"",""no_dis"",""hori"",""left"",[99999,99999],[-106,-106]]",diamond,no_dis,hori,left,"[99999,99999]","[-106,-106]",left,1,0.7669,,,,,,001,2025-03-10_21h39.17.949,SL_base_41,2021.2.3,Win32,62.5,,,47,0,47,0,1,,,,,,,,
,,"[""diamond"",""no_dis"",""hori"",""left"",[99999,99999],[-106,106]]",diamond,no_dis,hori,left,"[99999,99999]","[-106,106]",left,1,1.0732,,,,,,001,2025-03-10_21h39.17.949,SL_base_41,2021.2.3,Win32,62.5,,,48,0,48,0,1,,,,,,,,
,,"[""diamond"",""no_dis"",""hori"",""left"",[99999,99999],[-150,0]]",diamond,no_dis,hori,left,"[99999,99999]","[-150,0]",left,1,0.6667,,,,,,001,2025-03-10_21h39.17.949,SL_base_41,2021.2.3,Win32,62.5,,,49,0,49,0,1,,,,,,,,
,,"[""diamond"",""no_dis"",""hori"",""left"",[99999,99999],[-106,106]]",diamond,no_dis,hori,left,"[99999,99999]","[-106,106]",left,1,0.7173,,,,,,001,2025-03-10_21h39.17.949,SL_base_41,2021.2.3,Win32,62.5,,,50,0,50,0,1,,,,,,,,
,,"[""diamond"",""red"",""hori"",""left"",[-106,-106],[-106,106]]",diamond,red,hori,left,"[-106,-106]","[-106,106]",left,1,0.6051,,,,,,001,2025-03-10_21h39.17.949,SL_base_41,2021.2.3,Win32,62.5,,,51,0,51,0,1,,,,,,,,
,,"[""diamond"",""green"",""hori"",""left"",[106,106],[-106,-106]]",diamond,green,hori,left,"[106,106]","[-106,-106]",left,1,0.7999,,,,,,001,2025-03-10_21h39.17.949,SL_base_41,2021.2.3,Win32,62.5,,,52,0,52,0,1,,,,,,,,
,,"[""diamond"",""red"",""hori"",""left"",[-106,-106],[0,150]]",diamond,red,hori,left,"[-106,-106]","[0,150]",left,1,0.6175,,,,,,001,2025-03-10_21h39.17.949,SL_base_41,2021.2.3,Win32,62.5,,,53,0,53,0,1,,,,,,,,
,,"[""circle"",""no_dis"",""vert"",""up"",[99999,99999],[150,0]]",circle,no_dis,vert,up,"[99999,99999]","[150,0]",up,1,0.9174,,,,,,001,2025-03-10_21h39.17.949,SL_base_41,2021.2.3,Win32,62.5,,,54,0,54,0,1,,,,,,,,
,,"[""diamond"",""green"",""vert"",""up"",[150,0],[106,106]]",diamond,green,vert,up,"[150,0]","[106,106]",up,1,1.0999,,,,,,001,2025-03-10_21h39.17.949,SL_base_41,2021.2.3,Win32,62.5,,,55,0,55,0,1,,,,,,,,
,,"[""circle"",""red"",""hori"",""left"",[106,-106],[-106,-106]]",circle,red,hori,left,"[106,-106]","[-106,-106]",left,1,0.8668,,,,,,001,2025-03-10_21h39.17.949,SL_base_41,2021.2.3,Win32,62.5,,,56,0,56,0,1,,,,,,,,
,,"[""diamond"",""red"",""vert"",""up"",[-106,-106],[0,150]]",diamond,red,vert,up,"[-106,-106]","[0,150]",up,1,0.6833,,,,,,001,2025-03-10_21h39.17.949,SL_base_41,2021.2.3,Win32,62.5,,,57,0,57,0,1,,,,,,,,
,,"[""diamond"",""no_dis"",""vert"",""up"",[99999,99999],[0,150]]",diamond,no_dis,vert,up,"[99999,99999]","[0,150]",up,1,0.5883,,,,,,001,2025-03-10_21h39.17.949,SL_base_41,2021.2.3,Win32,62.5,,,58,0,58,0,1,,,,,,,,
,,"[""diamond"",""no_dis"",""vert"",""up"",[99999,99999],[106,106]]",diamond,no_dis,vert,up,"[99999,99999]","[106,106]",up,1,0.634,,,,,,001,2025-03-10_21h39.17.949,SL_base_41,2021.2.3,Win32,62.5,,,59,0,59,0,1,,,,,,,,
,,"[""circle"",""no_dis"",""hori"",""left"",[99999,99999],[-150,0]]",circle,no_dis,hori,left,"[99999,99999]","[-150,0]",left,1,0.9076,,,,,,001,2025-03-10_21h39.17.949,SL_base_41,2021.2.3,Win32,62.5,,,60,0,60,0,1,,,,,,,,
,,"[""diamond"",""green"",""vert"",""up"",[0,-150],[-106,-106]]",diamond,green,vert,up,"[0,-150]","[-106,-106]",up,1,0.7773,,,,,,001,2025-03-10_21h39.17.949,SL_base_41,2021.2.3,Win32,62.5,,,61,0,61,0,1,,,,,,,,
,,"[""diamond"",""red"",""vert"",""up"",[-106,106],[0,150]]",diamond,red,vert,up,"[-106,106]","[0,150]",up,1,1.5317,,,,,,001,2025-03-10_21h39.17.949,SL_base_41,2021.2.3,Win32,62.5,,,62,0,62,0,1,,,,,,,,
,,"[""diamond"",""green"",""vert"",""up"",[106,-106],[-106,106]]",diamond,green,vert,up,"[106,-106]","[-106,106]",up,1,0.7375,,,,,,001,2025-03-10_21h39.17.949,SL_base_41,2021.2.3,Win32,62.5,,,63,0,63,0,1,,,,,,,,
,,"[""circle"",""red"",""vert"",""up"",[150,0],[0,-150]]",circle,red,vert,up,"[150,0]","[0,-150]",up,1,1.4007,,,,,,001,2025-03-10_21h39.17.949,SL_base_41,2021.2.3,Win32,62.5,,,64,0,64,0,1,,,,,,,,
,,"[""diamond"",""green"",""vert"",""up"",[106,106],[-106,-106]]",diamond,green,vert,up,"[106,106]","[-106,-106]",up,1,0.9823,,,,,,001,2025-03-10_21h39.17.949,SL_base_41,2021.2.3,Win32,62.5,,,65,0,65,0,1,,,,,,,,
,,"[""diamond"",""green"",""hori"",""left"",[150,0],[0,150]]",diamond,green,hori,left,"[150,0]","[0,150]",left,1,0.8003,,,,,,001,2025-03-10_21h39.17.949,SL_base_41,2021.2.3,Win32,62.5,,,66,0,66,0,1,,,,,,,,
,,"[""diamond"",""green"",""vert"",""up"",[0,-150],[-106,106]]",diamond,green,vert,up,"[0,-150]","[-106,106]",up,1,0.8089,,,,,,001,2025-03-10_21h39.17.949,SL_base_41,2021.2.3,Win32,62.5,,,67,0,67,0,1,,,,,,,,
,,"[""circle"",""no_dis"",""vert"",""up"",[99999,99999],[0,150]]",circle,no_dis,vert,up,"[99999,99999]","[0,150]",up,1,0.6776,,,,,,001,2025-03-10_21h39.17.949,SL_base_41,2021.2.3,Win32,62.5,,,68,0,68,0,1,,,,,,,,
,,"[""circle"",""red"",""hori"",""left"",[0,150],[-106,106]]",circle,red,hori,left,"[0,150]","[-106,106]",left,1,0.7664,,,,,,001,2025-03-10_21h39.17.949,SL_base_41,2021.2.3,Win32,62.5,,,69,0,69,0,1,,,,,,,,
,,"[""circle"",""no_dis"",""vert"",""up"",[99999,99999],[106,106]]",circle,no_dis,vert,up,"[99999,99999]","[106,106]",up,1,0.7497,,,,,,001,2025-03-10_21h39.17.949,SL_base_41,2021.2.3,Win32,62.5,,,70,0,70,0,1,,,,,,,,
,,"[""diamond"",""no_dis"",""vert"",""up"",[99999,99999],[106,106]]",diamond,no_dis,vert,up,"[99999,99999]","[106,106]",up,1,1.1677,,,,,,001,2025-03-10_21h39.17.949,SL_base_41,2021.2.3,Win32,62.5,,,71,0,71,0,1,,,,,,,,
,,"[""circle"",""red"",""vert"",""up"",[150,0],[-106,-106]]",circle,red,vert,up,"[150,0]","[-106,-106]",up,1,0.9497,,,,,,001,2025-03-10_21h39.17.949,SL_base_41,2021.2.3,Win32,62.5,,,72,0,72,0,1,,,,,,,,
,,"[""diamond"",""no_dis"",""vert"",""up"",[99999,99999],[-150,0]]",diamond,no_dis,vert,up,"[99999,99999]","[-150,0]",up,1,1.0832,,,,,,001,2025-03-10_21h39.17.949,SL_base_41,2021.2.3,Win32,62.5,,,73,0,73,0,1,,,,,,,,
,,"[""circle"",""red"",""hori"",""left"",[150,0],[-106,-106]]",circle,red,hori,left,"[150,0]","[-106,-106]",left,1,1.5488,,,,,,001,2025-03-10_21h39.17.949,SL_base_41,2021.2.3,Win32,62.5,,,74,0,74,0,1,,,,,,,,
,,"[""diamond"",""no_dis"",""vert"",""up"",[99999,99999],[0,150]]",diamond,no_dis,vert,up,"[99999,99999]","[0,150]",up,1,0.9165,,,,,,001,2025-03-10_21h39.17.949,SL_base_41,2021.2.3,Win32,62.5,,,75,0,75,0,1,,,,,,,,
