﻿key_resp.keys,key_resp.rt,trial_para,tar_shape,dis_color_condi,tar_line,cor_resp,dis_loc,tar_loc,resp.keys,resp.corr,trials.thisRepN,trials.thisTrialN,trials.thisN,trials.thisIndex,trials.ran,participant,date,expName,psychopyVersion,OS,frameRate,resp.rt,key_resp_2.keys,key_resp_2.rt,trials_2.thisRepN,trials_2.thisTrialN,trials_2.thisN,trials_2.thisIndex,trials_2.ran,block_num,key_resp_3.keys,key_resp_3.rt,trials_3.thisRepN,trials_3.thisTrialN,trials_3.thisN,trials_3.thisIndex,trials_3.ran
space,27.741,"[""diamond"",""no_dis"",""hori"",""left"",[99999,99999],[0,150]]",diamond,no_dis,hori,left,"[99999,99999]","[0,150]",,0,0,0,0,0,1,001,2025-03-11_23h10.10.916,SL_sali,2021.2.3,Win32,58.82352941,,,,,,,,,,,,,,,,
,,"[""diamond"",""green"",""vert"",""up"",[-106,106],[150,0]]",diamond,green,vert,up,"[-106,106]","[150,0]",up,1,1,0,1,0,1,001,2025-03-11_23h10.10.916,SL_sali,2021.2.3,Win32,58.82352941,1.8085,,,,,,,,,,,,,,,
,,"[""circle"",""red"",""vert"",""up"",[106,-106],[150,0]]",circle,red,vert,up,"[106,-106]","[150,0]",up,1,2,0,2,0,1,001,2025-03-11_23h10.10.916,SL_sali,2021.2.3,Win32,58.82352941,1.2814,,,,,,,,,,,,,,,
,,"[""diamond"",""no_dis"",""hori"",""left"",[99999,99999],[0,150]]",diamond,no_dis,hori,left,"[99999,99999]","[0,150]",up,0,3,0,3,0,1,001,2025-03-11_23h10.10.916,SL_sali,2021.2.3,Win32,58.82352941,2.1677,,,,,,,,,,,,,,,
,,"[""diamond"",""no_dis"",""vert"",""up"",[99999,99999],[0,-150]]",diamond,no_dis,vert,up,"[99999,99999]","[0,-150]",up,1,4,0,4,0,1,001,2025-03-11_23h10.10.916,SL_sali,2021.2.3,Win32,58.82352941,1.7631,,,,,,,,,,,,,,,
,,"[""circle"",""red"",""vert"",""up"",[0,-150],[106,-106]]",circle,red,vert,up,"[0,-150]","[106,-106]",up,1,5,0,5,0,1,001,2025-03-11_23h10.10.916,SL_sali,2021.2.3,Win32,58.82352941,0.9724,,,,,,,,,,,,,,,
,,"[""circle"",""red"",""hori"",""left"",[150,0],[106,-106]]",circle,red,hori,left,"[150,0]","[106,-106]",left,1,6,0,6,0,1,001,2025-03-11_23h10.10.916,SL_sali,2021.2.3,Win32,58.82352941,0.8171,,,,,,,,,,,,,,,
,,"[""diamond"",""red"",""vert"",""up"",[0,150],[106,106]]",diamond,red,vert,up,"[0,150]","[106,106]",up,1,7,0,7,0,1,001,2025-03-11_23h10.10.916,SL_sali,2021.2.3,Win32,58.82352941,0.7633,,,,,,,,,,,,,,,
,,"[""diamond"",""green"",""vert"",""up"",[106,-106],[-106,106]]",diamond,green,vert,up,"[106,-106]","[-106,106]",left,0,8,0,8,0,1,001,2025-03-11_23h10.10.916,SL_sali,2021.2.3,Win32,58.82352941,1.2315,,,,,,,,,,,,,,,
,,"[""diamond"",""green"",""hori"",""left"",[0,-150],[-150,0]]",diamond,green,hori,left,"[0,-150]","[-150,0]",left,1,9,0,9,0,1,001,2025-03-11_23h10.10.916,SL_sali,2021.2.3,Win32,58.82352941,1.4225,,,,,,,,,,,,,,,
,,"[""diamond"",""no_dis"",""hori"",""left"",[99999,99999],[0,150]]",diamond,no_dis,hori,left,"[99999,99999]","[0,150]",up,0,,,,,,001,2025-03-11_23h10.10.916,SL_sali,2021.2.3,Win32,58.82352941,2.5939,space,12.4796,0,0,0,0,1,,,,,,,,
,,"[""diamond"",""green"",""vert"",""up"",[-106,106],[150,0]]",diamond,green,vert,up,"[-106,106]","[150,0]",left,0,,,,,,001,2025-03-11_23h10.10.916,SL_sali,2021.2.3,Win32,58.82352941,1.2723,,,1,0,1,0,1,,,,,,,,
,,"[""circle"",""red"",""vert"",""up"",[106,-106],[150,0]]",circle,red,vert,up,"[106,-106]","[150,0]",up,1,,,,,,001,2025-03-11_23h10.10.916,SL_sali,2021.2.3,Win32,58.82352941,2.317,,,2,0,2,0,1,,,,,,,,
,,"[""diamond"",""no_dis"",""hori"",""left"",[99999,99999],[0,150]]",diamond,no_dis,hori,left,"[99999,99999]","[0,150]",up,0,,,,,,001,2025-03-11_23h10.10.916,SL_sali,2021.2.3,Win32,58.82352941,2.3555,,,3,0,3,0,1,,,,,,,,
,,"[""diamond"",""no_dis"",""vert"",""up"",[99999,99999],[0,-150]]",diamond,no_dis,vert,up,"[99999,99999]","[0,-150]",left,0,,,,,,001,2025-03-11_23h10.10.916,SL_sali,2021.2.3,Win32,58.82352941,0.7675,,,4,0,4,0,1,,,,,,,,
,,"[""circle"",""red"",""vert"",""up"",[0,-150],[106,-106]]",circle,red,vert,up,"[0,-150]","[106,-106]",up,1,,,,,,001,2025-03-11_23h10.10.916,SL_sali,2021.2.3,Win32,58.82352941,1.189,,,5,0,5,0,1,,,,,,,,
,,"[""circle"",""red"",""hori"",""left"",[150,0],[106,-106]]",circle,red,hori,left,"[150,0]","[106,-106]",left,1,,,,,,001,2025-03-11_23h10.10.916,SL_sali,2021.2.3,Win32,58.82352941,0.7556,,,6,0,6,0,1,,,,,,,,
,,"[""diamond"",""red"",""vert"",""up"",[0,150],[106,106]]",diamond,red,vert,up,"[0,150]","[106,106]",up,1,,,,,,001,2025-03-11_23h10.10.916,SL_sali,2021.2.3,Win32,58.82352941,0.8568,,,7,0,7,0,1,,,,,,,,
,,"[""diamond"",""green"",""vert"",""up"",[106,-106],[-106,106]]",diamond,green,vert,up,"[106,-106]","[-106,106]",up,1,,,,,,001,2025-03-11_23h10.10.916,SL_sali,2021.2.3,Win32,58.82352941,1.2469,,,8,0,8,0,1,,,,,,,,
,,"[""diamond"",""green"",""hori"",""left"",[0,-150],[-150,0]]",diamond,green,hori,left,"[0,-150]","[-150,0]",left,1,,,,,,001,2025-03-11_23h10.10.916,SL_sali,2021.2.3,Win32,58.82352941,0.8944,,,9,0,9,0,1,,,,,,,,
,,"[""diamond"",""green"",""vert"",""up"",[150,0],[-150,0]]",diamond,green,vert,up,"[150,0]","[-150,0]",left,0,,,,,,001,2025-03-11_23h10.10.916,SL_sali,2021.2.3,Win32,58.82352941,0.8692,,,10,0,10,0,1,,,,,,,,
,,"[""circle"",""no_dis"",""hori"",""left"",[99999,99999],[106,-106]]",circle,no_dis,hori,left,"[99999,99999]","[106,-106]",,0,,,,,,001,2025-03-11_23h10.10.916,SL_sali,2021.2.3,Win32,58.82352941,,,,11,0,11,0,1,,,,,,,,
,,"[""diamond"",""red"",""vert"",""up"",[-106,-106],[150,0]]",diamond,red,vert,up,"[-106,-106]","[150,0]",left,0,,,,,,001,2025-03-11_23h10.10.916,SL_sali,2021.2.3,Win32,58.82352941,1.6325,,,12,0,12,0,1,,,,,,,,
,,"[""diamond"",""green"",""vert"",""up"",[-150,0],[150,0]]",diamond,green,vert,up,"[-150,0]","[150,0]",up,1,,,,,,001,2025-03-11_23h10.10.916,SL_sali,2021.2.3,Win32,58.82352941,2.0834,,,13,0,13,0,1,,,,,,,,
,,"[""circle"",""no_dis"",""vert"",""up"",[99999,99999],[0,150]]",circle,no_dis,vert,up,"[99999,99999]","[0,150]",up,1,,,,,,001,2025-03-11_23h10.10.916,SL_sali,2021.2.3,Win32,58.82352941,1.6214,,,14,0,14,0,1,,,,,,,,
,,"[""circle"",""green"",""vert"",""up"",[106,106],[-106,106]]",circle,green,vert,up,"[106,106]","[-106,106]",left,0,,,,,,001,2025-03-11_23h10.10.916,SL_sali,2021.2.3,Win32,58.82352941,1.0504,,,15,0,15,0,1,,,,,,,,
,,"[""circle"",""no_dis"",""hori"",""left"",[99999,99999],[150,0]]",circle,no_dis,hori,left,"[99999,99999]","[150,0]",up,0,,,,,,001,2025-03-11_23h10.10.916,SL_sali,2021.2.3,Win32,58.82352941,0.6295,,,16,0,16,0,1,,,,,,,,
,,"[""circle"",""red"",""hori"",""left"",[0,-150],[-106,106]]",circle,red,hori,left,"[0,-150]","[-106,106]",left,1,,,,,,001,2025-03-11_23h10.10.916,SL_sali,2021.2.3,Win32,58.82352941,0.984,,,17,0,17,0,1,,,,,,,,
,,"[""diamond"",""green"",""hori"",""left"",[150,0],[106,106]]",diamond,green,hori,left,"[150,0]","[106,106]",up,0,,,,,,001,2025-03-11_23h10.10.916,SL_sali,2021.2.3,Win32,58.82352941,0.9832,,,18,0,18,0,1,,,,,,,,
,,"[""diamond"",""red"",""hori"",""left"",[106,106],[-106,106]]",diamond,red,hori,left,"[106,106]","[-106,106]",left,1,,,,,,001,2025-03-11_23h10.10.916,SL_sali,2021.2.3,Win32,58.82352941,0.8479,,,19,0,19,0,1,,,,,,,,
,,"[""circle"",""green"",""hori"",""left"",[-106,-106],[106,106]]",circle,green,hori,left,"[-106,-106]","[106,106]",up,0,,,,,,001,2025-03-11_23h10.10.916,SL_sali,2021.2.3,Win32,58.82352941,0.99,,,20,0,20,0,1,,,,,,,,
,,"[""circle"",""no_dis"",""hori"",""left"",[99999,99999],[-106,-106]]",circle,no_dis,hori,left,"[99999,99999]","[-106,-106]",left,1,,,,,,001,2025-03-11_23h10.10.916,SL_sali,2021.2.3,Win32,58.82352941,1.0015,,,21,0,21,0,1,,,,,,,,
,,"[""circle"",""red"",""hori"",""left"",[0,150],[-150,0]]",circle,red,hori,left,"[0,150]","[-150,0]",up,0,,,,,,001,2025-03-11_23h10.10.916,SL_sali,2021.2.3,Win32,58.82352941,1.0685,,,22,0,22,0,1,,,,,,,,
,,"[""diamond"",""red"",""vert"",""up"",[-150,0],[106,-106]]",diamond,red,vert,up,"[-150,0]","[106,-106]",left,0,,,,,,001,2025-03-11_23h10.10.916,SL_sali,2021.2.3,Win32,58.82352941,0.7269,,,23,0,23,0,1,,,,,,,,
,,"[""circle"",""green"",""vert"",""up"",[-150,0],[0,150]]",circle,green,vert,up,"[-150,0]","[0,150]",up,1,,,,,,001,2025-03-11_23h10.10.916,SL_sali,2021.2.3,Win32,58.82352941,0.6961,,,24,0,24,0,1,,,,,,,,
,,"[""diamond"",""red"",""hori"",""left"",[-106,-106],[106,106]]",diamond,red,hori,left,"[-106,-106]","[106,106]",left,1,,,,,,001,2025-03-11_23h10.10.916,SL_sali,2021.2.3,Win32,58.82352941,0.886,,,25,0,25,0,1,,,,,,,,
,,"[""diamond"",""no_dis"",""vert"",""up"",[99999,99999],[-150,0]]",diamond,no_dis,vert,up,"[99999,99999]","[-150,0]",up,1,,,,,,001,2025-03-11_23h10.10.916,SL_sali,2021.2.3,Win32,58.82352941,0.7852,,,26,0,26,0,1,,,,,,,,
,,"[""circle"",""green"",""vert"",""up"",[0,150],[-106,-106]]",circle,green,vert,up,"[0,150]","[-106,-106]",up,1,,,,,,001,2025-03-11_23h10.10.916,SL_sali,2021.2.3,Win32,58.82352941,1.2845,,,27,0,27,0,1,,,,,,,,
,,"[""diamond"",""no_dis"",""hori"",""left"",[99999,99999],[106,-106]]",diamond,no_dis,hori,left,"[99999,99999]","[106,-106]",left,1,,,,,,001,2025-03-11_23h10.10.916,SL_sali,2021.2.3,Win32,58.82352941,0.845,,,28,0,28,0,1,,,,,,,,
,,"[""diamond"",""red"",""vert"",""up"",[-150,0],[-106,106]]",diamond,red,vert,up,"[-150,0]","[-106,106]",left,0,,,,,,001,2025-03-11_23h10.10.916,SL_sali,2021.2.3,Win32,58.82352941,1.6176,,,29,0,29,0,1,,,,,,,,
,,"[""circle"",""red"",""hori"",""left"",[-106,106],[106,-106]]",circle,red,hori,left,"[-106,106]","[106,-106]",left,1,,,,,,001,2025-03-11_23h10.10.916,SL_sali,2021.2.3,Win32,58.82352941,0.8284,,,30,0,30,0,1,,,,,,,,
,,"[""circle"",""no_dis"",""hori"",""left"",[99999,99999],[-106,106]]",circle,no_dis,hori,left,"[99999,99999]","[-106,106]",up,0,,,,,,001,2025-03-11_23h10.10.916,SL_sali,2021.2.3,Win32,58.82352941,0.7304,,,31,0,31,0,1,,,,,,,,
,,"[""circle"",""red"",""hori"",""left"",[150,0],[0,-150]]",circle,red,hori,left,"[150,0]","[0,-150]",up,0,,,,,,001,2025-03-11_23h10.10.916,SL_sali,2021.2.3,Win32,58.82352941,0.5948,,,32,0,32,0,1,,,,,,,,
,,"[""diamond"",""red"",""vert"",""up"",[-106,106],[0,150]]",diamond,red,vert,up,"[-106,106]","[0,150]",left,0,,,,,,001,2025-03-11_23h10.10.916,SL_sali,2021.2.3,Win32,58.82352941,0.8053,,,33,0,33,0,1,,,,,,,,
,,"[""diamond"",""no_dis"",""vert"",""up"",[99999,99999],[-106,-106]]",diamond,no_dis,vert,up,"[99999,99999]","[-106,-106]",up,1,,,,,,001,2025-03-11_23h10.10.916,SL_sali,2021.2.3,Win32,58.82352941,0.7884,,,34,0,34,0,1,,,,,,,,
,,"[""diamond"",""green"",""hori"",""left"",[-150,0],[-106,106]]",diamond,green,hori,left,"[-150,0]","[-106,106]",up,0,,,,,,001,2025-03-11_23h10.10.916,SL_sali,2021.2.3,Win32,58.82352941,0.6405,,,35,0,35,0,1,,,,,,,,
,,"[""circle"",""red"",""vert"",""up"",[106,106],[-106,-106]]",circle,red,vert,up,"[106,106]","[-106,-106]",up,1,,,,,,001,2025-03-11_23h10.10.916,SL_sali,2021.2.3,Win32,58.82352941,1.0844,,,36,0,36,0,1,,,,,,,,
,,"[""diamond"",""red"",""vert"",""up"",[-150,0],[0,150]]",diamond,red,vert,up,"[-150,0]","[0,150]",left,0,,,,,,001,2025-03-11_23h10.10.916,SL_sali,2021.2.3,Win32,58.82352941,0.5556,,,37,0,37,0,1,,,,,,,,
,,"[""circle"",""no_dis"",""vert"",""up"",[99999,99999],[0,150]]",circle,no_dis,vert,up,"[99999,99999]","[0,150]",up,1,,,,,,001,2025-03-11_23h10.10.916,SL_sali,2021.2.3,Win32,58.82352941,0.5133,,,38,0,38,0,1,,,,,,,,
,,"[""diamond"",""no_dis"",""vert"",""up"",[99999,99999],[0,-150]]",diamond,no_dis,vert,up,"[99999,99999]","[0,-150]",up,1,,,,,,001,2025-03-11_23h10.10.916,SL_sali,2021.2.3,Win32,58.82352941,0.6784,,,39,0,39,0,1,,,,,,,,
,,"[""diamond"",""no_dis"",""vert"",""up"",[99999,99999],[-150,0]]",diamond,no_dis,vert,up,"[99999,99999]","[-150,0]",up,1,,,,,,001,2025-03-11_23h10.10.916,SL_sali,2021.2.3,Win32,58.82352941,0.6365,,,40,0,40,0,1,,,,,,,,
,,"[""diamond"",""red"",""hori"",""left"",[150,0],[-106,106]]",diamond,red,hori,left,"[150,0]","[-106,106]",left,1,,,,,,001,2025-03-11_23h10.10.916,SL_sali,2021.2.3,Win32,58.82352941,0.7545,,,41,0,41,0,1,,,,,,,,
,,"[""circle"",""green"",""vert"",""up"",[-106,-106],[106,-106]]",circle,green,vert,up,"[-106,-106]","[106,-106]",up,1,,,,,,001,2025-03-11_23h10.10.916,SL_sali,2021.2.3,Win32,58.82352941,0.972,,,42,0,42,0,1,,,,,,,,
,,"[""circle"",""green"",""hori"",""left"",[-150,0],[106,106]]",circle,green,hori,left,"[-150,0]","[106,106]",left,1,,,,,,001,2025-03-11_23h10.10.916,SL_sali,2021.2.3,Win32,58.82352941,0.7137,,,43,0,43,0,1,,,,,,,,
,,"[""circle"",""red"",""hori"",""left"",[-150,0],[0,-150]]",circle,red,hori,left,"[-150,0]","[0,-150]",up,0,,,,,,001,2025-03-11_23h10.10.916,SL_sali,2021.2.3,Win32,58.82352941,0.7335,,,44,0,44,0,1,,,,,,,,
,,"[""circle"",""no_dis"",""vert"",""up"",[99999,99999],[106,106]]",circle,no_dis,vert,up,"[99999,99999]","[106,106]",left,0,,,,,,001,2025-03-11_23h10.10.916,SL_sali,2021.2.3,Win32,58.82352941,0.5527,,,45,0,45,0,1,,,,,,,,
,,"[""diamond"",""green"",""hori"",""left"",[-106,-106],[0,-150]]",diamond,green,hori,left,"[-106,-106]","[0,-150]",up,0,,,,,,001,2025-03-11_23h10.10.916,SL_sali,2021.2.3,Win32,58.82352941,0.4637,,,46,0,46,0,1,,,,,,,,
,,"[""diamond"",""green"",""vert"",""up"",[106,-106],[0,150]]",diamond,green,vert,up,"[106,-106]","[0,150]",left,0,,,,,,001,2025-03-11_23h10.10.916,SL_sali,2021.2.3,Win32,58.82352941,0.5034,,,47,0,47,0,1,,,,,,,,
,,"[""diamond"",""no_dis"",""hori"",""left"",[99999,99999],[-106,-106]]",diamond,no_dis,hori,left,"[99999,99999]","[-106,-106]",up,0,,,,,,001,2025-03-11_23h10.10.916,SL_sali,2021.2.3,Win32,58.82352941,0.4471,,,48,0,48,0,1,,,,,,,,
,,"[""circle"",""red"",""vert"",""up"",[-150,0],[-106,106]]",circle,red,vert,up,"[-150,0]","[-106,106]",left,0,,,,,,001,2025-03-11_23h10.10.916,SL_sali,2021.2.3,Win32,58.82352941,1.0149,,,49,0,49,0,1,,,,,,,,
,,"[""diamond"",""green"",""hori"",""left"",[-106,-106],[-106,106]]",diamond,green,hori,left,"[-106,-106]","[-106,106]",up,0,,,,,,001,2025-03-11_23h10.10.916,SL_sali,2021.2.3,Win32,58.82352941,0.5429,,,50,0,50,0,1,,,,,,,,
,,"[""circle"",""no_dis"",""vert"",""up"",[99999,99999],[106,-106]]",circle,no_dis,vert,up,"[99999,99999]","[106,-106]",up,1,,,,,,001,2025-03-11_23h10.10.916,SL_sali,2021.2.3,Win32,58.82352941,0.6338,,,51,0,51,0,1,,,,,,,,
,,"[""diamond"",""red"",""hori"",""left"",[0,-150],[106,106]]",diamond,red,hori,left,"[0,-150]","[106,106]",left,1,,,,,,001,2025-03-11_23h10.10.916,SL_sali,2021.2.3,Win32,58.82352941,1.3833,,,52,0,52,0,1,,,,,,,,
,,"[""circle"",""no_dis"",""hori"",""left"",[99999,99999],[150,0]]",circle,no_dis,hori,left,"[99999,99999]","[150,0]",up,0,,,,,,001,2025-03-11_23h10.10.916,SL_sali,2021.2.3,Win32,58.82352941,0.5848,,,53,0,53,0,1,,,,,,,,
,,"[""diamond"",""red"",""vert"",""up"",[-150,0],[106,106]]",diamond,red,vert,up,"[-150,0]","[106,106]",left,0,,,,,,001,2025-03-11_23h10.10.916,SL_sali,2021.2.3,Win32,58.82352941,0.401,,,54,0,54,0,1,,,,,,,,
,,"[""circle"",""green"",""hori"",""left"",[0,-150],[106,-106]]",circle,green,hori,left,"[0,-150]","[106,-106]",up,0,,,,,,001,2025-03-11_23h10.10.916,SL_sali,2021.2.3,Win32,58.82352941,0.5025,,,55,0,55,0,1,,,,,,,,
,,"[""diamond"",""green"",""vert"",""up"",[-106,106],[-106,-106]]",diamond,green,vert,up,"[-106,106]","[-106,-106]",left,0,,,,,,001,2025-03-11_23h10.10.916,SL_sali,2021.2.3,Win32,58.82352941,0.8189,,,56,0,56,0,1,,,,,,,,
,,"[""diamond"",""green"",""vert"",""up"",[0,150],[106,-106]]",diamond,green,vert,up,"[0,150]","[106,-106]",up,1,,,,,,001,2025-03-11_23h10.10.916,SL_sali,2021.2.3,Win32,58.82352941,0.3974,,,57,0,57,0,1,,,,,,,,
,,"[""circle"",""red"",""vert"",""up"",[106,-106],[0,150]]",circle,red,vert,up,"[106,-106]","[0,150]",up,1,,,,,,001,2025-03-11_23h10.10.916,SL_sali,2021.2.3,Win32,58.82352941,1.0548,,,58,0,58,0,1,,,,,,,,
,,"[""diamond"",""red"",""hori"",""left"",[106,-106],[150,0]]",diamond,red,hori,left,"[106,-106]","[150,0]",up,0,,,,,,001,2025-03-11_23h10.10.916,SL_sali,2021.2.3,Win32,58.82352941,0.7022,,,59,0,59,0,1,,,,,,,,
,,"[""circle"",""red"",""hori"",""left"",[-150,0],[-106,106]]",circle,red,hori,left,"[-150,0]","[-106,106]",left,1,,,,,,001,2025-03-11_23h10.10.916,SL_sali,2021.2.3,Win32,58.82352941,0.6707,,,60,0,60,0,1,,,,,,,,
,,"[""diamond"",""red"",""hori"",""left"",[-150,0],[0,150]]",diamond,red,hori,left,"[-150,0]","[0,150]",left,1,,,,,,001,2025-03-11_23h10.10.916,SL_sali,2021.2.3,Win32,58.82352941,1.0008,,,61,0,61,0,1,,,,,,,,
,,"[""diamond"",""no_dis"",""hori"",""left"",[99999,99999],[-106,106]]",diamond,no_dis,hori,left,"[99999,99999]","[-106,106]",up,0,,,,,,001,2025-03-11_23h10.10.916,SL_sali,2021.2.3,Win32,58.82352941,0.6673,,,62,0,62,0,1,,,,,,,,
,,"[""diamond"",""no_dis"",""hori"",""left"",[99999,99999],[-106,106]]",diamond,no_dis,hori,left,"[99999,99999]","[-106,106]",up,0,,,,,,001,2025-03-11_23h10.10.916,SL_sali,2021.2.3,Win32,58.82352941,0.8015,,,63,0,63,0,1,,,,,,,,
,,"[""diamond"",""green"",""hori"",""left"",[-106,-106],[0,-150]]",diamond,green,hori,left,"[-106,-106]","[0,-150]",left,1,,,,,,001,2025-03-11_23h10.10.916,SL_sali,2021.2.3,Win32,58.82352941,1.3325,,,64,0,64,0,1,,,,,,,,
,,"[""circle"",""green"",""hori"",""left"",[-150,0],[150,0]]",circle,green,hori,left,"[-150,0]","[150,0]",up,0,,,,,,001,2025-03-11_23h10.10.916,SL_sali,2021.2.3,Win32,58.82352941,0.9003,,,65,0,65,0,1,,,,,,,,
,,"[""diamond"",""red"",""hori"",""left"",[0,150],[-106,-106]]",diamond,red,hori,left,"[0,150]","[-106,-106]",up,0,,,,,,001,2025-03-11_23h10.10.916,SL_sali,2021.2.3,Win32,58.82352941,1.1985,,,66,0,66,0,1,,,,,,,,
,,"[""circle"",""no_dis"",""hori"",""left"",[99999,99999],[106,106]]",circle,no_dis,hori,left,"[99999,99999]","[106,106]",up,0,,,,,,001,2025-03-11_23h10.10.916,SL_sali,2021.2.3,Win32,58.82352941,0.7087,,,67,0,67,0,1,,,,,,,,
,,"[""diamond"",""green"",""hori"",""left"",[-150,0],[106,106]]",diamond,green,hori,left,"[-150,0]","[106,106]",up,0,,,,,,001,2025-03-11_23h10.10.916,SL_sali,2021.2.3,Win32,58.82352941,1.1658,,,68,0,68,0,1,,,,,,,,
,,"[""circle"",""no_dis"",""hori"",""left"",[99999,99999],[-106,106]]",circle,no_dis,hori,left,"[99999,99999]","[-106,106]",left,1,,,,,,001,2025-03-11_23h10.10.916,SL_sali,2021.2.3,Win32,58.82352941,0.5327,,,69,0,69,0,1,,,,,,,,
,,"[""circle"",""green"",""vert"",""up"",[0,150],[-150,0]]",circle,green,vert,up,"[0,150]","[-150,0]",up,1,,,,,,001,2025-03-11_23h10.10.916,SL_sali,2021.2.3,Win32,58.82352941,1.8182,,,70,0,70,0,1,,,,,,,,
,,"[""circle"",""no_dis"",""vert"",""up"",[99999,99999],[-150,0]]",circle,no_dis,vert,up,"[99999,99999]","[-150,0]",up,1,,,,,,001,2025-03-11_23h10.10.916,SL_sali,2021.2.3,Win32,58.82352941,0.7827,,,71,0,71,0,1,,,,,,,,
,,"[""circle"",""no_dis"",""vert"",""up"",[99999,99999],[106,106]]",circle,no_dis,vert,up,"[99999,99999]","[106,106]",up,1,,,,,,001,2025-03-11_23h10.10.916,SL_sali,2021.2.3,Win32,58.82352941,0.5335,,,72,0,72,0,1,,,,,,,,
,,"[""diamond"",""green"",""hori"",""left"",[106,106],[-106,-106]]",diamond,green,hori,left,"[106,106]","[-106,-106]",left,1,,,,,,001,2025-03-11_23h10.10.916,SL_sali,2021.2.3,Win32,58.82352941,1.5205,,,73,0,73,0,1,,,,,,,,
,,"[""diamond"",""red"",""vert"",""up"",[0,150],[-106,106]]",diamond,red,vert,up,"[0,150]","[-106,106]",up,1,,,,,,001,2025-03-11_23h10.10.916,SL_sali,2021.2.3,Win32,58.82352941,0.8323,,,74,0,74,0,1,,,,,,,,
,,"[""diamond"",""red"",""vert"",""up"",[-150,0],[106,-106]]",diamond,red,vert,up,"[-150,0]","[106,-106]",up,1,,,,,,001,2025-03-11_23h10.10.916,SL_sali,2021.2.3,Win32,58.82352941,0.6835,,,75,0,75,0,1,,,,,,,,
,,"[""circle"",""green"",""hori"",""left"",[106,106],[106,-106]]",circle,green,hori,left,"[106,106]","[106,-106]",left,1,,,,,,001,2025-03-11_23h10.10.916,SL_sali,2021.2.3,Win32,58.82352941,0.617,,,76,0,76,0,1,,,,,,,,
,,"[""diamond"",""red"",""vert"",""up"",[106,-106],[-106,-106]]",diamond,red,vert,up,"[106,-106]","[-106,-106]",up,1,,,,,,001,2025-03-11_23h10.10.916,SL_sali,2021.2.3,Win32,58.82352941,0.4333,,,77,0,77,0,1,,,,,,,,
,,"[""circle"",""green"",""hori"",""left"",[106,-106],[150,0]]",circle,green,hori,left,"[106,-106]","[150,0]",left,1,,,,,,001,2025-03-11_23h10.10.916,SL_sali,2021.2.3,Win32,58.82352941,0.4758,,,78,0,78,0,1,,,,,,,,
,,"[""diamond"",""no_dis"",""vert"",""up"",[99999,99999],[106,-106]]",diamond,no_dis,vert,up,"[99999,99999]","[106,-106]",up,1,,,,,,001,2025-03-11_23h10.10.916,SL_sali,2021.2.3,Win32,58.82352941,0.539,,,79,0,79,0,1,,,,,,,,
,,"[""diamond"",""red"",""hori"",""left"",[0,-150],[0,150]]",diamond,red,hori,left,"[0,-150]","[0,150]",left,1,,,,,,001,2025-03-11_23h10.10.916,SL_sali,2021.2.3,Win32,58.82352941,0.4354,,,80,0,80,0,1,,,,,,,,
,,"[""circle"",""green"",""hori"",""left"",[-150,0],[-106,106]]",circle,green,hori,left,"[-150,0]","[-106,106]",up,0,,,,,,001,2025-03-11_23h10.10.916,SL_sali,2021.2.3,Win32,58.82352941,0.4,,,81,0,81,0,1,,,,,,,,
,,"[""circle"",""green"",""vert"",""up"",[-150,0],[-106,-106]]",circle,green,vert,up,"[-150,0]","[-106,-106]",up,1,,,,,,001,2025-03-11_23h10.10.916,SL_sali,2021.2.3,Win32,58.82352941,0.6649,,,82,0,82,0,1,,,,,,,,
,,"[""circle"",""red"",""vert"",""up"",[0,150],[150,0]]",circle,red,vert,up,"[0,150]","[150,0]",up,1,,,,,,001,2025-03-11_23h10.10.916,SL_sali,2021.2.3,Win32,58.82352941,0.9717,,,83,0,83,0,1,,,,,,,,
,,"[""diamond"",""no_dis"",""hori"",""left"",[99999,99999],[0,-150]]",diamond,no_dis,hori,left,"[99999,99999]","[0,-150]",left,1,,,,,,001,2025-03-11_23h10.10.916,SL_sali,2021.2.3,Win32,58.82352941,0.6693,,,84,0,84,0,1,,,,,,,,
,,"[""circle"",""red"",""vert"",""up"",[-106,106],[106,106]]",circle,red,vert,up,"[-106,106]","[106,106]",up,1,,,,,,001,2025-03-11_23h10.10.916,SL_sali,2021.2.3,Win32,58.82352941,0.6848,,,85,0,85,0,1,,,,,,,,
,,"[""diamond"",""no_dis"",""hori"",""left"",[99999,99999],[150,0]]",diamond,no_dis,hori,left,"[99999,99999]","[150,0]",left,1,,,,,,001,2025-03-11_23h10.10.916,SL_sali,2021.2.3,Win32,58.82352941,0.5587,,,86,0,86,0,1,,,,,,,,
,,"[""circle"",""green"",""hori"",""left"",[150,0],[106,-106]]",circle,green,hori,left,"[150,0]","[106,-106]",up,0,,,,,,001,2025-03-11_23h10.10.916,SL_sali,2021.2.3,Win32,58.82352941,1.2917,,,87,0,87,0,1,,,,,,,,
,,"[""diamond"",""red"",""hori"",""left"",[150,0],[0,-150]]",diamond,red,hori,left,"[150,0]","[0,-150]",left,1,,,,,,001,2025-03-11_23h10.10.916,SL_sali,2021.2.3,Win32,58.82352941,0.3703,,,88,0,88,0,1,,,,,,,,
,,"[""circle"",""green"",""vert"",""up"",[-106,106],[0,-150]]",circle,green,vert,up,"[-106,106]","[0,-150]",up,1,,,,,,001,2025-03-11_23h10.10.916,SL_sali,2021.2.3,Win32,58.82352941,0.7877,,,89,0,89,0,1,,,,,,,,
,,"[""diamond"",""green"",""vert"",""up"",[-150,0],[-106,-106]]",diamond,green,vert,up,"[-150,0]","[-106,-106]",left,0,,,,,,001,2025-03-11_23h10.10.916,SL_sali,2021.2.3,Win32,58.82352941,0.8366,,,90,0,90,0,1,,,,,,,,
,,"[""circle"",""red"",""hori"",""left"",[150,0],[-106,106]]",circle,red,hori,left,"[150,0]","[-106,106]",up,0,,,,,,001,2025-03-11_23h10.10.916,SL_sali,2021.2.3,Win32,58.82352941,0.4819,,,91,0,91,0,1,,,,,,,,
,,"[""circle"",""green"",""vert"",""up"",[-150,0],[0,-150]]",circle,green,vert,up,"[-150,0]","[0,-150]",left,0,,,,,,001,2025-03-11_23h10.10.916,SL_sali,2021.2.3,Win32,58.82352941,0.9985,,,92,0,92,0,1,,,,,,,,
,,"[""circle"",""no_dis"",""hori"",""left"",[99999,99999],[106,106]]",circle,no_dis,hori,left,"[99999,99999]","[106,106]",up,0,,,,,,001,2025-03-11_23h10.10.916,SL_sali,2021.2.3,Win32,58.82352941,0.3672,,,93,0,93,0,1,,,,,,,,
,,"[""circle"",""red"",""vert"",""up"",[-106,106],[106,-106]]",circle,red,vert,up,"[-106,106]","[106,-106]",left,0,,,,,,001,2025-03-11_23h10.10.916,SL_sali,2021.2.3,Win32,58.82352941,0.3693,,,94,0,94,0,1,,,,,,,,
,,"[""diamond"",""no_dis"",""vert"",""up"",[99999,99999],[-150,0]]",diamond,no_dis,vert,up,"[99999,99999]","[-150,0]",up,1,,,,,,001,2025-03-11_23h10.10.916,SL_sali,2021.2.3,Win32,58.82352941,0.5839,,,95,0,95,0,1,,,,,,,,
,,"[""circle"",""no_dis"",""vert"",""up"",[99999,99999],[106,-106]]",circle,no_dis,vert,up,"[99999,99999]","[106,-106]",up,1,,,,,,001,2025-03-11_23h10.10.916,SL_sali,2021.2.3,Win32,58.82352941,0.6355,,,96,0,96,0,1,,,,,,,,
,,"[""diamond"",""green"",""vert"",""up"",[106,-106],[-150,0]]",diamond,green,vert,up,"[106,-106]","[-150,0]",up,1,,,,,,001,2025-03-11_23h10.10.916,SL_sali,2021.2.3,Win32,58.82352941,1.434,,,97,0,97,0,1,,,,,,,,
,,"[""circle"",""green"",""hori"",""left"",[-150,0],[-106,-106]]",circle,green,hori,left,"[-150,0]","[-106,-106]",up,0,,,,,,001,2025-03-11_23h10.10.916,SL_sali,2021.2.3,Win32,58.82352941,0.6911,,,98,0,98,0,1,,,,,,,,
,,"[""circle"",""red"",""hori"",""left"",[-106,106],[150,0]]",circle,red,hori,left,"[-106,106]","[150,0]",left,1,,,,,,001,2025-03-11_23h10.10.916,SL_sali,2021.2.3,Win32,58.82352941,0.3832,,,99,0,99,0,1,,,,,,,,
,,"[""diamond"",""no_dis"",""hori"",""left"",[99999,99999],[-106,-106]]",diamond,no_dis,hori,left,"[99999,99999]","[-106,-106]",left,1,,,,,,001,2025-03-11_23h10.10.916,SL_sali,2021.2.3,Win32,58.82352941,0.6668,,,100,0,100,0,1,,,,,,,,
,,"[""diamond"",""green"",""hori"",""left"",[-106,-106],[0,150]]",diamond,green,hori,left,"[-106,-106]","[0,150]",up,0,,,,,,001,2025-03-11_23h10.10.916,SL_sali,2021.2.3,Win32,58.82352941,0.8354,,,101,0,101,0,1,,,,,,,,
,,"[""diamond"",""no_dis"",""hori"",""left"",[99999,99999],[-106,-106]]",diamond,no_dis,hori,left,"[99999,99999]","[-106,-106]",left,1,,,,,,001,2025-03-11_23h10.10.916,SL_sali,2021.2.3,Win32,58.82352941,0.5686,,,102,0,102,0,1,,,,,,,,
,,"[""diamond"",""no_dis"",""vert"",""up"",[99999,99999],[-106,106]]",diamond,no_dis,vert,up,"[99999,99999]","[-106,106]",up,1,,,,,,001,2025-03-11_23h10.10.916,SL_sali,2021.2.3,Win32,58.82352941,0.7167,,,103,0,103,0,1,,,,,,,,
,,"[""diamond"",""red"",""hori"",""left"",[106,106],[-106,106]]",diamond,red,hori,left,"[106,106]","[-106,106]",up,0,,,,,,001,2025-03-11_23h10.10.916,SL_sali,2021.2.3,Win32,58.82352941,0.5253,,,104,0,104,0,1,,,,,,,,
,,"[""circle"",""red"",""hori"",""left"",[-150,0],[0,150]]",circle,red,hori,left,"[-150,0]","[0,150]",left,1,,,,,,001,2025-03-11_23h10.10.916,SL_sali,2021.2.3,Win32,58.82352941,0.8525,,,105,0,105,0,1,,,,,,,,
,,"[""circle"",""green"",""vert"",""up"",[-150,0],[0,150]]",circle,green,vert,up,"[-150,0]","[0,150]",up,1,,,,,,001,2025-03-11_23h10.10.916,SL_sali,2021.2.3,Win32,58.82352941,0.7201,,,106,0,106,0,1,,,,,,,,
,,"[""circle"",""no_dis"",""hori"",""left"",[99999,99999],[150,0]]",circle,no_dis,hori,left,"[99999,99999]","[150,0]",left,1,,,,,,001,2025-03-11_23h10.10.916,SL_sali,2021.2.3,Win32,58.82352941,0.4901,,,107,0,107,0,1,,,,,,,,
,,"[""circle"",""no_dis"",""vert"",""up"",[99999,99999],[106,106]]",circle,no_dis,vert,up,"[99999,99999]","[106,106]",up,1,,,,,,001,2025-03-11_23h10.10.916,SL_sali,2021.2.3,Win32,58.82352941,0.5699,,,108,0,108,0,1,,,,,,,,
,,"[""circle"",""red"",""vert"",""up"",[0,-150],[106,106]]",circle,red,vert,up,"[0,-150]","[106,106]",up,1,,,,,,001,2025-03-11_23h10.10.916,SL_sali,2021.2.3,Win32,58.82352941,0.8845,,,109,0,109,0,1,,,,,,,,
,,"[""diamond"",""no_dis"",""vert"",""up"",[99999,99999],[150,0]]",diamond,no_dis,vert,up,"[99999,99999]","[150,0]",left,0,,,,,,001,2025-03-11_23h10.10.916,SL_sali,2021.2.3,Win32,58.82352941,0.5872,,,110,0,110,0,1,,,,,,,,
,,"[""diamond"",""no_dis"",""vert"",""up"",[99999,99999],[0,-150]]",diamond,no_dis,vert,up,"[99999,99999]","[0,-150]",up,1,,,,,,001,2025-03-11_23h10.10.916,SL_sali,2021.2.3,Win32,58.82352941,0.3014,,,111,0,111,0,1,,,,,,,,
,,"[""diamond"",""green"",""vert"",""up"",[106,106],[106,-106]]",diamond,green,vert,up,"[106,106]","[106,-106]",up,1,,,,,,001,2025-03-11_23h10.10.916,SL_sali,2021.2.3,Win32,58.82352941,0.6866,,,112,0,112,0,1,,,,,,,,
,,"[""circle"",""no_dis"",""vert"",""up"",[99999,99999],[0,-150]]",circle,no_dis,vert,up,"[99999,99999]","[0,-150]",up,1,,,,,,001,2025-03-11_23h10.10.916,SL_sali,2021.2.3,Win32,58.82352941,0.6532,,,113,0,113,0,1,,,,,,,,
,,"[""diamond"",""green"",""hori"",""left"",[-150,0],[-106,-106]]",diamond,green,hori,left,"[-150,0]","[-106,-106]",left,1,,,,,,001,2025-03-11_23h10.10.916,SL_sali,2021.2.3,Win32,58.82352941,0.6497,,,114,0,114,0,1,,,,,,,,
,,"[""circle"",""green"",""vert"",""up"",[-150,0],[106,106]]",circle,green,vert,up,"[-150,0]","[106,106]",left,0,,,,,,001,2025-03-11_23h10.10.916,SL_sali,2021.2.3,Win32,58.82352941,1.1686,,,115,0,115,0,1,,,,,,,,
,,"[""circle"",""green"",""hori"",""left"",[106,106],[-106,106]]",circle,green,hori,left,"[106,106]","[-106,106]",up,0,,,,,,001,2025-03-11_23h10.10.916,SL_sali,2021.2.3,Win32,58.82352941,1.421,,,116,0,116,0,1,,,,,,,,
,,"[""circle"",""no_dis"",""vert"",""up"",[99999,99999],[-150,0]]",circle,no_dis,vert,up,"[99999,99999]","[-150,0]",left,0,,,,,,001,2025-03-11_23h10.10.916,SL_sali,2021.2.3,Win32,58.82352941,0.9362,,,117,0,117,0,1,,,,,,,,
,,"[""circle"",""red"",""vert"",""up"",[0,-150],[150,0]]",circle,red,vert,up,"[0,-150]","[150,0]",up,1,,,,,,001,2025-03-11_23h10.10.916,SL_sali,2021.2.3,Win32,58.82352941,0.4493,,,118,0,118,0,1,,,,,,,,
,,"[""circle"",""no_dis"",""hori"",""left"",[99999,99999],[0,150]]",circle,no_dis,hori,left,"[99999,99999]","[0,150]",up,0,,,,,,001,2025-03-11_23h10.10.916,SL_sali,2021.2.3,Win32,58.82352941,0.6104,,,119,0,119,0,1,,,,,,,,
,,,,,,,,,,,,,,,,001,2025-03-11_23h10.10.916,SL_sali,2021.2.3,Win32,58.82352941,,,,,,,,,1,space,4.351,0,0,0,0,1
,,"[""diamond"",""green"",""hori"",""left"",[150,0],[106,106]]",diamond,green,hori,left,"[150,0]","[106,106]",up,0,,,,,,001,2025-03-11_23h10.10.916,SL_sali,2021.2.3,Win32,58.82352941,0.6649,,,0,0,0,0,1,,,,,,,,
,,"[""circle"",""green"",""hori"",""left"",[-106,-106],[106,106]]",circle,green,hori,left,"[-106,-106]","[106,106]",left,1,,,,,,001,2025-03-11_23h10.10.916,SL_sali,2021.2.3,Win32,58.82352941,0.5502,,,1,0,1,0,1,,,,,,,,
,,"[""circle"",""red"",""vert"",""up"",[-106,106],[106,106]]",circle,red,vert,up,"[-106,106]","[106,106]",up,1,,,,,,001,2025-03-11_23h10.10.916,SL_sali,2021.2.3,Win32,58.82352941,0.6659,,,2,0,2,0,1,,,,,,,,
,,"[""diamond"",""red"",""vert"",""up"",[-150,0],[-106,106]]",diamond,red,vert,up,"[-150,0]","[-106,106]",left,0,,,,,,001,2025-03-11_23h10.10.916,SL_sali,2021.2.3,Win32,58.82352941,0.5828,,,3,0,3,0,1,,,,,,,,
,,"[""diamond"",""no_dis"",""hori"",""left"",[99999,99999],[106,-106]]",diamond,no_dis,hori,left,"[99999,99999]","[106,-106]",left,1,,,,,,001,2025-03-11_23h10.10.916,SL_sali,2021.2.3,Win32,58.82352941,0.4427,,,4,0,4,0,1,,,,,,,,
,,"[""circle"",""no_dis"",""hori"",""left"",[99999,99999],[150,0]]",circle,no_dis,hori,left,"[99999,99999]","[150,0]",up,0,,,,,,001,2025-03-11_23h10.10.916,SL_sali,2021.2.3,Win32,58.82352941,0.4529,,,5,0,5,0,1,,,,,,,,
,,"[""diamond"",""green"",""vert"",""up"",[106,106],[106,-106]]",diamond,green,vert,up,"[106,106]","[106,-106]",left,0,,,,,,001,2025-03-11_23h10.10.916,SL_sali,2021.2.3,Win32,58.82352941,0.4857,,,6,0,6,0,1,,,,,,,,
,,"[""circle"",""green"",""vert"",""up"",[-106,106],[0,-150]]",circle,green,vert,up,"[-106,106]","[0,-150]",up,1,,,,,,001,2025-03-11_23h10.10.916,SL_sali,2021.2.3,Win32,58.82352941,0.4584,,,7,0,7,0,1,,,,,,,,
,,"[""circle"",""red"",""vert"",""up"",[0,-150],[106,-106]]",circle,red,vert,up,"[0,-150]","[106,-106]",up,1,,,,,,001,2025-03-11_23h10.10.916,SL_sali,2021.2.3,Win32,58.82352941,0.5176,,,8,0,8,0,1,,,,,,,,
,,"[""diamond"",""no_dis"",""hori"",""left"",[99999,99999],[-106,106]]",diamond,no_dis,hori,left,"[99999,99999]","[-106,106]",left,1,,,,,,001,2025-03-11_23h10.10.916,SL_sali,2021.2.3,Win32,58.82352941,0.5005,,,9,0,9,0,1,,,,,,,,
,,"[""circle"",""no_dis"",""hori"",""left"",[99999,99999],[-106,-106]]",circle,no_dis,hori,left,"[99999,99999]","[-106,-106]",up,0,,,,,,001,2025-03-11_23h10.10.916,SL_sali,2021.2.3,Win32,58.82352941,0.3688,,,10,0,10,0,1,,,,,,,,
,,"[""diamond"",""green"",""vert"",""up"",[150,0],[-150,0]]",diamond,green,vert,up,"[150,0]","[-150,0]",left,0,,,,,,001,2025-03-11_23h10.10.916,SL_sali,2021.2.3,Win32,58.82352941,0.452,,,11,0,11,0,1,,,,,,,,
,,"[""diamond"",""no_dis"",""hori"",""left"",[99999,99999],[0,150]]",diamond,no_dis,hori,left,"[99999,99999]","[0,150]",up,0,,,,,,001,2025-03-11_23h10.10.916,SL_sali,2021.2.3,Win32,58.82352941,0.3703,,,12,0,12,0,1,,,,,,,,
,,"[""circle"",""green"",""vert"",""up"",[0,150],[-106,-106]]",circle,green,vert,up,"[0,150]","[-106,-106]",up,1,,,,,,001,2025-03-11_23h10.10.916,SL_sali,2021.2.3,Win32,58.82352941,0.5356,,,13,0,13,0,1,,,,,,,,
,,"[""diamond"",""red"",""hori"",""left"",[106,-106],[150,0]]",diamond,red,hori,left,"[106,-106]","[150,0]",up,0,,,,,,001,2025-03-11_23h10.10.916,SL_sali,2021.2.3,Win32,58.82352941,0.7519,,,14,0,14,0,1,,,,,,,,
,,"[""circle"",""no_dis"",""hori"",""left"",[99999,99999],[-106,106]]",circle,no_dis,hori,left,"[99999,99999]","[-106,106]",left,1,,,,,,001,2025-03-11_23h10.10.916,SL_sali,2021.2.3,Win32,58.82352941,0.3697,,,15,0,15,0,1,,,,,,,,
,,"[""diamond"",""no_dis"",""hori"",""left"",[99999,99999],[0,150]]",diamond,no_dis,hori,left,"[99999,99999]","[0,150]",left,1,,,,,,001,2025-03-11_23h10.10.916,SL_sali,2021.2.3,Win32,58.82352941,0.6555,,,16,0,16,0,1,,,,,,,,
,,"[""diamond"",""red"",""vert"",""up"",[0,150],[-106,106]]",diamond,red,vert,up,"[0,150]","[-106,106]",up,1,,,,,,001,2025-03-11_23h10.10.916,SL_sali,2021.2.3,Win32,58.82352941,0.4867,,,17,0,17,0,1,,,,,,,,
,,"[""diamond"",""no_dis"",""hori"",""left"",[99999,99999],[-106,-106]]",diamond,no_dis,hori,left,"[99999,99999]","[-106,-106]",left,1,,,,,,001,2025-03-11_23h10.10.916,SL_sali,2021.2.3,Win32,58.82352941,0.6531,,,18,0,18,0,1,,,,,,,,
,,"[""circle"",""red"",""hori"",""left"",[-150,0],[0,150]]",circle,red,hori,left,"[-150,0]","[0,150]",up,0,,,,,,001,2025-03-11_23h10.10.916,SL_sali,2021.2.3,Win32,58.82352941,0.6504,,,19,0,19,0,1,,,,,,,,
,,"[""diamond"",""red"",""hori"",""left"",[106,106],[-106,106]]",diamond,red,hori,left,"[106,106]","[-106,106]",up,0,,,,,,001,2025-03-11_23h10.10.916,SL_sali,2021.2.3,Win32,58.82352941,0.5542,,,20,0,20,0,1,,,,,,,,
,,"[""circle"",""red"",""vert"",""up"",[0,-150],[150,0]]",circle,red,vert,up,"[0,-150]","[150,0]",left,0,,,,,,001,2025-03-11_23h10.10.916,SL_sali,2021.2.3,Win32,58.82352941,0.3984,,,21,0,21,0,1,,,,,,,,
,,"[""diamond"",""green"",""vert"",""up"",[-150,0],[150,0]]",diamond,green,vert,up,"[-150,0]","[150,0]",up,1,,,,,,001,2025-03-11_23h10.10.916,SL_sali,2021.2.3,Win32,58.82352941,0.3916,,,22,0,22,0,1,,,,,,,,
,,"[""diamond"",""green"",""vert"",""up"",[-106,106],[150,0]]",diamond,green,vert,up,"[-106,106]","[150,0]",up,1,,,,,,001,2025-03-11_23h10.10.916,SL_sali,2021.2.3,Win32,58.82352941,0.549,,,23,0,23,0,1,,,,,,,,
,,"[""diamond"",""green"",""vert"",""up"",[106,-106],[-106,106]]",diamond,green,vert,up,"[106,-106]","[-106,106]",up,1,,,,,,001,2025-03-11_23h10.10.916,SL_sali,2021.2.3,Win32,58.82352941,0.501,,,24,0,24,0,1,,,,,,,,
,,"[""circle"",""green"",""vert"",""up"",[-150,0],[0,-150]]",circle,green,vert,up,"[-150,0]","[0,-150]",left,0,,,,,,001,2025-03-11_23h10.10.916,SL_sali,2021.2.3,Win32,58.82352941,0.3879,,,25,0,25,0,1,,,,,,,,
,,"[""diamond"",""green"",""vert"",""up"",[0,150],[106,-106]]",diamond,green,vert,up,"[0,150]","[106,-106]",up,1,,,,,,001,2025-03-11_23h10.10.916,SL_sali,2021.2.3,Win32,58.82352941,0.375,,,26,0,26,0,1,,,,,,,,
,,"[""circle"",""no_dis"",""hori"",""left"",[99999,99999],[-106,106]]",circle,no_dis,hori,left,"[99999,99999]","[-106,106]",up,0,,,,,,001,2025-03-11_23h10.10.916,SL_sali,2021.2.3,Win32,58.82352941,0.3889,,,27,0,27,0,1,,,,,,,,
,,"[""circle"",""no_dis"",""vert"",""up"",[99999,99999],[106,106]]",circle,no_dis,vert,up,"[99999,99999]","[106,106]",left,0,,,,,,001,2025-03-11_23h10.10.916,SL_sali,2021.2.3,Win32,58.82352941,0.4054,,,28,0,28,0,1,,,,,,,,
,,"[""circle"",""no_dis"",""hori"",""left"",[99999,99999],[150,0]]",circle,no_dis,hori,left,"[99999,99999]","[150,0]",up,0,,,,,,001,2025-03-11_23h10.10.916,SL_sali,2021.2.3,Win32,58.82352941,0.4512,,,29,0,29,0,1,,,,,,,,
,,"[""circle"",""green"",""hori"",""left"",[-150,0],[150,0]]",circle,green,hori,left,"[-150,0]","[150,0]",up,0,,,,,,001,2025-03-11_23h10.10.916,SL_sali,2021.2.3,Win32,58.82352941,0.4032,,,30,0,30,0,1,,,,,,,,
,,"[""diamond"",""red"",""vert"",""up"",[0,150],[106,106]]",diamond,red,vert,up,"[0,150]","[106,106]",left,0,,,,,,001,2025-03-11_23h10.10.916,SL_sali,2021.2.3,Win32,58.82352941,0.0352,,,31,0,31,0,1,,,,,,,,
,,"[""diamond"",""red"",""vert"",""up"",[-106,-106],[150,0]]",diamond,red,vert,up,"[-106,-106]","[150,0]",up,1,,,,,,001,2025-03-11_23h10.10.916,SL_sali,2021.2.3,Win32,58.82352941,1.5022,,,32,0,32,0,1,,,,,,,,
,,"[""circle"",""no_dis"",""hori"",""left"",[99999,99999],[0,150]]",circle,no_dis,hori,left,"[99999,99999]","[0,150]",left,1,,,,,,001,2025-03-11_23h10.10.916,SL_sali,2021.2.3,Win32,58.82352941,0.6704,,,33,0,33,0,1,,,,,,,,
,,"[""diamond"",""red"",""hori"",""left"",[0,-150],[0,150]]",diamond,red,hori,left,"[0,-150]","[0,150]",up,0,,,,,,001,2025-03-11_23h10.10.916,SL_sali,2021.2.3,Win32,58.82352941,0.7675,,,34,0,34,0,1,,,,,,,,
,,"[""diamond"",""no_dis"",""vert"",""up"",[99999,99999],[106,-106]]",diamond,no_dis,vert,up,"[99999,99999]","[106,-106]",left,0,,,,,,001,2025-03-11_23h10.10.916,SL_sali,2021.2.3,Win32,58.82352941,0.4504,,,35,0,35,0,1,,,,,,,,
,,"[""diamond"",""no_dis"",""vert"",""up"",[99999,99999],[-150,0]]",diamond,no_dis,vert,up,"[99999,99999]","[-150,0]",up,1,,,,,,001,2025-03-11_23h10.10.916,SL_sali,2021.2.3,Win32,58.82352941,0.5314,,,36,0,36,0,1,,,,,,,,
,,"[""diamond"",""no_dis"",""vert"",""up"",[99999,99999],[-106,-106]]",diamond,no_dis,vert,up,"[99999,99999]","[-106,-106]",up,1,,,,,,001,2025-03-11_23h10.10.916,SL_sali,2021.2.3,Win32,58.82352941,0.5172,,,37,0,37,0,1,,,,,,,,
,,"[""diamond"",""green"",""vert"",""up"",[106,-106],[-150,0]]",diamond,green,vert,up,"[106,-106]","[-150,0]",up,1,,,,,,001,2025-03-11_23h10.10.916,SL_sali,2021.2.3,Win32,58.82352941,0.6667,,,38,0,38,0,1,,,,,,,,
,,"[""circle"",""no_dis"",""vert"",""up"",[99999,99999],[0,-150]]",circle,no_dis,vert,up,"[99999,99999]","[0,-150]",up,1,,,,,,001,2025-03-11_23h10.10.916,SL_sali,2021.2.3,Win32,58.82352941,0.7907,,,39,0,39,0,1,,,,,,,,
,,"[""circle"",""red"",""hori"",""left"",[150,0],[106,-106]]",circle,red,hori,left,"[150,0]","[106,-106]",left,1,,,,,,001,2025-03-11_23h10.10.916,SL_sali,2021.2.3,Win32,58.82352941,1.3339,,,40,0,40,0,1,,,,,,,,
,,"[""circle"",""green"",""vert"",""up"",[-150,0],[0,150]]",circle,green,vert,up,"[-150,0]","[0,150]",up,1,,,,,,001,2025-03-11_23h10.10.916,SL_sali,2021.2.3,Win32,58.82352941,1.47,,,41,0,41,0,1,,,,,,,,
,,"[""circle"",""red"",""vert"",""up"",[106,-106],[0,150]]",circle,red,vert,up,"[106,-106]","[0,150]",up,1,,,,,,001,2025-03-11_23h10.10.916,SL_sali,2021.2.3,Win32,58.82352941,1.3007,,,42,0,42,0,1,,,,,,,,
,,"[""circle"",""red"",""hori"",""left"",[-150,0],[-106,106]]",circle,red,hori,left,"[-150,0]","[-106,106]",up,0,,,,,,001,2025-03-11_23h10.10.916,SL_sali,2021.2.3,Win32,58.82352941,1.0755,,,43,0,43,0,1,,,,,,,,
,,"[""circle"",""green"",""vert"",""up"",[-150,0],[0,150]]",circle,green,vert,up,"[-150,0]","[0,150]",left,0,,,,,,001,2025-03-11_23h10.10.916,SL_sali,2021.2.3,Win32,58.82352941,1.1824,,,44,0,44,0,1,,,,,,,,
,,"[""diamond"",""green"",""hori"",""left"",[-150,0],[-106,106]]",diamond,green,hori,left,"[-150,0]","[-106,106]",up,0,,,,,,001,2025-03-11_23h10.10.916,SL_sali,2021.2.3,Win32,58.82352941,0.9858,,,45,0,45,0,1,,,,,,,,
,,"[""diamond"",""green"",""vert"",""up"",[-150,0],[-106,-106]]",diamond,green,vert,up,"[-150,0]","[-106,-106]",left,0,,,,,,001,2025-03-11_23h10.10.916,SL_sali,2021.2.3,Win32,58.82352941,0.6939,,,46,0,46,0,1,,,,,,,,
,,"[""diamond"",""no_dis"",""vert"",""up"",[99999,99999],[-150,0]]",diamond,no_dis,vert,up,"[99999,99999]","[-150,0]",up,1,,,,,,001,2025-03-11_23h10.10.916,SL_sali,2021.2.3,Win32,58.82352941,0.7425,,,47,0,47,0,1,,,,,,,,
,,"[""circle"",""red"",""hori"",""left"",[0,-150],[-106,106]]",circle,red,hori,left,"[0,-150]","[-106,106]",up,0,,,,,,001,2025-03-11_23h10.10.916,SL_sali,2021.2.3,Win32,58.82352941,1.0656,,,48,0,48,0,1,,,,,,,,
,,"[""diamond"",""green"",""hori"",""left"",[-106,-106],[0,150]]",diamond,green,hori,left,"[-106,-106]","[0,150]",left,1,,,,,,001,2025-03-11_23h10.10.916,SL_sali,2021.2.3,Win32,58.82352941,1.7492,,,49,0,49,0,1,,,,,,,,
,,"[""diamond"",""green"",""hori"",""left"",[0,-150],[-150,0]]",diamond,green,hori,left,"[0,-150]","[-150,0]",up,0,,,,,,001,2025-03-11_23h10.10.916,SL_sali,2021.2.3,Win32,58.82352941,2.1159,,,50,0,50,0,1,,,,,,,,
,,"[""circle"",""green"",""hori"",""left"",[150,0],[106,-106]]",circle,green,hori,left,"[150,0]","[106,-106]",left,1,,,,,,001,2025-03-11_23h10.10.916,SL_sali,2021.2.3,Win32,58.82352941,0.8589,,,51,0,51,0,1,,,,,,,,
,,"[""diamond"",""no_dis"",""vert"",""up"",[99999,99999],[-150,0]]",diamond,no_dis,vert,up,"[99999,99999]","[-150,0]",up,1,,,,,,001,2025-03-11_23h10.10.916,SL_sali,2021.2.3,Win32,58.82352941,0.9748,,,52,0,52,0,1,,,,,,,,
,,"[""circle"",""green"",""hori"",""left"",[-150,0],[106,106]]",circle,green,hori,left,"[-150,0]","[106,106]",left,1,,,,,,001,2025-03-11_23h10.10.916,SL_sali,2021.2.3,Win32,58.82352941,0.7834,,,53,0,53,0,1,,,,,,,,
,,"[""diamond"",""green"",""vert"",""up"",[106,-106],[0,150]]",diamond,green,vert,up,"[106,-106]","[0,150]",up,1,,,,,,001,2025-03-11_23h10.10.916,SL_sali,2021.2.3,Win32,58.82352941,0.7158,,,54,0,54,0,1,,,,,,,,
,,"[""diamond"",""red"",""vert"",""up"",[-150,0],[106,-106]]",diamond,red,vert,up,"[-150,0]","[106,-106]",up,1,,,,,,001,2025-03-11_23h10.10.916,SL_sali,2021.2.3,Win32,58.82352941,0.8019,,,55,0,55,0,1,,,,,,,,
,,"[""diamond"",""no_dis"",""vert"",""up"",[99999,99999],[0,-150]]",diamond,no_dis,vert,up,"[99999,99999]","[0,-150]",left,0,,,,,,001,2025-03-11_23h10.10.916,SL_sali,2021.2.3,Win32,58.82352941,0.6879,,,56,0,56,0,1,,,,,,,,
,,"[""circle"",""green"",""vert"",""up"",[-150,0],[106,106]]",circle,green,vert,up,"[-150,0]","[106,106]",up,1,,,,,,001,2025-03-11_23h10.10.916,SL_sali,2021.2.3,Win32,58.82352941,0.4668,,,57,0,57,0,1,,,,,,,,
,,"[""circle"",""no_dis"",""hori"",""left"",[99999,99999],[106,106]]",circle,no_dis,hori,left,"[99999,99999]","[106,106]",up,0,,,,,,001,2025-03-11_23h10.10.916,SL_sali,2021.2.3,Win32,58.82352941,1.1406,,,58,0,58,0,1,,,,,,,,
,,"[""diamond"",""no_dis"",""hori"",""left"",[99999,99999],[150,0]]",diamond,no_dis,hori,left,"[99999,99999]","[150,0]",left,1,,,,,,001,2025-03-11_23h10.10.916,SL_sali,2021.2.3,Win32,58.82352941,0.8697,,,59,0,59,0,1,,,,,,,,
,,"[""circle"",""red"",""hori"",""left"",[150,0],[-106,106]]",circle,red,hori,left,"[150,0]","[-106,106]",up,0,,,,,,001,2025-03-11_23h10.10.916,SL_sali,2021.2.3,Win32,58.82352941,0.8336,,,60,0,60,0,1,,,,,,,,
,,"[""circle"",""no_dis"",""hori"",""left"",[99999,99999],[106,-106]]",circle,no_dis,hori,left,"[99999,99999]","[106,-106]",left,1,,,,,,001,2025-03-11_23h10.10.916,SL_sali,2021.2.3,Win32,58.82352941,2.3157,,,61,0,61,0,1,,,,,,,,
,,"[""circle"",""red"",""vert"",""up"",[-150,0],[-106,106]]",circle,red,vert,up,"[-150,0]","[-106,106]",up,1,,,,,,001,2025-03-11_23h10.10.916,SL_sali,2021.2.3,Win32,58.82352941,1.7673,,,62,0,62,0,1,,,,,,,,
,,"[""diamond"",""red"",""vert"",""up"",[106,-106],[-106,-106]]",diamond,red,vert,up,"[106,-106]","[-106,-106]",left,0,,,,,,001,2025-03-11_23h10.10.916,SL_sali,2021.2.3,Win32,58.82352941,1.4335,,,63,0,63,0,1,,,,,,,,
,,"[""diamond"",""red"",""vert"",""up"",[-150,0],[0,150]]",diamond,red,vert,up,"[-150,0]","[0,150]",up,1,,,,,,001,2025-03-11_23h10.10.916,SL_sali,2021.2.3,Win32,58.82352941,0.9867,,,64,0,64,0,1,,,,,,,,
,,"[""diamond"",""red"",""hori"",""left"",[150,0],[0,-150]]",diamond,red,hori,left,"[150,0]","[0,-150]",left,1,,,,,,001,2025-03-11_23h10.10.916,SL_sali,2021.2.3,Win32,58.82352941,1.2003,,,65,0,65,0,1,,,,,,,,
,,"[""circle"",""red"",""hori"",""left"",[-106,106],[150,0]]",circle,red,hori,left,"[-106,106]","[150,0]",up,0,,,,,,001,2025-03-11_23h10.10.916,SL_sali,2021.2.3,Win32,58.82352941,1.4568,,,66,0,66,0,1,,,,,,,,
,,"[""diamond"",""red"",""vert"",""up"",[-150,0],[106,106]]",diamond,red,vert,up,"[-150,0]","[106,106]",up,1,,,,,,001,2025-03-11_23h10.10.916,SL_sali,2021.2.3,Win32,58.82352941,1.7187,,,67,0,67,0,1,,,,,,,,
,,"[""diamond"",""green"",""hori"",""left"",[-106,-106],[0,-150]]",diamond,green,hori,left,"[-106,-106]","[0,-150]",up,0,,,,,,001,2025-03-11_23h10.10.916,SL_sali,2021.2.3,Win32,58.82352941,1.1184,,,68,0,68,0,1,,,,,,,,
,,"[""circle"",""red"",""vert"",""up"",[0,150],[150,0]]",circle,red,vert,up,"[0,150]","[150,0]",left,0,,,,,,001,2025-03-11_23h10.10.916,SL_sali,2021.2.3,Win32,58.82352941,1.5697,,,69,0,69,0,1,,,,,,,,
,,"[""diamond"",""red"",""vert"",""up"",[-106,106],[0,150]]",diamond,red,vert,up,"[-106,106]","[0,150]",up,1,,,,,,001,2025-03-11_23h10.10.916,SL_sali,2021.2.3,Win32,58.82352941,1.3994,,,70,0,70,0,1,,,,,,,,
,,"[""circle"",""red"",""hori"",""left"",[-150,0],[0,-150]]",circle,red,hori,left,"[-150,0]","[0,-150]",left,1,,,,,,001,2025-03-11_23h10.10.916,SL_sali,2021.2.3,Win32,58.82352941,1.1652,,,71,0,71,0,1,,,,,,,,
,,"[""diamond"",""red"",""vert"",""up"",[-150,0],[106,-106]]",diamond,red,vert,up,"[-150,0]","[106,-106]",up,1,,,,,,001,2025-03-11_23h10.10.916,SL_sali,2021.2.3,Win32,58.82352941,1.4327,,,72,0,72,0,1,,,,,,,,
,,"[""circle"",""no_dis"",""vert"",""up"",[99999,99999],[-150,0]]",circle,no_dis,vert,up,"[99999,99999]","[-150,0]",up,1,,,,,,001,2025-03-11_23h10.10.916,SL_sali,2021.2.3,Win32,58.82352941,2.9501,,,73,0,73,0,1,,,,,,,,
,,"[""circle"",""red"",""vert"",""up"",[-106,106],[106,-106]]",circle,red,vert,up,"[-106,106]","[106,-106]",up,1,,,,,,001,2025-03-11_23h10.10.916,SL_sali,2021.2.3,Win32,58.82352941,1.0244,,,74,0,74,0,1,,,,,,,,
,,"[""circle"",""green"",""hori"",""left"",[-150,0],[-106,-106]]",circle,green,hori,left,"[-150,0]","[-106,-106]",left,1,,,,,,001,2025-03-11_23h10.10.916,SL_sali,2021.2.3,Win32,58.82352941,1.3328,,,75,0,75,0,1,,,,,,,,
,,"[""circle"",""no_dis"",""vert"",""up"",[99999,99999],[106,106]]",circle,no_dis,vert,up,"[99999,99999]","[106,106]",up,1,,,,,,001,2025-03-11_23h10.10.916,SL_sali,2021.2.3,Win32,58.82352941,1.1183,,,76,0,76,0,1,,,,,,,,
,,"[""circle"",""no_dis"",""vert"",""up"",[99999,99999],[106,-106]]",circle,no_dis,vert,up,"[99999,99999]","[106,-106]",up,1,,,,,,001,2025-03-11_23h10.10.916,SL_sali,2021.2.3,Win32,58.82352941,1.2906,,,77,0,77,0,1,,,,,,,,
,,"[""diamond"",""red"",""hori"",""left"",[106,106],[-106,106]]",diamond,red,hori,left,"[106,106]","[-106,106]",left,1,,,,,,001,2025-03-11_23h10.10.916,SL_sali,2021.2.3,Win32,58.82352941,1.3573,,,78,0,78,0,1,,,,,,,,
,,"[""circle"",""red"",""hori"",""left"",[-106,106],[106,-106]]",circle,red,hori,left,"[-106,106]","[106,-106]",left,1,,,,,,001,2025-03-11_23h10.10.916,SL_sali,2021.2.3,Win32,58.82352941,1.555,,,79,0,79,0,1,,,,,,,,
,,"[""circle"",""green"",""vert"",""up"",[0,150],[-150,0]]",circle,green,vert,up,"[0,150]","[-150,0]",up,1,,,,,,001,2025-03-11_23h10.10.916,SL_sali,2021.2.3,Win32,58.82352941,2.1511,,,80,0,80,0,1,,,,,,,,
,,"[""diamond"",""no_dis"",""vert"",""up"",[99999,99999],[150,0]]",diamond,no_dis,vert,up,"[99999,99999]","[150,0]",up,1,,,,,,001,2025-03-11_23h10.10.916,SL_sali,2021.2.3,Win32,58.82352941,1.483,,,81,0,81,0,1,,,,,,,,
,,"[""circle"",""red"",""hori"",""left"",[150,0],[0,-150]]",circle,red,hori,left,"[150,0]","[0,-150]",left,1,,,,,,001,2025-03-11_23h10.10.916,SL_sali,2021.2.3,Win32,58.82352941,1.3158,,,82,0,82,0,1,,,,,,,,
,,"[""diamond"",""green"",""hori"",""left"",[-106,-106],[-106,106]]",diamond,green,hori,left,"[-106,-106]","[-106,106]",up,0,,,,,,001,2025-03-11_23h10.10.916,SL_sali,2021.2.3,Win32,58.82352941,1.3166,,,83,0,83,0,1,,,,,,,,
,,"[""circle"",""red"",""vert"",""up"",[0,-150],[106,106]]",circle,red,vert,up,"[0,-150]","[106,106]",up,1,,,,,,001,2025-03-11_23h10.10.916,SL_sali,2021.2.3,Win32,58.82352941,1.5824,,,84,0,84,0,1,,,,,,,,
,,"[""diamond"",""green"",""vert"",""up"",[-106,106],[-106,-106]]",diamond,green,vert,up,"[-106,106]","[-106,-106]",up,1,,,,,,001,2025-03-11_23h10.10.916,SL_sali,2021.2.3,Win32,58.82352941,2.0408,,,85,0,85,0,1,,,,,,,,
,,"[""diamond"",""no_dis"",""hori"",""left"",[99999,99999],[-106,-106]]",diamond,no_dis,hori,left,"[99999,99999]","[-106,-106]",up,0,,,,,,001,2025-03-11_23h10.10.916,SL_sali,2021.2.3,Win32,58.82352941,1.5323,,,86,0,86,0,1,,,,,,,,
,,"[""circle"",""green"",""vert"",""up"",[106,106],[-106,106]]",circle,green,vert,up,"[106,106]","[-106,106]",up,1,,,,,,001,2025-03-11_23h10.10.916,SL_sali,2021.2.3,Win32,58.82352941,1.2172,,,87,0,87,0,1,,,,,,,,
,,"[""diamond"",""no_dis"",""vert"",""up"",[99999,99999],[0,-150]]",diamond,no_dis,vert,up,"[99999,99999]","[0,-150]",up,1,,,,,,001,2025-03-11_23h10.10.916,SL_sali,2021.2.3,Win32,58.82352941,1.623,,,88,0,88,0,1,,,,,,,,
,,"[""diamond"",""no_dis"",""hori"",""left"",[99999,99999],[0,-150]]",diamond,no_dis,hori,left,"[99999,99999]","[0,-150]",up,0,,,,,,001,2025-03-11_23h10.10.916,SL_sali,2021.2.3,Win32,58.82352941,1.2313,,,89,0,89,0,1,,,,,,,,
,,"[""circle"",""green"",""hori"",""left"",[0,-150],[106,-106]]",circle,green,hori,left,"[0,-150]","[106,-106]",left,1,,,,,,001,2025-03-11_23h10.10.916,SL_sali,2021.2.3,Win32,58.82352941,1.6013,,,90,0,90,0,1,,,,,,,,
,,"[""circle"",""green"",""hori"",""left"",[106,106],[-106,106]]",circle,green,hori,left,"[106,106]","[-106,106]",left,1,,,,,,001,2025-03-11_23h10.10.916,SL_sali,2021.2.3,Win32,58.82352941,1.0883,,,91,0,91,0,1,,,,,,,,
,,"[""diamond"",""green"",""hori"",""left"",[-150,0],[-106,-106]]",diamond,green,hori,left,"[-150,0]","[-106,-106]",left,1,,,,,,001,2025-03-11_23h10.10.916,SL_sali,2021.2.3,Win32,58.82352941,1.3735,,,92,0,92,0,1,,,,,,,,
,,"[""diamond"",""green"",""hori"",""left"",[-150,0],[106,106]]",diamond,green,hori,left,"[-150,0]","[106,106]",left,1,,,,,,001,2025-03-11_23h10.10.916,SL_sali,2021.2.3,Win32,58.82352941,1.2674,,,93,0,93,0,1,,,,,,,,
,,"[""diamond"",""red"",""hori"",""left"",[-150,0],[0,150]]",diamond,red,hori,left,"[-150,0]","[0,150]",left,1,,,,,,001,2025-03-11_23h10.10.916,SL_sali,2021.2.3,Win32,58.82352941,1.2338,,,94,0,94,0,1,,,,,,,,
,,"[""circle"",""no_dis"",""vert"",""up"",[99999,99999],[106,106]]",circle,no_dis,vert,up,"[99999,99999]","[106,106]",up,1,,,,,,001,2025-03-11_23h10.10.916,SL_sali,2021.2.3,Win32,58.82352941,1.7576,,,95,0,95,0,1,,,,,,,,
,,"[""diamond"",""no_dis"",""vert"",""up"",[99999,99999],[0,-150]]",diamond,no_dis,vert,up,"[99999,99999]","[0,-150]",up,1,,,,,,001,2025-03-11_23h10.10.916,SL_sali,2021.2.3,Win32,58.82352941,1.4845,,,96,0,96,0,1,,,,,,,,
,,"[""circle"",""red"",""vert"",""up"",[106,-106],[150,0]]",circle,red,vert,up,"[106,-106]","[150,0]",left,0,,,,,,001,2025-03-11_23h10.10.916,SL_sali,2021.2.3,Win32,58.82352941,1.1672,,,97,0,97,0,1,,,,,,,,
,,"[""diamond"",""red"",""hori"",""left"",[0,150],[-106,-106]]",diamond,red,hori,left,"[0,150]","[-106,-106]",left,1,,,,,,001,2025-03-11_23h10.10.916,SL_sali,2021.2.3,Win32,58.82352941,1.8325,,,98,0,98,0,1,,,,,,,,
,,"[""circle"",""no_dis"",""vert"",""up"",[99999,99999],[-150,0]]",circle,no_dis,vert,up,"[99999,99999]","[-150,0]",up,1,,,,,,001,2025-03-11_23h10.10.916,SL_sali,2021.2.3,Win32,58.82352941,1.1859,,,99,0,99,0,1,,,,,,,,
,,"[""circle"",""green"",""hori"",""left"",[-150,0],[-106,106]]",circle,green,hori,left,"[-150,0]","[-106,106]",left,1,,,,,,001,2025-03-11_23h10.10.916,SL_sali,2021.2.3,Win32,58.82352941,1.6051,,,100,0,100,0,1,,,,,,,,
,,"[""diamond"",""green"",""hori"",""left"",[106,106],[-106,-106]]",diamond,green,hori,left,"[106,106]","[-106,-106]",left,1,,,,,,001,2025-03-11_23h10.10.916,SL_sali,2021.2.3,Win32,58.82352941,1.4675,,,101,0,101,0,1,,,,,,,,
,,"[""diamond"",""red"",""hori"",""left"",[0,-150],[106,106]]",diamond,red,hori,left,"[0,-150]","[106,106]",left,1,,,,,,001,2025-03-11_23h10.10.916,SL_sali,2021.2.3,Win32,58.82352941,1.2029,,,102,0,102,0,1,,,,,,,,
,,"[""diamond"",""red"",""hori"",""left"",[-106,-106],[106,106]]",diamond,red,hori,left,"[-106,-106]","[106,106]",left,1,,,,,,001,2025-03-11_23h10.10.916,SL_sali,2021.2.3,Win32,58.82352941,1.1921,,,103,0,103,0,1,,,,,,,,
,,"[""circle"",""no_dis"",""vert"",""up"",[99999,99999],[106,-106]]",circle,no_dis,vert,up,"[99999,99999]","[106,-106]",up,1,,,,,,001,2025-03-11_23h10.10.916,SL_sali,2021.2.3,Win32,58.82352941,1.5506,,,104,0,104,0,1,,,,,,,,
,,"[""circle"",""green"",""vert"",""up"",[-106,-106],[106,-106]]",circle,green,vert,up,"[-106,-106]","[106,-106]",up,1,,,,,,001,2025-03-11_23h10.10.916,SL_sali,2021.2.3,Win32,58.82352941,1.1346,,,105,0,105,0,1,,,,,,,,
,,"[""circle"",""no_dis"",""vert"",""up"",[99999,99999],[0,150]]",circle,no_dis,vert,up,"[99999,99999]","[0,150]",up,1,,,,,,001,2025-03-11_23h10.10.916,SL_sali,2021.2.3,Win32,58.82352941,1.2502,,,106,0,106,0,1,,,,,,,,
,,"[""circle"",""no_dis"",""hori"",""left"",[99999,99999],[150,0]]",circle,no_dis,hori,left,"[99999,99999]","[150,0]",left,1,,,,,,001,2025-03-11_23h10.10.916,SL_sali,2021.2.3,Win32,58.82352941,0.9902,,,107,0,107,0,1,,,,,,,,
,,"[""circle"",""red"",""hori"",""left"",[0,150],[-150,0]]",circle,red,hori,left,"[0,150]","[-150,0]",up,0,,,,,,001,2025-03-11_23h10.10.916,SL_sali,2021.2.3,Win32,58.82352941,1.0772,,,108,0,108,0,1,,,,,,,,
,,"[""diamond"",""no_dis"",""hori"",""left"",[99999,99999],[-106,106]]",diamond,no_dis,hori,left,"[99999,99999]","[-106,106]",left,1,,,,,,001,2025-03-11_23h10.10.916,SL_sali,2021.2.3,Win32,58.82352941,2.3691,,,109,0,109,0,1,,,,,,,,
,,"[""circle"",""red"",""vert"",""up"",[106,106],[-106,-106]]",circle,red,vert,up,"[106,106]","[-106,-106]",up,1,,,,,,001,2025-03-11_23h10.10.916,SL_sali,2021.2.3,Win32,58.82352941,1.4326,,,110,0,110,0,1,,,,,,,,
,,"[""circle"",""no_dis"",""hori"",""left"",[99999,99999],[106,106]]",circle,no_dis,hori,left,"[99999,99999]","[106,106]",left,1,,,,,,001,2025-03-11_23h10.10.916,SL_sali,2021.2.3,Win32,58.82352941,2.0038,,,111,0,111,0,1,,,,,,,,
,,"[""diamond"",""red"",""hori"",""left"",[150,0],[-106,106]]",diamond,red,hori,left,"[150,0]","[-106,106]",up,0,,,,,,001,2025-03-11_23h10.10.916,SL_sali,2021.2.3,Win32,58.82352941,1.3816,,,112,0,112,0,1,,,,,,,,
,,"[""diamond"",""green"",""hori"",""left"",[-106,-106],[0,-150]]",diamond,green,hori,left,"[-106,-106]","[0,-150]",left,1,,,,,,001,2025-03-11_23h10.10.916,SL_sali,2021.2.3,Win32,58.82352941,1.0983,,,113,0,113,0,1,,,,,,,,
,,"[""circle"",""green"",""vert"",""up"",[-150,0],[-106,-106]]",circle,green,vert,up,"[-150,0]","[-106,-106]",,0,,,,,,001,2025-03-11_23h10.10.916,SL_sali,2021.2.3,Win32,58.82352941,,,,114,0,114,0,1,,,,,,,,
,,"[""diamond"",""no_dis"",""hori"",""left"",[99999,99999],[-106,-106]]",diamond,no_dis,hori,left,"[99999,99999]","[-106,-106]",left,1,,,,,,001,2025-03-11_23h10.10.916,SL_sali,2021.2.3,Win32,58.82352941,1.4509,,,115,0,115,0,1,,,,,,,,
,,"[""diamond"",""no_dis"",""vert"",""up"",[99999,99999],[-106,106]]",diamond,no_dis,vert,up,"[99999,99999]","[-106,106]",up,1,,,,,,001,2025-03-11_23h10.10.916,SL_sali,2021.2.3,Win32,58.82352941,0.9187,,,116,0,116,0,1,,,,,,,,
,,"[""circle"",""green"",""hori"",""left"",[106,-106],[150,0]]",circle,green,hori,left,"[106,-106]","[150,0]",left,1,,,,,,001,2025-03-11_23h10.10.916,SL_sali,2021.2.3,Win32,58.82352941,1.2156,,,117,0,117,0,1,,,,,,,,
,,"[""circle"",""no_dis"",""vert"",""up"",[99999,99999],[0,150]]",circle,no_dis,vert,up,"[99999,99999]","[0,150]",up,1,,,,,,001,2025-03-11_23h10.10.916,SL_sali,2021.2.3,Win32,58.82352941,1.551,,,118,0,118,0,1,,,,,,,,
,,"[""circle"",""green"",""hori"",""left"",[106,106],[106,-106]]",circle,green,hori,left,"[106,106]","[106,-106]",left,1,,,,,,001,2025-03-11_23h10.10.916,SL_sali,2021.2.3,Win32,58.82352941,1.1475,,,119,0,119,0,1,,,,,,,,
,,,,,,,,,,,,,,,,001,2025-03-11_23h10.10.916,SL_sali,2021.2.3,Win32,58.82352941,,,,,,,,,2,space,4.2685,1,0,1,0,1
,,"[""diamond"",""red"",""hori"",""left"",[106,106],[-106,106]]",diamond,red,hori,left,"[106,106]","[-106,106]",left,1,,,,,,001,2025-03-11_23h10.10.916,SL_sali,2021.2.3,Win32,58.82352941,1.4523,,,0,0,0,0,1,,,,,,,,
,,"[""circle"",""no_dis"",""vert"",""up"",[99999,99999],[106,106]]",circle,no_dis,vert,up,"[99999,99999]","[106,106]",up,1,,,,,,001,2025-03-11_23h10.10.916,SL_sali,2021.2.3,Win32,58.82352941,1.0542,,,1,0,1,0,1,,,,,,,,
,,"[""diamond"",""red"",""hori"",""left"",[0,150],[-106,-106]]",diamond,red,hori,left,"[0,150]","[-106,-106]",left,1,,,,,,001,2025-03-11_23h10.10.916,SL_sali,2021.2.3,Win32,58.82352941,1.1586,,,2,0,2,0,1,,,,,,,,
,,"[""diamond"",""green"",""vert"",""up"",[-106,106],[150,0]]",diamond,green,vert,up,"[-106,106]","[150,0]",up,1,,,,,,001,2025-03-11_23h10.10.916,SL_sali,2021.2.3,Win32,58.82352941,1.1674,,,3,0,3,0,1,,,,,,,,
,,"[""circle"",""green"",""vert"",""up"",[-150,0],[0,150]]",circle,green,vert,up,"[-150,0]","[0,150]",up,1,,,,,,001,2025-03-11_23h10.10.916,SL_sali,2021.2.3,Win32,58.82352941,1.3846,,,4,0,4,0,1,,,,,,,,
,,"[""diamond"",""green"",""vert"",""up"",[106,-106],[-106,106]]",diamond,green,vert,up,"[106,-106]","[-106,106]",up,1,,,,,,001,2025-03-11_23h10.10.916,SL_sali,2021.2.3,Win32,58.82352941,1.1172,,,5,0,5,0,1,,,,,,,,
,,"[""diamond"",""red"",""hori"",""left"",[0,-150],[0,150]]",diamond,red,hori,left,"[0,-150]","[0,150]",left,1,,,,,,001,2025-03-11_23h10.10.916,SL_sali,2021.2.3,Win32,58.82352941,1.2594,,,6,0,6,0,1,,,,,,,,
,,"[""circle"",""red"",""vert"",""up"",[0,-150],[106,106]]",circle,red,vert,up,"[0,-150]","[106,106]",up,1,,,,,,001,2025-03-11_23h10.10.916,SL_sali,2021.2.3,Win32,58.82352941,1.0673,,,7,0,7,0,1,,,,,,,,
,,"[""circle"",""green"",""hori"",""left"",[-150,0],[150,0]]",circle,green,hori,left,"[-150,0]","[150,0]",left,1,,,,,,001,2025-03-11_23h10.10.916,SL_sali,2021.2.3,Win32,58.82352941,0.9005,,,8,0,8,0,1,,,,,,,,
,,"[""circle"",""green"",""vert"",""up"",[0,150],[-106,-106]]",circle,green,vert,up,"[0,150]","[-106,-106]",up,1,,,,,,001,2025-03-11_23h10.10.916,SL_sali,2021.2.3,Win32,58.82352941,1.0987,,,9,0,9,0,1,,,,,,,,
,,"[""circle"",""no_dis"",""hori"",""left"",[99999,99999],[150,0]]",circle,no_dis,hori,left,"[99999,99999]","[150,0]",left,1,,,,,,001,2025-03-11_23h10.10.916,SL_sali,2021.2.3,Win32,58.82352941,0.8698,,,10,0,10,0,1,,,,,,,,
,,"[""diamond"",""red"",""hori"",""left"",[0,-150],[106,106]]",diamond,red,hori,left,"[0,-150]","[106,106]",up,0,,,,,,001,2025-03-11_23h10.10.916,SL_sali,2021.2.3,Win32,58.82352941,1.0834,,,11,0,11,0,1,,,,,,,,
,,"[""circle"",""no_dis"",""vert"",""up"",[99999,99999],[0,150]]",circle,no_dis,vert,up,"[99999,99999]","[0,150]",up,1,,,,,,001,2025-03-11_23h10.10.916,SL_sali,2021.2.3,Win32,58.82352941,1.8493,,,12,0,12,0,1,,,,,,,,
,,"[""diamond"",""no_dis"",""vert"",""up"",[99999,99999],[-106,106]]",diamond,no_dis,vert,up,"[99999,99999]","[-106,106]",up,1,,,,,,001,2025-03-11_23h10.10.916,SL_sali,2021.2.3,Win32,58.82352941,2.2246,,,13,0,13,0,1,,,,,,,,
,,"[""diamond"",""red"",""vert"",""up"",[-150,0],[106,-106]]",diamond,red,vert,up,"[-150,0]","[106,-106]",up,1,,,,,,001,2025-03-11_23h10.10.916,SL_sali,2021.2.3,Win32,58.82352941,1.5482,,,14,0,14,0,1,,,,,,,,
,,"[""circle"",""red"",""hori"",""left"",[150,0],[-106,106]]",circle,red,hori,left,"[150,0]","[-106,106]",left,1,,,,,,001,2025-03-11_23h10.10.916,SL_sali,2021.2.3,Win32,58.82352941,1.2168,,,15,0,15,0,1,,,,,,,,
,,"[""diamond"",""green"",""hori"",""left"",[106,106],[-106,-106]]",diamond,green,hori,left,"[106,106]","[-106,-106]",up,0,,,,,,001,2025-03-11_23h10.10.916,SL_sali,2021.2.3,Win32,58.82352941,1.6315,,,16,0,16,0,1,,,,,,,,
,,"[""diamond"",""no_dis"",""vert"",""up"",[99999,99999],[106,-106]]",diamond,no_dis,vert,up,"[99999,99999]","[106,-106]",up,1,,,,,,001,2025-03-11_23h10.10.916,SL_sali,2021.2.3,Win32,58.82352941,1.5997,,,17,0,17,0,1,,,,,,,,
,,"[""diamond"",""green"",""hori"",""left"",[-150,0],[-106,-106]]",diamond,green,hori,left,"[-150,0]","[-106,-106]",left,1,,,,,,001,2025-03-11_23h10.10.916,SL_sali,2021.2.3,Win32,58.82352941,2.0397,,,18,0,18,0,1,,,,,,,,
,,"[""diamond"",""no_dis"",""hori"",""left"",[99999,99999],[-106,-106]]",diamond,no_dis,hori,left,"[99999,99999]","[-106,-106]",left,1,,,,,,001,2025-03-11_23h10.10.916,SL_sali,2021.2.3,Win32,58.82352941,1.1511,,,19,0,19,0,1,,,,,,,,
,,"[""diamond"",""red"",""vert"",""up"",[-150,0],[106,-106]]",diamond,red,vert,up,"[-150,0]","[106,-106]",up,1,,,,,,001,2025-03-11_23h10.10.916,SL_sali,2021.2.3,Win32,58.82352941,0.9544,,,20,0,20,0,1,,,,,,,,
,,"[""diamond"",""no_dis"",""hori"",""left"",[99999,99999],[0,-150]]",diamond,no_dis,hori,left,"[99999,99999]","[0,-150]",left,1,,,,,,001,2025-03-11_23h10.10.916,SL_sali,2021.2.3,Win32,58.82352941,0.9701,,,21,0,21,0,1,,,,,,,,
,,"[""diamond"",""green"",""vert"",""up"",[106,106],[106,-106]]",diamond,green,vert,up,"[106,106]","[106,-106]",up,1,,,,,,001,2025-03-11_23h10.10.916,SL_sali,2021.2.3,Win32,58.82352941,1.5191,,,22,0,22,0,1,,,,,,,,
,,"[""circle"",""green"",""vert"",""up"",[-106,106],[0,-150]]",circle,green,vert,up,"[-106,106]","[0,-150]",up,1,,,,,,001,2025-03-11_23h10.10.916,SL_sali,2021.2.3,Win32,58.82352941,1.7506,,,23,0,23,0,1,,,,,,,,
,,"[""circle"",""green"",""hori"",""left"",[106,106],[106,-106]]",circle,green,hori,left,"[106,106]","[106,-106]",left,1,,,,,,001,2025-03-11_23h10.10.916,SL_sali,2021.2.3,Win32,58.82352941,1.5008,,,24,0,24,0,1,,,,,,,,
,,"[""circle"",""green"",""hori"",""left"",[106,-106],[150,0]]",circle,green,hori,left,"[106,-106]","[150,0]",left,1,,,,,,001,2025-03-11_23h10.10.916,SL_sali,2021.2.3,Win32,58.82352941,0.9213,,,25,0,25,0,1,,,,,,,,
,,"[""diamond"",""red"",""hori"",""left"",[-150,0],[0,150]]",diamond,red,hori,left,"[-150,0]","[0,150]",left,1,,,,,,001,2025-03-11_23h10.10.916,SL_sali,2021.2.3,Win32,58.82352941,1.066,,,26,0,26,0,1,,,,,,,,
,,"[""diamond"",""no_dis"",""hori"",""left"",[99999,99999],[0,150]]",diamond,no_dis,hori,left,"[99999,99999]","[0,150]",left,1,,,,,,001,2025-03-11_23h10.10.916,SL_sali,2021.2.3,Win32,58.82352941,0.8333,,,27,0,27,0,1,,,,,,,,
,,"[""diamond"",""green"",""vert"",""up"",[106,-106],[-150,0]]",diamond,green,vert,up,"[106,-106]","[-150,0]",up,1,,,,,,001,2025-03-11_23h10.10.916,SL_sali,2021.2.3,Win32,58.82352941,1.4515,,,28,0,28,0,1,,,,,,,,
,,"[""circle"",""red"",""vert"",""up"",[106,-106],[150,0]]",circle,red,vert,up,"[106,-106]","[150,0]",up,1,,,,,,001,2025-03-11_23h10.10.916,SL_sali,2021.2.3,Win32,58.82352941,1.1497,,,29,0,29,0,1,,,,,,,,
,,"[""diamond"",""no_dis"",""hori"",""left"",[99999,99999],[-106,-106]]",diamond,no_dis,hori,left,"[99999,99999]","[-106,-106]",left,1,,,,,,001,2025-03-11_23h10.10.916,SL_sali,2021.2.3,Win32,58.82352941,1.2586,,,30,0,30,0,1,,,,,,,,
,,"[""diamond"",""red"",""vert"",""up"",[-150,0],[0,150]]",diamond,red,vert,up,"[-150,0]","[0,150]",up,1,,,,,,001,2025-03-11_23h10.10.916,SL_sali,2021.2.3,Win32,58.82352941,1.7548,,,31,0,31,0,1,,,,,,,,
,,"[""diamond"",""no_dis"",""vert"",""up"",[99999,99999],[150,0]]",diamond,no_dis,vert,up,"[99999,99999]","[150,0]",up,1,,,,,,001,2025-03-11_23h10.10.916,SL_sali,2021.2.3,Win32,58.82352941,1.3551,,,32,0,32,0,1,,,,,,,,
,,"[""circle"",""green"",""vert"",""up"",[-106,-106],[106,-106]]",circle,green,vert,up,"[-106,-106]","[106,-106]",up,1,,,,,,001,2025-03-11_23h10.10.916,SL_sali,2021.2.3,Win32,58.82352941,2.09,,,33,0,33,0,1,,,,,,,,
,,"[""diamond"",""no_dis"",""hori"",""left"",[99999,99999],[-106,-106]]",diamond,no_dis,hori,left,"[99999,99999]","[-106,-106]",left,1,,,,,,001,2025-03-11_23h10.10.916,SL_sali,2021.2.3,Win32,58.82352941,1.3843,,,34,0,34,0,1,,,,,,,,
,,"[""diamond"",""red"",""hori"",""left"",[-106,-106],[106,106]]",diamond,red,hori,left,"[-106,-106]","[106,106]",left,1,,,,,,001,2025-03-11_23h10.10.916,SL_sali,2021.2.3,Win32,58.82352941,1.8491,,,35,0,35,0,1,,,,,,,,
,,"[""circle"",""red"",""hori"",""left"",[150,0],[106,-106]]",circle,red,hori,left,"[150,0]","[106,-106]",left,1,,,,,,001,2025-03-11_23h10.10.916,SL_sali,2021.2.3,Win32,58.82352941,1.3366,,,36,0,36,0,1,,,,,,,,
,,"[""circle"",""no_dis"",""vert"",""up"",[99999,99999],[106,-106]]",circle,no_dis,vert,up,"[99999,99999]","[106,-106]",up,1,,,,,,001,2025-03-11_23h10.10.916,SL_sali,2021.2.3,Win32,58.82352941,1.6317,,,37,0,37,0,1,,,,,,,,
,,"[""diamond"",""no_dis"",""vert"",""up"",[99999,99999],[0,-150]]",diamond,no_dis,vert,up,"[99999,99999]","[0,-150]",left,0,,,,,,001,2025-03-11_23h10.10.916,SL_sali,2021.2.3,Win32,58.82352941,1.3713,,,38,0,38,0,1,,,,,,,,
,,"[""diamond"",""green"",""vert"",""up"",[106,-106],[0,150]]",diamond,green,vert,up,"[106,-106]","[0,150]",up,1,,,,,,001,2025-03-11_23h10.10.916,SL_sali,2021.2.3,Win32,58.82352941,1.4176,,,39,0,39,0,1,,,,,,,,
,,"[""circle"",""green"",""hori"",""left"",[-106,-106],[106,106]]",circle,green,hori,left,"[-106,-106]","[106,106]",left,1,,,,,,001,2025-03-11_23h10.10.916,SL_sali,2021.2.3,Win32,58.82352941,0.9073,,,40,0,40,0,1,,,,,,,,
,,"[""circle"",""no_dis"",""hori"",""left"",[99999,99999],[150,0]]",circle,no_dis,hori,left,"[99999,99999]","[150,0]",left,1,,,,,,001,2025-03-11_23h10.10.916,SL_sali,2021.2.3,Win32,58.82352941,0.9252,,,41,0,41,0,1,,,,,,,,
,,"[""diamond"",""red"",""hori"",""left"",[150,0],[-106,106]]",diamond,red,hori,left,"[150,0]","[-106,106]",left,1,,,,,,001,2025-03-11_23h10.10.916,SL_sali,2021.2.3,Win32,58.82352941,1.8225,,,42,0,42,0,1,,,,,,,,
,,"[""diamond"",""green"",""vert"",""up"",[-150,0],[150,0]]",diamond,green,vert,up,"[-150,0]","[150,0]",up,1,,,,,,001,2025-03-11_23h10.10.916,SL_sali,2021.2.3,Win32,58.82352941,1.4002,,,43,0,43,0,1,,,,,,,,
,,"[""circle"",""red"",""hori"",""left"",[-150,0],[-106,106]]",circle,red,hori,left,"[-150,0]","[-106,106]",up,0,,,,,,001,2025-03-11_23h10.10.916,SL_sali,2021.2.3,Win32,58.82352941,1.4891,,,44,0,44,0,1,,,,,,,,
,,"[""circle"",""red"",""vert"",""up"",[-150,0],[-106,106]]",circle,red,vert,up,"[-150,0]","[-106,106]",up,1,,,,,,001,2025-03-11_23h10.10.916,SL_sali,2021.2.3,Win32,58.82352941,1.4706,,,45,0,45,0,1,,,,,,,,
,,"[""diamond"",""red"",""vert"",""up"",[0,150],[-106,106]]",diamond,red,vert,up,"[0,150]","[-106,106]",up,1,,,,,,001,2025-03-11_23h10.10.916,SL_sali,2021.2.3,Win32,58.82352941,2.6512,,,46,0,46,0,1,,,,,,,,
,,"[""circle"",""red"",""hori"",""left"",[-106,106],[150,0]]",circle,red,hori,left,"[-106,106]","[150,0]",left,1,,,,,,001,2025-03-11_23h10.10.916,SL_sali,2021.2.3,Win32,58.82352941,1.5195,,,47,0,47,0,1,,,,,,,,
,,"[""circle"",""no_dis"",""hori"",""left"",[99999,99999],[106,106]]",circle,no_dis,hori,left,"[99999,99999]","[106,106]",left,1,,,,,,001,2025-03-11_23h10.10.916,SL_sali,2021.2.3,Win32,58.82352941,2.5676,,,48,0,48,0,1,,,,,,,,
,,"[""diamond"",""no_dis"",""hori"",""left"",[99999,99999],[106,-106]]",diamond,no_dis,hori,left,"[99999,99999]","[106,-106]",left,1,,,,,,001,2025-03-11_23h10.10.916,SL_sali,2021.2.3,Win32,58.82352941,1.5704,,,49,0,49,0,1,,,,,,,,
,,"[""diamond"",""no_dis"",""vert"",""up"",[99999,99999],[0,-150]]",diamond,no_dis,vert,up,"[99999,99999]","[0,-150]",up,1,,,,,,001,2025-03-11_23h10.10.916,SL_sali,2021.2.3,Win32,58.82352941,0.8549,,,50,0,50,0,1,,,,,,,,
,,"[""diamond"",""green"",""hori"",""left"",[-106,-106],[0,-150]]",diamond,green,hori,left,"[-106,-106]","[0,-150]",left,1,,,,,,001,2025-03-11_23h10.10.916,SL_sali,2021.2.3,Win32,58.82352941,1.4191,,,51,0,51,0,1,,,,,,,,
,,"[""circle"",""red"",""hori"",""left"",[-150,0],[0,-150]]",circle,red,hori,left,"[-150,0]","[0,-150]",left,1,,,,,,001,2025-03-11_23h10.10.916,SL_sali,2021.2.3,Win32,58.82352941,1.1158,,,52,0,52,0,1,,,,,,,,
,,"[""circle"",""red"",""vert"",""up"",[-106,106],[106,-106]]",circle,red,vert,up,"[-106,106]","[106,-106]",up,1,,,,,,001,2025-03-11_23h10.10.916,SL_sali,2021.2.3,Win32,58.82352941,1.423,,,53,0,53,0,1,,,,,,,,
,,"[""circle"",""green"",""hori"",""left"",[-150,0],[-106,-106]]",circle,green,hori,left,"[-150,0]","[-106,-106]",left,1,,,,,,001,2025-03-11_23h10.10.916,SL_sali,2021.2.3,Win32,58.82352941,2.0182,,,54,0,54,0,1,,,,,,,,
,,"[""diamond"",""no_dis"",""hori"",""left"",[99999,99999],[0,150]]",diamond,no_dis,hori,left,"[99999,99999]","[0,150]",left,1,,,,,,001,2025-03-11_23h10.10.916,SL_sali,2021.2.3,Win32,58.82352941,1.4213,,,55,0,55,0,1,,,,,,,,
,,"[""diamond"",""green"",""hori"",""left"",[150,0],[106,106]]",diamond,green,hori,left,"[150,0]","[106,106]",left,1,,,,,,001,2025-03-11_23h10.10.916,SL_sali,2021.2.3,Win32,58.82352941,2.2354,,,56,0,56,0,1,,,,,,,,
,,"[""circle"",""no_dis"",""vert"",""up"",[99999,99999],[0,150]]",circle,no_dis,vert,up,"[99999,99999]","[0,150]",left,0,,,,,,001,2025-03-11_23h10.10.916,SL_sali,2021.2.3,Win32,58.82352941,1.617,,,57,0,57,0,1,,,,,,,,
,,"[""diamond"",""green"",""vert"",""up"",[0,150],[106,-106]]",diamond,green,vert,up,"[0,150]","[106,-106]",up,1,,,,,,001,2025-03-11_23h10.10.916,SL_sali,2021.2.3,Win32,58.82352941,1.5512,,,58,0,58,0,1,,,,,,,,
,,"[""diamond"",""no_dis"",""hori"",""left"",[99999,99999],[-106,106]]",diamond,no_dis,hori,left,"[99999,99999]","[-106,106]",left,1,,,,,,001,2025-03-11_23h10.10.916,SL_sali,2021.2.3,Win32,58.82352941,1.3823,,,59,0,59,0,1,,,,,,,,
,,"[""circle"",""red"",""hori"",""left"",[-150,0],[0,150]]",circle,red,hori,left,"[-150,0]","[0,150]",left,1,,,,,,001,2025-03-11_23h10.10.916,SL_sali,2021.2.3,Win32,58.82352941,1.7837,,,60,0,60,0,1,,,,,,,,
,,"[""circle"",""no_dis"",""hori"",""left"",[99999,99999],[150,0]]",circle,no_dis,hori,left,"[99999,99999]","[150,0]",left,1,,,,,,001,2025-03-11_23h10.10.916,SL_sali,2021.2.3,Win32,58.82352941,1.2346,,,61,0,61,0,1,,,,,,,,
,,"[""diamond"",""no_dis"",""hori"",""left"",[99999,99999],[150,0]]",diamond,no_dis,hori,left,"[99999,99999]","[150,0]",left,1,,,,,,001,2025-03-11_23h10.10.916,SL_sali,2021.2.3,Win32,58.82352941,1.5191,,,62,0,62,0,1,,,,,,,,
,,"[""diamond"",""green"",""hori"",""left"",[-106,-106],[-106,106]]",diamond,green,hori,left,"[-106,-106]","[-106,106]",left,1,,,,,,001,2025-03-11_23h10.10.916,SL_sali,2021.2.3,Win32,58.82352941,1.1838,,,63,0,63,0,1,,,,,,,,
,,"[""diamond"",""green"",""hori"",""left"",[-150,0],[106,106]]",diamond,green,hori,left,"[-150,0]","[106,106]",left,1,,,,,,001,2025-03-11_23h10.10.916,SL_sali,2021.2.3,Win32,58.82352941,1.0363,,,64,0,64,0,1,,,,,,,,
,,"[""circle"",""green"",""vert"",""up"",[-150,0],[0,-150]]",circle,green,vert,up,"[-150,0]","[0,-150]",up,1,,,,,,001,2025-03-11_23h10.10.916,SL_sali,2021.2.3,Win32,58.82352941,1.3661,,,65,0,65,0,1,,,,,,,,
,,"[""circle"",""no_dis"",""vert"",""up"",[99999,99999],[0,-150]]",circle,no_dis,vert,up,"[99999,99999]","[0,-150]",up,1,,,,,,001,2025-03-11_23h10.10.916,SL_sali,2021.2.3,Win32,58.82352941,0.7401,,,66,0,66,0,1,,,,,,,,
,,"[""circle"",""red"",""hori"",""left"",[-106,106],[106,-106]]",circle,red,hori,left,"[-106,106]","[106,-106]",left,1,,,,,,001,2025-03-11_23h10.10.916,SL_sali,2021.2.3,Win32,58.82352941,1.3664,,,67,0,67,0,1,,,,,,,,
,,"[""circle"",""no_dis"",""hori"",""left"",[99999,99999],[0,150]]",circle,no_dis,hori,left,"[99999,99999]","[0,150]",left,1,,,,,,001,2025-03-11_23h10.10.916,SL_sali,2021.2.3,Win32,58.82352941,1.6677,,,68,0,68,0,1,,,,,,,,
,,"[""circle"",""red"",""vert"",""up"",[0,-150],[150,0]]",circle,red,vert,up,"[0,-150]","[150,0]",up,1,,,,,,001,2025-03-11_23h10.10.916,SL_sali,2021.2.3,Win32,58.82352941,1.2341,,,69,0,69,0,1,,,,,,,,
,,"[""circle"",""red"",""hori"",""left"",[150,0],[0,-150]]",circle,red,hori,left,"[150,0]","[0,-150]",left,1,,,,,,001,2025-03-11_23h10.10.916,SL_sali,2021.2.3,Win32,58.82352941,1.1229,,,70,0,70,0,1,,,,,,,,
,,"[""diamond"",""green"",""vert"",""up"",[150,0],[-150,0]]",diamond,green,vert,up,"[150,0]","[-150,0]",up,1,,,,,,001,2025-03-11_23h10.10.916,SL_sali,2021.2.3,Win32,58.82352941,1.1758,,,71,0,71,0,1,,,,,,,,
,,"[""circle"",""red"",""vert"",""up"",[-106,106],[106,106]]",circle,red,vert,up,"[-106,106]","[106,106]",up,1,,,,,,001,2025-03-11_23h10.10.916,SL_sali,2021.2.3,Win32,58.82352941,1.0995,,,72,0,72,0,1,,,,,,,,
,,"[""diamond"",""no_dis"",""vert"",""up"",[99999,99999],[-150,0]]",diamond,no_dis,vert,up,"[99999,99999]","[-150,0]",up,1,,,,,,001,2025-03-11_23h10.10.916,SL_sali,2021.2.3,Win32,58.82352941,0.9252,,,73,0,73,0,1,,,,,,,,
,,"[""diamond"",""no_dis"",""vert"",""up"",[99999,99999],[-150,0]]",diamond,no_dis,vert,up,"[99999,99999]","[-150,0]",up,1,,,,,,001,2025-03-11_23h10.10.916,SL_sali,2021.2.3,Win32,58.82352941,0.7507,,,74,0,74,0,1,,,,,,,,
,,"[""circle"",""no_dis"",""vert"",""up"",[99999,99999],[-150,0]]",circle,no_dis,vert,up,"[99999,99999]","[-150,0]",left,0,,,,,,001,2025-03-11_23h10.10.916,SL_sali,2021.2.3,Win32,58.82352941,1.5745,,,75,0,75,0,1,,,,,,,,
,,"[""diamond"",""no_dis"",""hori"",""left"",[99999,99999],[-106,106]]",diamond,no_dis,hori,left,"[99999,99999]","[-106,106]",up,0,,,,,,001,2025-03-11_23h10.10.916,SL_sali,2021.2.3,Win32,58.82352941,1.2538,,,76,0,76,0,1,,,,,,,,
,,"[""diamond"",""red"",""vert"",""up"",[-150,0],[-106,106]]",diamond,red,vert,up,"[-150,0]","[-106,106]",up,1,,,,,,001,2025-03-11_23h10.10.916,SL_sali,2021.2.3,Win32,58.82352941,1.6755,,,77,0,77,0,1,,,,,,,,
,,"[""diamond"",""green"",""vert"",""up"",[-150,0],[-106,-106]]",diamond,green,vert,up,"[-150,0]","[-106,-106]",up,1,,,,,,001,2025-03-11_23h10.10.916,SL_sali,2021.2.3,Win32,58.82352941,1.2503,,,78,0,78,0,1,,,,,,,,
,,"[""diamond"",""no_dis"",""vert"",""up"",[99999,99999],[-106,-106]]",diamond,no_dis,vert,up,"[99999,99999]","[-106,-106]",up,1,,,,,,001,2025-03-11_23h10.10.916,SL_sali,2021.2.3,Win32,58.82352941,1,,,79,0,79,0,1,,,,,,,,
,,"[""circle"",""no_dis"",""vert"",""up"",[99999,99999],[-150,0]]",circle,no_dis,vert,up,"[99999,99999]","[-150,0]",up,1,,,,,,001,2025-03-11_23h10.10.916,SL_sali,2021.2.3,Win32,58.82352941,1.5524,,,80,0,80,0,1,,,,,,,,
,,"[""circle"",""red"",""vert"",""up"",[0,-150],[106,-106]]",circle,red,vert,up,"[0,-150]","[106,-106]",up,1,,,,,,001,2025-03-11_23h10.10.916,SL_sali,2021.2.3,Win32,58.82352941,1.3487,,,81,0,81,0,1,,,,,,,,
,,"[""circle"",""red"",""hori"",""left"",[0,150],[-150,0]]",circle,red,hori,left,"[0,150]","[-150,0]",left,1,,,,,,001,2025-03-11_23h10.10.916,SL_sali,2021.2.3,Win32,58.82352941,1.4338,,,82,0,82,0,1,,,,,,,,
,,"[""diamond"",""red"",""hori"",""left"",[150,0],[0,-150]]",diamond,red,hori,left,"[150,0]","[0,-150]",left,1,,,,,,001,2025-03-11_23h10.10.916,SL_sali,2021.2.3,Win32,58.82352941,1.9673,,,83,0,83,0,1,,,,,,,,
,,"[""circle"",""no_dis"",""hori"",""left"",[99999,99999],[106,-106]]",circle,no_dis,hori,left,"[99999,99999]","[106,-106]",left,1,,,,,,001,2025-03-11_23h10.10.916,SL_sali,2021.2.3,Win32,58.82352941,1.9005,,,84,0,84,0,1,,,,,,,,
,,"[""diamond"",""no_dis"",""vert"",""up"",[99999,99999],[-150,0]]",diamond,no_dis,vert,up,"[99999,99999]","[-150,0]",up,1,,,,,,001,2025-03-11_23h10.10.916,SL_sali,2021.2.3,Win32,58.82352941,1.3532,,,85,0,85,0,1,,,,,,,,
,,"[""circle"",""green"",""hori"",""left"",[106,106],[-106,106]]",circle,green,hori,left,"[106,106]","[-106,106]",left,1,,,,,,001,2025-03-11_23h10.10.916,SL_sali,2021.2.3,Win32,58.82352941,1.2676,,,86,0,86,0,1,,,,,,,,
,,"[""circle"",""red"",""hori"",""left"",[0,-150],[-106,106]]",circle,red,hori,left,"[0,-150]","[-106,106]",left,1,,,,,,001,2025-03-11_23h10.10.916,SL_sali,2021.2.3,Win32,58.82352941,1.5573,,,87,0,87,0,1,,,,,,,,
,,"[""diamond"",""green"",""hori"",""left"",[-106,-106],[0,-150]]",diamond,green,hori,left,"[-106,-106]","[0,-150]",left,1,,,,,,001,2025-03-11_23h10.10.916,SL_sali,2021.2.3,Win32,58.82352941,1.3993,,,88,0,88,0,1,,,,,,,,
,,"[""diamond"",""green"",""vert"",""up"",[-106,106],[-106,-106]]",diamond,green,vert,up,"[-106,106]","[-106,-106]",up,1,,,,,,001,2025-03-11_23h10.10.916,SL_sali,2021.2.3,Win32,58.82352941,1.2907,,,89,0,89,0,1,,,,,,,,
,,"[""circle"",""no_dis"",""vert"",""up"",[99999,99999],[106,106]]",circle,no_dis,vert,up,"[99999,99999]","[106,106]",up,1,,,,,,001,2025-03-11_23h10.10.916,SL_sali,2021.2.3,Win32,58.82352941,1.218,,,90,0,90,0,1,,,,,,,,
,,"[""circle"",""red"",""vert"",""up"",[106,-106],[0,150]]",circle,red,vert,up,"[106,-106]","[0,150]",up,1,,,,,,001,2025-03-11_23h10.10.916,SL_sali,2021.2.3,Win32,58.82352941,1.2535,,,91,0,91,0,1,,,,,,,,
,,"[""circle"",""green"",""hori"",""left"",[0,-150],[106,-106]]",circle,green,hori,left,"[0,-150]","[106,-106]",left,1,,,,,,001,2025-03-11_23h10.10.916,SL_sali,2021.2.3,Win32,58.82352941,2.1875,,,92,0,92,0,1,,,,,,,,
,,"[""circle"",""no_dis"",""hori"",""left"",[99999,99999],[106,106]]",circle,no_dis,hori,left,"[99999,99999]","[106,106]",left,1,,,,,,001,2025-03-11_23h10.10.916,SL_sali,2021.2.3,Win32,58.82352941,0.932,,,93,0,93,0,1,,,,,,,,
,,"[""circle"",""green"",""vert"",""up"",[0,150],[-150,0]]",circle,green,vert,up,"[0,150]","[-150,0]",up,1,,,,,,001,2025-03-11_23h10.10.916,SL_sali,2021.2.3,Win32,58.82352941,1.9471,,,94,0,94,0,1,,,,,,,,
,,"[""circle"",""green"",""vert"",""up"",[-150,0],[106,106]]",circle,green,vert,up,"[-150,0]","[106,106]",up,1,,,,,,001,2025-03-11_23h10.10.916,SL_sali,2021.2.3,Win32,58.82352941,1.8893,,,95,0,95,0,1,,,,,,,,
,,"[""circle"",""green"",""vert"",""up"",[-150,0],[-106,-106]]",circle,green,vert,up,"[-150,0]","[-106,-106]",up,1,,,,,,001,2025-03-11_23h10.10.916,SL_sali,2021.2.3,Win32,58.82352941,1.318,,,96,0,96,0,1,,,,,,,,
,,"[""circle"",""green"",""vert"",""up"",[106,106],[-106,106]]",circle,green,vert,up,"[106,106]","[-106,106]",up,1,,,,,,001,2025-03-11_23h10.10.916,SL_sali,2021.2.3,Win32,58.82352941,1.2668,,,97,0,97,0,1,,,,,,,,
,,"[""circle"",""green"",""hori"",""left"",[150,0],[106,-106]]",circle,green,hori,left,"[150,0]","[106,-106]",left,1,,,,,,001,2025-03-11_23h10.10.916,SL_sali,2021.2.3,Win32,58.82352941,0.8991,,,98,0,98,0,1,,,,,,,,
,,"[""circle"",""no_dis"",""hori"",""left"",[99999,99999],[-106,-106]]",circle,no_dis,hori,left,"[99999,99999]","[-106,-106]",left,1,,,,,,001,2025-03-11_23h10.10.916,SL_sali,2021.2.3,Win32,58.82352941,1.9898,,,99,0,99,0,1,,,,,,,,
,,"[""circle"",""red"",""vert"",""up"",[0,150],[150,0]]",circle,red,vert,up,"[0,150]","[150,0]",up,1,,,,,,001,2025-03-11_23h10.10.916,SL_sali,2021.2.3,Win32,58.82352941,0.9729,,,100,0,100,0,1,,,,,,,,
,,"[""circle"",""green"",""hori"",""left"",[-150,0],[-106,106]]",circle,green,hori,left,"[-150,0]","[-106,106]",left,1,,,,,,001,2025-03-11_23h10.10.916,SL_sali,2021.2.3,Win32,58.82352941,1.3501,,,101,0,101,0,1,,,,,,,,
,,"[""circle"",""no_dis"",""vert"",""up"",[99999,99999],[106,-106]]",circle,no_dis,vert,up,"[99999,99999]","[106,-106]",up,1,,,,,,001,2025-03-11_23h10.10.916,SL_sali,2021.2.3,Win32,58.82352941,1.2342,,,102,0,102,0,1,,,,,,,,
,,"[""diamond"",""green"",""hori"",""left"",[-106,-106],[0,150]]",diamond,green,hori,left,"[-106,-106]","[0,150]",left,1,,,,,,001,2025-03-11_23h10.10.916,SL_sali,2021.2.3,Win32,58.82352941,1.7084,,,103,0,103,0,1,,,,,,,,
,,"[""diamond"",""green"",""hori"",""left"",[0,-150],[-150,0]]",diamond,green,hori,left,"[0,-150]","[-150,0]",left,1,,,,,,001,2025-03-11_23h10.10.916,SL_sali,2021.2.3,Win32,58.82352941,1.2649,,,104,0,104,0,1,,,,,,,,
,,"[""circle"",""green"",""hori"",""left"",[-150,0],[106,106]]",circle,green,hori,left,"[-150,0]","[106,106]",left,1,,,,,,001,2025-03-11_23h10.10.916,SL_sali,2021.2.3,Win32,58.82352941,1.2545,,,105,0,105,0,1,,,,,,,,
,,"[""circle"",""no_dis"",""vert"",""up"",[99999,99999],[106,106]]",circle,no_dis,vert,up,"[99999,99999]","[106,106]",up,1,,,,,,001,2025-03-11_23h10.10.916,SL_sali,2021.2.3,Win32,58.82352941,1.6035,,,106,0,106,0,1,,,,,,,,
,,"[""circle"",""no_dis"",""hori"",""left"",[99999,99999],[-106,106]]",circle,no_dis,hori,left,"[99999,99999]","[-106,106]",left,1,,,,,,001,2025-03-11_23h10.10.916,SL_sali,2021.2.3,Win32,58.82352941,0.9648,,,107,0,107,0,1,,,,,,,,
,,"[""diamond"",""red"",""hori"",""left"",[106,106],[-106,106]]",diamond,red,hori,left,"[106,106]","[-106,106]",left,1,,,,,,001,2025-03-11_23h10.10.916,SL_sali,2021.2.3,Win32,58.82352941,1.1401,,,108,0,108,0,1,,,,,,,,
,,"[""diamond"",""red"",""vert"",""up"",[-106,-106],[150,0]]",diamond,red,vert,up,"[-106,-106]","[150,0]",up,1,,,,,,001,2025-03-11_23h10.10.916,SL_sali,2021.2.3,Win32,58.82352941,1.6371,,,109,0,109,0,1,,,,,,,,
,,"[""diamond"",""red"",""vert"",""up"",[-150,0],[106,106]]",diamond,red,vert,up,"[-150,0]","[106,106]",left,0,,,,,,001,2025-03-11_23h10.10.916,SL_sali,2021.2.3,Win32,58.82352941,1.4566,,,110,0,110,0,1,,,,,,,,
,,"[""diamond"",""no_dis"",""vert"",""up"",[99999,99999],[0,-150]]",diamond,no_dis,vert,up,"[99999,99999]","[0,-150]",up,1,,,,,,001,2025-03-11_23h10.10.916,SL_sali,2021.2.3,Win32,58.82352941,1.8177,,,111,0,111,0,1,,,,,,,,
,,"[""diamond"",""red"",""vert"",""up"",[-106,106],[0,150]]",diamond,red,vert,up,"[-106,106]","[0,150]",up,1,,,,,,001,2025-03-11_23h10.10.916,SL_sali,2021.2.3,Win32,58.82352941,1.3018,,,112,0,112,0,1,,,,,,,,
,,"[""diamond"",""red"",""hori"",""left"",[106,-106],[150,0]]",diamond,red,hori,left,"[106,-106]","[150,0]",left,1,,,,,,001,2025-03-11_23h10.10.916,SL_sali,2021.2.3,Win32,58.82352941,1.451,,,113,0,113,0,1,,,,,,,,
,,"[""diamond"",""green"",""hori"",""left"",[-150,0],[-106,106]]",diamond,green,hori,left,"[-150,0]","[-106,106]",left,1,,,,,,001,2025-03-11_23h10.10.916,SL_sali,2021.2.3,Win32,58.82352941,1.0045,,,114,0,114,0,1,,,,,,,,
,,"[""diamond"",""red"",""vert"",""up"",[106,-106],[-106,-106]]",diamond,red,vert,up,"[106,-106]","[-106,-106]",up,1,,,,,,001,2025-03-11_23h10.10.916,SL_sali,2021.2.3,Win32,58.82352941,1.1039,,,115,0,115,0,1,,,,,,,,
,,"[""circle"",""green"",""vert"",""up"",[-150,0],[0,150]]",circle,green,vert,up,"[-150,0]","[0,150]",up,1,,,,,,001,2025-03-11_23h10.10.916,SL_sali,2021.2.3,Win32,58.82352941,1.7042,,,116,0,116,0,1,,,,,,,,
,,"[""diamond"",""red"",""vert"",""up"",[0,150],[106,106]]",diamond,red,vert,up,"[0,150]","[106,106]",up,1,,,,,,001,2025-03-11_23h10.10.916,SL_sali,2021.2.3,Win32,58.82352941,1.7055,,,117,0,117,0,1,,,,,,,,
,,"[""circle"",""red"",""vert"",""up"",[106,106],[-106,-106]]",circle,red,vert,up,"[106,106]","[-106,-106]",up,1,,,,,,001,2025-03-11_23h10.10.916,SL_sali,2021.2.3,Win32,58.82352941,1.9854,,,118,0,118,0,1,,,,,,,,
,,"[""circle"",""no_dis"",""hori"",""left"",[99999,99999],[-106,106]]",circle,no_dis,hori,left,"[99999,99999]","[-106,106]",up,0,,,,,,001,2025-03-11_23h10.10.916,SL_sali,2021.2.3,Win32,58.82352941,1.3007,,,119,0,119,0,1,,,,,,,,
,,,,,,,,,,,,,,,,001,2025-03-11_23h10.10.916,SL_sali,2021.2.3,Win32,58.82352941,,,,,,,,,3,space,7.4141,2,0,2,0,1
,,"[""diamond"",""red"",""vert"",""up"",[-150,0],[106,106]]",diamond,red,vert,up,"[-150,0]","[106,106]",up,1,,,,,,001,2025-03-11_23h10.10.916,SL_sali,2021.2.3,Win32,58.82352941,1.1745,,,0,0,0,0,1,,,,,,,,
,,"[""diamond"",""red"",""vert"",""up"",[-150,0],[-106,106]]",diamond,red,vert,up,"[-150,0]","[-106,106]",up,1,,,,,,001,2025-03-11_23h10.10.916,SL_sali,2021.2.3,Win32,58.82352941,0.7375,,,1,0,1,0,1,,,,,,,,
,,"[""circle"",""red"",""vert"",""up"",[0,-150],[150,0]]",circle,red,vert,up,"[0,-150]","[150,0]",up,1,,,,,,001,2025-03-11_23h10.10.916,SL_sali,2021.2.3,Win32,58.82352941,1.1879,,,2,0,2,0,1,,,,,,,,
,,"[""circle"",""no_dis"",""hori"",""left"",[99999,99999],[150,0]]",circle,no_dis,hori,left,"[99999,99999]","[150,0]",left,1,,,,,,001,2025-03-11_23h10.10.916,SL_sali,2021.2.3,Win32,58.82352941,0.7792,,,3,0,3,0,1,,,,,,,,
,,"[""diamond"",""no_dis"",""hori"",""left"",[99999,99999],[-106,106]]",diamond,no_dis,hori,left,"[99999,99999]","[-106,106]",up,0,,,,,,001,2025-03-11_23h10.10.916,SL_sali,2021.2.3,Win32,58.82352941,0.9169,,,4,0,4,0,1,,,,,,,,
,,"[""diamond"",""green"",""hori"",""left"",[-150,0],[106,106]]",diamond,green,hori,left,"[-150,0]","[106,106]",left,1,,,,,,001,2025-03-11_23h10.10.916,SL_sali,2021.2.3,Win32,58.82352941,1.1085,,,5,0,5,0,1,,,,,,,,
,,"[""circle"",""green"",""vert"",""up"",[-106,106],[0,-150]]",circle,green,vert,up,"[-106,106]","[0,-150]",up,1,,,,,,001,2025-03-11_23h10.10.916,SL_sali,2021.2.3,Win32,58.82352941,1.3352,,,6,0,6,0,1,,,,,,,,
,,"[""diamond"",""no_dis"",""vert"",""up"",[99999,99999],[0,-150]]",diamond,no_dis,vert,up,"[99999,99999]","[0,-150]",up,1,,,,,,001,2025-03-11_23h10.10.916,SL_sali,2021.2.3,Win32,58.82352941,1.8858,,,7,0,7,0,1,,,,,,,,
,,"[""diamond"",""no_dis"",""hori"",""left"",[99999,99999],[-106,-106]]",diamond,no_dis,hori,left,"[99999,99999]","[-106,-106]",left,1,,,,,,001,2025-03-11_23h10.10.916,SL_sali,2021.2.3,Win32,58.82352941,0.884,,,8,0,8,0,1,,,,,,,,
,,"[""circle"",""red"",""vert"",""up"",[0,150],[150,0]]",circle,red,vert,up,"[0,150]","[150,0]",up,1,,,,,,001,2025-03-11_23h10.10.916,SL_sali,2021.2.3,Win32,58.82352941,1.5307,,,9,0,9,0,1,,,,,,,,
,,"[""circle"",""red"",""vert"",""up"",[0,-150],[106,106]]",circle,red,vert,up,"[0,-150]","[106,106]",up,1,,,,,,001,2025-03-11_23h10.10.916,SL_sali,2021.2.3,Win32,58.82352941,1.1219,,,10,0,10,0,1,,,,,,,,
,,"[""circle"",""green"",""hori"",""left"",[-150,0],[150,0]]",circle,green,hori,left,"[-150,0]","[150,0]",left,1,,,,,,001,2025-03-11_23h10.10.916,SL_sali,2021.2.3,Win32,58.82352941,0.6544,,,11,0,11,0,1,,,,,,,,
,,"[""diamond"",""no_dis"",""vert"",""up"",[99999,99999],[-150,0]]",diamond,no_dis,vert,up,"[99999,99999]","[-150,0]",left,0,,,,,,001,2025-03-11_23h10.10.916,SL_sali,2021.2.3,Win32,58.82352941,1.0899,,,12,0,12,0,1,,,,,,,,
,,"[""diamond"",""no_dis"",""vert"",""up"",[99999,99999],[-106,-106]]",diamond,no_dis,vert,up,"[99999,99999]","[-106,-106]",up,1,,,,,,001,2025-03-11_23h10.10.916,SL_sali,2021.2.3,Win32,58.82352941,1.0227,,,13,0,13,0,1,,,,,,,,
,,"[""diamond"",""red"",""vert"",""up"",[-150,0],[106,-106]]",diamond,red,vert,up,"[-150,0]","[106,-106]",left,0,,,,,,001,2025-03-11_23h10.10.916,SL_sali,2021.2.3,Win32,58.82352941,1.3717,,,14,0,14,0,1,,,,,,,,
,,"[""diamond"",""green"",""vert"",""up"",[-106,106],[-106,-106]]",diamond,green,vert,up,"[-106,106]","[-106,-106]",up,1,,,,,,001,2025-03-11_23h10.10.916,SL_sali,2021.2.3,Win32,58.82352941,0.8127,,,15,0,15,0,1,,,,,,,,
,,"[""diamond"",""green"",""vert"",""up"",[150,0],[-150,0]]",diamond,green,vert,up,"[150,0]","[-150,0]",up,1,,,,,,001,2025-03-11_23h10.10.916,SL_sali,2021.2.3,Win32,58.82352941,0.9084,,,16,0,16,0,1,,,,,,,,
,,"[""circle"",""no_dis"",""vert"",""up"",[99999,99999],[-150,0]]",circle,no_dis,vert,up,"[99999,99999]","[-150,0]",up,1,,,,,,001,2025-03-11_23h10.10.916,SL_sali,2021.2.3,Win32,58.82352941,1.3201,,,17,0,17,0,1,,,,,,,,
,,"[""circle"",""green"",""hori"",""left"",[-150,0],[-106,106]]",circle,green,hori,left,"[-150,0]","[-106,106]",left,1,,,,,,001,2025-03-11_23h10.10.916,SL_sali,2021.2.3,Win32,58.82352941,1.0886,,,18,0,18,0,1,,,,,,,,
,,"[""diamond"",""no_dis"",""vert"",""up"",[99999,99999],[150,0]]",diamond,no_dis,vert,up,"[99999,99999]","[150,0]",up,1,,,,,,001,2025-03-11_23h10.10.916,SL_sali,2021.2.3,Win32,58.82352941,2.0043,,,19,0,19,0,1,,,,,,,,
,,"[""diamond"",""green"",""hori"",""left"",[-106,-106],[0,150]]",diamond,green,hori,left,"[-106,-106]","[0,150]",left,1,,,,,,001,2025-03-11_23h10.10.916,SL_sali,2021.2.3,Win32,58.82352941,0.8271,,,20,0,20,0,1,,,,,,,,
,,"[""diamond"",""green"",""vert"",""up"",[106,-106],[0,150]]",diamond,green,vert,up,"[106,-106]","[0,150]",up,1,,,,,,001,2025-03-11_23h10.10.916,SL_sali,2021.2.3,Win32,58.82352941,1.0473,,,21,0,21,0,1,,,,,,,,
,,"[""circle"",""no_dis"",""vert"",""up"",[99999,99999],[0,150]]",circle,no_dis,vert,up,"[99999,99999]","[0,150]",up,1,,,,,,001,2025-03-11_23h10.10.916,SL_sali,2021.2.3,Win32,58.82352941,1.3968,,,22,0,22,0,1,,,,,,,,
,,"[""diamond"",""green"",""vert"",""up"",[106,-106],[-150,0]]",diamond,green,vert,up,"[106,-106]","[-150,0]",up,1,,,,,,001,2025-03-11_23h10.10.916,SL_sali,2021.2.3,Win32,58.82352941,1.5181,,,23,0,23,0,1,,,,,,,,
,,"[""diamond"",""no_dis"",""vert"",""up"",[99999,99999],[106,-106]]",diamond,no_dis,vert,up,"[99999,99999]","[106,-106]",up,1,,,,,,001,2025-03-11_23h10.10.916,SL_sali,2021.2.3,Win32,58.82352941,0.9602,,,24,0,24,0,1,,,,,,,,
,,"[""diamond"",""no_dis"",""vert"",""up"",[99999,99999],[0,-150]]",diamond,no_dis,vert,up,"[99999,99999]","[0,-150]",up,1,,,,,,001,2025-03-11_23h10.10.916,SL_sali,2021.2.3,Win32,58.82352941,0.8184,,,25,0,25,0,1,,,,,,,,
,,"[""circle"",""green"",""vert"",""up"",[-150,0],[0,150]]",circle,green,vert,up,"[-150,0]","[0,150]",up,1,,,,,,001,2025-03-11_23h10.10.916,SL_sali,2021.2.3,Win32,58.82352941,1.0456,,,26,0,26,0,1,,,,,,,,
,,"[""circle"",""no_dis"",""hori"",""left"",[99999,99999],[-106,-106]]",circle,no_dis,hori,left,"[99999,99999]","[-106,-106]",left,1,,,,,,001,2025-03-11_23h10.10.916,SL_sali,2021.2.3,Win32,58.82352941,0.9997,,,27,0,27,0,1,,,,,,,,
,,"[""diamond"",""green"",""vert"",""up"",[0,150],[106,-106]]",diamond,green,vert,up,"[0,150]","[106,-106]",up,1,,,,,,001,2025-03-11_23h10.10.916,SL_sali,2021.2.3,Win32,58.82352941,1.3394,,,28,0,28,0,1,,,,,,,,
,,"[""diamond"",""no_dis"",""hori"",""left"",[99999,99999],[150,0]]",diamond,no_dis,hori,left,"[99999,99999]","[150,0]",left,1,,,,,,001,2025-03-11_23h10.10.916,SL_sali,2021.2.3,Win32,58.82352941,1.5342,,,29,0,29,0,1,,,,,,,,
,,"[""diamond"",""no_dis"",""hori"",""left"",[99999,99999],[106,-106]]",diamond,no_dis,hori,left,"[99999,99999]","[106,-106]",left,1,,,,,,001,2025-03-11_23h10.10.916,SL_sali,2021.2.3,Win32,58.82352941,1.2836,,,30,0,30,0,1,,,,,,,,
,,"[""circle"",""no_dis"",""hori"",""left"",[99999,99999],[150,0]]",circle,no_dis,hori,left,"[99999,99999]","[150,0]",left,1,,,,,,001,2025-03-11_23h10.10.916,SL_sali,2021.2.3,Win32,58.82352941,1.1207,,,31,0,31,0,1,,,,,,,,
,,"[""diamond"",""red"",""vert"",""up"",[-150,0],[0,150]]",diamond,red,vert,up,"[-150,0]","[0,150]",up,1,,,,,,001,2025-03-11_23h10.10.916,SL_sali,2021.2.3,Win32,58.82352941,0.9797,,,32,0,32,0,1,,,,,,,,
,,"[""diamond"",""no_dis"",""hori"",""left"",[99999,99999],[0,150]]",diamond,no_dis,hori,left,"[99999,99999]","[0,150]",left,1,,,,,,001,2025-03-11_23h10.10.916,SL_sali,2021.2.3,Win32,58.82352941,1.6134,,,33,0,33,0,1,,,,,,,,
,,"[""circle"",""green"",""hori"",""left"",[0,-150],[106,-106]]",circle,green,hori,left,"[0,-150]","[106,-106]",left,1,,,,,,001,2025-03-11_23h10.10.916,SL_sali,2021.2.3,Win32,58.82352941,1.0803,,,34,0,34,0,1,,,,,,,,
,,"[""circle"",""no_dis"",""hori"",""left"",[99999,99999],[106,-106]]",circle,no_dis,hori,left,"[99999,99999]","[106,-106]",up,0,,,,,,001,2025-03-11_23h10.10.916,SL_sali,2021.2.3,Win32,58.82352941,0.9997,,,35,0,35,0,1,,,,,,,,
,,"[""circle"",""green"",""hori"",""left"",[106,106],[106,-106]]",circle,green,hori,left,"[106,106]","[106,-106]",left,1,,,,,,001,2025-03-11_23h10.10.916,SL_sali,2021.2.3,Win32,58.82352941,1.1217,,,36,0,36,0,1,,,,,,,,
,,"[""circle"",""green"",""hori"",""left"",[-150,0],[-106,-106]]",circle,green,hori,left,"[-150,0]","[-106,-106]",left,1,,,,,,001,2025-03-11_23h10.10.916,SL_sali,2021.2.3,Win32,58.82352941,1.1356,,,37,0,37,0,1,,,,,,,,
,,"[""diamond"",""red"",""hori"",""left"",[150,0],[0,-150]]",diamond,red,hori,left,"[150,0]","[0,-150]",left,1,,,,,,001,2025-03-11_23h10.10.916,SL_sali,2021.2.3,Win32,58.82352941,1.4877,,,38,0,38,0,1,,,,,,,,
,,"[""diamond"",""green"",""hori"",""left"",[-150,0],[-106,106]]",diamond,green,hori,left,"[-150,0]","[-106,106]",left,1,,,,,,001,2025-03-11_23h10.10.916,SL_sali,2021.2.3,Win32,58.82352941,0.9333,,,39,0,39,0,1,,,,,,,,
,,"[""circle"",""no_dis"",""vert"",""up"",[99999,99999],[106,-106]]",circle,no_dis,vert,up,"[99999,99999]","[106,-106]",up,1,,,,,,001,2025-03-11_23h10.10.916,SL_sali,2021.2.3,Win32,58.82352941,0.8523,,,40,0,40,0,1,,,,,,,,
,,"[""circle"",""red"",""vert"",""up"",[-106,106],[106,-106]]",circle,red,vert,up,"[-106,106]","[106,-106]",up,1,,,,,,001,2025-03-11_23h10.10.916,SL_sali,2021.2.3,Win32,58.82352941,1.1339,,,41,0,41,0,1,,,,,,,,
,,"[""circle"",""green"",""vert"",""up"",[-106,-106],[106,-106]]",circle,green,vert,up,"[-106,-106]","[106,-106]",up,1,,,,,,001,2025-03-11_23h10.10.916,SL_sali,2021.2.3,Win32,58.82352941,0.963,,,42,0,42,0,1,,,,,,,,
,,"[""circle"",""green"",""hori"",""left"",[-106,-106],[106,106]]",circle,green,hori,left,"[-106,-106]","[106,106]",left,1,,,,,,001,2025-03-11_23h10.10.916,SL_sali,2021.2.3,Win32,58.82352941,0.933,,,43,0,43,0,1,,,,,,,,
,,"[""diamond"",""green"",""vert"",""up"",[-106,106],[150,0]]",diamond,green,vert,up,"[-106,106]","[150,0]",up,1,,,,,,001,2025-03-11_23h10.10.916,SL_sali,2021.2.3,Win32,58.82352941,0.9528,,,44,0,44,0,1,,,,,,,,
,,"[""diamond"",""green"",""hori"",""left"",[106,106],[-106,-106]]",diamond,green,hori,left,"[106,106]","[-106,-106]",left,1,,,,,,001,2025-03-11_23h10.10.916,SL_sali,2021.2.3,Win32,58.82352941,1.1261,,,45,0,45,0,1,,,,,,,,
,,"[""diamond"",""red"",""vert"",""up"",[0,150],[-106,106]]",diamond,red,vert,up,"[0,150]","[-106,106]",up,1,,,,,,001,2025-03-11_23h10.10.916,SL_sali,2021.2.3,Win32,58.82352941,1.9384,,,46,0,46,0,1,,,,,,,,
,,"[""diamond"",""no_dis"",""vert"",""up"",[99999,99999],[0,-150]]",diamond,no_dis,vert,up,"[99999,99999]","[0,-150]",up,1,,,,,,001,2025-03-11_23h10.10.916,SL_sali,2021.2.3,Win32,58.82352941,1.0152,,,47,0,47,0,1,,,,,,,,
,,"[""diamond"",""no_dis"",""hori"",""left"",[99999,99999],[-106,-106]]",diamond,no_dis,hori,left,"[99999,99999]","[-106,-106]",left,1,,,,,,001,2025-03-11_23h10.10.916,SL_sali,2021.2.3,Win32,58.82352941,0.9303,,,48,0,48,0,1,,,,,,,,
,,"[""circle"",""red"",""vert"",""up"",[106,-106],[0,150]]",circle,red,vert,up,"[106,-106]","[0,150]",left,0,,,,,,001,2025-03-11_23h10.10.916,SL_sali,2021.2.3,Win32,58.82352941,0.9998,,,49,0,49,0,1,,,,,,,,
,,"[""circle"",""no_dis"",""hori"",""left"",[99999,99999],[150,0]]",circle,no_dis,hori,left,"[99999,99999]","[150,0]",left,1,,,,,,001,2025-03-11_23h10.10.916,SL_sali,2021.2.3,Win32,58.82352941,1.2885,,,50,0,50,0,1,,,,,,,,
,,"[""circle"",""red"",""hori"",""left"",[-106,106],[106,-106]]",circle,red,hori,left,"[-106,106]","[106,-106]",left,1,,,,,,001,2025-03-11_23h10.10.916,SL_sali,2021.2.3,Win32,58.82352941,0.9171,,,51,0,51,0,1,,,,,,,,
,,"[""diamond"",""no_dis"",""vert"",""up"",[99999,99999],[-150,0]]",diamond,no_dis,vert,up,"[99999,99999]","[-150,0]",up,1,,,,,,001,2025-03-11_23h10.10.916,SL_sali,2021.2.3,Win32,58.82352941,1.1188,,,52,0,52,0,1,,,,,,,,
,,"[""circle"",""green"",""hori"",""left"",[106,-106],[150,0]]",circle,green,hori,left,"[106,-106]","[150,0]",up,0,,,,,,001,2025-03-11_23h10.10.916,SL_sali,2021.2.3,Win32,58.82352941,1.3506,,,53,0,53,0,1,,,,,,,,
,,"[""diamond"",""red"",""hori"",""left"",[106,-106],[150,0]]",diamond,red,hori,left,"[106,-106]","[150,0]",up,0,,,,,,001,2025-03-11_23h10.10.916,SL_sali,2021.2.3,Win32,58.82352941,1.5669,,,54,0,54,0,1,,,,,,,,
,,"[""circle"",""green"",""vert"",""up"",[-150,0],[0,-150]]",circle,green,vert,up,"[-150,0]","[0,-150]",up,1,,,,,,001,2025-03-11_23h10.10.916,SL_sali,2021.2.3,Win32,58.82352941,2.1247,,,55,0,55,0,1,,,,,,,,
,,"[""circle"",""red"",""hori"",""left"",[-150,0],[0,-150]]",circle,red,hori,left,"[-150,0]","[0,-150]",left,1,,,,,,001,2025-03-11_23h10.10.916,SL_sali,2021.2.3,Win32,58.82352941,1.467,,,56,0,56,0,1,,,,,,,,
,,"[""circle"",""no_dis"",""hori"",""left"",[99999,99999],[106,106]]",circle,no_dis,hori,left,"[99999,99999]","[106,106]",left,1,,,,,,001,2025-03-11_23h10.10.916,SL_sali,2021.2.3,Win32,58.82352941,1.1628,,,57,0,57,0,1,,,,,,,,
,,"[""diamond"",""red"",""vert"",""up"",[-106,106],[0,150]]",diamond,red,vert,up,"[-106,106]","[0,150]",up,1,,,,,,001,2025-03-11_23h10.10.916,SL_sali,2021.2.3,Win32,58.82352941,1.7322,,,58,0,58,0,1,,,,,,,,
,,"[""diamond"",""red"",""hori"",""left"",[150,0],[-106,106]]",diamond,red,hori,left,"[150,0]","[-106,106]",up,0,,,,,,001,2025-03-11_23h10.10.916,SL_sali,2021.2.3,Win32,58.82352941,1.0674,,,59,0,59,0,1,,,,,,,,
,,"[""diamond"",""green"",""vert"",""up"",[106,-106],[-106,106]]",diamond,green,vert,up,"[106,-106]","[-106,106]",up,1,,,,,,001,2025-03-11_23h10.10.916,SL_sali,2021.2.3,Win32,58.82352941,0.9949,,,60,0,60,0,1,,,,,,,,
,,"[""circle"",""green"",""vert"",""up"",[-150,0],[-106,-106]]",circle,green,vert,up,"[-150,0]","[-106,-106]",up,1,,,,,,001,2025-03-11_23h10.10.916,SL_sali,2021.2.3,Win32,58.82352941,1.6021,,,61,0,61,0,1,,,,,,,,
,,"[""diamond"",""green"",""vert"",""up"",[106,106],[106,-106]]",diamond,green,vert,up,"[106,106]","[106,-106]",up,1,,,,,,001,2025-03-11_23h10.10.916,SL_sali,2021.2.3,Win32,58.82352941,1.134,,,62,0,62,0,1,,,,,,,,
,,"[""circle"",""no_dis"",""vert"",""up"",[99999,99999],[106,-106]]",circle,no_dis,vert,up,"[99999,99999]","[106,-106]",up,1,,,,,,001,2025-03-11_23h10.10.916,SL_sali,2021.2.3,Win32,58.82352941,1.0359,,,63,0,63,0,1,,,,,,,,
,,"[""circle"",""red"",""vert"",""up"",[0,-150],[106,-106]]",circle,red,vert,up,"[0,-150]","[106,-106]",left,0,,,,,,001,2025-03-11_23h10.10.916,SL_sali,2021.2.3,Win32,58.82352941,1.1166,,,64,0,64,0,1,,,,,,,,
,,"[""diamond"",""red"",""hori"",""left"",[106,106],[-106,106]]",diamond,red,hori,left,"[106,106]","[-106,106]",left,1,,,,,,001,2025-03-11_23h10.10.916,SL_sali,2021.2.3,Win32,58.82352941,1.3184,,,65,0,65,0,1,,,,,,,,
,,"[""circle"",""green"",""vert"",""up"",[0,150],[-106,-106]]",circle,green,vert,up,"[0,150]","[-106,-106]",up,1,,,,,,001,2025-03-11_23h10.10.916,SL_sali,2021.2.3,Win32,58.82352941,1.3339,,,66,0,66,0,1,,,,,,,,
,,"[""diamond"",""red"",""hori"",""left"",[0,150],[-106,-106]]",diamond,red,hori,left,"[0,150]","[-106,-106]",up,0,,,,,,001,2025-03-11_23h10.10.916,SL_sali,2021.2.3,Win32,58.82352941,1.1314,,,67,0,67,0,1,,,,,,,,
,,"[""diamond"",""green"",""hori"",""left"",[-106,-106],[0,-150]]",diamond,green,hori,left,"[-106,-106]","[0,-150]",left,1,,,,,,001,2025-03-11_23h10.10.916,SL_sali,2021.2.3,Win32,58.82352941,1.3738,,,68,0,68,0,1,,,,,,,,
,,"[""diamond"",""red"",""hori"",""left"",[106,106],[-106,106]]",diamond,red,hori,left,"[106,106]","[-106,106]",left,1,,,,,,001,2025-03-11_23h10.10.916,SL_sali,2021.2.3,Win32,58.82352941,1.131,,,69,0,69,0,1,,,,,,,,
,,"[""diamond"",""red"",""vert"",""up"",[-106,-106],[150,0]]",diamond,red,vert,up,"[-106,-106]","[150,0]",up,1,,,,,,001,2025-03-11_23h10.10.916,SL_sali,2021.2.3,Win32,58.82352941,0.9259,,,70,0,70,0,1,,,,,,,,
,,"[""diamond"",""red"",""hori"",""left"",[0,-150],[106,106]]",diamond,red,hori,left,"[0,-150]","[106,106]",left,1,,,,,,001,2025-03-11_23h10.10.916,SL_sali,2021.2.3,Win32,58.82352941,1.0168,,,71,0,71,0,1,,,,,,,,
,,"[""diamond"",""no_dis"",""vert"",""up"",[99999,99999],[-106,106]]",diamond,no_dis,vert,up,"[99999,99999]","[-106,106]",up,1,,,,,,001,2025-03-11_23h10.10.916,SL_sali,2021.2.3,Win32,58.82352941,1.0042,,,72,0,72,0,1,,,,,,,,
,,"[""circle"",""no_dis"",""vert"",""up"",[99999,99999],[-150,0]]",circle,no_dis,vert,up,"[99999,99999]","[-150,0]",up,1,,,,,,001,2025-03-11_23h10.10.916,SL_sali,2021.2.3,Win32,58.82352941,0.8877,,,73,0,73,0,1,,,,,,,,
,,"[""circle"",""no_dis"",""vert"",""up"",[99999,99999],[0,150]]",circle,no_dis,vert,up,"[99999,99999]","[0,150]",up,1,,,,,,001,2025-03-11_23h10.10.916,SL_sali,2021.2.3,Win32,58.82352941,0.8367,,,74,0,74,0,1,,,,,,,,
,,"[""circle"",""no_dis"",""hori"",""left"",[99999,99999],[0,150]]",circle,no_dis,hori,left,"[99999,99999]","[0,150]",left,1,,,,,,001,2025-03-11_23h10.10.916,SL_sali,2021.2.3,Win32,58.82352941,0.9221,,,75,0,75,0,1,,,,,,,,
,,"[""diamond"",""no_dis"",""hori"",""left"",[99999,99999],[-106,106]]",diamond,no_dis,hori,left,"[99999,99999]","[-106,106]",up,0,,,,,,001,2025-03-11_23h10.10.916,SL_sali,2021.2.3,Win32,58.82352941,1.5024,,,76,0,76,0,1,,,,,,,,
,,"[""circle"",""red"",""hori"",""left"",[150,0],[0,-150]]",circle,red,hori,left,"[150,0]","[0,-150]",left,1,,,,,,001,2025-03-11_23h10.10.916,SL_sali,2021.2.3,Win32,58.82352941,1.3829,,,77,0,77,0,1,,,,,,,,
,,"[""circle"",""green"",""vert"",""up"",[-150,0],[106,106]]",circle,green,vert,up,"[-150,0]","[106,106]",up,1,,,,,,001,2025-03-11_23h10.10.916,SL_sali,2021.2.3,Win32,58.82352941,2.5915,,,78,0,78,0,1,,,,,,,,
,,"[""circle"",""no_dis"",""hori"",""left"",[99999,99999],[-106,106]]",circle,no_dis,hori,left,"[99999,99999]","[-106,106]",left,1,,,,,,001,2025-03-11_23h10.10.916,SL_sali,2021.2.3,Win32,58.82352941,1.2022,,,79,0,79,0,1,,,,,,,,
,,"[""diamond"",""red"",""vert"",""up"",[0,150],[106,106]]",diamond,red,vert,up,"[0,150]","[106,106]",up,1,,,,,,001,2025-03-11_23h10.10.916,SL_sali,2021.2.3,Win32,58.82352941,1.9241,,,80,0,80,0,1,,,,,,,,
,,"[""diamond"",""green"",""hori"",""left"",[-106,-106],[-106,106]]",diamond,green,hori,left,"[-106,-106]","[-106,106]",left,1,,,,,,001,2025-03-11_23h10.10.916,SL_sali,2021.2.3,Win32,58.82352941,1.6027,,,81,0,81,0,1,,,,,,,,
,,"[""circle"",""green"",""hori"",""left"",[106,106],[-106,106]]",circle,green,hori,left,"[106,106]","[-106,106]",up,0,,,,,,001,2025-03-11_23h10.10.916,SL_sali,2021.2.3,Win32,58.82352941,1.1437,,,82,0,82,0,1,,,,,,,,
,,"[""diamond"",""green"",""vert"",""up"",[-150,0],[150,0]]",diamond,green,vert,up,"[-150,0]","[150,0]",up,1,,,,,,001,2025-03-11_23h10.10.916,SL_sali,2021.2.3,Win32,58.82352941,0.8721,,,83,0,83,0,1,,,,,,,,
,,"[""diamond"",""red"",""hori"",""left"",[0,-150],[0,150]]",diamond,red,hori,left,"[0,-150]","[0,150]",left,1,,,,,,001,2025-03-11_23h10.10.916,SL_sali,2021.2.3,Win32,58.82352941,1.0478,,,84,0,84,0,1,,,,,,,,
,,"[""diamond"",""no_dis"",""vert"",""up"",[99999,99999],[-150,0]]",diamond,no_dis,vert,up,"[99999,99999]","[-150,0]",up,1,,,,,,001,2025-03-11_23h10.10.916,SL_sali,2021.2.3,Win32,58.82352941,0.874,,,85,0,85,0,1,,,,,,,,
,,"[""circle"",""green"",""hori"",""left"",[150,0],[106,-106]]",circle,green,hori,left,"[150,0]","[106,-106]",left,1,,,,,,001,2025-03-11_23h10.10.916,SL_sali,2021.2.3,Win32,58.82352941,1.1985,,,86,0,86,0,1,,,,,,,,
,,"[""diamond"",""no_dis"",""hori"",""left"",[99999,99999],[0,-150]]",diamond,no_dis,hori,left,"[99999,99999]","[0,-150]",left,1,,,,,,001,2025-03-11_23h10.10.916,SL_sali,2021.2.3,Win32,58.82352941,1.8498,,,87,0,87,0,1,,,,,,,,
,,"[""diamond"",""no_dis"",""hori"",""left"",[99999,99999],[0,150]]",diamond,no_dis,hori,left,"[99999,99999]","[0,150]",left,1,,,,,,001,2025-03-11_23h10.10.916,SL_sali,2021.2.3,Win32,58.82352941,0.7377,,,88,0,88,0,1,,,,,,,,
,,"[""circle"",""red"",""hori"",""left"",[-150,0],[-106,106]]",circle,red,hori,left,"[-150,0]","[-106,106]",left,1,,,,,,001,2025-03-11_23h10.10.916,SL_sali,2021.2.3,Win32,58.82352941,2.1505,,,89,0,89,0,1,,,,,,,,
,,"[""circle"",""green"",""vert"",""up"",[106,106],[-106,106]]",circle,green,vert,up,"[106,106]","[-106,106]",up,1,,,,,,001,2025-03-11_23h10.10.916,SL_sali,2021.2.3,Win32,58.82352941,1.1734,,,90,0,90,0,1,,,,,,,,
