﻿key_resp.keys,key_resp.rt,trial_para,tar_shape,dis_color_condi,tar_line,cor_resp,dis_loc,tar_loc,resp.keys,resp.corr,trials.thisRepN,trials.thisTrialN,trials.thisN,trials.thisIndex,trials.ran,participant,date,expName,psychopyVersion,OS,frameRate,resp.rt,key_resp_2.keys,key_resp_2.rt,trials_2.thisRepN,trials_2.thisTrialN,trials_2.thisN,trials_2.thisIndex,trials_2.ran,block_num,key_resp_3.keys,key_resp_3.rt,trials_3.thisRepN,trials_3.thisTrialN,trials_3.thisN,trials_3.thisIndex,trials_3.ran
space,24.2768,"[""diamond"",""green"",""vert"",""up"",[0,-150],[106,106]]",diamond,green,vert,up,"[0,-150]","[106,106]",,0,0,0,0,0,1,001,2025-03-10_20h14.58.170,SL_sali,2021.2.3,Win32,59.88023952,,,,,,,,,,,,,,,,
,,"[""circle"",""red"",""hori"",""left"",[-106,-106],[0,-150]]",circle,red,hori,left,"[-106,-106]","[0,-150]",left,1,1,0,1,0,1,001,2025-03-10_20h14.58.170,SL_sali,2021.2.3,Win32,59.88023952,2.4912,,,,,,,,,,,,,,,
,,"[""diamond"",""red"",""vert"",""up"",[106,106],[0,-150]]",diamond,red,vert,up,"[106,106]","[0,-150]",up,1,2,0,2,0,1,001,2025-03-10_20h14.58.170,SL_sali,2021.2.3,Win32,59.88023952,2.6798,,,,,,,,,,,,,,,
,,"[""circle"",""no_dis"",""vert"",""up"",[99999,99999],[106,-106]]",circle,no_dis,vert,up,"[99999,99999]","[106,-106]",up,1,3,0,3,0,1,001,2025-03-10_20h14.58.170,SL_sali,2021.2.3,Win32,59.88023952,2.0832,,,,,,,,,,,,,,,
,,"[""diamond"",""red"",""hori"",""left"",[0,-150],[0,150]]",diamond,red,hori,left,"[0,-150]","[0,150]",left,1,4,0,4,0,1,001,2025-03-10_20h14.58.170,SL_sali,2021.2.3,Win32,59.88023952,1.7313,,,,,,,,,,,,,,,
,,"[""diamond"",""green"",""vert"",""up"",[-150,0],[106,106]]",diamond,green,vert,up,"[-150,0]","[106,106]",up,1,5,0,5,0,1,001,2025-03-10_20h14.58.170,SL_sali,2021.2.3,Win32,59.88023952,1.143,,,,,,,,,,,,,,,
,,"[""diamond"",""no_dis"",""vert"",""up"",[99999,99999],[-106,-106]]",diamond,no_dis,vert,up,"[99999,99999]","[-106,-106]",up,1,6,0,6,0,1,001,2025-03-10_20h14.58.170,SL_sali,2021.2.3,Win32,59.88023952,1.7189,,,,,,,,,,,,,,,
,,"[""diamond"",""red"",""hori"",""left"",[150,0],[-106,-106]]",diamond,red,hori,left,"[150,0]","[-106,-106]",left,1,7,0,7,0,1,001,2025-03-10_20h14.58.170,SL_sali,2021.2.3,Win32,59.88023952,1.7657,,,,,,,,,,,,,,,
,,"[""circle"",""red"",""vert"",""up"",[0,150],[106,106]]",circle,red,vert,up,"[0,150]","[106,106]",up,1,8,0,8,0,1,001,2025-03-10_20h14.58.170,SL_sali,2021.2.3,Win32,59.88023952,1.5599,,,,,,,,,,,,,,,
,,"[""circle"",""no_dis"",""hori"",""left"",[99999,99999],[0,-150]]",circle,no_dis,hori,left,"[99999,99999]","[0,-150]",left,1,9,0,9,0,1,001,2025-03-10_20h14.58.170,SL_sali,2021.2.3,Win32,59.88023952,1.8686,,,,,,,,,,,,,,,
,,"[""diamond"",""green"",""vert"",""up"",[0,-150],[106,106]]",diamond,green,vert,up,"[0,-150]","[106,106]",up,1,,,,,,001,2025-03-10_20h14.58.170,SL_sali,2021.2.3,Win32,59.88023952,1.3144,space,3.7811,0,0,0,0,1,,,,,,,,
,,"[""circle"",""red"",""hori"",""left"",[-106,-106],[0,-150]]",circle,red,hori,left,"[-106,-106]","[0,-150]",left,1,,,,,,001,2025-03-10_20h14.58.170,SL_sali,2021.2.3,Win32,59.88023952,1.4335,,,1,0,1,0,1,,,,,,,,
,,"[""diamond"",""red"",""vert"",""up"",[106,106],[0,-150]]",diamond,red,vert,up,"[106,106]","[0,-150]",up,1,,,,,,001,2025-03-10_20h14.58.170,SL_sali,2021.2.3,Win32,59.88023952,1.2075,,,2,0,2,0,1,,,,,,,,
,,"[""circle"",""no_dis"",""vert"",""up"",[99999,99999],[106,-106]]",circle,no_dis,vert,up,"[99999,99999]","[106,-106]",left,0,,,,,,001,2025-03-10_20h14.58.170,SL_sali,2021.2.3,Win32,59.88023952,1.2161,,,3,0,3,0,1,,,,,,,,
,,"[""diamond"",""red"",""hori"",""left"",[0,-150],[0,150]]",diamond,red,hori,left,"[0,-150]","[0,150]",left,1,,,,,,001,2025-03-10_20h14.58.170,SL_sali,2021.2.3,Win32,59.88023952,1.5476,,,4,0,4,0,1,,,,,,,,
,,"[""diamond"",""green"",""vert"",""up"",[-150,0],[106,106]]",diamond,green,vert,up,"[-150,0]","[106,106]",up,1,,,,,,001,2025-03-10_20h14.58.170,SL_sali,2021.2.3,Win32,59.88023952,2.3043,,,5,0,5,0,1,,,,,,,,
,,"[""diamond"",""no_dis"",""vert"",""up"",[99999,99999],[-106,-106]]",diamond,no_dis,vert,up,"[99999,99999]","[-106,-106]",up,1,,,,,,001,2025-03-10_20h14.58.170,SL_sali,2021.2.3,Win32,59.88023952,1.4317,,,6,0,6,0,1,,,,,,,,
,,"[""diamond"",""red"",""hori"",""left"",[150,0],[-106,-106]]",diamond,red,hori,left,"[150,0]","[-106,-106]",left,1,,,,,,001,2025-03-10_20h14.58.170,SL_sali,2021.2.3,Win32,59.88023952,1.9509,,,7,0,7,0,1,,,,,,,,
,,"[""circle"",""red"",""vert"",""up"",[0,150],[106,106]]",circle,red,vert,up,"[0,150]","[106,106]",up,1,,,,,,001,2025-03-10_20h14.58.170,SL_sali,2021.2.3,Win32,59.88023952,1.4508,,,8,0,8,0,1,,,,,,,,
,,"[""circle"",""no_dis"",""hori"",""left"",[99999,99999],[0,-150]]",circle,no_dis,hori,left,"[99999,99999]","[0,-150]",left,1,,,,,,001,2025-03-10_20h14.58.170,SL_sali,2021.2.3,Win32,59.88023952,1.259,,,9,0,9,0,1,,,,,,,,
,,"[""diamond"",""green"",""hori"",""left"",[150,0],[106,-106]]",diamond,green,hori,left,"[150,0]","[106,-106]",left,1,,,,,,001,2025-03-10_20h14.58.170,SL_sali,2021.2.3,Win32,59.88023952,1.4628,,,10,0,10,0,1,,,,,,,,
,,"[""diamond"",""no_dis"",""vert"",""up"",[99999,99999],[-106,106]]",diamond,no_dis,vert,up,"[99999,99999]","[-106,106]",up,1,,,,,,001,2025-03-10_20h14.58.170,SL_sali,2021.2.3,Win32,59.88023952,0.8758,,,11,0,11,0,1,,,,,,,,
,,"[""diamond"",""red"",""vert"",""up"",[0,-150],[-150,0]]",diamond,red,vert,up,"[0,-150]","[-150,0]",left,0,,,,,,001,2025-03-10_20h14.58.170,SL_sali,2021.2.3,Win32,59.88023952,1.7713,,,12,0,12,0,1,,,,,,,,
,,"[""diamond"",""no_dis"",""hori"",""left"",[99999,99999],[106,-106]]",diamond,no_dis,hori,left,"[99999,99999]","[106,-106]",left,1,,,,,,001,2025-03-10_20h14.58.170,SL_sali,2021.2.3,Win32,59.88023952,1.3951,,,13,0,13,0,1,,,,,,,,
,,"[""circle"",""green"",""hori"",""left"",[-150,0],[106,106]]",circle,green,hori,left,"[-150,0]","[106,106]",left,1,,,,,,001,2025-03-10_20h14.58.170,SL_sali,2021.2.3,Win32,59.88023952,1.8043,,,14,0,14,0,1,,,,,,,,
,,"[""circle"",""no_dis"",""vert"",""up"",[99999,99999],[106,-106]]",circle,no_dis,vert,up,"[99999,99999]","[106,-106]",up,1,,,,,,001,2025-03-10_20h14.58.170,SL_sali,2021.2.3,Win32,59.88023952,1.093,,,15,0,15,0,1,,,,,,,,
,,"[""diamond"",""no_dis"",""vert"",""up"",[99999,99999],[-150,0]]",diamond,no_dis,vert,up,"[99999,99999]","[-150,0]",up,1,,,,,,001,2025-03-10_20h14.58.170,SL_sali,2021.2.3,Win32,59.88023952,2.1371,,,16,0,16,0,1,,,,,,,,
,,"[""circle"",""no_dis"",""vert"",""up"",[99999,99999],[106,106]]",circle,no_dis,vert,up,"[99999,99999]","[106,106]",up,1,,,,,,001,2025-03-10_20h14.58.170,SL_sali,2021.2.3,Win32,59.88023952,1.6555,,,17,0,17,0,1,,,,,,,,
,,"[""diamond"",""green"",""vert"",""up"",[0,-150],[106,106]]",diamond,green,vert,up,"[0,-150]","[106,106]",up,1,,,,,,001,2025-03-10_20h14.58.170,SL_sali,2021.2.3,Win32,59.88023952,1.6872,,,18,0,18,0,1,,,,,,,,
,,"[""diamond"",""red"",""hori"",""left"",[150,0],[106,106]]",diamond,red,hori,left,"[150,0]","[106,106]",left,1,,,,,,001,2025-03-10_20h14.58.170,SL_sali,2021.2.3,Win32,59.88023952,2.1423,,,19,0,19,0,1,,,,,,,,
,,"[""circle"",""no_dis"",""hori"",""left"",[99999,99999],[106,-106]]",circle,no_dis,hori,left,"[99999,99999]","[106,-106]",left,1,,,,,,001,2025-03-10_20h14.58.170,SL_sali,2021.2.3,Win32,59.88023952,2.125,,,20,0,20,0,1,,,,,,,,
,,"[""diamond"",""green"",""vert"",""up"",[-106,106],[0,150]]",diamond,green,vert,up,"[-106,106]","[0,150]",up,1,,,,,,001,2025-03-10_20h14.58.170,SL_sali,2021.2.3,Win32,59.88023952,1.5474,,,21,0,21,0,1,,,,,,,,
,,"[""diamond"",""red"",""vert"",""up"",[-106,106],[0,150]]",diamond,red,vert,up,"[-106,106]","[0,150]",up,1,,,,,,001,2025-03-10_20h14.58.170,SL_sali,2021.2.3,Win32,59.88023952,1.8595,,,22,0,22,0,1,,,,,,,,
,,"[""diamond"",""green"",""vert"",""up"",[-150,0],[0,-150]]",diamond,green,vert,up,"[-150,0]","[0,-150]",up,1,,,,,,001,2025-03-10_20h14.58.170,SL_sali,2021.2.3,Win32,59.88023952,2.4404,,,23,0,23,0,1,,,,,,,,
,,"[""circle"",""green"",""hori"",""left"",[-106,-106],[150,0]]",circle,green,hori,left,"[-106,-106]","[150,0]",left,1,,,,,,001,2025-03-10_20h14.58.170,SL_sali,2021.2.3,Win32,59.88023952,1.583,,,24,0,24,0,1,,,,,,,,
,,"[""diamond"",""green"",""hori"",""left"",[0,150],[-106,106]]",diamond,green,hori,left,"[0,150]","[-106,106]",left,1,,,,,,001,2025-03-10_20h14.58.170,SL_sali,2021.2.3,Win32,59.88023952,2.2734,,,25,0,25,0,1,,,,,,,,
,,"[""circle"",""red"",""vert"",""up"",[0,-150],[-106,106]]",circle,red,vert,up,"[0,-150]","[-106,106]",up,1,,,,,,001,2025-03-10_20h14.58.170,SL_sali,2021.2.3,Win32,59.88023952,1.4054,,,26,0,26,0,1,,,,,,,,
,,"[""circle"",""no_dis"",""vert"",""up"",[99999,99999],[150,0]]",circle,no_dis,vert,up,"[99999,99999]","[150,0]",up,1,,,,,,001,2025-03-10_20h14.58.170,SL_sali,2021.2.3,Win32,59.88023952,1.8664,,,27,0,27,0,1,,,,,,,,
,,"[""circle"",""red"",""hori"",""left"",[106,-106],[0,150]]",circle,red,hori,left,"[106,-106]","[0,150]",left,1,,,,,,001,2025-03-10_20h14.58.170,SL_sali,2021.2.3,Win32,59.88023952,1.942,,,28,0,28,0,1,,,,,,,,
,,"[""diamond"",""red"",""hori"",""left"",[106,-106],[-106,106]]",diamond,red,hori,left,"[106,-106]","[-106,106]",up,0,,,,,,001,2025-03-10_20h14.58.170,SL_sali,2021.2.3,Win32,59.88023952,1.6197,,,29,0,29,0,1,,,,,,,,
,,"[""circle"",""red"",""vert"",""up"",[-150,0],[106,-106]]",circle,red,vert,up,"[-150,0]","[106,-106]",up,1,,,,,,001,2025-03-10_20h14.58.170,SL_sali,2021.2.3,Win32,59.88023952,1.8071,,,30,0,30,0,1,,,,,,,,
,,"[""diamond"",""red"",""hori"",""left"",[-106,106],[0,150]]",diamond,red,hori,left,"[-106,106]","[0,150]",left,1,,,,,,001,2025-03-10_20h14.58.170,SL_sali,2021.2.3,Win32,59.88023952,2.6306,,,31,0,31,0,1,,,,,,,,
,,"[""circle"",""green"",""vert"",""up"",[-106,106],[106,106]]",circle,green,vert,up,"[-106,106]","[106,106]",up,1,,,,,,001,2025-03-10_20h14.58.170,SL_sali,2021.2.3,Win32,59.88023952,1.8746,,,32,0,32,0,1,,,,,,,,
,,"[""diamond"",""no_dis"",""hori"",""left"",[99999,99999],[150,0]]",diamond,no_dis,hori,left,"[99999,99999]","[150,0]",left,1,,,,,,001,2025-03-10_20h14.58.170,SL_sali,2021.2.3,Win32,59.88023952,1.6714,,,33,0,33,0,1,,,,,,,,
,,"[""circle"",""no_dis"",""hori"",""left"",[99999,99999],[-150,0]]",circle,no_dis,hori,left,"[99999,99999]","[-150,0]",left,1,,,,,,001,2025-03-10_20h14.58.170,SL_sali,2021.2.3,Win32,59.88023952,1.3133,,,34,0,34,0,1,,,,,,,,
,,"[""circle"",""red"",""vert"",""up"",[106,106],[0,-150]]",circle,red,vert,up,"[106,106]","[0,-150]",up,1,,,,,,001,2025-03-10_20h14.58.170,SL_sali,2021.2.3,Win32,59.88023952,2.1284,,,35,0,35,0,1,,,,,,,,
,,"[""circle"",""green"",""vert"",""up"",[150,0],[0,-150]]",circle,green,vert,up,"[150,0]","[0,-150]",up,1,,,,,,001,2025-03-10_20h14.58.170,SL_sali,2021.2.3,Win32,59.88023952,2.0245,,,36,0,36,0,1,,,,,,,,
,,"[""diamond"",""red"",""hori"",""left"",[0,-150],[-106,106]]",diamond,red,hori,left,"[0,-150]","[-106,106]",left,1,,,,,,001,2025-03-10_20h14.58.170,SL_sali,2021.2.3,Win32,59.88023952,2.4521,,,37,0,37,0,1,,,,,,,,
,,"[""diamond"",""no_dis"",""vert"",""up"",[99999,99999],[0,-150]]",diamond,no_dis,vert,up,"[99999,99999]","[0,-150]",up,1,,,,,,001,2025-03-10_20h14.58.170,SL_sali,2021.2.3,Win32,59.88023952,1.7301,,,38,0,38,0,1,,,,,,,,
,,"[""diamond"",""red"",""hori"",""left"",[0,-150],[150,0]]",diamond,red,hori,left,"[0,-150]","[150,0]",left,1,,,,,,001,2025-03-10_20h14.58.170,SL_sali,2021.2.3,Win32,59.88023952,2.0151,,,39,0,39,0,1,,,,,,,,
,,"[""circle"",""red"",""vert"",""up"",[-106,106],[106,-106]]",circle,red,vert,up,"[-106,106]","[106,-106]",up,1,,,,,,001,2025-03-10_20h14.58.170,SL_sali,2021.2.3,Win32,59.88023952,2.5509,,,40,0,40,0,1,,,,,,,,
,,"[""diamond"",""red"",""vert"",""up"",[0,-150],[150,0]]",diamond,red,vert,up,"[0,-150]","[150,0]",up,1,,,,,,001,2025-03-10_20h14.58.170,SL_sali,2021.2.3,Win32,59.88023952,1.4763,,,41,0,41,0,1,,,,,,,,
,,"[""circle"",""green"",""vert"",""up"",[106,106],[106,-106]]",circle,green,vert,up,"[106,106]","[106,-106]",up,1,,,,,,001,2025-03-10_20h14.58.170,SL_sali,2021.2.3,Win32,59.88023952,1.4055,,,42,0,42,0,1,,,,,,,,
,,"[""circle"",""green"",""vert"",""up"",[106,-106],[0,150]]",circle,green,vert,up,"[106,-106]","[0,150]",up,1,,,,,,001,2025-03-10_20h14.58.170,SL_sali,2021.2.3,Win32,59.88023952,2.0662,,,43,0,43,0,1,,,,,,,,
,,"[""circle"",""green"",""hori"",""left"",[-106,106],[0,150]]",circle,green,hori,left,"[-106,106]","[0,150]",left,1,,,,,,001,2025-03-10_20h14.58.170,SL_sali,2021.2.3,Win32,59.88023952,2.3757,,,44,0,44,0,1,,,,,,,,
,,"[""diamond"",""no_dis"",""hori"",""left"",[99999,99999],[0,-150]]",diamond,no_dis,hori,left,"[99999,99999]","[0,-150]",left,1,,,,,,001,2025-03-10_20h14.58.170,SL_sali,2021.2.3,Win32,59.88023952,1.9738,,,45,0,45,0,1,,,,,,,,
,,"[""circle"",""green"",""vert"",""up"",[-150,0],[0,-150]]",circle,green,vert,up,"[-150,0]","[0,-150]",up,1,,,,,,001,2025-03-10_20h14.58.170,SL_sali,2021.2.3,Win32,59.88023952,1.3001,,,46,0,46,0,1,,,,,,,,
,,"[""circle"",""red"",""hori"",""left"",[150,0],[106,-106]]",circle,red,hori,left,"[150,0]","[106,-106]",left,1,,,,,,001,2025-03-10_20h14.58.170,SL_sali,2021.2.3,Win32,59.88023952,2.0214,,,47,0,47,0,1,,,,,,,,
,,"[""diamond"",""red"",""vert"",""up"",[-106,106],[106,-106]]",diamond,red,vert,up,"[-106,106]","[106,-106]",up,1,,,,,,001,2025-03-10_20h14.58.170,SL_sali,2021.2.3,Win32,59.88023952,1.5525,,,48,0,48,0,1,,,,,,,,
,,"[""circle"",""green"",""vert"",""up"",[-106,-106],[0,150]]",circle,green,vert,up,"[-106,-106]","[0,150]",up,1,,,,,,001,2025-03-10_20h14.58.170,SL_sali,2021.2.3,Win32,59.88023952,1.8765,,,49,0,49,0,1,,,,,,,,
,,"[""diamond"",""red"",""hori"",""left"",[0,-150],[-106,106]]",diamond,red,hori,left,"[0,-150]","[-106,106]",left,1,,,,,,001,2025-03-10_20h14.58.170,SL_sali,2021.2.3,Win32,59.88023952,2.141,,,50,0,50,0,1,,,,,,,,
,,"[""diamond"",""no_dis"",""vert"",""up"",[99999,99999],[-106,106]]",diamond,no_dis,vert,up,"[99999,99999]","[-106,106]",up,1,,,,,,001,2025-03-10_20h14.58.170,SL_sali,2021.2.3,Win32,59.88023952,2.7072,,,51,0,51,0,1,,,,,,,,
,,"[""diamond"",""red"",""vert"",""up"",[-106,-106],[106,-106]]",diamond,red,vert,up,"[-106,-106]","[106,-106]",up,1,,,,,,001,2025-03-10_20h14.58.170,SL_sali,2021.2.3,Win32,59.88023952,1.8294,,,52,0,52,0,1,,,,,,,,
,,"[""circle"",""green"",""hori"",""left"",[0,-150],[150,0]]",circle,green,hori,left,"[0,-150]","[150,0]",left,1,,,,,,001,2025-03-10_20h14.58.170,SL_sali,2021.2.3,Win32,59.88023952,2.2434,,,53,0,53,0,1,,,,,,,,
,,"[""circle"",""red"",""vert"",""up"",[0,-150],[-150,0]]",circle,red,vert,up,"[0,-150]","[-150,0]",up,1,,,,,,001,2025-03-10_20h14.58.170,SL_sali,2021.2.3,Win32,59.88023952,1.3999,,,54,0,54,0,1,,,,,,,,
,,"[""diamond"",""green"",""hori"",""left"",[106,106],[0,150]]",diamond,green,hori,left,"[106,106]","[0,150]",left,1,,,,,,001,2025-03-10_20h14.58.170,SL_sali,2021.2.3,Win32,59.88023952,2.431,,,55,0,55,0,1,,,,,,,,
,,"[""diamond"",""red"",""vert"",""up"",[150,0],[0,150]]",diamond,red,vert,up,"[150,0]","[0,150]",up,1,,,,,,001,2025-03-10_20h14.58.170,SL_sali,2021.2.3,Win32,59.88023952,1.8182,,,56,0,56,0,1,,,,,,,,
,,"[""diamond"",""no_dis"",""hori"",""left"",[99999,99999],[0,150]]",diamond,no_dis,hori,left,"[99999,99999]","[0,150]",left,1,,,,,,001,2025-03-10_20h14.58.170,SL_sali,2021.2.3,Win32,59.88023952,1.7545,,,57,0,57,0,1,,,,,,,,
,,"[""diamond"",""no_dis"",""vert"",""up"",[99999,99999],[106,106]]",diamond,no_dis,vert,up,"[99999,99999]","[106,106]",up,1,,,,,,001,2025-03-10_20h14.58.170,SL_sali,2021.2.3,Win32,59.88023952,1.5463,,,58,0,58,0,1,,,,,,,,
,,"[""diamond"",""green"",""vert"",""up"",[0,-150],[0,150]]",diamond,green,vert,up,"[0,-150]","[0,150]",up,1,,,,,,001,2025-03-10_20h14.58.170,SL_sali,2021.2.3,Win32,59.88023952,2.2501,,,59,0,59,0,1,,,,,,,,
,,"[""diamond"",""green"",""hori"",""left"",[-150,0],[-106,-106]]",diamond,green,hori,left,"[-150,0]","[-106,-106]",left,1,,,,,,001,2025-03-10_20h14.58.170,SL_sali,2021.2.3,Win32,59.88023952,2.118,,,60,0,60,0,1,,,,,,,,
,,"[""diamond"",""green"",""vert"",""up"",[0,-150],[106,106]]",diamond,green,vert,up,"[0,-150]","[106,106]",up,1,,,,,,001,2025-03-10_20h14.58.170,SL_sali,2021.2.3,Win32,59.88023952,1.2514,,,61,0,61,0,1,,,,,,,,
,,"[""diamond"",""green"",""vert"",""up"",[-106,-106],[0,150]]",diamond,green,vert,up,"[-106,-106]","[0,150]",,0,,,,,,001,2025-03-10_20h14.58.170,SL_sali,2021.2.3,Win32,59.88023952,,,,62,0,62,0,1,,,,,,,,
,,"[""diamond"",""red"",""vert"",""up"",[-150,0],[0,-150]]",diamond,red,vert,up,"[-150,0]","[0,-150]",up,1,,,,,,001,2025-03-10_20h14.58.170,SL_sali,2021.2.3,Win32,59.88023952,2.6678,,,63,0,63,0,1,,,,,,,,
,,"[""circle"",""green"",""vert"",""up"",[0,-150],[-150,0]]",circle,green,vert,up,"[0,-150]","[-150,0]",up,1,,,,,,001,2025-03-10_20h14.58.170,SL_sali,2021.2.3,Win32,59.88023952,2.4426,,,64,0,64,0,1,,,,,,,,
,,"[""diamond"",""no_dis"",""vert"",""up"",[99999,99999],[150,0]]",diamond,no_dis,vert,up,"[99999,99999]","[150,0]",up,1,,,,,,001,2025-03-10_20h14.58.170,SL_sali,2021.2.3,Win32,59.88023952,2.0065,,,65,0,65,0,1,,,,,,,,
,,"[""circle"",""no_dis"",""vert"",""up"",[99999,99999],[-106,106]]",circle,no_dis,vert,up,"[99999,99999]","[-106,106]",up,1,,,,,,001,2025-03-10_20h14.58.170,SL_sali,2021.2.3,Win32,59.88023952,1.2826,,,66,0,66,0,1,,,,,,,,
,,"[""diamond"",""red"",""vert"",""up"",[0,-150],[-150,0]]",diamond,red,vert,up,"[0,-150]","[-150,0]",up,1,,,,,,001,2025-03-10_20h14.58.170,SL_sali,2021.2.3,Win32,59.88023952,2.9436,,,67,0,67,0,1,,,,,,,,
,,"[""diamond"",""no_dis"",""vert"",""up"",[99999,99999],[-106,106]]",diamond,no_dis,vert,up,"[99999,99999]","[-106,106]",,0,,,,,,001,2025-03-10_20h14.58.170,SL_sali,2021.2.3,Win32,59.88023952,,,,68,0,68,0,1,,,,,,,,
,,"[""diamond"",""no_dis"",""hori"",""left"",[99999,99999],[-150,0]]",diamond,no_dis,hori,left,"[99999,99999]","[-150,0]",left,1,,,,,,001,2025-03-10_20h14.58.170,SL_sali,2021.2.3,Win32,59.88023952,2.0696,,,69,0,69,0,1,,,,,,,,
,,"[""circle"",""green"",""vert"",""up"",[-150,0],[-106,-106]]",circle,green,vert,up,"[-150,0]","[-106,-106]",up,1,,,,,,001,2025-03-10_20h14.58.170,SL_sali,2021.2.3,Win32,59.88023952,2.6589,,,70,0,70,0,1,,,,,,,,
,,"[""circle"",""no_dis"",""vert"",""up"",[99999,99999],[0,150]]",circle,no_dis,vert,up,"[99999,99999]","[0,150]",up,1,,,,,,001,2025-03-10_20h14.58.170,SL_sali,2021.2.3,Win32,59.88023952,1.6392,,,71,0,71,0,1,,,,,,,,
,,"[""circle"",""no_dis"",""hori"",""left"",[99999,99999],[-106,-106]]",circle,no_dis,hori,left,"[99999,99999]","[-106,-106]",left,1,,,,,,001,2025-03-10_20h14.58.170,SL_sali,2021.2.3,Win32,59.88023952,2.8207,,,72,0,72,0,1,,,,,,,,
,,"[""circle"",""red"",""hori"",""left"",[0,-150],[150,0]]",circle,red,hori,left,"[0,-150]","[150,0]",left,1,,,,,,001,2025-03-10_20h14.58.170,SL_sali,2021.2.3,Win32,59.88023952,2.892,,,73,0,73,0,1,,,,,,,,
,,"[""circle"",""no_dis"",""hori"",""left"",[99999,99999],[-106,-106]]",circle,no_dis,hori,left,"[99999,99999]","[-106,-106]",left,1,,,,,,001,2025-03-10_20h14.58.170,SL_sali,2021.2.3,Win32,59.88023952,2.7103,,,74,0,74,0,1,,,,,,,,
,,"[""circle"",""red"",""hori"",""left"",[0,150],[-150,0]]",circle,red,hori,left,"[0,150]","[-150,0]",left,1,,,,,,001,2025-03-10_20h14.58.170,SL_sali,2021.2.3,Win32,59.88023952,1.3173,,,75,0,75,0,1,,,,,,,,
,,"[""diamond"",""green"",""vert"",""up"",[0,-150],[150,0]]",diamond,green,vert,up,"[0,-150]","[150,0]",up,1,,,,,,001,2025-03-10_20h14.58.170,SL_sali,2021.2.3,Win32,59.88023952,2.2011,,,76,0,76,0,1,,,,,,,,
,,"[""diamond"",""green"",""hori"",""left"",[0,-150],[-106,106]]",diamond,green,hori,left,"[0,-150]","[-106,106]",,0,,,,,,001,2025-03-10_20h14.58.170,SL_sali,2021.2.3,Win32,59.88023952,,,,77,0,77,0,1,,,,,,,,
,,"[""diamond"",""green"",""hori"",""left"",[106,106],[0,150]]",diamond,green,hori,left,"[106,106]","[0,150]",left,1,,,,,,001,2025-03-10_20h14.58.170,SL_sali,2021.2.3,Win32,59.88023952,2.0809,,,78,0,78,0,1,,,,,,,,
,,"[""circle"",""green"",""hori"",""left"",[-106,106],[0,-150]]",circle,green,hori,left,"[-106,106]","[0,-150]",left,1,,,,,,001,2025-03-10_20h14.58.170,SL_sali,2021.2.3,Win32,59.88023952,2.5598,,,79,0,79,0,1,,,,,,,,
,,"[""circle"",""no_dis"",""hori"",""left"",[99999,99999],[-106,-106]]",circle,no_dis,hori,left,"[99999,99999]","[-106,-106]",left,1,,,,,,001,2025-03-10_20h14.58.170,SL_sali,2021.2.3,Win32,59.88023952,2.5714,,,80,0,80,0,1,,,,,,,,
,,"[""diamond"",""no_dis"",""hori"",""left"",[99999,99999],[106,-106]]",diamond,no_dis,hori,left,"[99999,99999]","[106,-106]",left,1,,,,,,001,2025-03-10_20h14.58.170,SL_sali,2021.2.3,Win32,59.88023952,2.5304,,,81,0,81,0,1,,,,,,,,
,,"[""diamond"",""no_dis"",""hori"",""left"",[99999,99999],[-150,0]]",diamond,no_dis,hori,left,"[99999,99999]","[-150,0]",left,1,,,,,,001,2025-03-10_20h14.58.170,SL_sali,2021.2.3,Win32,59.88023952,2.347,,,82,0,82,0,1,,,,,,,,
,,"[""circle"",""green"",""vert"",""up"",[0,-150],[150,0]]",circle,green,vert,up,"[0,-150]","[150,0]",up,1,,,,,,001,2025-03-10_20h14.58.170,SL_sali,2021.2.3,Win32,59.88023952,1.5855,,,83,0,83,0,1,,,,,,,,
,,"[""circle"",""green"",""vert"",""up"",[0,150],[106,106]]",circle,green,vert,up,"[0,150]","[106,106]",up,1,,,,,,001,2025-03-10_20h14.58.170,SL_sali,2021.2.3,Win32,59.88023952,1.7168,,,84,0,84,0,1,,,,,,,,
,,"[""circle"",""green"",""hori"",""left"",[0,-150],[0,150]]",circle,green,hori,left,"[0,-150]","[0,150]",left,1,,,,,,001,2025-03-10_20h14.58.170,SL_sali,2021.2.3,Win32,59.88023952,1.2205,,,85,0,85,0,1,,,,,,,,
,,"[""circle"",""green"",""hori"",""left"",[0,150],[-106,-106]]",circle,green,hori,left,"[0,150]","[-106,-106]",left,1,,,,,,001,2025-03-10_20h14.58.170,SL_sali,2021.2.3,Win32,59.88023952,1.4485,,,86,0,86,0,1,,,,,,,,
,,"[""circle"",""green"",""hori"",""left"",[106,-106],[150,0]]",circle,green,hori,left,"[106,-106]","[150,0]",left,1,,,,,,001,2025-03-10_20h14.58.170,SL_sali,2021.2.3,Win32,59.88023952,2.0392,,,87,0,87,0,1,,,,,,,,
,,"[""circle"",""no_dis"",""hori"",""left"",[99999,99999],[106,106]]",circle,no_dis,hori,left,"[99999,99999]","[106,106]",left,1,,,,,,001,2025-03-10_20h14.58.170,SL_sali,2021.2.3,Win32,59.88023952,1.7174,,,88,0,88,0,1,,,,,,,,
,,"[""diamond"",""no_dis"",""hori"",""left"",[99999,99999],[-150,0]]",diamond,no_dis,hori,left,"[99999,99999]","[-150,0]",left,1,,,,,,001,2025-03-10_20h14.58.170,SL_sali,2021.2.3,Win32,59.88023952,1.2249,,,89,0,89,0,1,,,,,,,,
,,"[""diamond"",""green"",""vert"",""up"",[0,-150],[106,-106]]",diamond,green,vert,up,"[0,-150]","[106,-106]",up,1,,,,,,001,2025-03-10_20h14.58.170,SL_sali,2021.2.3,Win32,59.88023952,1.3652,,,90,0,90,0,1,,,,,,,,
,,"[""circle"",""red"",""vert"",""up"",[150,0],[0,150]]",circle,red,vert,up,"[150,0]","[0,150]",up,1,,,,,,001,2025-03-10_20h14.58.170,SL_sali,2021.2.3,Win32,59.88023952,1.9608,,,91,0,91,0,1,,,,,,,,
,,"[""circle"",""no_dis"",""vert"",""up"",[99999,99999],[-106,-106]]",circle,no_dis,vert,up,"[99999,99999]","[-106,-106]",up,1,,,,,,001,2025-03-10_20h14.58.170,SL_sali,2021.2.3,Win32,59.88023952,2.0179,,,92,0,92,0,1,,,,,,,,
,,"[""circle"",""green"",""hori"",""left"",[106,-106],[-106,-106]]",circle,green,hori,left,"[106,-106]","[-106,-106]",left,1,,,,,,001,2025-03-10_20h14.58.170,SL_sali,2021.2.3,Win32,59.88023952,1.6172,,,93,0,93,0,1,,,,,,,,
,,"[""circle"",""red"",""hori"",""left"",[0,-150],[150,0]]",circle,red,hori,left,"[0,-150]","[150,0]",left,1,,,,,,001,2025-03-10_20h14.58.170,SL_sali,2021.2.3,Win32,59.88023952,1.5333,,,94,0,94,0,1,,,,,,,,
,,"[""circle"",""red"",""vert"",""up"",[0,150],[106,-106]]",circle,red,vert,up,"[0,150]","[106,-106]",up,1,,,,,,001,2025-03-10_20h14.58.170,SL_sali,2021.2.3,Win32,59.88023952,1.7667,,,95,0,95,0,1,,,,,,,,
,,"[""circle"",""red"",""hori"",""left"",[106,-106],[-106,106]]",circle,red,hori,left,"[106,-106]","[-106,106]",left,1,,,,,,001,2025-03-10_20h14.58.170,SL_sali,2021.2.3,Win32,59.88023952,1.0002,,,96,0,96,0,1,,,,,,,,
,,"[""diamond"",""green"",""hori"",""left"",[0,150],[150,0]]",diamond,green,hori,left,"[0,150]","[150,0]",left,1,,,,,,001,2025-03-10_20h14.58.170,SL_sali,2021.2.3,Win32,59.88023952,1.89,,,97,0,97,0,1,,,,,,,,
,,"[""circle"",""red"",""hori"",""left"",[0,-150],[-150,0]]",circle,red,hori,left,"[0,-150]","[-150,0]",left,1,,,,,,001,2025-03-10_20h14.58.170,SL_sali,2021.2.3,Win32,59.88023952,2.1349,,,98,0,98,0,1,,,,,,,,
,,"[""circle"",""red"",""hori"",""left"",[106,106],[-150,0]]",circle,red,hori,left,"[106,106]","[-150,0]",left,1,,,,,,001,2025-03-10_20h14.58.170,SL_sali,2021.2.3,Win32,59.88023952,1.907,,,99,0,99,0,1,,,,,,,,
,,"[""circle"",""no_dis"",""hori"",""left"",[99999,99999],[0,150]]",circle,no_dis,hori,left,"[99999,99999]","[0,150]",left,1,,,,,,001,2025-03-10_20h14.58.170,SL_sali,2021.2.3,Win32,59.88023952,1.6167,,,100,0,100,0,1,,,,,,,,
,,"[""circle"",""no_dis"",""hori"",""left"",[99999,99999],[106,106]]",circle,no_dis,hori,left,"[99999,99999]","[106,106]",left,1,,,,,,001,2025-03-10_20h14.58.170,SL_sali,2021.2.3,Win32,59.88023952,1.1843,,,101,0,101,0,1,,,,,,,,
,,"[""diamond"",""red"",""vert"",""up"",[-106,-106],[150,0]]",diamond,red,vert,up,"[-106,-106]","[150,0]",up,1,,,,,,001,2025-03-10_20h14.58.170,SL_sali,2021.2.3,Win32,59.88023952,1.77,,,102,0,102,0,1,,,,,,,,
,,"[""diamond"",""green"",""hori"",""left"",[106,-106],[0,150]]",diamond,green,hori,left,"[106,-106]","[0,150]",left,1,,,,,,001,2025-03-10_20h14.58.170,SL_sali,2021.2.3,Win32,59.88023952,2.0134,,,103,0,103,0,1,,,,,,,,
,,"[""circle"",""red"",""vert"",""up"",[150,0],[106,-106]]",circle,red,vert,up,"[150,0]","[106,-106]",up,1,,,,,,001,2025-03-10_20h14.58.170,SL_sali,2021.2.3,Win32,59.88023952,2.4975,,,104,0,104,0,1,,,,,,,,
,,"[""diamond"",""no_dis"",""vert"",""up"",[99999,99999],[0,-150]]",diamond,no_dis,vert,up,"[99999,99999]","[0,-150]",up,1,,,,,,001,2025-03-10_20h14.58.170,SL_sali,2021.2.3,Win32,59.88023952,2.5156,,,105,0,105,0,1,,,,,,,,
,,"[""diamond"",""no_dis"",""hori"",""left"",[99999,99999],[-106,106]]",diamond,no_dis,hori,left,"[99999,99999]","[-106,106]",left,1,,,,,,001,2025-03-10_20h14.58.170,SL_sali,2021.2.3,Win32,59.88023952,1.4675,,,106,0,106,0,1,,,,,,,,
,,"[""diamond"",""green"",""hori"",""left"",[-106,-106],[150,0]]",diamond,green,hori,left,"[-106,-106]","[150,0]",left,1,,,,,,001,2025-03-10_20h14.58.170,SL_sali,2021.2.3,Win32,59.88023952,1.7313,,,107,0,107,0,1,,,,,,,,
,,"[""diamond"",""red"",""hori"",""left"",[0,-150],[-106,-106]]",diamond,red,hori,left,"[0,-150]","[-106,-106]",left,1,,,,,,001,2025-03-10_20h14.58.170,SL_sali,2021.2.3,Win32,59.88023952,2.1201,,,108,0,108,0,1,,,,,,,,
,,"[""circle"",""no_dis"",""vert"",""up"",[99999,99999],[150,0]]",circle,no_dis,vert,up,"[99999,99999]","[150,0]",up,1,,,,,,001,2025-03-10_20h14.58.170,SL_sali,2021.2.3,Win32,59.88023952,2.4912,,,109,0,109,0,1,,,,,,,,
,,"[""diamond"",""no_dis"",""hori"",""left"",[99999,99999],[0,-150]]",diamond,no_dis,hori,left,"[99999,99999]","[0,-150]",left,1,,,,,,001,2025-03-10_20h14.58.170,SL_sali,2021.2.3,Win32,59.88023952,2.2486,,,110,0,110,0,1,,,,,,,,
,,"[""circle"",""no_dis"",""vert"",""up"",[99999,99999],[0,150]]",circle,no_dis,vert,up,"[99999,99999]","[0,150]",,0,,,,,,001,2025-03-10_20h14.58.170,SL_sali,2021.2.3,Win32,59.88023952,,,,111,0,111,0,1,,,,,,,,
,,"[""circle"",""no_dis"",""hori"",""left"",[99999,99999],[0,150]]",circle,no_dis,hori,left,"[99999,99999]","[0,150]",,0,,,,,,001,2025-03-10_20h14.58.170,SL_sali,2021.2.3,Win32,59.88023952,,,,112,0,112,0,1,,,,,,,,
,,"[""diamond"",""green"",""hori"",""left"",[106,-106],[0,-150]]",diamond,green,hori,left,"[106,-106]","[0,-150]",,0,,,,,,001,2025-03-10_20h14.58.170,SL_sali,2021.2.3,Win32,59.88023952,,,,113,0,113,0,1,,,,,,,,
,,"[""circle"",""red"",""hori"",""left"",[-106,-106],[-106,106]]",circle,red,hori,left,"[-106,-106]","[-106,106]",left,1,,,,,,001,2025-03-10_20h14.58.170,SL_sali,2021.2.3,Win32,59.88023952,1.1054,,,114,0,114,0,1,,,,,,,,
,,"[""diamond"",""no_dis"",""vert"",""up"",[99999,99999],[150,0]]",diamond,no_dis,vert,up,"[99999,99999]","[150,0]",up,1,,,,,,001,2025-03-10_20h14.58.170,SL_sali,2021.2.3,Win32,59.88023952,1.658,,,115,0,115,0,1,,,,,,,,
,,"[""circle"",""no_dis"",""vert"",""up"",[99999,99999],[106,106]]",circle,no_dis,vert,up,"[99999,99999]","[106,106]",up,1,,,,,,001,2025-03-10_20h14.58.170,SL_sali,2021.2.3,Win32,59.88023952,1.3279,,,116,0,116,0,1,,,,,,,,
,,"[""circle"",""green"",""hori"",""left"",[0,150],[106,-106]]",circle,green,hori,left,"[0,150]","[106,-106]",left,1,,,,,,001,2025-03-10_20h14.58.170,SL_sali,2021.2.3,Win32,59.88023952,1.4421,,,117,0,117,0,1,,,,,,,,
,,"[""circle"",""red"",""vert"",""up"",[106,106],[0,150]]",circle,red,vert,up,"[106,106]","[0,150]",up,1,,,,,,001,2025-03-10_20h14.58.170,SL_sali,2021.2.3,Win32,59.88023952,1.355,,,118,0,118,0,1,,,,,,,,
,,"[""diamond"",""red"",""hori"",""left"",[106,106],[150,0]]",diamond,red,hori,left,"[106,106]","[150,0]",left,1,,,,,,001,2025-03-10_20h14.58.170,SL_sali,2021.2.3,Win32,59.88023952,1.3993,,,119,0,119,0,1,,,,,,,,
,,,,,,,,,,,,,,,,001,2025-03-10_20h14.58.170,SL_sali,2021.2.3,Win32,59.88023952,,,,,,,,,1,space,14.8323,0,0,0,0,1
,,"[""circle"",""red"",""hori"",""left"",[0,-150],[-150,0]]",circle,red,hori,left,"[0,-150]","[-150,0]",left,1,,,,,,001,2025-03-10_20h14.58.170,SL_sali,2021.2.3,Win32,59.88023952,2.6694,,,0,0,0,0,1,,,,,,,,
,,"[""circle"",""red"",""hori"",""left"",[0,-150],[150,0]]",circle,red,hori,left,"[0,-150]","[150,0]",left,1,,,,,,001,2025-03-10_20h14.58.170,SL_sali,2021.2.3,Win32,59.88023952,1.5792,,,1,0,1,0,1,,,,,,,,
,,"[""diamond"",""green"",""hori"",""left"",[0,-150],[-106,106]]",diamond,green,hori,left,"[0,-150]","[-106,106]",left,1,,,,,,001,2025-03-10_20h14.58.170,SL_sali,2021.2.3,Win32,59.88023952,1.6472,,,2,0,2,0,1,,,,,,,,
,,"[""diamond"",""no_dis"",""hori"",""left"",[99999,99999],[0,150]]",diamond,no_dis,hori,left,"[99999,99999]","[0,150]",left,1,,,,,,001,2025-03-10_20h14.58.170,SL_sali,2021.2.3,Win32,59.88023952,1.1244,,,3,0,3,0,1,,,,,,,,
,,"[""circle"",""no_dis"",""hori"",""left"",[99999,99999],[0,150]]",circle,no_dis,hori,left,"[99999,99999]","[0,150]",left,1,,,,,,001,2025-03-10_20h14.58.170,SL_sali,2021.2.3,Win32,59.88023952,1.8197,,,4,0,4,0,1,,,,,,,,
,,"[""diamond"",""red"",""hori"",""left"",[-106,106],[0,150]]",diamond,red,hori,left,"[-106,106]","[0,150]",left,1,,,,,,001,2025-03-10_20h14.58.170,SL_sali,2021.2.3,Win32,59.88023952,1.5312,,,5,0,5,0,1,,,,,,,,
,,"[""circle"",""red"",""vert"",""up"",[106,106],[0,-150]]",circle,red,vert,up,"[106,106]","[0,-150]",up,1,,,,,,001,2025-03-10_20h14.58.170,SL_sali,2021.2.3,Win32,59.88023952,1.4163,,,6,0,6,0,1,,,,,,,,
,,"[""circle"",""no_dis"",""hori"",""left"",[99999,99999],[106,106]]",circle,no_dis,hori,left,"[99999,99999]","[106,106]",left,1,,,,,,001,2025-03-10_20h14.58.170,SL_sali,2021.2.3,Win32,59.88023952,1.3938,,,7,0,7,0,1,,,,,,,,
,,"[""circle"",""green"",""hori"",""left"",[0,150],[106,-106]]",circle,green,hori,left,"[0,150]","[106,-106]",left,1,,,,,,001,2025-03-10_20h14.58.170,SL_sali,2021.2.3,Win32,59.88023952,1.3665,,,8,0,8,0,1,,,,,,,,
,,"[""circle"",""red"",""vert"",""up"",[0,-150],[-150,0]]",circle,red,vert,up,"[0,-150]","[-150,0]",up,1,,,,,,001,2025-03-10_20h14.58.170,SL_sali,2021.2.3,Win32,59.88023952,1.2401,,,9,0,9,0,1,,,,,,,,
,,"[""diamond"",""no_dis"",""vert"",""up"",[99999,99999],[150,0]]",diamond,no_dis,vert,up,"[99999,99999]","[150,0]",up,1,,,,,,001,2025-03-10_20h14.58.170,SL_sali,2021.2.3,Win32,59.88023952,1.3815,,,10,0,10,0,1,,,,,,,,
,,"[""circle"",""no_dis"",""vert"",""up"",[99999,99999],[106,-106]]",circle,no_dis,vert,up,"[99999,99999]","[106,-106]",up,1,,,,,,001,2025-03-10_20h14.58.170,SL_sali,2021.2.3,Win32,59.88023952,1.5177,,,11,0,11,0,1,,,,,,,,
,,"[""diamond"",""green"",""hori"",""left"",[106,-106],[0,-150]]",diamond,green,hori,left,"[106,-106]","[0,-150]",left,1,,,,,,001,2025-03-10_20h14.58.170,SL_sali,2021.2.3,Win32,59.88023952,1.5854,,,12,0,12,0,1,,,,,,,,
,,"[""circle"",""no_dis"",""hori"",""left"",[99999,99999],[0,150]]",circle,no_dis,hori,left,"[99999,99999]","[0,150]",left,1,,,,,,001,2025-03-10_20h14.58.170,SL_sali,2021.2.3,Win32,59.88023952,1.4915,,,13,0,13,0,1,,,,,,,,
,,"[""diamond"",""red"",""vert"",""up"",[0,-150],[-150,0]]",diamond,red,vert,up,"[0,-150]","[-150,0]",up,1,,,,,,001,2025-03-10_20h14.58.170,SL_sali,2021.2.3,Win32,59.88023952,1.737,,,14,0,14,0,1,,,,,,,,
,,"[""circle"",""red"",""vert"",""up"",[150,0],[0,150]]",circle,red,vert,up,"[150,0]","[0,150]",up,1,,,,,,001,2025-03-10_20h14.58.170,SL_sali,2021.2.3,Win32,59.88023952,1.4387,,,15,0,15,0,1,,,,,,,,
,,"[""circle"",""green"",""hori"",""left"",[106,-106],[150,0]]",circle,green,hori,left,"[106,-106]","[150,0]",left,1,,,,,,001,2025-03-10_20h14.58.170,SL_sali,2021.2.3,Win32,59.88023952,1.8035,,,16,0,16,0,1,,,,,,,,
,,"[""circle"",""no_dis"",""vert"",""up"",[99999,99999],[106,-106]]",circle,no_dis,vert,up,"[99999,99999]","[106,-106]",up,1,,,,,,001,2025-03-10_20h14.58.170,SL_sali,2021.2.3,Win32,59.88023952,1.4248,,,17,0,17,0,1,,,,,,,,
,,"[""circle"",""red"",""hori"",""left"",[106,-106],[0,150]]",circle,red,hori,left,"[106,-106]","[0,150]",left,1,,,,,,001,2025-03-10_20h14.58.170,SL_sali,2021.2.3,Win32,59.88023952,2.4116,,,18,0,18,0,1,,,,,,,,
,,"[""diamond"",""no_dis"",""vert"",""up"",[99999,99999],[0,-150]]",diamond,no_dis,vert,up,"[99999,99999]","[0,-150]",up,1,,,,,,001,2025-03-10_20h14.58.170,SL_sali,2021.2.3,Win32,59.88023952,1.3663,,,19,0,19,0,1,,,,,,,,
,,"[""diamond"",""red"",""hori"",""left"",[0,-150],[150,0]]",diamond,red,hori,left,"[0,-150]","[150,0]",left,1,,,,,,001,2025-03-10_20h14.58.170,SL_sali,2021.2.3,Win32,59.88023952,1.6724,,,20,0,20,0,1,,,,,,,,
,,"[""diamond"",""green"",""vert"",""up"",[0,-150],[106,106]]",diamond,green,vert,up,"[0,-150]","[106,106]",up,1,,,,,,001,2025-03-10_20h14.58.170,SL_sali,2021.2.3,Win32,59.88023952,1.5434,,,21,0,21,0,1,,,,,,,,
,,"[""diamond"",""red"",""vert"",""up"",[106,106],[0,-150]]",diamond,red,vert,up,"[106,106]","[0,-150]",up,1,,,,,,001,2025-03-10_20h14.58.170,SL_sali,2021.2.3,Win32,59.88023952,1.8309,,,22,0,22,0,1,,,,,,,,
,,"[""circle"",""red"",""vert"",""up"",[106,106],[0,150]]",circle,red,vert,up,"[106,106]","[0,150]",up,1,,,,,,001,2025-03-10_20h14.58.170,SL_sali,2021.2.3,Win32,59.88023952,2.6669,,,23,0,23,0,1,,,,,,,,
,,"[""diamond"",""green"",""hori"",""left"",[0,150],[150,0]]",diamond,green,hori,left,"[0,150]","[150,0]",left,1,,,,,,001,2025-03-10_20h14.58.170,SL_sali,2021.2.3,Win32,59.88023952,1.793,,,24,0,24,0,1,,,,,,,,
,,"[""diamond"",""green"",""hori"",""left"",[-150,0],[-106,-106]]",diamond,green,hori,left,"[-150,0]","[-106,-106]",left,1,,,,,,001,2025-03-10_20h14.58.170,SL_sali,2021.2.3,Win32,59.88023952,1.3249,,,25,0,25,0,1,,,,,,,,
,,"[""circle"",""no_dis"",""vert"",""up"",[99999,99999],[0,150]]",circle,no_dis,vert,up,"[99999,99999]","[0,150]",up,1,,,,,,001,2025-03-10_20h14.58.170,SL_sali,2021.2.3,Win32,59.88023952,2.2836,,,26,0,26,0,1,,,,,,,,
,,"[""circle"",""green"",""hori"",""left"",[-106,106],[0,150]]",circle,green,hori,left,"[-106,106]","[0,150]",,0,,,,,,001,2025-03-10_20h14.58.170,SL_sali,2021.2.3,Win32,59.88023952,,,,27,0,27,0,1,,,,,,,,
,,"[""circle"",""no_dis"",""hori"",""left"",[99999,99999],[106,106]]",circle,no_dis,hori,left,"[99999,99999]","[106,106]",left,1,,,,,,001,2025-03-10_20h14.58.170,SL_sali,2021.2.3,Win32,59.88023952,1.3045,,,28,0,28,0,1,,,,,,,,
,,"[""diamond"",""red"",""vert"",""up"",[-150,0],[0,-150]]",diamond,red,vert,up,"[-150,0]","[0,-150]",up,1,,,,,,001,2025-03-10_20h14.58.170,SL_sali,2021.2.3,Win32,59.88023952,2.0502,,,29,0,29,0,1,,,,,,,,
,,"[""diamond"",""no_dis"",""hori"",""left"",[99999,99999],[106,-106]]",diamond,no_dis,hori,left,"[99999,99999]","[106,-106]",left,1,,,,,,001,2025-03-10_20h14.58.170,SL_sali,2021.2.3,Win32,59.88023952,1.1579,,,30,0,30,0,1,,,,,,,,
,,"[""circle"",""no_dis"",""vert"",""up"",[99999,99999],[0,150]]",circle,no_dis,vert,up,"[99999,99999]","[0,150]",up,1,,,,,,001,2025-03-10_20h14.58.170,SL_sali,2021.2.3,Win32,59.88023952,1.1239,,,31,0,31,0,1,,,,,,,,
,,"[""circle"",""red"",""hori"",""left"",[0,-150],[150,0]]",circle,red,hori,left,"[0,-150]","[150,0]",left,1,,,,,,001,2025-03-10_20h14.58.170,SL_sali,2021.2.3,Win32,59.88023952,1.5501,,,32,0,32,0,1,,,,,,,,
,,"[""diamond"",""red"",""hori"",""left"",[150,0],[106,106]]",diamond,red,hori,left,"[150,0]","[106,106]",left,1,,,,,,001,2025-03-10_20h14.58.170,SL_sali,2021.2.3,Win32,59.88023952,1.7201,,,33,0,33,0,1,,,,,,,,
,,"[""circle"",""no_dis"",""hori"",""left"",[99999,99999],[-106,-106]]",circle,no_dis,hori,left,"[99999,99999]","[-106,-106]",left,1,,,,,,001,2025-03-10_20h14.58.170,SL_sali,2021.2.3,Win32,59.88023952,1.1662,,,34,0,34,0,1,,,,,,,,
,,"[""diamond"",""red"",""vert"",""up"",[-106,106],[0,150]]",diamond,red,vert,up,"[-106,106]","[0,150]",up,1,,,,,,001,2025-03-10_20h14.58.170,SL_sali,2021.2.3,Win32,59.88023952,1.2521,,,35,0,35,0,1,,,,,,,,
,,"[""diamond"",""no_dis"",""hori"",""left"",[99999,99999],[106,-106]]",diamond,no_dis,hori,left,"[99999,99999]","[106,-106]",left,1,,,,,,001,2025-03-10_20h14.58.170,SL_sali,2021.2.3,Win32,59.88023952,1.7048,,,36,0,36,0,1,,,,,,,,
,,"[""diamond"",""green"",""vert"",""up"",[-106,106],[0,150]]",diamond,green,vert,up,"[-106,106]","[0,150]",up,1,,,,,,001,2025-03-10_20h14.58.170,SL_sali,2021.2.3,Win32,59.88023952,1.7835,,,37,0,37,0,1,,,,,,,,
,,"[""diamond"",""green"",""vert"",""up"",[0,-150],[106,106]]",diamond,green,vert,up,"[0,-150]","[106,106]",up,1,,,,,,001,2025-03-10_20h14.58.170,SL_sali,2021.2.3,Win32,59.88023952,1.0483,,,38,0,38,0,1,,,,,,,,
,,"[""diamond"",""no_dis"",""vert"",""up"",[99999,99999],[-106,-106]]",diamond,no_dis,vert,up,"[99999,99999]","[-106,-106]",up,1,,,,,,001,2025-03-10_20h14.58.170,SL_sali,2021.2.3,Win32,59.88023952,0.9428,,,39,0,39,0,1,,,,,,,,
,,"[""diamond"",""red"",""vert"",""up"",[0,-150],[-150,0]]",diamond,red,vert,up,"[0,-150]","[-150,0]",up,1,,,,,,001,2025-03-10_20h14.58.170,SL_sali,2021.2.3,Win32,59.88023952,1.2154,,,40,0,40,0,1,,,,,,,,
,,"[""circle"",""no_dis"",""vert"",""up"",[99999,99999],[150,0]]",circle,no_dis,vert,up,"[99999,99999]","[150,0]",up,1,,,,,,001,2025-03-10_20h14.58.170,SL_sali,2021.2.3,Win32,59.88023952,2,,,41,0,41,0,1,,,,,,,,
,,"[""diamond"",""red"",""vert"",""up"",[-106,-106],[106,-106]]",diamond,red,vert,up,"[-106,-106]","[106,-106]",up,1,,,,,,001,2025-03-10_20h14.58.170,SL_sali,2021.2.3,Win32,59.88023952,1.3368,,,42,0,42,0,1,,,,,,,,
,,"[""circle"",""green"",""vert"",""up"",[-150,0],[0,-150]]",circle,green,vert,up,"[-150,0]","[0,-150]",up,1,,,,,,001,2025-03-10_20h14.58.170,SL_sali,2021.2.3,Win32,59.88023952,1.9551,,,43,0,43,0,1,,,,,,,,
,,"[""diamond"",""no_dis"",""hori"",""left"",[99999,99999],[0,-150]]",diamond,no_dis,hori,left,"[99999,99999]","[0,-150]",left,1,,,,,,001,2025-03-10_20h14.58.170,SL_sali,2021.2.3,Win32,59.88023952,1.1987,,,44,0,44,0,1,,,,,,,,
,,"[""diamond"",""no_dis"",""hori"",""left"",[99999,99999],[150,0]]",diamond,no_dis,hori,left,"[99999,99999]","[150,0]",left,1,,,,,,001,2025-03-10_20h14.58.170,SL_sali,2021.2.3,Win32,59.88023952,1.2828,,,45,0,45,0,1,,,,,,,,
,,"[""diamond"",""red"",""vert"",""up"",[150,0],[0,150]]",diamond,red,vert,up,"[150,0]","[0,150]",up,1,,,,,,001,2025-03-10_20h14.58.170,SL_sali,2021.2.3,Win32,59.88023952,1.3153,,,46,0,46,0,1,,,,,,,,
,,"[""circle"",""red"",""hori"",""left"",[-106,-106],[0,-150]]",circle,red,hori,left,"[-106,-106]","[0,-150]",left,1,,,,,,001,2025-03-10_20h14.58.170,SL_sali,2021.2.3,Win32,59.88023952,1.1565,,,47,0,47,0,1,,,,,,,,
,,"[""circle"",""no_dis"",""vert"",""up"",[99999,99999],[106,106]]",circle,no_dis,vert,up,"[99999,99999]","[106,106]",up,1,,,,,,001,2025-03-10_20h14.58.170,SL_sali,2021.2.3,Win32,59.88023952,1.1553,,,48,0,48,0,1,,,,,,,,
,,"[""diamond"",""green"",""vert"",""up"",[0,-150],[0,150]]",diamond,green,vert,up,"[0,-150]","[0,150]",up,1,,,,,,001,2025-03-10_20h14.58.170,SL_sali,2021.2.3,Win32,59.88023952,1.3164,,,49,0,49,0,1,,,,,,,,
,,"[""circle"",""green"",""vert"",""up"",[106,-106],[0,150]]",circle,green,vert,up,"[106,-106]","[0,150]",up,1,,,,,,001,2025-03-10_20h14.58.170,SL_sali,2021.2.3,Win32,59.88023952,2.1362,,,50,0,50,0,1,,,,,,,,
,,"[""diamond"",""red"",""vert"",""up"",[0,-150],[150,0]]",diamond,red,vert,up,"[0,-150]","[150,0]",up,1,,,,,,001,2025-03-10_20h14.58.170,SL_sali,2021.2.3,Win32,59.88023952,1.4482,,,51,0,51,0,1,,,,,,,,
,,"[""circle"",""green"",""vert"",""up"",[-150,0],[-106,-106]]",circle,green,vert,up,"[-150,0]","[-106,-106]",up,1,,,,,,001,2025-03-10_20h14.58.170,SL_sali,2021.2.3,Win32,59.88023952,1.8329,,,52,0,52,0,1,,,,,,,,
,,"[""circle"",""green"",""hori"",""left"",[106,-106],[-106,-106]]",circle,green,hori,left,"[106,-106]","[-106,-106]",left,1,,,,,,001,2025-03-10_20h14.58.170,SL_sali,2021.2.3,Win32,59.88023952,1.367,,,53,0,53,0,1,,,,,,,,
,,"[""circle"",""red"",""hori"",""left"",[150,0],[106,-106]]",circle,red,hori,left,"[150,0]","[106,-106]",left,1,,,,,,001,2025-03-10_20h14.58.170,SL_sali,2021.2.3,Win32,59.88023952,1.534,,,54,0,54,0,1,,,,,,,,
,,"[""circle"",""green"",""vert"",""up"",[0,-150],[-150,0]]",circle,green,vert,up,"[0,-150]","[-150,0]",up,1,,,,,,001,2025-03-10_20h14.58.170,SL_sali,2021.2.3,Win32,59.88023952,1.8605,,,55,0,55,0,1,,,,,,,,
,,"[""circle"",""green"",""hori"",""left"",[0,-150],[150,0]]",circle,green,hori,left,"[0,-150]","[150,0]",left,1,,,,,,001,2025-03-10_20h14.58.170,SL_sali,2021.2.3,Win32,59.88023952,1.0836,,,56,0,56,0,1,,,,,,,,
,,"[""circle"",""green"",""vert"",""up"",[150,0],[0,-150]]",circle,green,vert,up,"[150,0]","[0,-150]",up,1,,,,,,001,2025-03-10_20h14.58.170,SL_sali,2021.2.3,Win32,59.88023952,1.2364,,,57,0,57,0,1,,,,,,,,
,,"[""circle"",""red"",""hori"",""left"",[-106,-106],[-106,106]]",circle,red,hori,left,"[-106,-106]","[-106,106]",left,1,,,,,,001,2025-03-10_20h14.58.170,SL_sali,2021.2.3,Win32,59.88023952,0.9021,,,58,0,58,0,1,,,,,,,,
,,"[""circle"",""no_dis"",""hori"",""left"",[99999,99999],[-106,-106]]",circle,no_dis,hori,left,"[99999,99999]","[-106,-106]",left,1,,,,,,001,2025-03-10_20h14.58.170,SL_sali,2021.2.3,Win32,59.88023952,1.0026,,,59,0,59,0,1,,,,,,,,
,,"[""diamond"",""no_dis"",""vert"",""up"",[99999,99999],[-106,106]]",diamond,no_dis,vert,up,"[99999,99999]","[-106,106]",up,1,,,,,,001,2025-03-10_20h14.58.170,SL_sali,2021.2.3,Win32,59.88023952,1.6879,,,60,0,60,0,1,,,,,,,,
,,"[""diamond"",""no_dis"",""hori"",""left"",[99999,99999],[-150,0]]",diamond,no_dis,hori,left,"[99999,99999]","[-150,0]",left,1,,,,,,001,2025-03-10_20h14.58.170,SL_sali,2021.2.3,Win32,59.88023952,1.2643,,,61,0,61,0,1,,,,,,,,
,,"[""diamond"",""green"",""vert"",""up"",[-106,-106],[0,150]]",diamond,green,vert,up,"[-106,-106]","[0,150]",up,1,,,,,,001,2025-03-10_20h14.58.170,SL_sali,2021.2.3,Win32,59.88023952,1.0714,,,62,0,62,0,1,,,,,,,,
,,"[""circle"",""green"",""hori"",""left"",[-150,0],[106,106]]",circle,green,hori,left,"[-150,0]","[106,106]",left,1,,,,,,001,2025-03-10_20h14.58.170,SL_sali,2021.2.3,Win32,59.88023952,1.2036,,,63,0,63,0,1,,,,,,,,
,,"[""diamond"",""red"",""vert"",""up"",[-106,-106],[150,0]]",diamond,red,vert,up,"[-106,-106]","[150,0]",up,1,,,,,,001,2025-03-10_20h14.58.170,SL_sali,2021.2.3,Win32,59.88023952,0.9986,,,64,0,64,0,1,,,,,,,,
,,"[""circle"",""red"",""hori"",""left"",[106,-106],[-106,106]]",circle,red,hori,left,"[106,-106]","[-106,106]",left,1,,,,,,001,2025-03-10_20h14.58.170,SL_sali,2021.2.3,Win32,59.88023952,0.9599,,,65,0,65,0,1,,,,,,,,
,,"[""circle"",""red"",""vert"",""up"",[-150,0],[106,-106]]",circle,red,vert,up,"[-150,0]","[106,-106]",up,1,,,,,,001,2025-03-10_20h14.58.170,SL_sali,2021.2.3,Win32,59.88023952,0.9265,,,66,0,66,0,1,,,,,,,,
,,"[""circle"",""green"",""hori"",""left"",[-106,-106],[150,0]]",circle,green,hori,left,"[-106,-106]","[150,0]",left,1,,,,,,001,2025-03-10_20h14.58.170,SL_sali,2021.2.3,Win32,59.88023952,1.6676,,,67,0,67,0,1,,,,,,,,
,,"[""circle"",""red"",""vert"",""up"",[0,150],[106,-106]]",circle,red,vert,up,"[0,150]","[106,-106]",up,1,,,,,,001,2025-03-10_20h14.58.170,SL_sali,2021.2.3,Win32,59.88023952,1.4377,,,68,0,68,0,1,,,,,,,,
,,"[""diamond"",""red"",""hori"",""left"",[0,-150],[-106,106]]",diamond,red,hori,left,"[0,-150]","[-106,106]",left,1,,,,,,001,2025-03-10_20h14.58.170,SL_sali,2021.2.3,Win32,59.88023952,1.8671,,,69,0,69,0,1,,,,,,,,
,,"[""diamond"",""no_dis"",""hori"",""left"",[99999,99999],[-150,0]]",diamond,no_dis,hori,left,"[99999,99999]","[-150,0]",left,1,,,,,,001,2025-03-10_20h14.58.170,SL_sali,2021.2.3,Win32,59.88023952,1.5738,,,70,0,70,0,1,,,,,,,,
,,"[""circle"",""no_dis"",""hori"",""left"",[99999,99999],[106,-106]]",circle,no_dis,hori,left,"[99999,99999]","[106,-106]",left,1,,,,,,001,2025-03-10_20h14.58.170,SL_sali,2021.2.3,Win32,59.88023952,2.3774,,,71,0,71,0,1,,,,,,,,
,,"[""circle"",""green"",""hori"",""left"",[0,-150],[0,150]]",circle,green,hori,left,"[0,-150]","[0,150]",left,1,,,,,,001,2025-03-10_20h14.58.170,SL_sali,2021.2.3,Win32,59.88023952,2.269,,,72,0,72,0,1,,,,,,,,
,,"[""diamond"",""green"",""hori"",""left"",[0,150],[-106,106]]",diamond,green,hori,left,"[0,150]","[-106,106]",left,1,,,,,,001,2025-03-10_20h14.58.170,SL_sali,2021.2.3,Win32,59.88023952,1.3078,,,73,0,73,0,1,,,,,,,,
,,"[""circle"",""no_dis"",""hori"",""left"",[99999,99999],[-150,0]]",circle,no_dis,hori,left,"[99999,99999]","[-150,0]",left,1,,,,,,001,2025-03-10_20h14.58.170,SL_sali,2021.2.3,Win32,59.88023952,1.2323,,,74,0,74,0,1,,,,,,,,
,,"[""diamond"",""no_dis"",""vert"",""up"",[99999,99999],[-106,106]]",diamond,no_dis,vert,up,"[99999,99999]","[-106,106]",up,1,,,,,,001,2025-03-10_20h14.58.170,SL_sali,2021.2.3,Win32,59.88023952,1.3981,,,75,0,75,0,1,,,,,,,,
,,"[""diamond"",""green"",""vert"",""up"",[-150,0],[106,106]]",diamond,green,vert,up,"[-150,0]","[106,106]",up,1,,,,,,001,2025-03-10_20h14.58.170,SL_sali,2021.2.3,Win32,59.88023952,1.1519,,,76,0,76,0,1,,,,,,,,
,,"[""diamond"",""red"",""hori"",""left"",[0,-150],[-106,106]]",diamond,red,hori,left,"[0,-150]","[-106,106]",left,1,,,,,,001,2025-03-10_20h14.58.170,SL_sali,2021.2.3,Win32,59.88023952,1.1813,,,77,0,77,0,1,,,,,,,,
,,"[""circle"",""no_dis"",""vert"",""up"",[99999,99999],[106,106]]",circle,no_dis,vert,up,"[99999,99999]","[106,106]",up,1,,,,,,001,2025-03-10_20h14.58.170,SL_sali,2021.2.3,Win32,59.88023952,1.4158,,,78,0,78,0,1,,,,,,,,
,,"[""circle"",""no_dis"",""hori"",""left"",[99999,99999],[0,-150]]",circle,no_dis,hori,left,"[99999,99999]","[0,-150]",left,1,,,,,,001,2025-03-10_20h14.58.170,SL_sali,2021.2.3,Win32,59.88023952,1.3505,,,79,0,79,0,1,,,,,,,,
,,"[""circle"",""no_dis"",""hori"",""left"",[99999,99999],[-106,-106]]",circle,no_dis,hori,left,"[99999,99999]","[-106,-106]",left,1,,,,,,001,2025-03-10_20h14.58.170,SL_sali,2021.2.3,Win32,59.88023952,0.8,,,80,0,80,0,1,,,,,,,,
,,"[""diamond"",""red"",""hori"",""left"",[0,-150],[-106,-106]]",diamond,red,hori,left,"[0,-150]","[-106,-106]",left,1,,,,,,001,2025-03-10_20h14.58.170,SL_sali,2021.2.3,Win32,59.88023952,1.9729,,,81,0,81,0,1,,,,,,,,
,,"[""circle"",""red"",""vert"",""up"",[-106,106],[106,-106]]",circle,red,vert,up,"[-106,106]","[106,-106]",up,1,,,,,,001,2025-03-10_20h14.58.170,SL_sali,2021.2.3,Win32,59.88023952,1.3188,,,82,0,82,0,1,,,,,,,,
,,"[""circle"",""green"",""vert"",""up"",[-106,-106],[0,150]]",circle,green,vert,up,"[-106,-106]","[0,150]",up,1,,,,,,001,2025-03-10_20h14.58.170,SL_sali,2021.2.3,Win32,59.88023952,1.9519,,,83,0,83,0,1,,,,,,,,
,,"[""diamond"",""no_dis"",""hori"",""left"",[99999,99999],[0,-150]]",diamond,no_dis,hori,left,"[99999,99999]","[0,-150]",left,1,,,,,,001,2025-03-10_20h14.58.170,SL_sali,2021.2.3,Win32,59.88023952,1.7568,,,84,0,84,0,1,,,,,,,,
,,"[""diamond"",""green"",""vert"",""up"",[-150,0],[0,-150]]",diamond,green,vert,up,"[-150,0]","[0,-150]",up,1,,,,,,001,2025-03-10_20h14.58.170,SL_sali,2021.2.3,Win32,59.88023952,1.3149,,,85,0,85,0,1,,,,,,,,
,,"[""diamond"",""green"",""hori"",""left"",[106,-106],[0,150]]",diamond,green,hori,left,"[106,-106]","[0,150]",left,1,,,,,,001,2025-03-10_20h14.58.170,SL_sali,2021.2.3,Win32,59.88023952,1.2,,,86,0,86,0,1,,,,,,,,
,,"[""diamond"",""green"",""hori"",""left"",[106,106],[0,150]]",diamond,green,hori,left,"[106,106]","[0,150]",left,1,,,,,,001,2025-03-10_20h14.58.170,SL_sali,2021.2.3,Win32,59.88023952,1.9861,,,87,0,87,0,1,,,,,,,,
,,"[""diamond"",""no_dis"",""vert"",""up"",[99999,99999],[-150,0]]",diamond,no_dis,vert,up,"[99999,99999]","[-150,0]",up,1,,,,,,001,2025-03-10_20h14.58.170,SL_sali,2021.2.3,Win32,59.88023952,1.1213,,,88,0,88,0,1,,,,,,,,
,,"[""circle"",""green"",""vert"",""up"",[0,-150],[150,0]]",circle,green,vert,up,"[0,-150]","[150,0]",up,1,,,,,,001,2025-03-10_20h14.58.170,SL_sali,2021.2.3,Win32,59.88023952,1.5164,,,89,0,89,0,1,,,,,,,,
,,"[""circle"",""red"",""vert"",""up"",[0,150],[106,106]]",circle,red,vert,up,"[0,150]","[106,106]",up,1,,,,,,001,2025-03-10_20h14.58.170,SL_sali,2021.2.3,Win32,59.88023952,2.0997,,,90,0,90,0,1,,,,,,,,
,,"[""circle"",""no_dis"",""vert"",""up"",[99999,99999],[150,0]]",circle,no_dis,vert,up,"[99999,99999]","[150,0]",up,1,,,,,,001,2025-03-10_20h14.58.170,SL_sali,2021.2.3,Win32,59.88023952,1.1901,,,91,0,91,0,1,,,,,,,,
,,"[""diamond"",""no_dis"",""hori"",""left"",[99999,99999],[-150,0]]",diamond,no_dis,hori,left,"[99999,99999]","[-150,0]",left,1,,,,,,001,2025-03-10_20h14.58.170,SL_sali,2021.2.3,Win32,59.88023952,1.0715,,,92,0,92,0,1,,,,,,,,
,,"[""diamond"",""red"",""hori"",""left"",[150,0],[-106,-106]]",diamond,red,hori,left,"[150,0]","[-106,-106]",left,1,,,,,,001,2025-03-10_20h14.58.170,SL_sali,2021.2.3,Win32,59.88023952,1.1382,,,93,0,93,0,1,,,,,,,,
,,"[""diamond"",""red"",""vert"",""up"",[-106,106],[106,-106]]",diamond,red,vert,up,"[-106,106]","[106,-106]",up,1,,,,,,001,2025-03-10_20h14.58.170,SL_sali,2021.2.3,Win32,59.88023952,1.1849,,,94,0,94,0,1,,,,,,,,
,,"[""circle"",""red"",""hori"",""left"",[106,106],[-150,0]]",circle,red,hori,left,"[106,106]","[-150,0]",left,1,,,,,,001,2025-03-10_20h14.58.170,SL_sali,2021.2.3,Win32,59.88023952,1.3755,,,95,0,95,0,1,,,,,,,,
,,"[""circle"",""green"",""vert"",""up"",[106,106],[106,-106]]",circle,green,vert,up,"[106,106]","[106,-106]",up,1,,,,,,001,2025-03-10_20h14.58.170,SL_sali,2021.2.3,Win32,59.88023952,1.6435,,,96,0,96,0,1,,,,,,,,
,,"[""diamond"",""no_dis"",""vert"",""up"",[99999,99999],[0,-150]]",diamond,no_dis,vert,up,"[99999,99999]","[0,-150]",up,1,,,,,,001,2025-03-10_20h14.58.170,SL_sali,2021.2.3,Win32,59.88023952,1.6984,,,97,0,97,0,1,,,,,,,,
,,"[""diamond"",""no_dis"",""vert"",""up"",[99999,99999],[106,106]]",diamond,no_dis,vert,up,"[99999,99999]","[106,106]",up,1,,,,,,001,2025-03-10_20h14.58.170,SL_sali,2021.2.3,Win32,59.88023952,1.2367,,,98,0,98,0,1,,,,,,,,
,,"[""diamond"",""green"",""vert"",""up"",[0,-150],[106,106]]",diamond,green,vert,up,"[0,-150]","[106,106]",up,1,,,,,,001,2025-03-10_20h14.58.170,SL_sali,2021.2.3,Win32,59.88023952,1.1865,,,99,0,99,0,1,,,,,,,,
,,"[""circle"",""red"",""vert"",""up"",[150,0],[106,-106]]",circle,red,vert,up,"[150,0]","[106,-106]",up,1,,,,,,001,2025-03-10_20h14.58.170,SL_sali,2021.2.3,Win32,59.88023952,2.0156,,,100,0,100,0,1,,,,,,,,
,,"[""circle"",""red"",""hori"",""left"",[0,150],[-150,0]]",circle,red,hori,left,"[0,150]","[-150,0]",left,1,,,,,,001,2025-03-10_20h14.58.170,SL_sali,2021.2.3,Win32,59.88023952,1.2602,,,101,0,101,0,1,,,,,,,,
,,"[""diamond"",""red"",""hori"",""left"",[106,106],[150,0]]",diamond,red,hori,left,"[106,106]","[150,0]",left,1,,,,,,001,2025-03-10_20h14.58.170,SL_sali,2021.2.3,Win32,59.88023952,1.9487,,,102,0,102,0,1,,,,,,,,
,,"[""circle"",""green"",""vert"",""up"",[0,150],[106,106]]",circle,green,vert,up,"[0,150]","[106,106]",up,1,,,,,,001,2025-03-10_20h14.58.170,SL_sali,2021.2.3,Win32,59.88023952,2.4692,,,103,0,103,0,1,,,,,,,,
,,"[""circle"",""no_dis"",""vert"",""up"",[99999,99999],[-106,-106]]",circle,no_dis,vert,up,"[99999,99999]","[-106,-106]",up,1,,,,,,001,2025-03-10_20h14.58.170,SL_sali,2021.2.3,Win32,59.88023952,1.4567,,,104,0,104,0,1,,,,,,,,
,,"[""diamond"",""red"",""hori"",""left"",[106,-106],[-106,106]]",diamond,red,hori,left,"[106,-106]","[-106,106]",left,1,,,,,,001,2025-03-10_20h14.58.170,SL_sali,2021.2.3,Win32,59.88023952,1.6582,,,105,0,105,0,1,,,,,,,,
,,"[""circle"",""red"",""vert"",""up"",[0,-150],[-106,106]]",circle,red,vert,up,"[0,-150]","[-106,106]",up,1,,,,,,001,2025-03-10_20h14.58.170,SL_sali,2021.2.3,Win32,59.88023952,1.5415,,,106,0,106,0,1,,,,,,,,
,,"[""diamond"",""no_dis"",""hori"",""left"",[99999,99999],[-106,106]]",diamond,no_dis,hori,left,"[99999,99999]","[-106,106]",left,1,,,,,,001,2025-03-10_20h14.58.170,SL_sali,2021.2.3,Win32,59.88023952,1.4965,,,107,0,107,0,1,,,,,,,,
,,"[""diamond"",""green"",""hori"",""left"",[-106,-106],[150,0]]",diamond,green,hori,left,"[-106,-106]","[150,0]",up,0,,,,,,001,2025-03-10_20h14.58.170,SL_sali,2021.2.3,Win32,59.88023952,1.4099,,,108,0,108,0,1,,,,,,,,
,,"[""diamond"",""red"",""hori"",""left"",[0,-150],[0,150]]",diamond,red,hori,left,"[0,-150]","[0,150]",left,1,,,,,,001,2025-03-10_20h14.58.170,SL_sali,2021.2.3,Win32,59.88023952,2.4486,,,109,0,109,0,1,,,,,,,,
,,"[""circle"",""no_dis"",""vert"",""up"",[99999,99999],[-106,106]]",circle,no_dis,vert,up,"[99999,99999]","[-106,106]",up,1,,,,,,001,2025-03-10_20h14.58.170,SL_sali,2021.2.3,Win32,59.88023952,0.8372,,,110,0,110,0,1,,,,,,,,
,,"[""circle"",""green"",""hori"",""left"",[-106,106],[0,-150]]",circle,green,hori,left,"[-106,106]","[0,-150]",left,1,,,,,,001,2025-03-10_20h14.58.170,SL_sali,2021.2.3,Win32,59.88023952,1.469,,,111,0,111,0,1,,,,,,,,
,,"[""diamond"",""green"",""hori"",""left"",[106,106],[0,150]]",diamond,green,hori,left,"[106,106]","[0,150]",left,1,,,,,,001,2025-03-10_20h14.58.170,SL_sali,2021.2.3,Win32,59.88023952,1.6144,,,112,0,112,0,1,,,,,,,,
,,"[""diamond"",""green"",""hori"",""left"",[150,0],[106,-106]]",diamond,green,hori,left,"[150,0]","[106,-106]",left,1,,,,,,001,2025-03-10_20h14.58.170,SL_sali,2021.2.3,Win32,59.88023952,2.1229,,,113,0,113,0,1,,,,,,,,
,,"[""circle"",""green"",""hori"",""left"",[0,150],[-106,-106]]",circle,green,hori,left,"[0,150]","[-106,-106]",left,1,,,,,,001,2025-03-10_20h14.58.170,SL_sali,2021.2.3,Win32,59.88023952,1.1778,,,114,0,114,0,1,,,,,,,,
,,"[""diamond"",""no_dis"",""vert"",""up"",[99999,99999],[150,0]]",diamond,no_dis,vert,up,"[99999,99999]","[150,0]",up,1,,,,,,001,2025-03-10_20h14.58.170,SL_sali,2021.2.3,Win32,59.88023952,1.1315,,,115,0,115,0,1,,,,,,,,
,,"[""diamond"",""green"",""vert"",""up"",[0,-150],[150,0]]",diamond,green,vert,up,"[0,-150]","[150,0]",up,1,,,,,,001,2025-03-10_20h14.58.170,SL_sali,2021.2.3,Win32,59.88023952,1.8646,,,116,0,116,0,1,,,,,,,,
,,"[""diamond"",""green"",""vert"",""up"",[0,-150],[106,-106]]",diamond,green,vert,up,"[0,-150]","[106,-106]",up,1,,,,,,001,2025-03-10_20h14.58.170,SL_sali,2021.2.3,Win32,59.88023952,2.2239,,,117,0,117,0,1,,,,,,,,
,,"[""circle"",""green"",""vert"",""up"",[-106,106],[106,106]]",circle,green,vert,up,"[-106,106]","[106,106]",up,1,,,,,,001,2025-03-10_20h14.58.170,SL_sali,2021.2.3,Win32,59.88023952,2.3582,,,118,0,118,0,1,,,,,,,,
,,"[""diamond"",""no_dis"",""vert"",""up"",[99999,99999],[-106,106]]",diamond,no_dis,vert,up,"[99999,99999]","[-106,106]",up,1,,,,,,001,2025-03-10_20h14.58.170,SL_sali,2021.2.3,Win32,59.88023952,2.1835,,,119,0,119,0,1,,,,,,,,
,,,,,,,,,,,,,,,,001,2025-03-10_20h14.58.170,SL_sali,2021.2.3,Win32,59.88023952,,,,,,,,,2,space,29.8286,1,0,1,0,1
,,"[""circle"",""red"",""vert"",""up"",[150,0],[0,150]]",circle,red,vert,up,"[150,0]","[0,150]",up,1,,,,,,001,2025-03-10_20h14.58.170,SL_sali,2021.2.3,Win32,59.88023952,1.5499,,,0,0,0,0,1,,,,,,,,
,,"[""circle"",""red"",""hori"",""left"",[-106,-106],[-106,106]]",circle,red,hori,left,"[-106,-106]","[-106,106]",left,1,,,,,,001,2025-03-10_20h14.58.170,SL_sali,2021.2.3,Win32,59.88023952,1.377,,,1,0,1,0,1,,,,,,,,
,,"[""diamond"",""green"",""hori"",""left"",[0,150],[-106,106]]",diamond,green,hori,left,"[0,150]","[-106,106]",left,1,,,,,,001,2025-03-10_20h14.58.170,SL_sali,2021.2.3,Win32,59.88023952,1.26,,,2,0,2,0,1,,,,,,,,
,,"[""diamond"",""green"",""vert"",""up"",[0,-150],[150,0]]",diamond,green,vert,up,"[0,-150]","[150,0]",up,1,,,,,,001,2025-03-10_20h14.58.170,SL_sali,2021.2.3,Win32,59.88023952,1.4059,,,3,0,3,0,1,,,,,,,,
,,"[""diamond"",""green"",""hori"",""left"",[-150,0],[-106,-106]]",diamond,green,hori,left,"[-150,0]","[-106,-106]",left,1,,,,,,001,2025-03-10_20h14.58.170,SL_sali,2021.2.3,Win32,59.88023952,1.2368,,,4,0,4,0,1,,,,,,,,
,,"[""diamond"",""no_dis"",""vert"",""up"",[99999,99999],[-150,0]]",diamond,no_dis,vert,up,"[99999,99999]","[-150,0]",up,1,,,,,,001,2025-03-10_20h14.58.170,SL_sali,2021.2.3,Win32,59.88023952,1.1983,,,5,0,5,0,1,,,,,,,,
,,"[""diamond"",""green"",""hori"",""left"",[106,-106],[0,-150]]",diamond,green,hori,left,"[106,-106]","[0,-150]",left,1,,,,,,001,2025-03-10_20h14.58.170,SL_sali,2021.2.3,Win32,59.88023952,1.317,,,6,0,6,0,1,,,,,,,,
,,"[""circle"",""no_dis"",""hori"",""left"",[99999,99999],[106,106]]",circle,no_dis,hori,left,"[99999,99999]","[106,106]",left,1,,,,,,001,2025-03-10_20h14.58.170,SL_sali,2021.2.3,Win32,59.88023952,1.716,,,7,0,7,0,1,,,,,,,,
,,"[""diamond"",""green"",""vert"",""up"",[-150,0],[0,-150]]",diamond,green,vert,up,"[-150,0]","[0,-150]",up,1,,,,,,001,2025-03-10_20h14.58.170,SL_sali,2021.2.3,Win32,59.88023952,1.4815,,,8,0,8,0,1,,,,,,,,
,,"[""circle"",""green"",""vert"",""up"",[-150,0],[-106,-106]]",circle,green,vert,up,"[-150,0]","[-106,-106]",up,1,,,,,,001,2025-03-10_20h14.58.170,SL_sali,2021.2.3,Win32,59.88023952,1.1664,,,9,0,9,0,1,,,,,,,,
,,"[""circle"",""no_dis"",""vert"",""up"",[99999,99999],[106,106]]",circle,no_dis,vert,up,"[99999,99999]","[106,106]",up,1,,,,,,001,2025-03-10_20h14.58.170,SL_sali,2021.2.3,Win32,59.88023952,1.0496,,,10,0,10,0,1,,,,,,,,
,,"[""circle"",""no_dis"",""vert"",""up"",[99999,99999],[150,0]]",circle,no_dis,vert,up,"[99999,99999]","[150,0]",up,1,,,,,,001,2025-03-10_20h14.58.170,SL_sali,2021.2.3,Win32,59.88023952,1.1342,,,11,0,11,0,1,,,,,,,,
,,"[""circle"",""green"",""hori"",""left"",[0,150],[106,-106]]",circle,green,hori,left,"[0,150]","[106,-106]",left,1,,,,,,001,2025-03-10_20h14.58.170,SL_sali,2021.2.3,Win32,59.88023952,1.7114,,,12,0,12,0,1,,,,,,,,
,,"[""circle"",""red"",""hori"",""left"",[-106,-106],[0,-150]]",circle,red,hori,left,"[-106,-106]","[0,-150]",left,1,,,,,,001,2025-03-10_20h14.58.170,SL_sali,2021.2.3,Win32,59.88023952,1.0868,,,13,0,13,0,1,,,,,,,,
,,"[""circle"",""red"",""hori"",""left"",[150,0],[106,-106]]",circle,red,hori,left,"[150,0]","[106,-106]",left,1,,,,,,001,2025-03-10_20h14.58.170,SL_sali,2021.2.3,Win32,59.88023952,1.129,,,14,0,14,0,1,,,,,,,,
,,"[""diamond"",""green"",""vert"",""up"",[-106,106],[0,150]]",diamond,green,vert,up,"[-106,106]","[0,150]",up,1,,,,,,001,2025-03-10_20h14.58.170,SL_sali,2021.2.3,Win32,59.88023952,1.5653,,,15,0,15,0,1,,,,,,,,
,,"[""diamond"",""red"",""vert"",""up"",[-150,0],[0,-150]]",diamond,red,vert,up,"[-150,0]","[0,-150]",up,1,,,,,,001,2025-03-10_20h14.58.170,SL_sali,2021.2.3,Win32,59.88023952,1.0318,,,16,0,16,0,1,,,,,,,,
,,"[""diamond"",""green"",""vert"",""up"",[-106,-106],[0,150]]",diamond,green,vert,up,"[-106,-106]","[0,150]",up,1,,,,,,001,2025-03-10_20h14.58.170,SL_sali,2021.2.3,Win32,59.88023952,0.8361,,,17,0,17,0,1,,,,,,,,
,,"[""diamond"",""no_dis"",""hori"",""left"",[99999,99999],[106,-106]]",diamond,no_dis,hori,left,"[99999,99999]","[106,-106]",left,1,,,,,,001,2025-03-10_20h14.58.170,SL_sali,2021.2.3,Win32,59.88023952,1.3986,,,18,0,18,0,1,,,,,,,,
,,"[""circle"",""no_dis"",""vert"",""up"",[99999,99999],[0,150]]",circle,no_dis,vert,up,"[99999,99999]","[0,150]",up,1,,,,,,001,2025-03-10_20h14.58.170,SL_sali,2021.2.3,Win32,59.88023952,1.3237,,,19,0,19,0,1,,,,,,,,
,,"[""diamond"",""no_dis"",""vert"",""up"",[99999,99999],[150,0]]",diamond,no_dis,vert,up,"[99999,99999]","[150,0]",left,0,,,,,,001,2025-03-10_20h14.58.170,SL_sali,2021.2.3,Win32,59.88023952,2.3476,,,20,0,20,0,1,,,,,,,,
,,"[""diamond"",""no_dis"",""vert"",""up"",[99999,99999],[-106,106]]",diamond,no_dis,vert,up,"[99999,99999]","[-106,106]",up,1,,,,,,001,2025-03-10_20h14.58.170,SL_sali,2021.2.3,Win32,59.88023952,1.2675,,,21,0,21,0,1,,,,,,,,
,,"[""diamond"",""green"",""hori"",""left"",[0,-150],[-106,106]]",diamond,green,hori,left,"[0,-150]","[-106,106]",left,1,,,,,,001,2025-03-10_20h14.58.170,SL_sali,2021.2.3,Win32,59.88023952,1.1188,,,22,0,22,0,1,,,,,,,,
,,"[""circle"",""green"",""hori"",""left"",[-106,106],[0,-150]]",circle,green,hori,left,"[-106,106]","[0,-150]",left,1,,,,,,001,2025-03-10_20h14.58.170,SL_sali,2021.2.3,Win32,59.88023952,2.0323,,,23,0,23,0,1,,,,,,,,
,,"[""diamond"",""no_dis"",""hori"",""left"",[99999,99999],[-150,0]]",diamond,no_dis,hori,left,"[99999,99999]","[-150,0]",left,1,,,,,,001,2025-03-10_20h14.58.170,SL_sali,2021.2.3,Win32,59.88023952,1.1434,,,24,0,24,0,1,,,,,,,,
,,"[""circle"",""no_dis"",""vert"",""up"",[99999,99999],[150,0]]",circle,no_dis,vert,up,"[99999,99999]","[150,0]",up,1,,,,,,001,2025-03-10_20h14.58.170,SL_sali,2021.2.3,Win32,59.88023952,1.2995,,,25,0,25,0,1,,,,,,,,
,,"[""circle"",""red"",""hori"",""left"",[0,-150],[150,0]]",circle,red,hori,left,"[0,-150]","[150,0]",left,1,,,,,,001,2025-03-10_20h14.58.170,SL_sali,2021.2.3,Win32,59.88023952,2.2914,,,26,0,26,0,1,,,,,,,,
,,"[""diamond"",""green"",""hori"",""left"",[-106,-106],[150,0]]",diamond,green,hori,left,"[-106,-106]","[150,0]",left,1,,,,,,001,2025-03-10_20h14.58.170,SL_sali,2021.2.3,Win32,59.88023952,2.1829,,,27,0,27,0,1,,,,,,,,
,,"[""diamond"",""green"",""vert"",""up"",[0,-150],[106,-106]]",diamond,green,vert,up,"[0,-150]","[106,-106]",up,1,,,,,,001,2025-03-10_20h14.58.170,SL_sali,2021.2.3,Win32,59.88023952,1.0488,,,28,0,28,0,1,,,,,,,,
,,"[""circle"",""no_dis"",""hori"",""left"",[99999,99999],[-106,-106]]",circle,no_dis,hori,left,"[99999,99999]","[-106,-106]",left,1,,,,,,001,2025-03-10_20h14.58.170,SL_sali,2021.2.3,Win32,59.88023952,1.3688,,,29,0,29,0,1,,,,,,,,
,,"[""circle"",""red"",""vert"",""up"",[0,150],[106,106]]",circle,red,vert,up,"[0,150]","[106,106]",up,1,,,,,,001,2025-03-10_20h14.58.170,SL_sali,2021.2.3,Win32,59.88023952,1.0376,,,30,0,30,0,1,,,,,,,,
,,"[""circle"",""no_dis"",""hori"",""left"",[99999,99999],[-106,-106]]",circle,no_dis,hori,left,"[99999,99999]","[-106,-106]",left,1,,,,,,001,2025-03-10_20h14.58.170,SL_sali,2021.2.3,Win32,59.88023952,0.8563,,,31,0,31,0,1,,,,,,,,
,,"[""circle"",""red"",""hori"",""left"",[0,-150],[150,0]]",circle,red,hori,left,"[0,-150]","[150,0]",left,1,,,,,,001,2025-03-10_20h14.58.170,SL_sali,2021.2.3,Win32,59.88023952,1.2066,,,32,0,32,0,1,,,,,,,,
,,"[""diamond"",""no_dis"",""vert"",""up"",[99999,99999],[0,-150]]",diamond,no_dis,vert,up,"[99999,99999]","[0,-150]",up,1,,,,,,001,2025-03-10_20h14.58.170,SL_sali,2021.2.3,Win32,59.88023952,0.9972,,,33,0,33,0,1,,,,,,,,
,,"[""diamond"",""no_dis"",""hori"",""left"",[99999,99999],[-150,0]]",diamond,no_dis,hori,left,"[99999,99999]","[-150,0]",left,1,,,,,,001,2025-03-10_20h14.58.170,SL_sali,2021.2.3,Win32,59.88023952,0.7871,,,34,0,34,0,1,,,,,,,,
,,"[""circle"",""red"",""vert"",""up"",[106,106],[0,150]]",circle,red,vert,up,"[106,106]","[0,150]",up,1,,,,,,001,2025-03-10_20h14.58.170,SL_sali,2021.2.3,Win32,59.88023952,0.8369,,,35,0,35,0,1,,,,,,,,
,,"[""circle"",""no_dis"",""hori"",""left"",[99999,99999],[-150,0]]",circle,no_dis,hori,left,"[99999,99999]","[-150,0]",left,1,,,,,,001,2025-03-10_20h14.58.170,SL_sali,2021.2.3,Win32,59.88023952,0.8908,,,36,0,36,0,1,,,,,,,,
,,"[""circle"",""green"",""hori"",""left"",[-106,-106],[150,0]]",circle,green,hori,left,"[-106,-106]","[150,0]",left,1,,,,,,001,2025-03-10_20h14.58.170,SL_sali,2021.2.3,Win32,59.88023952,1.2773,,,37,0,37,0,1,,,,,,,,
,,"[""circle"",""no_dis"",""vert"",""up"",[99999,99999],[-106,106]]",circle,no_dis,vert,up,"[99999,99999]","[-106,106]",up,1,,,,,,001,2025-03-10_20h14.58.170,SL_sali,2021.2.3,Win32,59.88023952,0.8178,,,38,0,38,0,1,,,,,,,,
,,"[""diamond"",""green"",""vert"",""up"",[0,-150],[0,150]]",diamond,green,vert,up,"[0,-150]","[0,150]",left,0,,,,,,001,2025-03-10_20h14.58.170,SL_sali,2021.2.3,Win32,59.88023952,1.001,,,39,0,39,0,1,,,,,,,,
,,"[""diamond"",""green"",""hori"",""left"",[106,-106],[0,150]]",diamond,green,hori,left,"[106,-106]","[0,150]",left,1,,,,,,001,2025-03-10_20h14.58.170,SL_sali,2021.2.3,Win32,59.88023952,2.7553,,,40,0,40,0,1,,,,,,,,
,,"[""diamond"",""red"",""vert"",""up"",[-106,-106],[106,-106]]",diamond,red,vert,up,"[-106,-106]","[106,-106]",up,1,,,,,,001,2025-03-10_20h14.58.170,SL_sali,2021.2.3,Win32,59.88023952,1.4917,,,41,0,41,0,1,,,,,,,,
,,"[""circle"",""red"",""hori"",""left"",[106,106],[-150,0]]",circle,red,hori,left,"[106,106]","[-150,0]",left,1,,,,,,001,2025-03-10_20h14.58.170,SL_sali,2021.2.3,Win32,59.88023952,1.4322,,,42,0,42,0,1,,,,,,,,
,,"[""circle"",""green"",""hori"",""left"",[106,-106],[150,0]]",circle,green,hori,left,"[106,-106]","[150,0]",left,1,,,,,,001,2025-03-10_20h14.58.170,SL_sali,2021.2.3,Win32,59.88023952,1.676,,,43,0,43,0,1,,,,,,,,
,,"[""circle"",""green"",""hori"",""left"",[0,-150],[150,0]]",circle,green,hori,left,"[0,-150]","[150,0]",left,1,,,,,,001,2025-03-10_20h14.58.170,SL_sali,2021.2.3,Win32,59.88023952,1.5374,,,44,0,44,0,1,,,,,,,,
,,"[""diamond"",""no_dis"",""vert"",""up"",[99999,99999],[106,106]]",diamond,no_dis,vert,up,"[99999,99999]","[106,106]",up,1,,,,,,001,2025-03-10_20h14.58.170,SL_sali,2021.2.3,Win32,59.88023952,1.6812,,,45,0,45,0,1,,,,,,,,
,,"[""circle"",""green"",""hori"",""left"",[106,-106],[-106,-106]]",circle,green,hori,left,"[106,-106]","[-106,-106]",left,1,,,,,,001,2025-03-10_20h14.58.170,SL_sali,2021.2.3,Win32,59.88023952,1.1263,,,46,0,46,0,1,,,,,,,,
,,"[""diamond"",""no_dis"",""hori"",""left"",[99999,99999],[0,-150]]",diamond,no_dis,hori,left,"[99999,99999]","[0,-150]",left,1,,,,,,001,2025-03-10_20h14.58.170,SL_sali,2021.2.3,Win32,59.88023952,1.5224,,,47,0,47,0,1,,,,,,,,
,,"[""diamond"",""green"",""hori"",""left"",[106,106],[0,150]]",diamond,green,hori,left,"[106,106]","[0,150]",left,1,,,,,,001,2025-03-10_20h14.58.170,SL_sali,2021.2.3,Win32,59.88023952,1.159,,,48,0,48,0,1,,,,,,,,
,,"[""circle"",""green"",""vert"",""up"",[150,0],[0,-150]]",circle,green,vert,up,"[150,0]","[0,-150]",up,1,,,,,,001,2025-03-10_20h14.58.170,SL_sali,2021.2.3,Win32,59.88023952,2.0063,,,49,0,49,0,1,,,,,,,,
,,"[""diamond"",""no_dis"",""vert"",""up"",[99999,99999],[-106,106]]",diamond,no_dis,vert,up,"[99999,99999]","[-106,106]",up,1,,,,,,001,2025-03-10_20h14.58.170,SL_sali,2021.2.3,Win32,59.88023952,1.3267,,,50,0,50,0,1,,,,,,,,
,,"[""circle"",""green"",""hori"",""left"",[0,150],[-106,-106]]",circle,green,hori,left,"[0,150]","[-106,-106]",left,1,,,,,,001,2025-03-10_20h14.58.170,SL_sali,2021.2.3,Win32,59.88023952,1.0376,,,51,0,51,0,1,,,,,,,,
,,"[""diamond"",""green"",""vert"",""up"",[0,-150],[106,106]]",diamond,green,vert,up,"[0,-150]","[106,106]",up,1,,,,,,001,2025-03-10_20h14.58.170,SL_sali,2021.2.3,Win32,59.88023952,2.2009,,,52,0,52,0,1,,,,,,,,
,,"[""circle"",""red"",""hori"",""left"",[0,-150],[-150,0]]",circle,red,hori,left,"[0,-150]","[-150,0]",left,1,,,,,,001,2025-03-10_20h14.58.170,SL_sali,2021.2.3,Win32,59.88023952,1.076,,,53,0,53,0,1,,,,,,,,
,,"[""diamond"",""no_dis"",""vert"",""up"",[99999,99999],[-106,-106]]",diamond,no_dis,vert,up,"[99999,99999]","[-106,-106]",up,1,,,,,,001,2025-03-10_20h14.58.170,SL_sali,2021.2.3,Win32,59.88023952,1.6557,,,54,0,54,0,1,,,,,,,,
,,"[""diamond"",""red"",""hori"",""left"",[0,-150],[150,0]]",diamond,red,hori,left,"[0,-150]","[150,0]",left,1,,,,,,001,2025-03-10_20h14.58.170,SL_sali,2021.2.3,Win32,59.88023952,1.2151,,,55,0,55,0,1,,,,,,,,
,,"[""circle"",""green"",""vert"",""up"",[106,106],[106,-106]]",circle,green,vert,up,"[106,106]","[106,-106]",left,0,,,,,,001,2025-03-10_20h14.58.170,SL_sali,2021.2.3,Win32,59.88023952,1.3742,,,56,0,56,0,1,,,,,,,,
,,"[""circle"",""green"",""vert"",""up"",[106,-106],[0,150]]",circle,green,vert,up,"[106,-106]","[0,150]",up,1,,,,,,001,2025-03-10_20h14.58.170,SL_sali,2021.2.3,Win32,59.88023952,2.2048,,,57,0,57,0,1,,,,,,,,
,,"[""diamond"",""red"",""hori"",""left"",[0,-150],[0,150]]",diamond,red,hori,left,"[0,-150]","[0,150]",left,1,,,,,,001,2025-03-10_20h14.58.170,SL_sali,2021.2.3,Win32,59.88023952,2.2318,,,58,0,58,0,1,,,,,,,,
,,"[""circle"",""no_dis"",""hori"",""left"",[99999,99999],[0,-150]]",circle,no_dis,hori,left,"[99999,99999]","[0,-150]",left,1,,,,,,001,2025-03-10_20h14.58.170,SL_sali,2021.2.3,Win32,59.88023952,1.9502,,,59,0,59,0,1,,,,,,,,
,,"[""diamond"",""red"",""vert"",""up"",[0,-150],[-150,0]]",diamond,red,vert,up,"[0,-150]","[-150,0]",up,1,,,,,,001,2025-03-10_20h14.58.170,SL_sali,2021.2.3,Win32,59.88023952,1.1942,,,60,0,60,0,1,,,,,,,,
,,"[""diamond"",""green"",""hori"",""left"",[0,150],[150,0]]",diamond,green,hori,left,"[0,150]","[150,0]",left,1,,,,,,001,2025-03-10_20h14.58.170,SL_sali,2021.2.3,Win32,59.88023952,1.2736,,,61,0,61,0,1,,,,,,,,
,,"[""circle"",""no_dis"",""hori"",""left"",[99999,99999],[106,106]]",circle,no_dis,hori,left,"[99999,99999]","[106,106]",left,1,,,,,,001,2025-03-10_20h14.58.170,SL_sali,2021.2.3,Win32,59.88023952,1.4985,,,62,0,62,0,1,,,,,,,,
,,"[""diamond"",""red"",""hori"",""left"",[106,-106],[-106,106]]",diamond,red,hori,left,"[106,-106]","[-106,106]",left,1,,,,,,001,2025-03-10_20h14.58.170,SL_sali,2021.2.3,Win32,59.88023952,2.182,,,63,0,63,0,1,,,,,,,,
,,"[""circle"",""green"",""vert"",""up"",[-106,106],[106,106]]",circle,green,vert,up,"[-106,106]","[106,106]",up,1,,,,,,001,2025-03-10_20h14.58.170,SL_sali,2021.2.3,Win32,59.88023952,1.1205,,,64,0,64,0,1,,,,,,,,
,,"[""diamond"",""green"",""vert"",""up"",[0,-150],[106,106]]",diamond,green,vert,up,"[0,-150]","[106,106]",up,1,,,,,,001,2025-03-10_20h14.58.170,SL_sali,2021.2.3,Win32,59.88023952,0.9382,,,65,0,65,0,1,,,,,,,,
,,"[""circle"",""red"",""vert"",""up"",[-150,0],[106,-106]]",circle,red,vert,up,"[-150,0]","[106,-106]",up,1,,,,,,001,2025-03-10_20h14.58.170,SL_sali,2021.2.3,Win32,59.88023952,1.2505,,,66,0,66,0,1,,,,,,,,
,,"[""diamond"",""red"",""vert"",""up"",[-106,-106],[150,0]]",diamond,red,vert,up,"[-106,-106]","[150,0]",left,0,,,,,,001,2025-03-10_20h14.58.170,SL_sali,2021.2.3,Win32,59.88023952,1.3987,,,67,0,67,0,1,,,,,,,,
,,"[""circle"",""no_dis"",""vert"",""up"",[99999,99999],[0,150]]",circle,no_dis,vert,up,"[99999,99999]","[0,150]",up,1,,,,,,001,2025-03-10_20h14.58.170,SL_sali,2021.2.3,Win32,59.88023952,2.1834,,,68,0,68,0,1,,,,,,,,
,,"[""circle"",""red"",""vert"",""up"",[150,0],[106,-106]]",circle,red,vert,up,"[150,0]","[106,-106]",up,1,,,,,,001,2025-03-10_20h14.58.170,SL_sali,2021.2.3,Win32,59.88023952,2.5722,,,69,0,69,0,1,,,,,,,,
,,"[""diamond"",""no_dis"",""hori"",""left"",[99999,99999],[-106,106]]",diamond,no_dis,hori,left,"[99999,99999]","[-106,106]",left,1,,,,,,001,2025-03-10_20h14.58.170,SL_sali,2021.2.3,Win32,59.88023952,1.2746,,,70,0,70,0,1,,,,,,,,
,,"[""diamond"",""green"",""hori"",""left"",[106,106],[0,150]]",diamond,green,hori,left,"[106,106]","[0,150]",,0,,,,,,001,2025-03-10_20h14.58.170,SL_sali,2021.2.3,Win32,59.88023952,,,,71,0,71,0,1,,,,,,,,
,,"[""circle"",""green"",""vert"",""up"",[0,150],[106,106]]",circle,green,vert,up,"[0,150]","[106,106]",up,1,,,,,,001,2025-03-10_20h14.58.170,SL_sali,2021.2.3,Win32,59.88023952,1.7359,,,72,0,72,0,1,,,,,,,,
,,"[""diamond"",""red"",""hori"",""left"",[0,-150],[-106,106]]",diamond,red,hori,left,"[0,-150]","[-106,106]",up,0,,,,,,001,2025-03-10_20h14.58.170,SL_sali,2021.2.3,Win32,59.88023952,2.0741,,,73,0,73,0,1,,,,,,,,
,,"[""circle"",""red"",""hori"",""left"",[0,150],[-150,0]]",circle,red,hori,left,"[0,150]","[-150,0]",left,1,,,,,,001,2025-03-10_20h14.58.170,SL_sali,2021.2.3,Win32,59.88023952,1.7775,,,74,0,74,0,1,,,,,,,,
,,"[""diamond"",""no_dis"",""hori"",""left"",[99999,99999],[150,0]]",diamond,no_dis,hori,left,"[99999,99999]","[150,0]",left,1,,,,,,001,2025-03-10_20h14.58.170,SL_sali,2021.2.3,Win32,59.88023952,1.6878,,,75,0,75,0,1,,,,,,,,
,,"[""diamond"",""red"",""hori"",""left"",[150,0],[106,106]]",diamond,red,hori,left,"[150,0]","[106,106]",left,1,,,,,,001,2025-03-10_20h14.58.170,SL_sali,2021.2.3,Win32,59.88023952,1.0641,,,76,0,76,0,1,,,,,,,,
,,"[""circle"",""no_dis"",""vert"",""up"",[99999,99999],[106,106]]",circle,no_dis,vert,up,"[99999,99999]","[106,106]",up,1,,,,,,001,2025-03-10_20h14.58.170,SL_sali,2021.2.3,Win32,59.88023952,1.1377,,,77,0,77,0,1,,,,,,,,
,,"[""diamond"",""no_dis"",""vert"",""up"",[99999,99999],[-106,106]]",diamond,no_dis,vert,up,"[99999,99999]","[-106,106]",up,1,,,,,,001,2025-03-10_20h14.58.170,SL_sali,2021.2.3,Win32,59.88023952,1.8053,,,78,0,78,0,1,,,,,,,,
,,"[""diamond"",""red"",""hori"",""left"",[106,106],[150,0]]",diamond,red,hori,left,"[106,106]","[150,0]",left,1,,,,,,001,2025-03-10_20h14.58.170,SL_sali,2021.2.3,Win32,59.88023952,1.34,,,79,0,79,0,1,,,,,,,,
,,"[""circle"",""green"",""vert"",""up"",[0,-150],[-150,0]]",circle,green,vert,up,"[0,-150]","[-150,0]",left,0,,,,,,001,2025-03-10_20h14.58.170,SL_sali,2021.2.3,Win32,59.88023952,1.5255,,,80,0,80,0,1,,,,,,,,
,,"[""diamond"",""red"",""hori"",""left"",[150,0],[-106,-106]]",diamond,red,hori,left,"[150,0]","[-106,-106]",left,1,,,,,,001,2025-03-10_20h14.58.170,SL_sali,2021.2.3,Win32,59.88023952,2.0322,,,81,0,81,0,1,,,,,,,,
,,"[""circle"",""green"",""vert"",""up"",[-106,-106],[0,150]]",circle,green,vert,up,"[-106,-106]","[0,150]",up,1,,,,,,001,2025-03-10_20h14.58.170,SL_sali,2021.2.3,Win32,59.88023952,1.5339,,,82,0,82,0,1,,,,,,,,
,,"[""circle"",""red"",""vert"",""up"",[-106,106],[106,-106]]",circle,red,vert,up,"[-106,106]","[106,-106]",up,1,,,,,,001,2025-03-10_20h14.58.170,SL_sali,2021.2.3,Win32,59.88023952,1.207,,,83,0,83,0,1,,,,,,,,
,,"[""circle"",""no_dis"",""hori"",""left"",[99999,99999],[0,150]]",circle,no_dis,hori,left,"[99999,99999]","[0,150]",up,0,,,,,,001,2025-03-10_20h14.58.170,SL_sali,2021.2.3,Win32,59.88023952,1.1553,,,84,0,84,0,1,,,,,,,,
,,"[""diamond"",""no_dis"",""vert"",""up"",[99999,99999],[0,-150]]",diamond,no_dis,vert,up,"[99999,99999]","[0,-150]",up,1,,,,,,001,2025-03-10_20h14.58.170,SL_sali,2021.2.3,Win32,59.88023952,1.9992,,,85,0,85,0,1,,,,,,,,
,,"[""diamond"",""red"",""vert"",""up"",[-106,106],[106,-106]]",diamond,red,vert,up,"[-106,106]","[106,-106]",up,1,,,,,,001,2025-03-10_20h14.58.170,SL_sali,2021.2.3,Win32,59.88023952,1.002,,,86,0,86,0,1,,,,,,,,
,,"[""circle"",""no_dis"",""hori"",""left"",[99999,99999],[106,-106]]",circle,no_dis,hori,left,"[99999,99999]","[106,-106]",left,1,,,,,,001,2025-03-10_20h14.58.170,SL_sali,2021.2.3,Win32,59.88023952,1.7508,,,87,0,87,0,1,,,,,,,,
,,"[""diamond"",""red"",""vert"",""up"",[-106,106],[0,150]]",diamond,red,vert,up,"[-106,106]","[0,150]",up,1,,,,,,001,2025-03-10_20h14.58.170,SL_sali,2021.2.3,Win32,59.88023952,1.2331,,,88,0,88,0,1,,,,,,,,
,,"[""circle"",""red"",""hori"",""left"",[106,-106],[0,150]]",circle,red,hori,left,"[106,-106]","[0,150]",left,1,,,,,,001,2025-03-10_20h14.58.170,SL_sali,2021.2.3,Win32,59.88023952,1.542,,,89,0,89,0,1,,,,,,,,
,,"[""circle"",""no_dis"",""vert"",""up"",[99999,99999],[106,-106]]",circle,no_dis,vert,up,"[99999,99999]","[106,-106]",up,1,,,,,,001,2025-03-10_20h14.58.170,SL_sali,2021.2.3,Win32,59.88023952,1.5786,,,90,0,90,0,1,,,,,,,,
,,"[""diamond"",""red"",""vert"",""up"",[106,106],[0,-150]]",diamond,red,vert,up,"[106,106]","[0,-150]",up,1,,,,,,001,2025-03-10_20h14.58.170,SL_sali,2021.2.3,Win32,59.88023952,1.0713,,,91,0,91,0,1,,,,,,,,
,,"[""circle"",""no_dis"",""vert"",""up"",[99999,99999],[106,-106]]",circle,no_dis,vert,up,"[99999,99999]","[106,-106]",up,1,,,,,,001,2025-03-10_20h14.58.170,SL_sali,2021.2.3,Win32,59.88023952,1.9249,,,92,0,92,0,1,,,,,,,,
,,"[""diamond"",""red"",""vert"",""up"",[0,-150],[150,0]]",diamond,red,vert,up,"[0,-150]","[150,0]",up,1,,,,,,001,2025-03-10_20h14.58.170,SL_sali,2021.2.3,Win32,59.88023952,2.1479,,,93,0,93,0,1,,,,,,,,
,,"[""diamond"",""red"",""hori"",""left"",[-106,106],[0,150]]",diamond,red,hori,left,"[-106,106]","[0,150]",left,1,,,,,,001,2025-03-10_20h14.58.170,SL_sali,2021.2.3,Win32,59.88023952,1.1154,,,94,0,94,0,1,,,,,,,,
,,"[""diamond"",""green"",""hori"",""left"",[150,0],[106,-106]]",diamond,green,hori,left,"[150,0]","[106,-106]",left,1,,,,,,001,2025-03-10_20h14.58.170,SL_sali,2021.2.3,Win32,59.88023952,1.7818,,,95,0,95,0,1,,,,,,,,
,,"[""circle"",""red"",""vert"",""up"",[106,106],[0,-150]]",circle,red,vert,up,"[106,106]","[0,-150]",up,1,,,,,,001,2025-03-10_20h14.58.170,SL_sali,2021.2.3,Win32,59.88023952,2.855,,,96,0,96,0,1,,,,,,,,
,,"[""diamond"",""no_dis"",""hori"",""left"",[99999,99999],[106,-106]]",diamond,no_dis,hori,left,"[99999,99999]","[106,-106]",left,1,,,,,,001,2025-03-10_20h14.58.170,SL_sali,2021.2.3,Win32,59.88023952,1.2582,,,97,0,97,0,1,,,,,,,,
,,"[""circle"",""green"",""vert"",""up"",[-150,0],[0,-150]]",circle,green,vert,up,"[-150,0]","[0,-150]",up,1,,,,,,001,2025-03-10_20h14.58.170,SL_sali,2021.2.3,Win32,59.88023952,1.1657,,,98,0,98,0,1,,,,,,,,
,,"[""circle"",""red"",""vert"",""up"",[0,-150],[-106,106]]",circle,red,vert,up,"[0,-150]","[-106,106]",up,1,,,,,,001,2025-03-10_20h14.58.170,SL_sali,2021.2.3,Win32,59.88023952,1.3009,,,99,0,99,0,1,,,,,,,,
,,"[""circle"",""green"",""hori"",""left"",[0,-150],[0,150]]",circle,green,hori,left,"[0,-150]","[0,150]",left,1,,,,,,001,2025-03-10_20h14.58.170,SL_sali,2021.2.3,Win32,59.88023952,1.9367,,,100,0,100,0,1,,,,,,,,
,,"[""circle"",""green"",""vert"",""up"",[0,-150],[150,0]]",circle,green,vert,up,"[0,-150]","[150,0]",up,1,,,,,,001,2025-03-10_20h14.58.170,SL_sali,2021.2.3,Win32,59.88023952,2.253,,,101,0,101,0,1,,,,,,,,
,,"[""diamond"",""no_dis"",""hori"",""left"",[99999,99999],[0,150]]",diamond,no_dis,hori,left,"[99999,99999]","[0,150]",left,1,,,,,,001,2025-03-10_20h14.58.170,SL_sali,2021.2.3,Win32,59.88023952,1.4859,,,102,0,102,0,1,,,,,,,,
,,"[""diamond"",""no_dis"",""hori"",""left"",[99999,99999],[0,-150]]",diamond,no_dis,hori,left,"[99999,99999]","[0,-150]",left,1,,,,,,001,2025-03-10_20h14.58.170,SL_sali,2021.2.3,Win32,59.88023952,1.5188,,,103,0,103,0,1,,,,,,,,
,,"[""circle"",""red"",""vert"",""up"",[0,150],[106,-106]]",circle,red,vert,up,"[0,150]","[106,-106]",up,1,,,,,,001,2025-03-10_20h14.58.170,SL_sali,2021.2.3,Win32,59.88023952,1.3668,,,104,0,104,0,1,,,,,,,,
,,"[""circle"",""green"",""hori"",""left"",[-150,0],[106,106]]",circle,green,hori,left,"[-150,0]","[106,106]",left,1,,,,,,001,2025-03-10_20h14.58.170,SL_sali,2021.2.3,Win32,59.88023952,1.6361,,,105,0,105,0,1,,,,,,,,
,,"[""circle"",""green"",""hori"",""left"",[-106,106],[0,150]]",circle,green,hori,left,"[-106,106]","[0,150]",left,1,,,,,,001,2025-03-10_20h14.58.170,SL_sali,2021.2.3,Win32,59.88023952,2.0028,,,106,0,106,0,1,,,,,,,,
,,"[""diamond"",""red"",""vert"",""up"",[150,0],[0,150]]",diamond,red,vert,up,"[150,0]","[0,150]",up,1,,,,,,001,2025-03-10_20h14.58.170,SL_sali,2021.2.3,Win32,59.88023952,1.9646,,,107,0,107,0,1,,,,,,,,
,,"[""circle"",""no_dis"",""hori"",""left"",[99999,99999],[0,150]]",circle,no_dis,hori,left,"[99999,99999]","[0,150]",left,1,,,,,,001,2025-03-10_20h14.58.170,SL_sali,2021.2.3,Win32,59.88023952,1.5596,,,108,0,108,0,1,,,,,,,,
,,"[""diamond"",""green"",""vert"",""up"",[-150,0],[106,106]]",diamond,green,vert,up,"[-150,0]","[106,106]",up,1,,,,,,001,2025-03-10_20h14.58.170,SL_sali,2021.2.3,Win32,59.88023952,1.4498,,,109,0,109,0,1,,,,,,,,
,,"[""circle"",""no_dis"",""hori"",""left"",[99999,99999],[-106,-106]]",circle,no_dis,hori,left,"[99999,99999]","[-106,-106]",left,1,,,,,,001,2025-03-10_20h14.58.170,SL_sali,2021.2.3,Win32,59.88023952,1.1869,,,110,0,110,0,1,,,,,,,,
,,"[""circle"",""no_dis"",""vert"",""up"",[99999,99999],[-106,-106]]",circle,no_dis,vert,up,"[99999,99999]","[-106,-106]",up,1,,,,,,001,2025-03-10_20h14.58.170,SL_sali,2021.2.3,Win32,59.88023952,1.3166,,,111,0,111,0,1,,,,,,,,
,,"[""diamond"",""red"",""vert"",""up"",[0,-150],[-150,0]]",diamond,red,vert,up,"[0,-150]","[-150,0]",up,1,,,,,,001,2025-03-10_20h14.58.170,SL_sali,2021.2.3,Win32,59.88023952,1.8151,,,112,0,112,0,1,,,,,,,,
,,"[""diamond"",""red"",""hori"",""left"",[0,-150],[-106,-106]]",diamond,red,hori,left,"[0,-150]","[-106,-106]",left,1,,,,,,001,2025-03-10_20h14.58.170,SL_sali,2021.2.3,Win32,59.88023952,1.6869,,,113,0,113,0,1,,,,,,,,
,,"[""diamond"",""green"",""vert"",""up"",[0,-150],[106,106]]",diamond,green,vert,up,"[0,-150]","[106,106]",up,1,,,,,,001,2025-03-10_20h14.58.170,SL_sali,2021.2.3,Win32,59.88023952,1.3239,,,114,0,114,0,1,,,,,,,,
,,"[""diamond"",""red"",""hori"",""left"",[0,-150],[-106,106]]",diamond,red,hori,left,"[0,-150]","[-106,106]",left,1,,,,,,001,2025-03-10_20h14.58.170,SL_sali,2021.2.3,Win32,59.88023952,1.0584,,,115,0,115,0,1,,,,,,,,
,,"[""diamond"",""no_dis"",""hori"",""left"",[99999,99999],[-150,0]]",diamond,no_dis,hori,left,"[99999,99999]","[-150,0]",left,1,,,,,,001,2025-03-10_20h14.58.170,SL_sali,2021.2.3,Win32,59.88023952,1.5073,,,116,0,116,0,1,,,,,,,,
,,"[""circle"",""red"",""hori"",""left"",[106,-106],[-106,106]]",circle,red,hori,left,"[106,-106]","[-106,106]",left,1,,,,,,001,2025-03-10_20h14.58.170,SL_sali,2021.2.3,Win32,59.88023952,1.4163,,,117,0,117,0,1,,,,,,,,
,,"[""diamond"",""no_dis"",""vert"",""up"",[99999,99999],[150,0]]",diamond,no_dis,vert,up,"[99999,99999]","[150,0]",up,1,,,,,,001,2025-03-10_20h14.58.170,SL_sali,2021.2.3,Win32,59.88023952,1.068,,,118,0,118,0,1,,,,,,,,
,,"[""circle"",""red"",""vert"",""up"",[0,-150],[-150,0]]",circle,red,vert,up,"[0,-150]","[-150,0]",up,1,,,,,,001,2025-03-10_20h14.58.170,SL_sali,2021.2.3,Win32,59.88023952,2.0863,,,119,0,119,0,1,,,,,,,,
,,,,,,,,,,,,,,,,001,2025-03-10_20h14.58.170,SL_sali,2021.2.3,Win32,59.88023952,,,,,,,,,3,space,18.2538,2,0,2,0,1
,,"[""circle"",""no_dis"",""vert"",""up"",[99999,99999],[0,150]]",circle,no_dis,vert,up,"[99999,99999]","[0,150]",up,1,,,,,,001,2025-03-10_20h14.58.170,SL_sali,2021.2.3,Win32,59.88023952,1.3623,,,0,0,0,0,1,,,,,,,,
,,"[""circle"",""green"",""vert"",""up"",[-150,0],[-106,-106]]",circle,green,vert,up,"[-150,0]","[-106,-106]",up,1,,,,,,001,2025-03-10_20h14.58.170,SL_sali,2021.2.3,Win32,59.88023952,1.0274,,,1,0,1,0,1,,,,,,,,
,,"[""circle"",""no_dis"",""hori"",""left"",[99999,99999],[-150,0]]",circle,no_dis,hori,left,"[99999,99999]","[-150,0]",left,1,,,,,,001,2025-03-10_20h14.58.170,SL_sali,2021.2.3,Win32,59.88023952,0.9326,,,2,0,2,0,1,,,,,,,,
,,"[""circle"",""no_dis"",""vert"",""up"",[99999,99999],[106,-106]]",circle,no_dis,vert,up,"[99999,99999]","[106,-106]",up,1,,,,,,001,2025-03-10_20h14.58.170,SL_sali,2021.2.3,Win32,59.88023952,0.9742,,,3,0,3,0,1,,,,,,,,
,,"[""circle"",""green"",""vert"",""up"",[106,-106],[0,150]]",circle,green,vert,up,"[106,-106]","[0,150]",up,1,,,,,,001,2025-03-10_20h14.58.170,SL_sali,2021.2.3,Win32,59.88023952,0.8167,,,4,0,4,0,1,,,,,,,,
,,"[""diamond"",""no_dis"",""vert"",""up"",[99999,99999],[150,0]]",diamond,no_dis,vert,up,"[99999,99999]","[150,0]",up,1,,,,,,001,2025-03-10_20h14.58.170,SL_sali,2021.2.3,Win32,59.88023952,1.0095,,,5,0,5,0,1,,,,,,,,
,,"[""circle"",""green"",""vert"",""up"",[150,0],[0,-150]]",circle,green,vert,up,"[150,0]","[0,-150]",up,1,,,,,,001,2025-03-10_20h14.58.170,SL_sali,2021.2.3,Win32,59.88023952,1.0829,,,6,0,6,0,1,,,,,,,,
,,"[""circle"",""red"",""hori"",""left"",[0,150],[-150,0]]",circle,red,hori,left,"[0,150]","[-150,0]",left,1,,,,,,001,2025-03-10_20h14.58.170,SL_sali,2021.2.3,Win32,59.88023952,0.953,,,7,0,7,0,1,,,,,,,,
,,"[""circle"",""green"",""vert"",""up"",[0,-150],[150,0]]",circle,green,vert,up,"[0,-150]","[150,0]",up,1,,,,,,001,2025-03-10_20h14.58.170,SL_sali,2021.2.3,Win32,59.88023952,1.1182,,,8,0,8,0,1,,,,,,,,
,,"[""diamond"",""red"",""hori"",""left"",[0,-150],[0,150]]",diamond,red,hori,left,"[0,-150]","[0,150]",left,1,,,,,,001,2025-03-10_20h14.58.170,SL_sali,2021.2.3,Win32,59.88023952,1.8164,,,9,0,9,0,1,,,,,,,,
,,"[""diamond"",""green"",""vert"",""up"",[0,-150],[150,0]]",diamond,green,vert,up,"[0,-150]","[150,0]",up,1,,,,,,001,2025-03-10_20h14.58.170,SL_sali,2021.2.3,Win32,59.88023952,0.9763,,,10,0,10,0,1,,,,,,,,
,,"[""circle"",""no_dis"",""vert"",""up"",[99999,99999],[106,-106]]",circle,no_dis,vert,up,"[99999,99999]","[106,-106]",up,1,,,,,,001,2025-03-10_20h14.58.170,SL_sali,2021.2.3,Win32,59.88023952,1.5994,,,11,0,11,0,1,,,,,,,,
,,"[""circle"",""red"",""vert"",""up"",[150,0],[106,-106]]",circle,red,vert,up,"[150,0]","[106,-106]",up,1,,,,,,001,2025-03-10_20h14.58.170,SL_sali,2021.2.3,Win32,59.88023952,1.1521,,,12,0,12,0,1,,,,,,,,
,,"[""diamond"",""red"",""vert"",""up"",[0,-150],[-150,0]]",diamond,red,vert,up,"[0,-150]","[-150,0]",left,0,,,,,,001,2025-03-10_20h14.58.170,SL_sali,2021.2.3,Win32,59.88023952,1.1876,,,13,0,13,0,1,,,,,,,,
,,"[""diamond"",""red"",""hori"",""left"",[0,-150],[-106,106]]",diamond,red,hori,left,"[0,-150]","[-106,106]",left,1,,,,,,001,2025-03-10_20h14.58.170,SL_sali,2021.2.3,Win32,59.88023952,1.4808,,,14,0,14,0,1,,,,,,,,
,,"[""diamond"",""green"",""hori"",""left"",[-150,0],[-106,-106]]",diamond,green,hori,left,"[-150,0]","[-106,-106]",left,1,,,,,,001,2025-03-10_20h14.58.170,SL_sali,2021.2.3,Win32,59.88023952,1.747,,,15,0,15,0,1,,,,,,,,
,,"[""circle"",""no_dis"",""vert"",""up"",[99999,99999],[0,150]]",circle,no_dis,vert,up,"[99999,99999]","[0,150]",up,1,,,,,,001,2025-03-10_20h14.58.170,SL_sali,2021.2.3,Win32,59.88023952,1.2025,,,16,0,16,0,1,,,,,,,,
,,"[""circle"",""no_dis"",""hori"",""left"",[99999,99999],[106,106]]",circle,no_dis,hori,left,"[99999,99999]","[106,106]",left,1,,,,,,001,2025-03-10_20h14.58.170,SL_sali,2021.2.3,Win32,59.88023952,1.6329,,,17,0,17,0,1,,,,,,,,
,,"[""circle"",""green"",""hori"",""left"",[-150,0],[106,106]]",circle,green,hori,left,"[-150,0]","[106,106]",left,1,,,,,,001,2025-03-10_20h14.58.170,SL_sali,2021.2.3,Win32,59.88023952,1.0248,,,18,0,18,0,1,,,,,,,,
,,"[""circle"",""green"",""hori"",""left"",[106,-106],[150,0]]",circle,green,hori,left,"[106,-106]","[150,0]",left,1,,,,,,001,2025-03-10_20h14.58.170,SL_sali,2021.2.3,Win32,59.88023952,1.2589,,,19,0,19,0,1,,,,,,,,
,,"[""circle"",""red"",""vert"",""up"",[106,106],[0,-150]]",circle,red,vert,up,"[106,106]","[0,-150]",up,1,,,,,,001,2025-03-10_20h14.58.170,SL_sali,2021.2.3,Win32,59.88023952,1.0083,,,20,0,20,0,1,,,,,,,,
,,"[""diamond"",""no_dis"",""vert"",""up"",[99999,99999],[150,0]]",diamond,no_dis,vert,up,"[99999,99999]","[150,0]",up,1,,,,,,001,2025-03-10_20h14.58.170,SL_sali,2021.2.3,Win32,59.88023952,2.2225,,,21,0,21,0,1,,,,,,,,
,,"[""circle"",""red"",""hori"",""left"",[-106,-106],[-106,106]]",circle,red,hori,left,"[-106,-106]","[-106,106]",left,1,,,,,,001,2025-03-10_20h14.58.170,SL_sali,2021.2.3,Win32,59.88023952,1.3319,,,22,0,22,0,1,,,,,,,,
,,"[""diamond"",""red"",""hori"",""left"",[150,0],[-106,-106]]",diamond,red,hori,left,"[150,0]","[-106,-106]",left,1,,,,,,001,2025-03-10_20h14.58.170,SL_sali,2021.2.3,Win32,59.88023952,2.0915,,,23,0,23,0,1,,,,,,,,
,,"[""diamond"",""green"",""hori"",""left"",[106,106],[0,150]]",diamond,green,hori,left,"[106,106]","[0,150]",left,1,,,,,,001,2025-03-10_20h14.58.170,SL_sali,2021.2.3,Win32,59.88023952,1.2235,,,24,0,24,0,1,,,,,,,,
,,"[""circle"",""red"",""hori"",""left"",[106,-106],[-106,106]]",circle,red,hori,left,"[106,-106]","[-106,106]",left,1,,,,,,001,2025-03-10_20h14.58.170,SL_sali,2021.2.3,Win32,59.88023952,2.223,,,25,0,25,0,1,,,,,,,,
,,"[""diamond"",""green"",""hori"",""left"",[106,106],[0,150]]",diamond,green,hori,left,"[106,106]","[0,150]",left,1,,,,,,001,2025-03-10_20h14.58.170,SL_sali,2021.2.3,Win32,59.88023952,1.5245,,,26,0,26,0,1,,,,,,,,
,,"[""circle"",""green"",""vert"",""up"",[0,150],[106,106]]",circle,green,vert,up,"[0,150]","[106,106]",up,1,,,,,,001,2025-03-10_20h14.58.170,SL_sali,2021.2.3,Win32,59.88023952,1.3254,,,27,0,27,0,1,,,,,,,,
,,"[""diamond"",""green"",""vert"",""up"",[-150,0],[0,-150]]",diamond,green,vert,up,"[-150,0]","[0,-150]",up,1,,,,,,001,2025-03-10_20h14.58.170,SL_sali,2021.2.3,Win32,59.88023952,2.1706,,,28,0,28,0,1,,,,,,,,
,,"[""diamond"",""red"",""vert"",""up"",[-106,-106],[106,-106]]",diamond,red,vert,up,"[-106,-106]","[106,-106]",up,1,,,,,,001,2025-03-10_20h14.58.170,SL_sali,2021.2.3,Win32,59.88023952,1.4156,,,29,0,29,0,1,,,,,,,,
,,"[""diamond"",""red"",""hori"",""left"",[0,-150],[-106,-106]]",diamond,red,hori,left,"[0,-150]","[-106,-106]",left,1,,,,,,001,2025-03-10_20h14.58.170,SL_sali,2021.2.3,Win32,59.88023952,1.418,,,30,0,30,0,1,,,,,,,,
,,"[""diamond"",""red"",""hori"",""left"",[106,-106],[-106,106]]",diamond,red,hori,left,"[106,-106]","[-106,106]",left,1,,,,,,001,2025-03-10_20h14.58.170,SL_sali,2021.2.3,Win32,59.88023952,1.1915,,,31,0,31,0,1,,,,,,,,
,,"[""diamond"",""no_dis"",""hori"",""left"",[99999,99999],[-150,0]]",diamond,no_dis,hori,left,"[99999,99999]","[-150,0]",left,1,,,,,,001,2025-03-10_20h14.58.170,SL_sali,2021.2.3,Win32,59.88023952,1.5376,,,32,0,32,0,1,,,,,,,,
,,"[""circle"",""red"",""hori"",""left"",[0,-150],[150,0]]",circle,red,hori,left,"[0,-150]","[150,0]",left,1,,,,,,001,2025-03-10_20h14.58.170,SL_sali,2021.2.3,Win32,59.88023952,2.6042,,,33,0,33,0,1,,,,,,,,
,,"[""circle"",""red"",""hori"",""left"",[0,-150],[150,0]]",circle,red,hori,left,"[0,-150]","[150,0]",left,1,,,,,,001,2025-03-10_20h14.58.170,SL_sali,2021.2.3,Win32,59.88023952,2.4454,,,34,0,34,0,1,,,,,,,,
,,"[""diamond"",""green"",""vert"",""up"",[-106,-106],[0,150]]",diamond,green,vert,up,"[-106,-106]","[0,150]",up,1,,,,,,001,2025-03-10_20h14.58.170,SL_sali,2021.2.3,Win32,59.88023952,1.376,,,35,0,35,0,1,,,,,,,,
,,"[""diamond"",""no_dis"",""hori"",""left"",[99999,99999],[0,-150]]",diamond,no_dis,hori,left,"[99999,99999]","[0,-150]",left,1,,,,,,001,2025-03-10_20h14.58.170,SL_sali,2021.2.3,Win32,59.88023952,1.2437,,,36,0,36,0,1,,,,,,,,
,,"[""diamond"",""red"",""vert"",""up"",[0,-150],[-150,0]]",diamond,red,vert,up,"[0,-150]","[-150,0]",up,1,,,,,,001,2025-03-10_20h14.58.170,SL_sali,2021.2.3,Win32,59.88023952,1.2852,,,37,0,37,0,1,,,,,,,,
,,"[""circle"",""red"",""vert"",""up"",[0,150],[106,-106]]",circle,red,vert,up,"[0,150]","[106,-106]",up,1,,,,,,001,2025-03-10_20h14.58.170,SL_sali,2021.2.3,Win32,59.88023952,1.4807,,,38,0,38,0,1,,,,,,,,
,,"[""circle"",""red"",""hori"",""left"",[150,0],[106,-106]]",circle,red,hori,left,"[150,0]","[106,-106]",left,1,,,,,,001,2025-03-10_20h14.58.170,SL_sali,2021.2.3,Win32,59.88023952,1.6052,,,39,0,39,0,1,,,,,,,,
,,"[""circle"",""no_dis"",""vert"",""up"",[99999,99999],[150,0]]",circle,no_dis,vert,up,"[99999,99999]","[150,0]",up,1,,,,,,001,2025-03-10_20h14.58.170,SL_sali,2021.2.3,Win32,59.88023952,1.0907,,,40,0,40,0,1,,,,,,,,
,,"[""diamond"",""no_dis"",""hori"",""left"",[99999,99999],[-150,0]]",diamond,no_dis,hori,left,"[99999,99999]","[-150,0]",left,1,,,,,,001,2025-03-10_20h14.58.170,SL_sali,2021.2.3,Win32,59.88023952,1.749,,,41,0,41,0,1,,,,,,,,
,,"[""circle"",""no_dis"",""vert"",""up"",[99999,99999],[-106,106]]",circle,no_dis,vert,up,"[99999,99999]","[-106,106]",up,1,,,,,,001,2025-03-10_20h14.58.170,SL_sali,2021.2.3,Win32,59.88023952,2.0161,,,42,0,42,0,1,,,,,,,,
,,"[""diamond"",""no_dis"",""hori"",""left"",[99999,99999],[-150,0]]",diamond,no_dis,hori,left,"[99999,99999]","[-150,0]",left,1,,,,,,001,2025-03-10_20h14.58.170,SL_sali,2021.2.3,Win32,59.88023952,1.5041,,,43,0,43,0,1,,,,,,,,
,,"[""circle"",""green"",""vert"",""up"",[-106,-106],[0,150]]",circle,green,vert,up,"[-106,-106]","[0,150]",up,1,,,,,,001,2025-03-10_20h14.58.170,SL_sali,2021.2.3,Win32,59.88023952,2.1385,,,44,0,44,0,1,,,,,,,,
,,"[""diamond"",""no_dis"",""hori"",""left"",[99999,99999],[150,0]]",diamond,no_dis,hori,left,"[99999,99999]","[150,0]",left,1,,,,,,001,2025-03-10_20h14.58.170,SL_sali,2021.2.3,Win32,59.88023952,1.2388,,,45,0,45,0,1,,,,,,,,
,,"[""diamond"",""green"",""vert"",""up"",[-106,106],[0,150]]",diamond,green,vert,up,"[-106,106]","[0,150]",up,1,,,,,,001,2025-03-10_20h14.58.170,SL_sali,2021.2.3,Win32,59.88023952,1.2981,,,46,0,46,0,1,,,,,,,,
,,"[""diamond"",""no_dis"",""hori"",""left"",[99999,99999],[106,-106]]",diamond,no_dis,hori,left,"[99999,99999]","[106,-106]",left,1,,,,,,001,2025-03-10_20h14.58.170,SL_sali,2021.2.3,Win32,59.88023952,1.6159,,,47,0,47,0,1,,,,,,,,
,,"[""circle"",""red"",""vert"",""up"",[150,0],[0,150]]",circle,red,vert,up,"[150,0]","[0,150]",up,1,,,,,,001,2025-03-10_20h14.58.170,SL_sali,2021.2.3,Win32,59.88023952,1.7518,,,48,0,48,0,1,,,,,,,,
,,"[""diamond"",""red"",""vert"",""up"",[0,-150],[150,0]]",diamond,red,vert,up,"[0,-150]","[150,0]",up,1,,,,,,001,2025-03-10_20h14.58.170,SL_sali,2021.2.3,Win32,59.88023952,1.6028,,,49,0,49,0,1,,,,,,,,
,,"[""circle"",""red"",""hori"",""left"",[0,-150],[-150,0]]",circle,red,hori,left,"[0,-150]","[-150,0]",left,1,,,,,,001,2025-03-10_20h14.58.170,SL_sali,2021.2.3,Win32,59.88023952,2.2506,,,50,0,50,0,1,,,,,,,,
,,"[""circle"",""no_dis"",""hori"",""left"",[99999,99999],[0,150]]",circle,no_dis,hori,left,"[99999,99999]","[0,150]",left,1,,,,,,001,2025-03-10_20h14.58.170,SL_sali,2021.2.3,Win32,59.88023952,1.346,,,51,0,51,0,1,,,,,,,,
,,"[""diamond"",""green"",""hori"",""left"",[0,150],[150,0]]",diamond,green,hori,left,"[0,150]","[150,0]",left,1,,,,,,001,2025-03-10_20h14.58.170,SL_sali,2021.2.3,Win32,59.88023952,1.9358,,,52,0,52,0,1,,,,,,,,
,,"[""diamond"",""red"",""hori"",""left"",[150,0],[106,106]]",diamond,red,hori,left,"[150,0]","[106,106]",left,1,,,,,,001,2025-03-10_20h14.58.170,SL_sali,2021.2.3,Win32,59.88023952,1.5986,,,53,0,53,0,1,,,,,,,,
,,"[""diamond"",""red"",""hori"",""left"",[0,-150],[150,0]]",diamond,red,hori,left,"[0,-150]","[150,0]",left,1,,,,,,001,2025-03-10_20h14.58.170,SL_sali,2021.2.3,Win32,59.88023952,1.1154,,,54,0,54,0,1,,,,,,,,
,,"[""circle"",""red"",""vert"",""up"",[-106,106],[106,-106]]",circle,red,vert,up,"[-106,106]","[106,-106]",up,1,,,,,,001,2025-03-10_20h14.58.170,SL_sali,2021.2.3,Win32,59.88023952,2.6154,,,55,0,55,0,1,,,,,,,,
,,"[""diamond"",""green"",""vert"",""up"",[0,-150],[0,150]]",diamond,green,vert,up,"[0,-150]","[0,150]",up,1,,,,,,001,2025-03-10_20h14.58.170,SL_sali,2021.2.3,Win32,59.88023952,1.9539,,,56,0,56,0,1,,,,,,,,
,,"[""diamond"",""no_dis"",""hori"",""left"",[99999,99999],[106,-106]]",diamond,no_dis,hori,left,"[99999,99999]","[106,-106]",left,1,,,,,,001,2025-03-10_20h14.58.170,SL_sali,2021.2.3,Win32,59.88023952,1.3727,,,57,0,57,0,1,,,,,,,,
,,"[""diamond"",""no_dis"",""vert"",""up"",[99999,99999],[-106,-106]]",diamond,no_dis,vert,up,"[99999,99999]","[-106,-106]",up,1,,,,,,001,2025-03-10_20h14.58.170,SL_sali,2021.2.3,Win32,59.88023952,2.009,,,58,0,58,0,1,,,,,,,,
,,"[""diamond"",""red"",""hori"",""left"",[106,106],[150,0]]",diamond,red,hori,left,"[106,106]","[150,0]",left,1,,,,,,001,2025-03-10_20h14.58.170,SL_sali,2021.2.3,Win32,59.88023952,1.654,,,59,0,59,0,1,,,,,,,,
,,"[""diamond"",""green"",""hori"",""left"",[0,-150],[-106,106]]",diamond,green,hori,left,"[0,-150]","[-106,106]",left,1,,,,,,001,2025-03-10_20h14.58.170,SL_sali,2021.2.3,Win32,59.88023952,1.1228,,,60,0,60,0,1,,,,,,,,
,,"[""diamond"",""no_dis"",""vert"",""up"",[99999,99999],[0,-150]]",diamond,no_dis,vert,up,"[99999,99999]","[0,-150]",up,1,,,,,,001,2025-03-10_20h14.58.170,SL_sali,2021.2.3,Win32,59.88023952,1.3161,,,61,0,61,0,1,,,,,,,,
,,"[""diamond"",""green"",""vert"",""up"",[0,-150],[106,-106]]",diamond,green,vert,up,"[0,-150]","[106,-106]",up,1,,,,,,001,2025-03-10_20h14.58.170,SL_sali,2021.2.3,Win32,59.88023952,1.427,,,62,0,62,0,1,,,,,,,,
,,"[""diamond"",""red"",""vert"",""up"",[-150,0],[0,-150]]",diamond,red,vert,up,"[-150,0]","[0,-150]",up,1,,,,,,001,2025-03-10_20h14.58.170,SL_sali,2021.2.3,Win32,59.88023952,1.199,,,63,0,63,0,1,,,,,,,,
,,"[""diamond"",""no_dis"",""vert"",""up"",[99999,99999],[0,-150]]",diamond,no_dis,vert,up,"[99999,99999]","[0,-150]",up,1,,,,,,001,2025-03-10_20h14.58.170,SL_sali,2021.2.3,Win32,59.88023952,0.8523,,,64,0,64,0,1,,,,,,,,
,,"[""circle"",""red"",""hori"",""left"",[106,106],[-150,0]]",circle,red,hori,left,"[106,106]","[-150,0]",left,1,,,,,,001,2025-03-10_20h14.58.170,SL_sali,2021.2.3,Win32,59.88023952,1.4217,,,65,0,65,0,1,,,,,,,,
,,"[""circle"",""red"",""vert"",""up"",[0,-150],[-106,106]]",circle,red,vert,up,"[0,-150]","[-106,106]",up,1,,,,,,001,2025-03-10_20h14.58.170,SL_sali,2021.2.3,Win32,59.88023952,1.5616,,,66,0,66,0,1,,,,,,,,
,,"[""circle"",""red"",""vert"",""up"",[106,106],[0,150]]",circle,red,vert,up,"[106,106]","[0,150]",up,1,,,,,,001,2025-03-10_20h14.58.170,SL_sali,2021.2.3,Win32,59.88023952,0.8895,,,67,0,67,0,1,,,,,,,,
,,"[""circle"",""no_dis"",""hori"",""left"",[99999,99999],[0,150]]",circle,no_dis,hori,left,"[99999,99999]","[0,150]",left,1,,,,,,001,2025-03-10_20h14.58.170,SL_sali,2021.2.3,Win32,59.88023952,0.9238,,,68,0,68,0,1,,,,,,,,
,,"[""diamond"",""green"",""vert"",""up"",[0,-150],[106,106]]",diamond,green,vert,up,"[0,-150]","[106,106]",up,1,,,,,,001,2025-03-10_20h14.58.170,SL_sali,2021.2.3,Win32,59.88023952,2.3836,,,69,0,69,0,1,,,,,,,,
,,"[""diamond"",""red"",""vert"",""up"",[-106,106],[0,150]]",diamond,red,vert,up,"[-106,106]","[0,150]",up,1,,,,,,001,2025-03-10_20h14.58.170,SL_sali,2021.2.3,Win32,59.88023952,1.4173,,,70,0,70,0,1,,,,,,,,
,,"[""diamond"",""green"",""hori"",""left"",[106,-106],[0,-150]]",diamond,green,hori,left,"[106,-106]","[0,-150]",left,1,,,,,,001,2025-03-10_20h14.58.170,SL_sali,2021.2.3,Win32,59.88023952,1.8753,,,71,0,71,0,1,,,,,,,,
,,"[""circle"",""green"",""hori"",""left"",[0,-150],[0,150]]",circle,green,hori,left,"[0,-150]","[0,150]",left,1,,,,,,001,2025-03-10_20h14.58.170,SL_sali,2021.2.3,Win32,59.88023952,1.9405,,,72,0,72,0,1,,,,,,,,
,,"[""circle"",""no_dis"",""hori"",""left"",[99999,99999],[0,-150]]",circle,no_dis,hori,left,"[99999,99999]","[0,-150]",left,1,,,,,,001,2025-03-10_20h14.58.170,SL_sali,2021.2.3,Win32,59.88023952,1.2867,,,73,0,73,0,1,,,,,,,,
,,"[""circle"",""green"",""vert"",""up"",[0,-150],[-150,0]]",circle,green,vert,up,"[0,-150]","[-150,0]",up,1,,,,,,001,2025-03-10_20h14.58.170,SL_sali,2021.2.3,Win32,59.88023952,1.6508,,,74,0,74,0,1,,,,,,,,
,,"[""diamond"",""green"",""vert"",""up"",[0,-150],[106,106]]",diamond,green,vert,up,"[0,-150]","[106,106]",up,1,,,,,,001,2025-03-10_20h14.58.170,SL_sali,2021.2.3,Win32,59.88023952,1.1275,,,75,0,75,0,1,,,,,,,,
,,"[""diamond"",""no_dis"",""vert"",""up"",[99999,99999],[106,106]]",diamond,no_dis,vert,up,"[99999,99999]","[106,106]",up,1,,,,,,001,2025-03-10_20h14.58.170,SL_sali,2021.2.3,Win32,59.88023952,0.9986,,,76,0,76,0,1,,,,,,,,
,,"[""diamond"",""red"",""vert"",""up"",[106,106],[0,-150]]",diamond,red,vert,up,"[106,106]","[0,-150]",up,1,,,,,,001,2025-03-10_20h14.58.170,SL_sali,2021.2.3,Win32,59.88023952,1.4488,,,77,0,77,0,1,,,,,,,,
,,"[""circle"",""green"",""hori"",""left"",[0,150],[106,-106]]",circle,green,hori,left,"[0,150]","[106,-106]",left,1,,,,,,001,2025-03-10_20h14.58.170,SL_sali,2021.2.3,Win32,59.88023952,1.2435,,,78,0,78,0,1,,,,,,,,
,,"[""diamond"",""green"",""vert"",""up"",[0,-150],[106,106]]",diamond,green,vert,up,"[0,-150]","[106,106]",up,1,,,,,,001,2025-03-10_20h14.58.170,SL_sali,2021.2.3,Win32,59.88023952,1.1154,,,79,0,79,0,1,,,,,,,,
,,"[""circle"",""green"",""vert"",""up"",[-150,0],[0,-150]]",circle,green,vert,up,"[-150,0]","[0,-150]",up,1,,,,,,001,2025-03-10_20h14.58.170,SL_sali,2021.2.3,Win32,59.88023952,1.6859,,,80,0,80,0,1,,,,,,,,
,,"[""circle"",""no_dis"",""vert"",""up"",[99999,99999],[150,0]]",circle,no_dis,vert,up,"[99999,99999]","[150,0]",up,1,,,,,,001,2025-03-10_20h14.58.170,SL_sali,2021.2.3,Win32,59.88023952,1.7387,,,81,0,81,0,1,,,,,,,,
,,"[""diamond"",""no_dis"",""vert"",""up"",[99999,99999],[-106,106]]",diamond,no_dis,vert,up,"[99999,99999]","[-106,106]",up,1,,,,,,001,2025-03-10_20h14.58.170,SL_sali,2021.2.3,Win32,59.88023952,1.7725,,,82,0,82,0,1,,,,,,,,
,,"[""circle"",""no_dis"",""hori"",""left"",[99999,99999],[106,106]]",circle,no_dis,hori,left,"[99999,99999]","[106,106]",left,1,,,,,,001,2025-03-10_20h14.58.170,SL_sali,2021.2.3,Win32,59.88023952,2.0496,,,83,0,83,0,1,,,,,,,,
,,"[""diamond"",""red"",""vert"",""up"",[-106,106],[106,-106]]",diamond,red,vert,up,"[-106,106]","[106,-106]",up,1,,,,,,001,2025-03-10_20h14.58.170,SL_sali,2021.2.3,Win32,59.88023952,2.2029,,,84,0,84,0,1,,,,,,,,
,,"[""circle"",""green"",""hori"",""left"",[-106,106],[0,150]]",circle,green,hori,left,"[-106,106]","[0,150]",left,1,,,,,,001,2025-03-10_20h14.58.170,SL_sali,2021.2.3,Win32,59.88023952,1.9201,,,85,0,85,0,1,,,,,,,,
,,"[""diamond"",""no_dis"",""hori"",""left"",[99999,99999],[-106,106]]",diamond,no_dis,hori,left,"[99999,99999]","[-106,106]",left,1,,,,,,001,2025-03-10_20h14.58.170,SL_sali,2021.2.3,Win32,59.88023952,1.5281,,,86,0,86,0,1,,,,,,,,
,,"[""diamond"",""no_dis"",""vert"",""up"",[99999,99999],[-106,106]]",diamond,no_dis,vert,up,"[99999,99999]","[-106,106]",up,1,,,,,,001,2025-03-10_20h14.58.170,SL_sali,2021.2.3,Win32,59.88023952,1.0427,,,87,0,87,0,1,,,,,,,,
,,"[""circle"",""green"",""hori"",""left"",[-106,106],[0,-150]]",circle,green,hori,left,"[-106,106]","[0,-150]",left,1,,,,,,001,2025-03-10_20h14.58.170,SL_sali,2021.2.3,Win32,59.88023952,1.5225,,,88,0,88,0,1,,,,,,,,
,,"[""circle"",""green"",""hori"",""left"",[0,150],[-106,-106]]",circle,green,hori,left,"[0,150]","[-106,-106]",left,1,,,,,,001,2025-03-10_20h14.58.170,SL_sali,2021.2.3,Win32,59.88023952,1.9665,,,89,0,89,0,1,,,,,,,,
,,"[""diamond"",""red"",""hori"",""left"",[-106,106],[0,150]]",diamond,red,hori,left,"[-106,106]","[0,150]",left,1,,,,,,001,2025-03-10_20h14.58.170,SL_sali,2021.2.3,Win32,59.88023952,1.3775,,,90,0,90,0,1,,,,,,,,
,,"[""circle"",""green"",""vert"",""up"",[-106,106],[106,106]]",circle,green,vert,up,"[-106,106]","[106,106]",up,1,,,,,,001,2025-03-10_20h14.58.170,SL_sali,2021.2.3,Win32,59.88023952,1.3704,,,91,0,91,0,1,,,,,,,,
,,"[""circle"",""red"",""hori"",""left"",[106,-106],[0,150]]",circle,red,hori,left,"[106,-106]","[0,150]",left,1,,,,,,001,2025-03-10_20h14.58.170,SL_sali,2021.2.3,Win32,59.88023952,1.7718,,,92,0,92,0,1,,,,,,,,
