﻿key_resp.keys,key_resp.rt,trial_para,tar_shape,dis_color_condi,tar_line,cor_resp,dis_loc,tar_loc,resp.keys,resp.corr,resp.rt,trials.thisRepN,trials.thisTrialN,trials.thisN,trials.thisIndex,trials.ran,participant,date,expName,psychopyVersion,OS,frameRate,key_resp_2.keys,key_resp_2.rt,trials_2.thisRepN,trials_2.thisTrialN,trials_2.thisN,trials_2.thisIndex,trials_2.ran,block_num,key_resp_3.keys,key_resp_3.rt,trials_3.thisRepN,trials_3.thisTrialN,trials_3.thisN,trials_3.thisIndex,trials_3.ran
space,41.4655,"[""diamond"",""red"",""vert"",""up"",[106,-106],[-106,106]]",diamond,red,vert,up,"[106,-106]","[-106,106]",up,1,2.952,0,0,0,0,1,001,2025-03-17_15h07.10.828,SL_sali,2021.2.3,Win32,60.24096386,,,,,,,,,,,,,,,
,,"[""diamond"",""red"",""hori"",""left"",[0,-150],[150,0]]",diamond,red,hori,left,"[0,-150]","[150,0]",,0,,1,0,1,0,1,001,2025-03-17_15h07.10.828,SL_sali,2021.2.3,Win32,60.24096386,,,,,,,,,,,,,,,
,,"[""diamond"",""red"",""hori"",""left"",[-106,-106],[0,150]]",diamond,red,hori,left,"[-106,-106]","[0,150]",left,1,1.4274,2,0,2,0,1,001,2025-03-17_15h07.10.828,SL_sali,2021.2.3,Win32,60.24096386,,,,,,,,,,,,,,,
,,"[""diamond"",""green"",""vert"",""up"",[-106,106],[-150,0]]",diamond,green,vert,up,"[-106,106]","[-150,0]",up,1,1.3159,3,0,3,0,1,001,2025-03-17_15h07.10.828,SL_sali,2021.2.3,Win32,60.24096386,,,,,,,,,,,,,,,
,,"[""circle"",""no_dis"",""hori"",""left"",[99999,99999],[150,0]]",circle,no_dis,hori,left,"[99999,99999]","[150,0]",left,1,1.4742,4,0,4,0,1,001,2025-03-17_15h07.10.828,SL_sali,2021.2.3,Win32,60.24096386,,,,,,,,,,,,,,,
,,"[""diamond"",""green"",""hori"",""left"",[-150,0],[0,-150]]",diamond,green,hori,left,"[-150,0]","[0,-150]",left,1,1.7833,5,0,5,0,1,001,2025-03-17_15h07.10.828,SL_sali,2021.2.3,Win32,60.24096386,,,,,,,,,,,,,,,
,,"[""circle"",""no_dis"",""hori"",""left"",[99999,99999],[-106,-106]]",circle,no_dis,hori,left,"[99999,99999]","[-106,-106]",left,1,1.0614,6,0,6,0,1,001,2025-03-17_15h07.10.828,SL_sali,2021.2.3,Win32,60.24096386,,,,,,,,,,,,,,,
,,"[""circle"",""red"",""hori"",""left"",[106,106],[0,150]]",circle,red,hori,left,"[106,106]","[0,150]",up,0,1.128,7,0,7,0,1,001,2025-03-17_15h07.10.828,SL_sali,2021.2.3,Win32,60.24096386,,,,,,,,,,,,,,,
,,"[""circle"",""red"",""vert"",""up"",[106,-106],[-150,0]]",circle,red,vert,up,"[106,-106]","[-150,0]",up,1,1.2773,8,0,8,0,1,001,2025-03-17_15h07.10.828,SL_sali,2021.2.3,Win32,60.24096386,,,,,,,,,,,,,,,
,,"[""diamond"",""no_dis"",""vert"",""up"",[99999,99999],[0,-150]]",diamond,no_dis,vert,up,"[99999,99999]","[0,-150]",up,1,1.3334,9,0,9,0,1,001,2025-03-17_15h07.10.828,SL_sali,2021.2.3,Win32,60.24096386,,,,,,,,,,,,,,,
,,"[""diamond"",""red"",""vert"",""up"",[106,-106],[-106,106]]",diamond,red,vert,up,"[106,-106]","[-106,106]",up,1,1.1532,,,,,,001,2025-03-17_15h07.10.828,SL_sali,2021.2.3,Win32,60.24096386,space,32.5927,0,0,0,0,1,,,,,,,,
,,"[""diamond"",""red"",""hori"",""left"",[0,-150],[150,0]]",diamond,red,hori,left,"[0,-150]","[150,0]",left,1,1.1482,,,,,,001,2025-03-17_15h07.10.828,SL_sali,2021.2.3,Win32,60.24096386,,,1,0,1,0,1,,,,,,,,
,,"[""diamond"",""red"",""hori"",""left"",[-106,-106],[0,150]]",diamond,red,hori,left,"[-106,-106]","[0,150]",left,1,1.8142,,,,,,001,2025-03-17_15h07.10.828,SL_sali,2021.2.3,Win32,60.24096386,,,2,0,2,0,1,,,,,,,,
,,"[""diamond"",""green"",""vert"",""up"",[-106,106],[-150,0]]",diamond,green,vert,up,"[-106,106]","[-150,0]",up,1,0.983,,,,,,001,2025-03-17_15h07.10.828,SL_sali,2021.2.3,Win32,60.24096386,,,3,0,3,0,1,,,,,,,,
,,"[""circle"",""no_dis"",""hori"",""left"",[99999,99999],[150,0]]",circle,no_dis,hori,left,"[99999,99999]","[150,0]",left,1,1.5746,,,,,,001,2025-03-17_15h07.10.828,SL_sali,2021.2.3,Win32,60.24096386,,,4,0,4,0,1,,,,,,,,
,,"[""diamond"",""green"",""hori"",""left"",[-150,0],[0,-150]]",diamond,green,hori,left,"[-150,0]","[0,-150]",left,1,1.5114,,,,,,001,2025-03-17_15h07.10.828,SL_sali,2021.2.3,Win32,60.24096386,,,5,0,5,0,1,,,,,,,,
,,"[""circle"",""no_dis"",""hori"",""left"",[99999,99999],[-106,-106]]",circle,no_dis,hori,left,"[99999,99999]","[-106,-106]",left,1,1.2873,,,,,,001,2025-03-17_15h07.10.828,SL_sali,2021.2.3,Win32,60.24096386,,,6,0,6,0,1,,,,,,,,
,,"[""circle"",""red"",""hori"",""left"",[106,106],[0,150]]",circle,red,hori,left,"[106,106]","[0,150]",left,1,1.0763,,,,,,001,2025-03-17_15h07.10.828,SL_sali,2021.2.3,Win32,60.24096386,,,7,0,7,0,1,,,,,,,,
,,"[""circle"",""red"",""vert"",""up"",[106,-106],[-150,0]]",circle,red,vert,up,"[106,-106]","[-150,0]",up,1,0.9217,,,,,,001,2025-03-17_15h07.10.828,SL_sali,2021.2.3,Win32,60.24096386,,,8,0,8,0,1,,,,,,,,
,,"[""diamond"",""no_dis"",""vert"",""up"",[99999,99999],[0,-150]]",diamond,no_dis,vert,up,"[99999,99999]","[0,-150]",up,1,0.9496,,,,,,001,2025-03-17_15h07.10.828,SL_sali,2021.2.3,Win32,60.24096386,,,9,0,9,0,1,,,,,,,,
,,"[""circle"",""green"",""hori"",""left"",[106,106],[-150,0]]",circle,green,hori,left,"[106,106]","[-150,0]",left,1,0.7986,,,,,,001,2025-03-17_15h07.10.828,SL_sali,2021.2.3,Win32,60.24096386,,,10,0,10,0,1,,,,,,,,
,,"[""circle"",""no_dis"",""hori"",""left"",[99999,99999],[150,0]]",circle,no_dis,hori,left,"[99999,99999]","[150,0]",left,1,0.9161,,,,,,001,2025-03-17_15h07.10.828,SL_sali,2021.2.3,Win32,60.24096386,,,11,0,11,0,1,,,,,,,,
,,"[""diamond"",""no_dis"",""hori"",""left"",[99999,99999],[-106,-106]]",diamond,no_dis,hori,left,"[99999,99999]","[-106,-106]",left,1,1.0203,,,,,,001,2025-03-17_15h07.10.828,SL_sali,2021.2.3,Win32,60.24096386,,,12,0,12,0,1,,,,,,,,
,,"[""circle"",""no_dis"",""vert"",""up"",[99999,99999],[106,106]]",circle,no_dis,vert,up,"[99999,99999]","[106,106]",left,0,0.9379,,,,,,001,2025-03-17_15h07.10.828,SL_sali,2021.2.3,Win32,60.24096386,,,13,0,13,0,1,,,,,,,,
,,"[""diamond"",""red"",""hori"",""left"",[0,-150],[0,150]]",diamond,red,hori,left,"[0,-150]","[0,150]",left,1,1.4744,,,,,,001,2025-03-17_15h07.10.828,SL_sali,2021.2.3,Win32,60.24096386,,,14,0,14,0,1,,,,,,,,
,,"[""diamond"",""red"",""hori"",""left"",[0,-150],[106,-106]]",diamond,red,hori,left,"[0,-150]","[106,-106]",left,1,1.7699,,,,,,001,2025-03-17_15h07.10.828,SL_sali,2021.2.3,Win32,60.24096386,,,15,0,15,0,1,,,,,,,,
,,"[""diamond"",""green"",""vert"",""up"",[-150,0],[0,150]]",diamond,green,vert,up,"[-150,0]","[0,150]",up,1,0.87,,,,,,001,2025-03-17_15h07.10.828,SL_sali,2021.2.3,Win32,60.24096386,,,16,0,16,0,1,,,,,,,,
,,"[""diamond"",""red"",""vert"",""up"",[0,-150],[-106,-106]]",diamond,red,vert,up,"[0,-150]","[-106,-106]",up,1,2.0316,,,,,,001,2025-03-17_15h07.10.828,SL_sali,2021.2.3,Win32,60.24096386,,,17,0,17,0,1,,,,,,,,
,,"[""circle"",""red"",""vert"",""up"",[0,150],[106,106]]",circle,red,vert,up,"[0,150]","[106,106]",up,1,1.2009,,,,,,001,2025-03-17_15h07.10.828,SL_sali,2021.2.3,Win32,60.24096386,,,18,0,18,0,1,,,,,,,,
,,"[""circle"",""red"",""hori"",""left"",[0,-150],[-106,-106]]",circle,red,hori,left,"[0,-150]","[-106,-106]",left,1,1.0489,,,,,,001,2025-03-17_15h07.10.828,SL_sali,2021.2.3,Win32,60.24096386,,,19,0,19,0,1,,,,,,,,
,,"[""circle"",""red"",""vert"",""up"",[106,-106],[150,0]]",circle,red,vert,up,"[106,-106]","[150,0]",up,1,1.0329,,,,,,001,2025-03-17_15h07.10.828,SL_sali,2021.2.3,Win32,60.24096386,,,20,0,20,0,1,,,,,,,,
,,"[""circle"",""red"",""vert"",""up"",[0,150],[-150,0]]",circle,red,vert,up,"[0,150]","[-150,0]",up,1,0.9094,,,,,,001,2025-03-17_15h07.10.828,SL_sali,2021.2.3,Win32,60.24096386,,,21,0,21,0,1,,,,,,,,
,,"[""diamond"",""red"",""vert"",""up"",[0,150],[106,106]]",diamond,red,vert,up,"[0,150]","[106,106]",up,1,1.4325,,,,,,001,2025-03-17_15h07.10.828,SL_sali,2021.2.3,Win32,60.24096386,,,22,0,22,0,1,,,,,,,,
,,"[""circle"",""green"",""vert"",""up"",[0,150],[0,-150]]",circle,green,vert,up,"[0,150]","[0,-150]",up,1,1.0159,,,,,,001,2025-03-17_15h07.10.828,SL_sali,2021.2.3,Win32,60.24096386,,,23,0,23,0,1,,,,,,,,
,,"[""diamond"",""red"",""vert"",""up"",[0,-150],[-106,106]]",diamond,red,vert,up,"[0,-150]","[-106,106]",up,1,0.9057,,,,,,001,2025-03-17_15h07.10.828,SL_sali,2021.2.3,Win32,60.24096386,,,24,0,24,0,1,,,,,,,,
,,"[""diamond"",""green"",""vert"",""up"",[150,0],[-106,-106]]",diamond,green,vert,up,"[150,0]","[-106,-106]",up,1,1.4669,,,,,,001,2025-03-17_15h07.10.828,SL_sali,2021.2.3,Win32,60.24096386,,,25,0,25,0,1,,,,,,,,
,,"[""diamond"",""no_dis"",""vert"",""up"",[99999,99999],[106,106]]",diamond,no_dis,vert,up,"[99999,99999]","[106,106]",up,1,0.8333,,,,,,001,2025-03-17_15h07.10.828,SL_sali,2021.2.3,Win32,60.24096386,,,26,0,26,0,1,,,,,,,,
,,"[""diamond"",""no_dis"",""vert"",""up"",[99999,99999],[-106,106]]",diamond,no_dis,vert,up,"[99999,99999]","[-106,106]",up,1,1.0044,,,,,,001,2025-03-17_15h07.10.828,SL_sali,2021.2.3,Win32,60.24096386,,,27,0,27,0,1,,,,,,,,
,,"[""circle"",""no_dis"",""hori"",""left"",[99999,99999],[106,-106]]",circle,no_dis,hori,left,"[99999,99999]","[106,-106]",left,1,1.4588,,,,,,001,2025-03-17_15h07.10.828,SL_sali,2021.2.3,Win32,60.24096386,,,28,0,28,0,1,,,,,,,,
,,"[""diamond"",""no_dis"",""vert"",""up"",[99999,99999],[0,-150]]",diamond,no_dis,vert,up,"[99999,99999]","[0,-150]",up,1,0.8167,,,,,,001,2025-03-17_15h07.10.828,SL_sali,2021.2.3,Win32,60.24096386,,,29,0,29,0,1,,,,,,,,
,,"[""circle"",""no_dis"",""vert"",""up"",[99999,99999],[-150,0]]",circle,no_dis,vert,up,"[99999,99999]","[-150,0]",up,1,1.0677,,,,,,001,2025-03-17_15h07.10.828,SL_sali,2021.2.3,Win32,60.24096386,,,30,0,30,0,1,,,,,,,,
,,"[""diamond"",""no_dis"",""hori"",""left"",[99999,99999],[106,-106]]",diamond,no_dis,hori,left,"[99999,99999]","[106,-106]",left,1,0.9845,,,,,,001,2025-03-17_15h07.10.828,SL_sali,2021.2.3,Win32,60.24096386,,,31,0,31,0,1,,,,,,,,
,,"[""diamond"",""no_dis"",""hori"",""left"",[99999,99999],[106,-106]]",diamond,no_dis,hori,left,"[99999,99999]","[106,-106]",left,1,0.6886,,,,,,001,2025-03-17_15h07.10.828,SL_sali,2021.2.3,Win32,60.24096386,,,32,0,32,0,1,,,,,,,,
,,"[""diamond"",""red"",""hori"",""left"",[106,-106],[106,106]]",diamond,red,hori,left,"[106,-106]","[106,106]",left,1,1.2154,,,,,,001,2025-03-17_15h07.10.828,SL_sali,2021.2.3,Win32,60.24096386,,,33,0,33,0,1,,,,,,,,
,,"[""circle"",""green"",""vert"",""up"",[106,106],[-106,106]]",circle,green,vert,up,"[106,106]","[-106,106]",up,1,0.966,,,,,,001,2025-03-17_15h07.10.828,SL_sali,2021.2.3,Win32,60.24096386,,,34,0,34,0,1,,,,,,,,
,,"[""circle"",""green"",""vert"",""up"",[0,-150],[106,-106]]",circle,green,vert,up,"[0,-150]","[106,-106]",up,1,0.9867,,,,,,001,2025-03-17_15h07.10.828,SL_sali,2021.2.3,Win32,60.24096386,,,35,0,35,0,1,,,,,,,,
,,"[""diamond"",""no_dis"",""vert"",""up"",[99999,99999],[-106,106]]",diamond,no_dis,vert,up,"[99999,99999]","[-106,106]",up,1,1.0499,,,,,,001,2025-03-17_15h07.10.828,SL_sali,2021.2.3,Win32,60.24096386,,,36,0,36,0,1,,,,,,,,
,,"[""diamond"",""green"",""hori"",""left"",[106,106],[-150,0]]",diamond,green,hori,left,"[106,106]","[-150,0]",left,1,1.5168,,,,,,001,2025-03-17_15h07.10.828,SL_sali,2021.2.3,Win32,60.24096386,,,37,0,37,0,1,,,,,,,,
,,"[""circle"",""no_dis"",""hori"",""left"",[99999,99999],[106,106]]",circle,no_dis,hori,left,"[99999,99999]","[106,106]",up,0,1.6697,,,,,,001,2025-03-17_15h07.10.828,SL_sali,2021.2.3,Win32,60.24096386,,,38,0,38,0,1,,,,,,,,
,,"[""diamond"",""no_dis"",""hori"",""left"",[99999,99999],[0,150]]",diamond,no_dis,hori,left,"[99999,99999]","[0,150]",left,1,1.9327,,,,,,001,2025-03-17_15h07.10.828,SL_sali,2021.2.3,Win32,60.24096386,,,39,0,39,0,1,,,,,,,,
,,"[""diamond"",""green"",""hori"",""left"",[-106,-106],[0,150]]",diamond,green,hori,left,"[-106,-106]","[0,150]",left,1,1.2657,,,,,,001,2025-03-17_15h07.10.828,SL_sali,2021.2.3,Win32,60.24096386,,,40,0,40,0,1,,,,,,,,
,,"[""circle"",""no_dis"",""vert"",""up"",[99999,99999],[-150,0]]",circle,no_dis,vert,up,"[99999,99999]","[-150,0]",up,1,0.9995,,,,,,001,2025-03-17_15h07.10.828,SL_sali,2021.2.3,Win32,60.24096386,,,41,0,41,0,1,,,,,,,,
,,"[""circle"",""no_dis"",""vert"",""up"",[99999,99999],[106,106]]",circle,no_dis,vert,up,"[99999,99999]","[106,106]",up,1,1.0146,,,,,,001,2025-03-17_15h07.10.828,SL_sali,2021.2.3,Win32,60.24096386,,,42,0,42,0,1,,,,,,,,
,,"[""diamond"",""red"",""vert"",""up"",[-106,-106],[-106,106]]",diamond,red,vert,up,"[-106,-106]","[-106,106]",up,1,1.1446,,,,,,001,2025-03-17_15h07.10.828,SL_sali,2021.2.3,Win32,60.24096386,,,43,0,43,0,1,,,,,,,,
,,"[""circle"",""green"",""vert"",""up"",[0,-150],[-106,-106]]",circle,green,vert,up,"[0,-150]","[-106,-106]",up,1,1.0491,,,,,,001,2025-03-17_15h07.10.828,SL_sali,2021.2.3,Win32,60.24096386,,,44,0,44,0,1,,,,,,,,
,,"[""diamond"",""green"",""vert"",""up"",[0,-150],[-106,-106]]",diamond,green,vert,up,"[0,-150]","[-106,-106]",up,1,0.7562,,,,,,001,2025-03-17_15h07.10.828,SL_sali,2021.2.3,Win32,60.24096386,,,45,0,45,0,1,,,,,,,,
,,"[""diamond"",""green"",""hori"",""left"",[-106,106],[0,-150]]",diamond,green,hori,left,"[-106,106]","[0,-150]",left,1,0.7905,,,,,,001,2025-03-17_15h07.10.828,SL_sali,2021.2.3,Win32,60.24096386,,,46,0,46,0,1,,,,,,,,
,,"[""diamond"",""no_dis"",""hori"",""left"",[99999,99999],[-150,0]]",diamond,no_dis,hori,left,"[99999,99999]","[-150,0]",left,1,0.5889,,,,,,001,2025-03-17_15h07.10.828,SL_sali,2021.2.3,Win32,60.24096386,,,47,0,47,0,1,,,,,,,,
,,"[""diamond"",""green"",""vert"",""up"",[0,-150],[0,150]]",diamond,green,vert,up,"[0,-150]","[0,150]",up,1,0.6849,,,,,,001,2025-03-17_15h07.10.828,SL_sali,2021.2.3,Win32,60.24096386,,,48,0,48,0,1,,,,,,,,
,,"[""diamond"",""green"",""vert"",""up"",[150,0],[106,-106]]",diamond,green,vert,up,"[150,0]","[106,-106]",up,1,0.7833,,,,,,001,2025-03-17_15h07.10.828,SL_sali,2021.2.3,Win32,60.24096386,,,49,0,49,0,1,,,,,,,,
,,"[""circle"",""red"",""vert"",""up"",[0,-150],[-106,-106]]",circle,red,vert,up,"[0,-150]","[-106,-106]",up,1,0.9083,,,,,,001,2025-03-17_15h07.10.828,SL_sali,2021.2.3,Win32,60.24096386,,,50,0,50,0,1,,,,,,,,
,,"[""diamond"",""green"",""hori"",""left"",[0,-150],[106,106]]",diamond,green,hori,left,"[0,-150]","[106,106]",left,1,0.8661,,,,,,001,2025-03-17_15h07.10.828,SL_sali,2021.2.3,Win32,60.24096386,,,51,0,51,0,1,,,,,,,,
,,"[""circle"",""green"",""hori"",""left"",[0,-150],[150,0]]",circle,green,hori,left,"[0,-150]","[150,0]",left,1,0.8859,,,,,,001,2025-03-17_15h07.10.828,SL_sali,2021.2.3,Win32,60.24096386,,,52,0,52,0,1,,,,,,,,
,,"[""diamond"",""green"",""hori"",""left"",[106,-106],[-106,-106]]",diamond,green,hori,left,"[106,-106]","[-106,-106]",left,1,1.1449,,,,,,001,2025-03-17_15h07.10.828,SL_sali,2021.2.3,Win32,60.24096386,,,53,0,53,0,1,,,,,,,,
,,"[""diamond"",""green"",""hori"",""left"",[-106,106],[150,0]]",diamond,green,hori,left,"[-106,106]","[150,0]",left,1,0.8093,,,,,,001,2025-03-17_15h07.10.828,SL_sali,2021.2.3,Win32,60.24096386,,,54,0,54,0,1,,,,,,,,
,,"[""diamond"",""red"",""vert"",""up"",[150,0],[106,106]]",diamond,red,vert,up,"[150,0]","[106,106]",up,1,0.772,,,,,,001,2025-03-17_15h07.10.828,SL_sali,2021.2.3,Win32,60.24096386,,,55,0,55,0,1,,,,,,,,
,,"[""diamond"",""green"",""hori"",""left"",[-106,106],[106,-106]]",diamond,green,hori,left,"[-106,106]","[106,-106]",left,1,0.7455,,,,,,001,2025-03-17_15h07.10.828,SL_sali,2021.2.3,Win32,60.24096386,,,56,0,56,0,1,,,,,,,,
,,"[""diamond"",""no_dis"",""hori"",""left"",[99999,99999],[-106,-106]]",diamond,no_dis,hori,left,"[99999,99999]","[-106,-106]",left,1,0.6706,,,,,,001,2025-03-17_15h07.10.828,SL_sali,2021.2.3,Win32,60.24096386,,,57,0,57,0,1,,,,,,,,
,,"[""diamond"",""no_dis"",""vert"",""up"",[99999,99999],[106,-106]]",diamond,no_dis,vert,up,"[99999,99999]","[106,-106]",up,1,1.2662,,,,,,001,2025-03-17_15h07.10.828,SL_sali,2021.2.3,Win32,60.24096386,,,58,0,58,0,1,,,,,,,,
,,"[""diamond"",""green"",""vert"",""up"",[150,0],[-106,-106]]",diamond,green,vert,up,"[150,0]","[-106,-106]",up,1,0.7839,,,,,,001,2025-03-17_15h07.10.828,SL_sali,2021.2.3,Win32,60.24096386,,,59,0,59,0,1,,,,,,,,
,,"[""diamond"",""green"",""hori"",""left"",[0,150],[106,-106]]",diamond,green,hori,left,"[0,150]","[106,-106]",left,1,0.6197,,,,,,001,2025-03-17_15h07.10.828,SL_sali,2021.2.3,Win32,60.24096386,,,60,0,60,0,1,,,,,,,,
,,"[""circle"",""no_dis"",""hori"",""left"",[99999,99999],[-150,0]]",circle,no_dis,hori,left,"[99999,99999]","[-150,0]",left,1,0.9323,,,,,,001,2025-03-17_15h07.10.828,SL_sali,2021.2.3,Win32,60.24096386,,,61,0,61,0,1,,,,,,,,
,,"[""circle"",""no_dis"",""vert"",""up"",[99999,99999],[0,150]]",circle,no_dis,vert,up,"[99999,99999]","[0,150]",up,1,0.6001,,,,,,001,2025-03-17_15h07.10.828,SL_sali,2021.2.3,Win32,60.24096386,,,62,0,62,0,1,,,,,,,,
,,"[""circle"",""green"",""vert"",""up"",[150,0],[0,-150]]",circle,green,vert,up,"[150,0]","[0,-150]",up,1,0.809,,,,,,001,2025-03-17_15h07.10.828,SL_sali,2021.2.3,Win32,60.24096386,,,63,0,63,0,1,,,,,,,,
,,"[""circle"",""green"",""hori"",""left"",[-106,-106],[0,-150]]",circle,green,hori,left,"[-106,-106]","[0,-150]",up,0,0.916,,,,,,001,2025-03-17_15h07.10.828,SL_sali,2021.2.3,Win32,60.24096386,,,64,0,64,0,1,,,,,,,,
,,"[""circle"",""green"",""vert"",""up"",[-106,106],[150,0]]",circle,green,vert,up,"[-106,106]","[150,0]",left,0,1.528,,,,,,001,2025-03-17_15h07.10.828,SL_sali,2021.2.3,Win32,60.24096386,,,65,0,65,0,1,,,,,,,,
,,"[""circle"",""green"",""hori"",""left"",[-150,0],[106,106]]",circle,green,hori,left,"[-150,0]","[106,106]",left,1,0.9087,,,,,,001,2025-03-17_15h07.10.828,SL_sali,2021.2.3,Win32,60.24096386,,,66,0,66,0,1,,,,,,,,
,,"[""circle"",""green"",""hori"",""left"",[0,-150],[-106,-106]]",circle,green,hori,left,"[0,-150]","[-106,-106]",left,1,0.8027,,,,,,001,2025-03-17_15h07.10.828,SL_sali,2021.2.3,Win32,60.24096386,,,67,0,67,0,1,,,,,,,,
,,"[""circle"",""red"",""vert"",""up"",[-150,0],[0,-150]]",circle,red,vert,up,"[-150,0]","[0,-150]",up,1,0.9592,,,,,,001,2025-03-17_15h07.10.828,SL_sali,2021.2.3,Win32,60.24096386,,,68,0,68,0,1,,,,,,,,
,,"[""circle"",""red"",""vert"",""up"",[-106,106],[150,0]]",circle,red,vert,up,"[-106,106]","[150,0]",up,1,0.8678,,,,,,001,2025-03-17_15h07.10.828,SL_sali,2021.2.3,Win32,60.24096386,,,69,0,69,0,1,,,,,,,,
,,"[""circle"",""no_dis"",""vert"",""up"",[99999,99999],[106,106]]",circle,no_dis,vert,up,"[99999,99999]","[106,106]",up,1,0.616,,,,,,001,2025-03-17_15h07.10.828,SL_sali,2021.2.3,Win32,60.24096386,,,70,0,70,0,1,,,,,,,,
,,"[""circle"",""no_dis"",""vert"",""up"",[99999,99999],[-106,-106]]",circle,no_dis,vert,up,"[99999,99999]","[-106,-106]",up,1,0.6212,,,,,,001,2025-03-17_15h07.10.828,SL_sali,2021.2.3,Win32,60.24096386,,,71,0,71,0,1,,,,,,,,
,,"[""diamond"",""no_dis"",""vert"",""up"",[99999,99999],[0,-150]]",diamond,no_dis,vert,up,"[99999,99999]","[0,-150]",up,1,1.4603,,,,,,001,2025-03-17_15h07.10.828,SL_sali,2021.2.3,Win32,60.24096386,,,72,0,72,0,1,,,,,,,,
,,"[""circle"",""no_dis"",""hori"",""left"",[99999,99999],[0,-150]]",circle,no_dis,hori,left,"[99999,99999]","[0,-150]",left,1,0.933,,,,,,001,2025-03-17_15h07.10.828,SL_sali,2021.2.3,Win32,60.24096386,,,73,0,73,0,1,,,,,,,,
,,"[""diamond"",""red"",""hori"",""left"",[150,0],[106,-106]]",diamond,red,hori,left,"[150,0]","[106,-106]",left,1,1.8916,,,,,,001,2025-03-17_15h07.10.828,SL_sali,2021.2.3,Win32,60.24096386,,,74,0,74,0,1,,,,,,,,
,,"[""diamond"",""no_dis"",""hori"",""left"",[99999,99999],[0,150]]",diamond,no_dis,hori,left,"[99999,99999]","[0,150]",left,1,0.9023,,,,,,001,2025-03-17_15h07.10.828,SL_sali,2021.2.3,Win32,60.24096386,,,75,0,75,0,1,,,,,,,,
,,"[""circle"",""red"",""hori"",""left"",[-150,0],[150,0]]",circle,red,hori,left,"[-150,0]","[150,0]",left,1,1.0669,,,,,,001,2025-03-17_15h07.10.828,SL_sali,2021.2.3,Win32,60.24096386,,,76,0,76,0,1,,,,,,,,
,,"[""diamond"",""red"",""vert"",""up"",[-150,0],[-106,106]]",diamond,red,vert,up,"[-150,0]","[-106,106]",up,1,1.5686,,,,,,001,2025-03-17_15h07.10.828,SL_sali,2021.2.3,Win32,60.24096386,,,77,0,77,0,1,,,,,,,,
,,"[""circle"",""green"",""hori"",""left"",[150,0],[106,106]]",circle,green,hori,left,"[150,0]","[106,106]",left,1,1.8164,,,,,,001,2025-03-17_15h07.10.828,SL_sali,2021.2.3,Win32,60.24096386,,,78,0,78,0,1,,,,,,,,
,,"[""circle"",""green"",""hori"",""left"",[106,106],[0,-150]]",circle,green,hori,left,"[106,106]","[0,-150]",left,1,0.9787,,,,,,001,2025-03-17_15h07.10.828,SL_sali,2021.2.3,Win32,60.24096386,,,79,0,79,0,1,,,,,,,,
,,"[""diamond"",""green"",""vert"",""up"",[0,150],[-150,0]]",diamond,green,vert,up,"[0,150]","[-150,0]",up,1,1.111,,,,,,001,2025-03-17_15h07.10.828,SL_sali,2021.2.3,Win32,60.24096386,,,80,0,80,0,1,,,,,,,,
,,"[""circle"",""red"",""hori"",""left"",[-106,-106],[-150,0]]",circle,red,hori,left,"[-106,-106]","[-150,0]",up,0,1.2666,,,,,,001,2025-03-17_15h07.10.828,SL_sali,2021.2.3,Win32,60.24096386,,,81,0,81,0,1,,,,,,,,
,,"[""diamond"",""red"",""hori"",""left"",[-106,-106],[150,0]]",diamond,red,hori,left,"[-106,-106]","[150,0]",left,1,1.0668,,,,,,001,2025-03-17_15h07.10.828,SL_sali,2021.2.3,Win32,60.24096386,,,82,0,82,0,1,,,,,,,,
,,"[""circle"",""green"",""hori"",""left"",[0,150],[106,-106]]",circle,green,hori,left,"[0,150]","[106,-106]",left,1,0.6678,,,,,,001,2025-03-17_15h07.10.828,SL_sali,2021.2.3,Win32,60.24096386,,,83,0,83,0,1,,,,,,,,
,,"[""diamond"",""green"",""vert"",""up"",[150,0],[-150,0]]",diamond,green,vert,up,"[150,0]","[-150,0]",up,1,0.833,,,,,,001,2025-03-17_15h07.10.828,SL_sali,2021.2.3,Win32,60.24096386,,,84,0,84,0,1,,,,,,,,
,,"[""diamond"",""no_dis"",""vert"",""up"",[99999,99999],[106,-106]]",diamond,no_dis,vert,up,"[99999,99999]","[106,-106]",up,1,0.7779,,,,,,001,2025-03-17_15h07.10.828,SL_sali,2021.2.3,Win32,60.24096386,,,85,0,85,0,1,,,,,,,,
,,"[""circle"",""red"",""hori"",""left"",[0,-150],[-150,0]]",circle,red,hori,left,"[0,-150]","[-150,0]",left,1,0.8853,,,,,,001,2025-03-17_15h07.10.828,SL_sali,2021.2.3,Win32,60.24096386,,,86,0,86,0,1,,,,,,,,
,,"[""circle"",""green"",""hori"",""left"",[106,106],[-106,106]]",circle,green,hori,left,"[106,106]","[-106,106]",left,1,1.0659,,,,,,001,2025-03-17_15h07.10.828,SL_sali,2021.2.3,Win32,60.24096386,,,87,0,87,0,1,,,,,,,,
,,"[""circle"",""red"",""vert"",""up"",[106,106],[-150,0]]",circle,red,vert,up,"[106,106]","[-150,0]",up,1,0.7659,,,,,,001,2025-03-17_15h07.10.828,SL_sali,2021.2.3,Win32,60.24096386,,,88,0,88,0,1,,,,,,,,
,,"[""circle"",""no_dis"",""vert"",""up"",[99999,99999],[-106,106]]",circle,no_dis,vert,up,"[99999,99999]","[-106,106]",up,1,1.1826,,,,,,001,2025-03-17_15h07.10.828,SL_sali,2021.2.3,Win32,60.24096386,,,89,0,89,0,1,,,,,,,,
,,"[""circle"",""no_dis"",""hori"",""left"",[99999,99999],[0,150]]",circle,no_dis,hori,left,"[99999,99999]","[0,150]",left,1,1.1994,,,,,,001,2025-03-17_15h07.10.828,SL_sali,2021.2.3,Win32,60.24096386,,,90,0,90,0,1,,,,,,,,
,,"[""circle"",""no_dis"",""vert"",""up"",[99999,99999],[-150,0]]",circle,no_dis,vert,up,"[99999,99999]","[-150,0]",up,1,0.9293,,,,,,001,2025-03-17_15h07.10.828,SL_sali,2021.2.3,Win32,60.24096386,,,91,0,91,0,1,,,,,,,,
,,"[""diamond"",""no_dis"",""hori"",""left"",[99999,99999],[-106,106]]",diamond,no_dis,hori,left,"[99999,99999]","[-106,106]",left,1,0.9327,,,,,,001,2025-03-17_15h07.10.828,SL_sali,2021.2.3,Win32,60.24096386,,,92,0,92,0,1,,,,,,,,
,,"[""circle"",""red"",""hori"",""left"",[-106,106],[-150,0]]",circle,red,hori,left,"[-106,106]","[-150,0]",left,1,1.1425,,,,,,001,2025-03-17_15h07.10.828,SL_sali,2021.2.3,Win32,60.24096386,,,93,0,93,0,1,,,,,,,,
,,"[""circle"",""red"",""hori"",""left"",[0,-150],[106,106]]",circle,red,hori,left,"[0,-150]","[106,106]",left,1,0.9874,,,,,,001,2025-03-17_15h07.10.828,SL_sali,2021.2.3,Win32,60.24096386,,,94,0,94,0,1,,,,,,,,
,,"[""diamond"",""red"",""vert"",""up"",[0,-150],[106,-106]]",diamond,red,vert,up,"[0,-150]","[106,-106]",up,1,1.0435,,,,,,001,2025-03-17_15h07.10.828,SL_sali,2021.2.3,Win32,60.24096386,,,95,0,95,0,1,,,,,,,,
,,"[""diamond"",""no_dis"",""vert"",""up"",[99999,99999],[-106,-106]]",diamond,no_dis,vert,up,"[99999,99999]","[-106,-106]",up,1,0.983,,,,,,001,2025-03-17_15h07.10.828,SL_sali,2021.2.3,Win32,60.24096386,,,96,0,96,0,1,,,,,,,,
,,"[""circle"",""green"",""hori"",""left"",[0,-150],[106,106]]",circle,green,hori,left,"[0,-150]","[106,106]",left,1,1.2199,,,,,,001,2025-03-17_15h07.10.828,SL_sali,2021.2.3,Win32,60.24096386,,,97,0,97,0,1,,,,,,,,
,,"[""diamond"",""no_dis"",""vert"",""up"",[99999,99999],[150,0]]",diamond,no_dis,vert,up,"[99999,99999]","[150,0]",up,1,1.0634,,,,,,001,2025-03-17_15h07.10.828,SL_sali,2021.2.3,Win32,60.24096386,,,98,0,98,0,1,,,,,,,,
,,"[""circle"",""red"",""hori"",""left"",[0,-150],[-106,106]]",circle,red,hori,left,"[0,-150]","[-106,106]",left,1,0.8411,,,,,,001,2025-03-17_15h07.10.828,SL_sali,2021.2.3,Win32,60.24096386,,,99,0,99,0,1,,,,,,,,
,,"[""circle"",""red"",""hori"",""left"",[0,-150],[150,0]]",circle,red,hori,left,"[0,-150]","[150,0]",left,1,0.9276,,,,,,001,2025-03-17_15h07.10.828,SL_sali,2021.2.3,Win32,60.24096386,,,100,0,100,0,1,,,,,,,,
,,"[""diamond"",""red"",""hori"",""left"",[106,-106],[-106,-106]]",diamond,red,hori,left,"[106,-106]","[-106,-106]",left,1,1.0361,,,,,,001,2025-03-17_15h07.10.828,SL_sali,2021.2.3,Win32,60.24096386,,,101,0,101,0,1,,,,,,,,
,,"[""circle"",""green"",""vert"",""up"",[106,-106],[150,0]]",circle,green,vert,up,"[106,-106]","[150,0]",left,0,1.2536,,,,,,001,2025-03-17_15h07.10.828,SL_sali,2021.2.3,Win32,60.24096386,,,102,0,102,0,1,,,,,,,,
,,"[""circle"",""no_dis"",""hori"",""left"",[99999,99999],[150,0]]",circle,no_dis,hori,left,"[99999,99999]","[150,0]",left,1,0.586,,,,,,001,2025-03-17_15h07.10.828,SL_sali,2021.2.3,Win32,60.24096386,,,103,0,103,0,1,,,,,,,,
,,"[""circle"",""no_dis"",""vert"",""up"",[99999,99999],[-106,106]]",circle,no_dis,vert,up,"[99999,99999]","[-106,106]",up,1,0.6361,,,,,,001,2025-03-17_15h07.10.828,SL_sali,2021.2.3,Win32,60.24096386,,,104,0,104,0,1,,,,,,,,
,,"[""circle"",""red"",""vert"",""up"",[0,-150],[-106,-106]]",circle,red,vert,up,"[0,-150]","[-106,-106]",up,1,1.4336,,,,,,001,2025-03-17_15h07.10.828,SL_sali,2021.2.3,Win32,60.24096386,,,105,0,105,0,1,,,,,,,,
,,"[""diamond"",""green"",""vert"",""up"",[0,-150],[106,-106]]",diamond,green,vert,up,"[0,-150]","[106,-106]",up,1,0.8696,,,,,,001,2025-03-17_15h07.10.828,SL_sali,2021.2.3,Win32,60.24096386,,,106,0,106,0,1,,,,,,,,
,,"[""diamond"",""red"",""hori"",""left"",[0,150],[106,-106]]",diamond,red,hori,left,"[0,150]","[106,-106]",left,1,0.7508,,,,,,001,2025-03-17_15h07.10.828,SL_sali,2021.2.3,Win32,60.24096386,,,107,0,107,0,1,,,,,,,,
,,"[""circle"",""green"",""vert"",""up"",[-150,0],[150,0]]",circle,green,vert,up,"[-150,0]","[150,0]",up,1,0.9993,,,,,,001,2025-03-17_15h07.10.828,SL_sali,2021.2.3,Win32,60.24096386,,,108,0,108,0,1,,,,,,,,
,,"[""diamond"",""no_dis"",""hori"",""left"",[99999,99999],[150,0]]",diamond,no_dis,hori,left,"[99999,99999]","[150,0]",left,1,0.8637,,,,,,001,2025-03-17_15h07.10.828,SL_sali,2021.2.3,Win32,60.24096386,,,109,0,109,0,1,,,,,,,,
,,"[""circle"",""green"",""vert"",""up"",[106,106],[-106,106]]",circle,green,vert,up,"[106,106]","[-106,106]",up,1,0.7915,,,,,,001,2025-03-17_15h07.10.828,SL_sali,2021.2.3,Win32,60.24096386,,,110,0,110,0,1,,,,,,,,
,,"[""circle"",""red"",""hori"",""left"",[-150,0],[106,106]]",circle,red,hori,left,"[-150,0]","[106,106]",left,1,0.9302,,,,,,001,2025-03-17_15h07.10.828,SL_sali,2021.2.3,Win32,60.24096386,,,111,0,111,0,1,,,,,,,,
,,"[""circle"",""no_dis"",""hori"",""left"",[99999,99999],[0,-150]]",circle,no_dis,hori,left,"[99999,99999]","[0,-150]",left,1,0.6059,,,,,,001,2025-03-17_15h07.10.828,SL_sali,2021.2.3,Win32,60.24096386,,,112,0,112,0,1,,,,,,,,
,,"[""diamond"",""no_dis"",""hori"",""left"",[99999,99999],[0,150]]",diamond,no_dis,hori,left,"[99999,99999]","[0,150]",up,0,0.7606,,,,,,001,2025-03-17_15h07.10.828,SL_sali,2021.2.3,Win32,60.24096386,,,113,0,113,0,1,,,,,,,,
,,"[""diamond"",""red"",""hori"",""left"",[-106,-106],[106,-106]]",diamond,red,hori,left,"[-106,-106]","[106,-106]",left,1,0.9218,,,,,,001,2025-03-17_15h07.10.828,SL_sali,2021.2.3,Win32,60.24096386,,,114,0,114,0,1,,,,,,,,
,,"[""diamond"",""red"",""vert"",""up"",[0,-150],[-106,-106]]",diamond,red,vert,up,"[0,-150]","[-106,-106]",up,1,1.1167,,,,,,001,2025-03-17_15h07.10.828,SL_sali,2021.2.3,Win32,60.24096386,,,115,0,115,0,1,,,,,,,,
,,"[""circle"",""green"",""vert"",""up"",[-106,-106],[106,106]]",circle,green,vert,up,"[-106,-106]","[106,106]",up,1,1.0336,,,,,,001,2025-03-17_15h07.10.828,SL_sali,2021.2.3,Win32,60.24096386,,,116,0,116,0,1,,,,,,,,
,,"[""diamond"",""green"",""hori"",""left"",[106,-106],[-106,-106]]",diamond,green,hori,left,"[106,-106]","[-106,-106]",left,1,1.0042,,,,,,001,2025-03-17_15h07.10.828,SL_sali,2021.2.3,Win32,60.24096386,,,117,0,117,0,1,,,,,,,,
,,"[""diamond"",""red"",""vert"",""up"",[0,-150],[-106,-106]]",diamond,red,vert,up,"[0,-150]","[-106,-106]",up,1,0.9494,,,,,,001,2025-03-17_15h07.10.828,SL_sali,2021.2.3,Win32,60.24096386,,,118,0,118,0,1,,,,,,,,
,,"[""circle"",""red"",""vert"",""up"",[-106,106],[0,-150]]",circle,red,vert,up,"[-106,106]","[0,-150]",up,1,0.8878,,,,,,001,2025-03-17_15h07.10.828,SL_sali,2021.2.3,Win32,60.24096386,,,119,0,119,0,1,,,,,,,,
,,,,,,,,,,,,,,,,,001,2025-03-17_15h07.10.828,SL_sali,2021.2.3,Win32,60.24096386,,,,,,,,1,space,73.7935,0,0,0,0,1
,,"[""circle"",""red"",""vert"",""up"",[0,-150],[-106,-106]]",circle,red,vert,up,"[0,-150]","[-106,-106]",up,1,1.3109,,,,,,001,2025-03-17_15h07.10.828,SL_sali,2021.2.3,Win32,60.24096386,,,0,0,0,0,1,,,,,,,,
,,"[""circle"",""no_dis"",""hori"",""left"",[99999,99999],[0,-150]]",circle,no_dis,hori,left,"[99999,99999]","[0,-150]",left,1,0.75,,,,,,001,2025-03-17_15h07.10.828,SL_sali,2021.2.3,Win32,60.24096386,,,1,0,1,0,1,,,,,,,,
,,"[""circle"",""green"",""vert"",""up"",[0,-150],[106,-106]]",circle,green,vert,up,"[0,-150]","[106,-106]",up,1,0.7467,,,,,,001,2025-03-17_15h07.10.828,SL_sali,2021.2.3,Win32,60.24096386,,,2,0,2,0,1,,,,,,,,
,,"[""circle"",""green"",""hori"",""left"",[150,0],[106,106]]",circle,green,hori,left,"[150,0]","[106,106]",left,1,0.6832,,,,,,001,2025-03-17_15h07.10.828,SL_sali,2021.2.3,Win32,60.24096386,,,3,0,3,0,1,,,,,,,,
,,"[""diamond"",""no_dis"",""vert"",""up"",[99999,99999],[106,106]]",diamond,no_dis,vert,up,"[99999,99999]","[106,106]",up,1,0.8714,,,,,,001,2025-03-17_15h07.10.828,SL_sali,2021.2.3,Win32,60.24096386,,,4,0,4,0,1,,,,,,,,
,,"[""circle"",""no_dis"",""hori"",""left"",[99999,99999],[0,-150]]",circle,no_dis,hori,left,"[99999,99999]","[0,-150]",left,1,0.7071,,,,,,001,2025-03-17_15h07.10.828,SL_sali,2021.2.3,Win32,60.24096386,,,5,0,5,0,1,,,,,,,,
,,"[""diamond"",""red"",""hori"",""left"",[106,-106],[-106,-106]]",diamond,red,hori,left,"[106,-106]","[-106,-106]",left,1,0.817,,,,,,001,2025-03-17_15h07.10.828,SL_sali,2021.2.3,Win32,60.24096386,,,6,0,6,0,1,,,,,,,,
,,"[""diamond"",""no_dis"",""hori"",""left"",[99999,99999],[-150,0]]",diamond,no_dis,hori,left,"[99999,99999]","[-150,0]",left,1,0.7541,,,,,,001,2025-03-17_15h07.10.828,SL_sali,2021.2.3,Win32,60.24096386,,,7,0,7,0,1,,,,,,,,
,,"[""circle"",""red"",""hori"",""left"",[0,-150],[106,106]]",circle,red,hori,left,"[0,-150]","[106,106]",left,1,0.9454,,,,,,001,2025-03-17_15h07.10.828,SL_sali,2021.2.3,Win32,60.24096386,,,8,0,8,0,1,,,,,,,,
,,"[""circle"",""green"",""vert"",""up"",[150,0],[0,-150]]",circle,green,vert,up,"[150,0]","[0,-150]",up,1,0.6163,,,,,,001,2025-03-17_15h07.10.828,SL_sali,2021.2.3,Win32,60.24096386,,,9,0,9,0,1,,,,,,,,
,,"[""circle"",""green"",""hori"",""left"",[106,106],[-150,0]]",circle,green,hori,left,"[106,106]","[-150,0]",left,1,0.5475,,,,,,001,2025-03-17_15h07.10.828,SL_sali,2021.2.3,Win32,60.24096386,,,10,0,10,0,1,,,,,,,,
,,"[""circle"",""green"",""hori"",""left"",[0,-150],[150,0]]",circle,green,hori,left,"[0,-150]","[150,0]",left,1,2.0202,,,,,,001,2025-03-17_15h07.10.828,SL_sali,2021.2.3,Win32,60.24096386,,,11,0,11,0,1,,,,,,,,
,,"[""circle"",""no_dis"",""hori"",""left"",[99999,99999],[-150,0]]",circle,no_dis,hori,left,"[99999,99999]","[-150,0]",left,1,0.5079,,,,,,001,2025-03-17_15h07.10.828,SL_sali,2021.2.3,Win32,60.24096386,,,12,0,12,0,1,,,,,,,,
,,"[""circle"",""green"",""hori"",""left"",[0,-150],[106,106]]",circle,green,hori,left,"[0,-150]","[106,106]",left,1,0.6124,,,,,,001,2025-03-17_15h07.10.828,SL_sali,2021.2.3,Win32,60.24096386,,,13,0,13,0,1,,,,,,,,
,,"[""diamond"",""green"",""vert"",""up"",[150,0],[106,-106]]",diamond,green,vert,up,"[150,0]","[106,-106]",up,1,0.9932,,,,,,001,2025-03-17_15h07.10.828,SL_sali,2021.2.3,Win32,60.24096386,,,14,0,14,0,1,,,,,,,,
,,"[""diamond"",""green"",""vert"",""up"",[150,0],[-106,-106]]",diamond,green,vert,up,"[150,0]","[-106,-106]",up,1,0.6902,,,,,,001,2025-03-17_15h07.10.828,SL_sali,2021.2.3,Win32,60.24096386,,,15,0,15,0,1,,,,,,,,
,,"[""diamond"",""green"",""hori"",""left"",[0,-150],[106,106]]",diamond,green,hori,left,"[0,-150]","[106,106]",left,1,0.5504,,,,,,001,2025-03-17_15h07.10.828,SL_sali,2021.2.3,Win32,60.24096386,,,16,0,16,0,1,,,,,,,,
,,"[""diamond"",""no_dis"",""hori"",""left"",[99999,99999],[150,0]]",diamond,no_dis,hori,left,"[99999,99999]","[150,0]",left,1,0.8921,,,,,,001,2025-03-17_15h07.10.828,SL_sali,2021.2.3,Win32,60.24096386,,,17,0,17,0,1,,,,,,,,
,,"[""diamond"",""red"",""hori"",""left"",[0,-150],[150,0]]",diamond,red,hori,left,"[0,-150]","[150,0]",left,1,0.7459,,,,,,001,2025-03-17_15h07.10.828,SL_sali,2021.2.3,Win32,60.24096386,,,18,0,18,0,1,,,,,,,,
,,"[""circle"",""no_dis"",""vert"",""up"",[99999,99999],[-150,0]]",circle,no_dis,vert,up,"[99999,99999]","[-150,0]",up,1,1.0159,,,,,,001,2025-03-17_15h07.10.828,SL_sali,2021.2.3,Win32,60.24096386,,,19,0,19,0,1,,,,,,,,
,,"[""circle"",""red"",""hori"",""left"",[-150,0],[150,0]]",circle,red,hori,left,"[-150,0]","[150,0]",left,1,0.7148,,,,,,001,2025-03-17_15h07.10.828,SL_sali,2021.2.3,Win32,60.24096386,,,20,0,20,0,1,,,,,,,,
,,"[""circle"",""red"",""hori"",""left"",[0,-150],[150,0]]",circle,red,hori,left,"[0,-150]","[150,0]",left,1,0.5955,,,,,,001,2025-03-17_15h07.10.828,SL_sali,2021.2.3,Win32,60.24096386,,,21,0,21,0,1,,,,,,,,
,,"[""diamond"",""no_dis"",""hori"",""left"",[99999,99999],[-106,-106]]",diamond,no_dis,hori,left,"[99999,99999]","[-106,-106]",left,1,0.9507,,,,,,001,2025-03-17_15h07.10.828,SL_sali,2021.2.3,Win32,60.24096386,,,22,0,22,0,1,,,,,,,,
,,"[""diamond"",""no_dis"",""hori"",""left"",[99999,99999],[0,150]]",diamond,no_dis,hori,left,"[99999,99999]","[0,150]",left,1,0.9991,,,,,,001,2025-03-17_15h07.10.828,SL_sali,2021.2.3,Win32,60.24096386,,,23,0,23,0,1,,,,,,,,
,,"[""circle"",""no_dis"",""vert"",""up"",[99999,99999],[106,106]]",circle,no_dis,vert,up,"[99999,99999]","[106,106]",up,1,0.5791,,,,,,001,2025-03-17_15h07.10.828,SL_sali,2021.2.3,Win32,60.24096386,,,24,0,24,0,1,,,,,,,,
,,"[""circle"",""red"",""vert"",""up"",[106,-106],[-150,0]]",circle,red,vert,up,"[106,-106]","[-150,0]",up,1,0.7932,,,,,,001,2025-03-17_15h07.10.828,SL_sali,2021.2.3,Win32,60.24096386,,,25,0,25,0,1,,,,,,,,
,,"[""diamond"",""red"",""hori"",""left"",[-106,-106],[106,-106]]",diamond,red,hori,left,"[-106,-106]","[106,-106]",left,1,0.935,,,,,,001,2025-03-17_15h07.10.828,SL_sali,2021.2.3,Win32,60.24096386,,,26,0,26,0,1,,,,,,,,
,,"[""diamond"",""green"",""hori"",""left"",[0,150],[106,-106]]",diamond,green,hori,left,"[0,150]","[106,-106]",left,1,0.6721,,,,,,001,2025-03-17_15h07.10.828,SL_sali,2021.2.3,Win32,60.24096386,,,27,0,27,0,1,,,,,,,,
,,"[""circle"",""green"",""hori"",""left"",[-150,0],[106,106]]",circle,green,hori,left,"[-150,0]","[106,106]",up,0,1.1014,,,,,,001,2025-03-17_15h07.10.828,SL_sali,2021.2.3,Win32,60.24096386,,,28,0,28,0,1,,,,,,,,
,,"[""diamond"",""green"",""hori"",""left"",[-106,106],[0,-150]]",diamond,green,hori,left,"[-106,106]","[0,-150]",left,1,0.7845,,,,,,001,2025-03-17_15h07.10.828,SL_sali,2021.2.3,Win32,60.24096386,,,29,0,29,0,1,,,,,,,,
,,"[""diamond"",""no_dis"",""vert"",""up"",[99999,99999],[0,-150]]",diamond,no_dis,vert,up,"[99999,99999]","[0,-150]",up,1,1.6497,,,,,,001,2025-03-17_15h07.10.828,SL_sali,2021.2.3,Win32,60.24096386,,,30,0,30,0,1,,,,,,,,
,,"[""diamond"",""red"",""vert"",""up"",[-106,-106],[-106,106]]",diamond,red,vert,up,"[-106,-106]","[-106,106]",up,1,0.889,,,,,,001,2025-03-17_15h07.10.828,SL_sali,2021.2.3,Win32,60.24096386,,,31,0,31,0,1,,,,,,,,
,,"[""diamond"",""red"",""hori"",""left"",[0,-150],[0,150]]",diamond,red,hori,left,"[0,-150]","[0,150]",left,1,0.8556,,,,,,001,2025-03-17_15h07.10.828,SL_sali,2021.2.3,Win32,60.24096386,,,32,0,32,0,1,,,,,,,,
,,"[""circle"",""no_dis"",""vert"",""up"",[99999,99999],[-106,106]]",circle,no_dis,vert,up,"[99999,99999]","[-106,106]",up,1,1.2666,,,,,,001,2025-03-17_15h07.10.828,SL_sali,2021.2.3,Win32,60.24096386,,,33,0,33,0,1,,,,,,,,
,,"[""circle"",""red"",""hori"",""left"",[106,106],[0,150]]",circle,red,hori,left,"[106,106]","[0,150]",left,1,1.0506,,,,,,001,2025-03-17_15h07.10.828,SL_sali,2021.2.3,Win32,60.24096386,,,34,0,34,0,1,,,,,,,,
,,"[""circle"",""red"",""vert"",""up"",[106,106],[-150,0]]",circle,red,vert,up,"[106,106]","[-150,0]",up,1,0.8166,,,,,,001,2025-03-17_15h07.10.828,SL_sali,2021.2.3,Win32,60.24096386,,,35,0,35,0,1,,,,,,,,
,,"[""diamond"",""no_dis"",""vert"",""up"",[99999,99999],[106,-106]]",diamond,no_dis,vert,up,"[99999,99999]","[106,-106]",left,0,0.8736,,,,,,001,2025-03-17_15h07.10.828,SL_sali,2021.2.3,Win32,60.24096386,,,36,0,36,0,1,,,,,,,,
,,"[""diamond"",""red"",""vert"",""up"",[0,-150],[106,-106]]",diamond,red,vert,up,"[0,-150]","[106,-106]",up,1,1.8193,,,,,,001,2025-03-17_15h07.10.828,SL_sali,2021.2.3,Win32,60.24096386,,,37,0,37,0,1,,,,,,,,
,,"[""diamond"",""green"",""hori"",""left"",[-106,106],[106,-106]]",diamond,green,hori,left,"[-106,106]","[106,-106]",left,1,0.8663,,,,,,001,2025-03-17_15h07.10.828,SL_sali,2021.2.3,Win32,60.24096386,,,38,0,38,0,1,,,,,,,,
,,"[""circle"",""green"",""hori"",""left"",[-106,-106],[0,-150]]",circle,green,hori,left,"[-106,-106]","[0,-150]",left,1,1.2367,,,,,,001,2025-03-17_15h07.10.828,SL_sali,2021.2.3,Win32,60.24096386,,,39,0,39,0,1,,,,,,,,
,,"[""circle"",""green"",""vert"",""up"",[0,-150],[-106,-106]]",circle,green,vert,up,"[0,-150]","[-106,-106]",up,1,0.8361,,,,,,001,2025-03-17_15h07.10.828,SL_sali,2021.2.3,Win32,60.24096386,,,40,0,40,0,1,,,,,,,,
,,"[""circle"",""red"",""vert"",""up"",[-106,106],[150,0]]",circle,red,vert,up,"[-106,106]","[150,0]",up,1,0.7161,,,,,,001,2025-03-17_15h07.10.828,SL_sali,2021.2.3,Win32,60.24096386,,,41,0,41,0,1,,,,,,,,
,,"[""circle"",""red"",""hori"",""left"",[0,-150],[-106,-106]]",circle,red,hori,left,"[0,-150]","[-106,-106]",left,1,0.6932,,,,,,001,2025-03-17_15h07.10.828,SL_sali,2021.2.3,Win32,60.24096386,,,42,0,42,0,1,,,,,,,,
,,"[""diamond"",""green"",""vert"",""up"",[150,0],[-106,-106]]",diamond,green,vert,up,"[150,0]","[-106,-106]",up,1,0.7428,,,,,,001,2025-03-17_15h07.10.828,SL_sali,2021.2.3,Win32,60.24096386,,,43,0,43,0,1,,,,,,,,
,,"[""circle"",""no_dis"",""hori"",""left"",[99999,99999],[106,-106]]",circle,no_dis,hori,left,"[99999,99999]","[106,-106]",left,1,0.7301,,,,,,001,2025-03-17_15h07.10.828,SL_sali,2021.2.3,Win32,60.24096386,,,44,0,44,0,1,,,,,,,,
,,"[""circle"",""red"",""hori"",""left"",[0,-150],[-150,0]]",circle,red,hori,left,"[0,-150]","[-150,0]",left,1,0.806,,,,,,001,2025-03-17_15h07.10.828,SL_sali,2021.2.3,Win32,60.24096386,,,45,0,45,0,1,,,,,,,,
,,"[""circle"",""green"",""vert"",""up"",[-106,-106],[106,106]]",circle,green,vert,up,"[-106,-106]","[106,106]",up,1,0.622,,,,,,001,2025-03-17_15h07.10.828,SL_sali,2021.2.3,Win32,60.24096386,,,46,0,46,0,1,,,,,,,,
,,"[""circle"",""no_dis"",""vert"",""up"",[99999,99999],[-150,0]]",circle,no_dis,vert,up,"[99999,99999]","[-150,0]",up,1,0.6074,,,,,,001,2025-03-17_15h07.10.828,SL_sali,2021.2.3,Win32,60.24096386,,,47,0,47,0,1,,,,,,,,
,,"[""diamond"",""no_dis"",""hori"",""left"",[99999,99999],[-106,-106]]",diamond,no_dis,hori,left,"[99999,99999]","[-106,-106]",left,1,0.8748,,,,,,001,2025-03-17_15h07.10.828,SL_sali,2021.2.3,Win32,60.24096386,,,48,0,48,0,1,,,,,,,,
,,"[""circle"",""red"",""vert"",""up"",[0,-150],[-106,-106]]",circle,red,vert,up,"[0,-150]","[-106,-106]",up,1,0.9955,,,,,,001,2025-03-17_15h07.10.828,SL_sali,2021.2.3,Win32,60.24096386,,,49,0,49,0,1,,,,,,,,
,,"[""circle"",""red"",""vert"",""up"",[0,150],[-150,0]]",circle,red,vert,up,"[0,150]","[-150,0]",up,1,0.7714,,,,,,001,2025-03-17_15h07.10.828,SL_sali,2021.2.3,Win32,60.24096386,,,50,0,50,0,1,,,,,,,,
,,"[""diamond"",""green"",""vert"",""up"",[0,-150],[0,150]]",diamond,green,vert,up,"[0,-150]","[0,150]",up,1,0.6518,,,,,,001,2025-03-17_15h07.10.828,SL_sali,2021.2.3,Win32,60.24096386,,,51,0,51,0,1,,,,,,,,
,,"[""circle"",""green"",""vert"",""up"",[106,106],[-106,106]]",circle,green,vert,up,"[106,106]","[-106,106]",up,1,0.6661,,,,,,001,2025-03-17_15h07.10.828,SL_sali,2021.2.3,Win32,60.24096386,,,52,0,52,0,1,,,,,,,,
,,"[""circle"",""red"",""hori"",""left"",[-106,-106],[-150,0]]",circle,red,hori,left,"[-106,-106]","[-150,0]",left,1,0.6009,,,,,,001,2025-03-17_15h07.10.828,SL_sali,2021.2.3,Win32,60.24096386,,,53,0,53,0,1,,,,,,,,
,,"[""diamond"",""green"",""vert"",""up"",[0,-150],[106,-106]]",diamond,green,vert,up,"[0,-150]","[106,-106]",up,1,1.0118,,,,,,001,2025-03-17_15h07.10.828,SL_sali,2021.2.3,Win32,60.24096386,,,54,0,54,0,1,,,,,,,,
,,"[""diamond"",""green"",""hori"",""left"",[-150,0],[0,-150]]",diamond,green,hori,left,"[-150,0]","[0,-150]",left,1,0.7322,,,,,,001,2025-03-17_15h07.10.828,SL_sali,2021.2.3,Win32,60.24096386,,,55,0,55,0,1,,,,,,,,
,,"[""circle"",""green"",""vert"",""up"",[106,106],[-106,106]]",circle,green,vert,up,"[106,106]","[-106,106]",up,1,0.6533,,,,,,001,2025-03-17_15h07.10.828,SL_sali,2021.2.3,Win32,60.24096386,,,56,0,56,0,1,,,,,,,,
,,"[""diamond"",""green"",""hori"",""left"",[106,-106],[-106,-106]]",diamond,green,hori,left,"[106,-106]","[-106,-106]",left,1,0.7729,,,,,,001,2025-03-17_15h07.10.828,SL_sali,2021.2.3,Win32,60.24096386,,,57,0,57,0,1,,,,,,,,
,,"[""diamond"",""red"",""vert"",""up"",[0,-150],[-106,-106]]",diamond,red,vert,up,"[0,-150]","[-106,-106]",up,1,0.8503,,,,,,001,2025-03-17_15h07.10.828,SL_sali,2021.2.3,Win32,60.24096386,,,58,0,58,0,1,,,,,,,,
,,"[""diamond"",""green"",""hori"",""left"",[106,106],[-150,0]]",diamond,green,hori,left,"[106,106]","[-150,0]",left,1,0.8168,,,,,,001,2025-03-17_15h07.10.828,SL_sali,2021.2.3,Win32,60.24096386,,,59,0,59,0,1,,,,,,,,
,,"[""diamond"",""no_dis"",""vert"",""up"",[99999,99999],[0,-150]]",diamond,no_dis,vert,up,"[99999,99999]","[0,-150]",up,1,0.562,,,,,,001,2025-03-17_15h07.10.828,SL_sali,2021.2.3,Win32,60.24096386,,,60,0,60,0,1,,,,,,,,
,,"[""diamond"",""green"",""vert"",""up"",[-150,0],[0,150]]",diamond,green,vert,up,"[-150,0]","[0,150]",up,1,0.7358,,,,,,001,2025-03-17_15h07.10.828,SL_sali,2021.2.3,Win32,60.24096386,,,61,0,61,0,1,,,,,,,,
,,"[""diamond"",""no_dis"",""hori"",""left"",[99999,99999],[-106,106]]",diamond,no_dis,hori,left,"[99999,99999]","[-106,106]",left,1,0.8692,,,,,,001,2025-03-17_15h07.10.828,SL_sali,2021.2.3,Win32,60.24096386,,,62,0,62,0,1,,,,,,,,
,,"[""diamond"",""no_dis"",""vert"",""up"",[99999,99999],[-106,106]]",diamond,no_dis,vert,up,"[99999,99999]","[-106,106]",up,1,0.5994,,,,,,001,2025-03-17_15h07.10.828,SL_sali,2021.2.3,Win32,60.24096386,,,63,0,63,0,1,,,,,,,,
,,"[""diamond"",""red"",""hori"",""left"",[106,-106],[106,106]]",diamond,red,hori,left,"[106,-106]","[106,106]",left,1,0.8836,,,,,,001,2025-03-17_15h07.10.828,SL_sali,2021.2.3,Win32,60.24096386,,,64,0,64,0,1,,,,,,,,
,,"[""circle"",""green"",""vert"",""up"",[0,150],[0,-150]]",circle,green,vert,up,"[0,150]","[0,-150]",up,1,0.7498,,,,,,001,2025-03-17_15h07.10.828,SL_sali,2021.2.3,Win32,60.24096386,,,65,0,65,0,1,,,,,,,,
,,"[""diamond"",""green"",""vert"",""up"",[150,0],[-150,0]]",diamond,green,vert,up,"[150,0]","[-150,0]",up,1,0.7007,,,,,,001,2025-03-17_15h07.10.828,SL_sali,2021.2.3,Win32,60.24096386,,,66,0,66,0,1,,,,,,,,
,,"[""circle"",""green"",""hori"",""left"",[0,-150],[-106,-106]]",circle,green,hori,left,"[0,-150]","[-106,-106]",left,1,0.7729,,,,,,001,2025-03-17_15h07.10.828,SL_sali,2021.2.3,Win32,60.24096386,,,67,0,67,0,1,,,,,,,,
,,"[""diamond"",""red"",""hori"",""left"",[-106,-106],[0,150]]",diamond,red,hori,left,"[-106,-106]","[0,150]",left,1,0.8893,,,,,,001,2025-03-17_15h07.10.828,SL_sali,2021.2.3,Win32,60.24096386,,,68,0,68,0,1,,,,,,,,
,,"[""circle"",""no_dis"",""vert"",""up"",[99999,99999],[-106,-106]]",circle,no_dis,vert,up,"[99999,99999]","[-106,-106]",up,1,0.6663,,,,,,001,2025-03-17_15h07.10.828,SL_sali,2021.2.3,Win32,60.24096386,,,69,0,69,0,1,,,,,,,,
,,"[""diamond"",""no_dis"",""hori"",""left"",[99999,99999],[0,150]]",diamond,no_dis,hori,left,"[99999,99999]","[0,150]",left,1,0.6564,,,,,,001,2025-03-17_15h07.10.828,SL_sali,2021.2.3,Win32,60.24096386,,,70,0,70,0,1,,,,,,,,
,,"[""diamond"",""red"",""vert"",""up"",[0,-150],[-106,-106]]",diamond,red,vert,up,"[0,-150]","[-106,-106]",up,1,1.292,,,,,,001,2025-03-17_15h07.10.828,SL_sali,2021.2.3,Win32,60.24096386,,,71,0,71,0,1,,,,,,,,
,,"[""circle"",""green"",""hori"",""left"",[0,150],[106,-106]]",circle,green,hori,left,"[0,150]","[106,-106]",left,1,0.7667,,,,,,001,2025-03-17_15h07.10.828,SL_sali,2021.2.3,Win32,60.24096386,,,72,0,72,0,1,,,,,,,,
,,"[""circle"",""no_dis"",""vert"",""up"",[99999,99999],[106,106]]",circle,no_dis,vert,up,"[99999,99999]","[106,106]",up,1,0.7513,,,,,,001,2025-03-17_15h07.10.828,SL_sali,2021.2.3,Win32,60.24096386,,,73,0,73,0,1,,,,,,,,
,,"[""diamond"",""red"",""hori"",""left"",[0,150],[106,-106]]",diamond,red,hori,left,"[0,150]","[106,-106]",up,0,0.8272,,,,,,001,2025-03-17_15h07.10.828,SL_sali,2021.2.3,Win32,60.24096386,,,74,0,74,0,1,,,,,,,,
,,"[""circle"",""green"",""hori"",""left"",[106,106],[0,-150]]",circle,green,hori,left,"[106,106]","[0,-150]",left,1,0.6892,,,,,,001,2025-03-17_15h07.10.828,SL_sali,2021.2.3,Win32,60.24096386,,,75,0,75,0,1,,,,,,,,
,,"[""circle"",""no_dis"",""hori"",""left"",[99999,99999],[150,0]]",circle,no_dis,hori,left,"[99999,99999]","[150,0]",left,1,0.6666,,,,,,001,2025-03-17_15h07.10.828,SL_sali,2021.2.3,Win32,60.24096386,,,76,0,76,0,1,,,,,,,,
,,"[""circle"",""green"",""vert"",""up"",[-150,0],[150,0]]",circle,green,vert,up,"[-150,0]","[150,0]",up,1,0.7127,,,,,,001,2025-03-17_15h07.10.828,SL_sali,2021.2.3,Win32,60.24096386,,,77,0,77,0,1,,,,,,,,
,,"[""circle"",""no_dis"",""hori"",""left"",[99999,99999],[-106,-106]]",circle,no_dis,hori,left,"[99999,99999]","[-106,-106]",left,1,0.5498,,,,,,001,2025-03-17_15h07.10.828,SL_sali,2021.2.3,Win32,60.24096386,,,78,0,78,0,1,,,,,,,,
,,"[""circle"",""no_dis"",""vert"",""up"",[99999,99999],[-106,106]]",circle,no_dis,vert,up,"[99999,99999]","[-106,106]",up,1,0.5678,,,,,,001,2025-03-17_15h07.10.828,SL_sali,2021.2.3,Win32,60.24096386,,,79,0,79,0,1,,,,,,,,
,,"[""circle"",""red"",""hori"",""left"",[-150,0],[106,106]]",circle,red,hori,left,"[-150,0]","[106,106]",left,1,0.7457,,,,,,001,2025-03-17_15h07.10.828,SL_sali,2021.2.3,Win32,60.24096386,,,80,0,80,0,1,,,,,,,,
,,"[""circle"",""green"",""vert"",""up"",[-106,106],[150,0]]",circle,green,vert,up,"[-106,106]","[150,0]",up,1,0.8284,,,,,,001,2025-03-17_15h07.10.828,SL_sali,2021.2.3,Win32,60.24096386,,,81,0,81,0,1,,,,,,,,
,,"[""diamond"",""red"",""vert"",""up"",[-150,0],[-106,106]]",diamond,red,vert,up,"[-150,0]","[-106,106]",left,0,1.0837,,,,,,001,2025-03-17_15h07.10.828,SL_sali,2021.2.3,Win32,60.24096386,,,82,0,82,0,1,,,,,,,,
,,"[""diamond"",""no_dis"",""vert"",""up"",[99999,99999],[150,0]]",diamond,no_dis,vert,up,"[99999,99999]","[150,0]",up,1,0.6896,,,,,,001,2025-03-17_15h07.10.828,SL_sali,2021.2.3,Win32,60.24096386,,,83,0,83,0,1,,,,,,,,
,,"[""diamond"",""red"",""vert"",""up"",[0,-150],[-106,106]]",diamond,red,vert,up,"[0,-150]","[-106,106]",up,1,0.9747,,,,,,001,2025-03-17_15h07.10.828,SL_sali,2021.2.3,Win32,60.24096386,,,84,0,84,0,1,,,,,,,,
,,"[""circle"",""no_dis"",""vert"",""up"",[99999,99999],[-150,0]]",circle,no_dis,vert,up,"[99999,99999]","[-150,0]",up,1,0.7383,,,,,,001,2025-03-17_15h07.10.828,SL_sali,2021.2.3,Win32,60.24096386,,,85,0,85,0,1,,,,,,,,
,,"[""diamond"",""green"",""hori"",""left"",[-106,106],[150,0]]",diamond,green,hori,left,"[-106,106]","[150,0]",left,1,0.6664,,,,,,001,2025-03-17_15h07.10.828,SL_sali,2021.2.3,Win32,60.24096386,,,86,0,86,0,1,,,,,,,,
,,"[""diamond"",""red"",""hori"",""left"",[0,-150],[106,-106]]",diamond,red,hori,left,"[0,-150]","[106,-106]",left,1,1.1321,,,,,,001,2025-03-17_15h07.10.828,SL_sali,2021.2.3,Win32,60.24096386,,,87,0,87,0,1,,,,,,,,
,,"[""diamond"",""green"",""vert"",""up"",[0,150],[-150,0]]",diamond,green,vert,up,"[0,150]","[-150,0]",up,1,1.0083,,,,,,001,2025-03-17_15h07.10.828,SL_sali,2021.2.3,Win32,60.24096386,,,88,0,88,0,1,,,,,,,,
,,"[""circle"",""no_dis"",""hori"",""left"",[99999,99999],[150,0]]",circle,no_dis,hori,left,"[99999,99999]","[150,0]",left,1,1.2506,,,,,,001,2025-03-17_15h07.10.828,SL_sali,2021.2.3,Win32,60.24096386,,,89,0,89,0,1,,,,,,,,
,,"[""diamond"",""red"",""vert"",""up"",[0,-150],[-106,-106]]",diamond,red,vert,up,"[0,-150]","[-106,-106]",up,1,1.3669,,,,,,001,2025-03-17_15h07.10.828,SL_sali,2021.2.3,Win32,60.24096386,,,90,0,90,0,1,,,,,,,,
,,"[""circle"",""red"",""vert"",""up"",[0,150],[106,106]]",circle,red,vert,up,"[0,150]","[106,106]",up,1,0.9701,,,,,,001,2025-03-17_15h07.10.828,SL_sali,2021.2.3,Win32,60.24096386,,,91,0,91,0,1,,,,,,,,
,,"[""circle"",""no_dis"",""hori"",""left"",[99999,99999],[106,106]]",circle,no_dis,hori,left,"[99999,99999]","[106,106]",left,1,0.9829,,,,,,001,2025-03-17_15h07.10.828,SL_sali,2021.2.3,Win32,60.24096386,,,92,0,92,0,1,,,,,,,,
,,"[""circle"",""red"",""hori"",""left"",[0,-150],[-106,106]]",circle,red,hori,left,"[0,-150]","[-106,106]",left,1,0.691,,,,,,001,2025-03-17_15h07.10.828,SL_sali,2021.2.3,Win32,60.24096386,,,93,0,93,0,1,,,,,,,,
,,"[""diamond"",""no_dis"",""vert"",""up"",[99999,99999],[0,-150]]",diamond,no_dis,vert,up,"[99999,99999]","[0,-150]",up,1,0.9163,,,,,,001,2025-03-17_15h07.10.828,SL_sali,2021.2.3,Win32,60.24096386,,,94,0,94,0,1,,,,,,,,
,,"[""circle"",""red"",""hori"",""left"",[-106,106],[-150,0]]",circle,red,hori,left,"[-106,106]","[-150,0]",left,1,1.3584,,,,,,001,2025-03-17_15h07.10.828,SL_sali,2021.2.3,Win32,60.24096386,,,95,0,95,0,1,,,,,,,,
,,"[""diamond"",""red"",""vert"",""up"",[150,0],[106,106]]",diamond,red,vert,up,"[150,0]","[106,106]",up,1,2.6777,,,,,,001,2025-03-17_15h07.10.828,SL_sali,2021.2.3,Win32,60.24096386,,,96,0,96,0,1,,,,,,,,
,,"[""diamond"",""no_dis"",""vert"",""up"",[99999,99999],[-106,106]]",diamond,no_dis,vert,up,"[99999,99999]","[-106,106]",up,1,1.3672,,,,,,001,2025-03-17_15h07.10.828,SL_sali,2021.2.3,Win32,60.24096386,,,97,0,97,0,1,,,,,,,,
,,"[""diamond"",""no_dis"",""hori"",""left"",[99999,99999],[106,-106]]",diamond,no_dis,hori,left,"[99999,99999]","[106,-106]",left,1,1.1992,,,,,,001,2025-03-17_15h07.10.828,SL_sali,2021.2.3,Win32,60.24096386,,,98,0,98,0,1,,,,,,,,
,,"[""diamond"",""red"",""vert"",""up"",[106,-106],[-106,106]]",diamond,red,vert,up,"[106,-106]","[-106,106]",up,1,0.5744,,,,,,001,2025-03-17_15h07.10.828,SL_sali,2021.2.3,Win32,60.24096386,,,99,0,99,0,1,,,,,,,,
,,"[""circle"",""no_dis"",""hori"",""left"",[99999,99999],[0,150]]",circle,no_dis,hori,left,"[99999,99999]","[0,150]",left,1,1.105,,,,,,001,2025-03-17_15h07.10.828,SL_sali,2021.2.3,Win32,60.24096386,,,100,0,100,0,1,,,,,,,,
,,"[""diamond"",""red"",""hori"",""left"",[150,0],[106,-106]]",diamond,red,hori,left,"[150,0]","[106,-106]",left,1,2.3134,,,,,,001,2025-03-17_15h07.10.828,SL_sali,2021.2.3,Win32,60.24096386,,,101,0,101,0,1,,,,,,,,
,,"[""diamond"",""no_dis"",""hori"",""left"",[99999,99999],[0,150]]",diamond,no_dis,hori,left,"[99999,99999]","[0,150]",left,1,1.0013,,,,,,001,2025-03-17_15h07.10.828,SL_sali,2021.2.3,Win32,60.24096386,,,102,0,102,0,1,,,,,,,,
,,"[""diamond"",""red"",""hori"",""left"",[-106,-106],[150,0]]",diamond,red,hori,left,"[-106,-106]","[150,0]",left,1,0.5999,,,,,,001,2025-03-17_15h07.10.828,SL_sali,2021.2.3,Win32,60.24096386,,,103,0,103,0,1,,,,,,,,
,,"[""diamond"",""green"",""hori"",""left"",[-106,-106],[0,150]]",diamond,green,hori,left,"[-106,-106]","[0,150]",left,1,0.7507,,,,,,001,2025-03-17_15h07.10.828,SL_sali,2021.2.3,Win32,60.24096386,,,104,0,104,0,1,,,,,,,,
,,"[""diamond"",""green"",""vert"",""up"",[0,-150],[-106,-106]]",diamond,green,vert,up,"[0,-150]","[-106,-106]",up,1,0.9056,,,,,,001,2025-03-17_15h07.10.828,SL_sali,2021.2.3,Win32,60.24096386,,,105,0,105,0,1,,,,,,,,
,,"[""circle"",""no_dis"",""vert"",""up"",[99999,99999],[106,106]]",circle,no_dis,vert,up,"[99999,99999]","[106,106]",left,0,0.8441,,,,,,001,2025-03-17_15h07.10.828,SL_sali,2021.2.3,Win32,60.24096386,,,106,0,106,0,1,,,,,,,,
,,"[""diamond"",""green"",""hori"",""left"",[106,-106],[-106,-106]]",diamond,green,hori,left,"[106,-106]","[-106,-106]",left,1,1.5164,,,,,,001,2025-03-17_15h07.10.828,SL_sali,2021.2.3,Win32,60.24096386,,,107,0,107,0,1,,,,,,,,
,,"[""circle"",""no_dis"",""vert"",""up"",[99999,99999],[0,150]]",circle,no_dis,vert,up,"[99999,99999]","[0,150]",up,1,0.8034,,,,,,001,2025-03-17_15h07.10.828,SL_sali,2021.2.3,Win32,60.24096386,,,108,0,108,0,1,,,,,,,,
,,"[""circle"",""green"",""hori"",""left"",[106,106],[-106,106]]",circle,green,hori,left,"[106,106]","[-106,106]",up,0,0.6553,,,,,,001,2025-03-17_15h07.10.828,SL_sali,2021.2.3,Win32,60.24096386,,,109,0,109,0,1,,,,,,,,
,,"[""diamond"",""no_dis"",""vert"",""up"",[99999,99999],[106,-106]]",diamond,no_dis,vert,up,"[99999,99999]","[106,-106]",up,1,0.7798,,,,,,001,2025-03-17_15h07.10.828,SL_sali,2021.2.3,Win32,60.24096386,,,110,0,110,0,1,,,,,,,,
,,"[""diamond"",""red"",""vert"",""up"",[0,150],[106,106]]",diamond,red,vert,up,"[0,150]","[106,106]",up,1,0.9181,,,,,,001,2025-03-17_15h07.10.828,SL_sali,2021.2.3,Win32,60.24096386,,,111,0,111,0,1,,,,,,,,
,,"[""circle"",""green"",""vert"",""up"",[106,-106],[150,0]]",circle,green,vert,up,"[106,-106]","[150,0]",up,1,0.9229,,,,,,001,2025-03-17_15h07.10.828,SL_sali,2021.2.3,Win32,60.24096386,,,112,0,112,0,1,,,,,,,,
,,"[""circle"",""red"",""vert"",""up"",[-106,106],[0,-150]]",circle,red,vert,up,"[-106,106]","[0,-150]",up,1,0.8004,,,,,,001,2025-03-17_15h07.10.828,SL_sali,2021.2.3,Win32,60.24096386,,,113,0,113,0,1,,,,,,,,
,,"[""circle"",""no_dis"",""hori"",""left"",[99999,99999],[150,0]]",circle,no_dis,hori,left,"[99999,99999]","[150,0]",left,1,0.832,,,,,,001,2025-03-17_15h07.10.828,SL_sali,2021.2.3,Win32,60.24096386,,,114,0,114,0,1,,,,,,,,
,,"[""diamond"",""no_dis"",""vert"",""up"",[99999,99999],[-106,-106]]",diamond,no_dis,vert,up,"[99999,99999]","[-106,-106]",left,0,1.2167,,,,,,001,2025-03-17_15h07.10.828,SL_sali,2021.2.3,Win32,60.24096386,,,115,0,115,0,1,,,,,,,,
,,"[""diamond"",""no_dis"",""hori"",""left"",[99999,99999],[106,-106]]",diamond,no_dis,hori,left,"[99999,99999]","[106,-106]",left,1,0.7132,,,,,,001,2025-03-17_15h07.10.828,SL_sali,2021.2.3,Win32,60.24096386,,,116,0,116,0,1,,,,,,,,
,,"[""circle"",""red"",""vert"",""up"",[-150,0],[0,-150]]",circle,red,vert,up,"[-150,0]","[0,-150]",up,1,0.8237,,,,,,001,2025-03-17_15h07.10.828,SL_sali,2021.2.3,Win32,60.24096386,,,117,0,117,0,1,,,,,,,,
,,"[""diamond"",""green"",""vert"",""up"",[-106,106],[-150,0]]",diamond,green,vert,up,"[-106,106]","[-150,0]",up,1,1.6837,,,,,,001,2025-03-17_15h07.10.828,SL_sali,2021.2.3,Win32,60.24096386,,,118,0,118,0,1,,,,,,,,
,,"[""circle"",""red"",""vert"",""up"",[106,-106],[150,0]]",circle,red,vert,up,"[106,-106]","[150,0]",up,1,1.197,,,,,,001,2025-03-17_15h07.10.828,SL_sali,2021.2.3,Win32,60.24096386,,,119,0,119,0,1,,,,,,,,
,,,,,,,,,,,,,,,,,001,2025-03-17_15h07.10.828,SL_sali,2021.2.3,Win32,60.24096386,,,,,,,,2,space,38.9256,1,0,1,0,1
,,"[""diamond"",""red"",""vert"",""up"",[0,150],[106,106]]",diamond,red,vert,up,"[0,150]","[106,106]",up,1,0.9836,,,,,,001,2025-03-17_15h07.10.828,SL_sali,2021.2.3,Win32,60.24096386,,,0,0,0,0,1,,,,,,,,
,,"[""circle"",""red"",""hori"",""left"",[0,-150],[-106,-106]]",circle,red,hori,left,"[0,-150]","[-106,-106]",left,1,1.0371,,,,,,001,2025-03-17_15h07.10.828,SL_sali,2021.2.3,Win32,60.24096386,,,1,0,1,0,1,,,,,,,,
,,"[""diamond"",""green"",""hori"",""left"",[-106,-106],[0,150]]",diamond,green,hori,left,"[-106,-106]","[0,150]",left,1,1.4194,,,,,,001,2025-03-17_15h07.10.828,SL_sali,2021.2.3,Win32,60.24096386,,,2,0,2,0,1,,,,,,,,
,,"[""circle"",""green"",""vert"",""up"",[106,-106],[150,0]]",circle,green,vert,up,"[106,-106]","[150,0]",up,1,1.3465,,,,,,001,2025-03-17_15h07.10.828,SL_sali,2021.2.3,Win32,60.24096386,,,3,0,3,0,1,,,,,,,,
,,"[""circle"",""green"",""hori"",""left"",[150,0],[106,106]]",circle,green,hori,left,"[150,0]","[106,106]",left,1,0.8145,,,,,,001,2025-03-17_15h07.10.828,SL_sali,2021.2.3,Win32,60.24096386,,,4,0,4,0,1,,,,,,,,
,,"[""diamond"",""red"",""hori"",""left"",[0,150],[106,-106]]",diamond,red,hori,left,"[0,150]","[106,-106]",left,1,0.7444,,,,,,001,2025-03-17_15h07.10.828,SL_sali,2021.2.3,Win32,60.24096386,,,5,0,5,0,1,,,,,,,,
,,"[""circle"",""red"",""hori"",""left"",[0,-150],[-150,0]]",circle,red,hori,left,"[0,-150]","[-150,0]",left,1,0.8883,,,,,,001,2025-03-17_15h07.10.828,SL_sali,2021.2.3,Win32,60.24096386,,,6,0,6,0,1,,,,,,,,
,,"[""diamond"",""no_dis"",""vert"",""up"",[99999,99999],[-106,106]]",diamond,no_dis,vert,up,"[99999,99999]","[-106,106]",up,1,0.7717,,,,,,001,2025-03-17_15h07.10.828,SL_sali,2021.2.3,Win32,60.24096386,,,7,0,7,0,1,,,,,,,,
,,"[""circle"",""red"",""hori"",""left"",[-150,0],[106,106]]",circle,red,hori,left,"[-150,0]","[106,106]",left,1,0.986,,,,,,001,2025-03-17_15h07.10.828,SL_sali,2021.2.3,Win32,60.24096386,,,8,0,8,0,1,,,,,,,,
,,"[""circle"",""no_dis"",""vert"",""up"",[99999,99999],[0,150]]",circle,no_dis,vert,up,"[99999,99999]","[0,150]",up,1,0.5659,,,,,,001,2025-03-17_15h07.10.828,SL_sali,2021.2.3,Win32,60.24096386,,,9,0,9,0,1,,,,,,,,
,,"[""diamond"",""no_dis"",""hori"",""left"",[99999,99999],[-106,106]]",diamond,no_dis,hori,left,"[99999,99999]","[-106,106]",left,1,1.0496,,,,,,001,2025-03-17_15h07.10.828,SL_sali,2021.2.3,Win32,60.24096386,,,10,0,10,0,1,,,,,,,,
,,"[""circle"",""no_dis"",""vert"",""up"",[99999,99999],[-106,106]]",circle,no_dis,vert,up,"[99999,99999]","[-106,106]",up,1,0.9998,,,,,,001,2025-03-17_15h07.10.828,SL_sali,2021.2.3,Win32,60.24096386,,,11,0,11,0,1,,,,,,,,
,,"[""circle"",""red"",""hori"",""left"",[-106,106],[-150,0]]",circle,red,hori,left,"[-106,106]","[-150,0]",left,1,0.7334,,,,,,001,2025-03-17_15h07.10.828,SL_sali,2021.2.3,Win32,60.24096386,,,12,0,12,0,1,,,,,,,,
,,"[""diamond"",""no_dis"",""hori"",""left"",[99999,99999],[0,150]]",diamond,no_dis,hori,left,"[99999,99999]","[0,150]",left,1,1.7356,,,,,,001,2025-03-17_15h07.10.828,SL_sali,2021.2.3,Win32,60.24096386,,,13,0,13,0,1,,,,,,,,
,,"[""diamond"",""green"",""vert"",""up"",[0,-150],[-106,-106]]",diamond,green,vert,up,"[0,-150]","[-106,-106]",up,1,1.0334,,,,,,001,2025-03-17_15h07.10.828,SL_sali,2021.2.3,Win32,60.24096386,,,14,0,14,0,1,,,,,,,,
,,"[""circle"",""red"",""vert"",""up"",[-150,0],[0,-150]]",circle,red,vert,up,"[-150,0]","[0,-150]",up,1,0.6669,,,,,,001,2025-03-17_15h07.10.828,SL_sali,2021.2.3,Win32,60.24096386,,,15,0,15,0,1,,,,,,,,
,,"[""circle"",""green"",""hori"",""left"",[-150,0],[106,106]]",circle,green,hori,left,"[-150,0]","[106,106]",up,0,0.5958,,,,,,001,2025-03-17_15h07.10.828,SL_sali,2021.2.3,Win32,60.24096386,,,16,0,16,0,1,,,,,,,,
,,"[""diamond"",""red"",""hori"",""left"",[106,-106],[-106,-106]]",diamond,red,hori,left,"[106,-106]","[-106,-106]",left,1,1.0832,,,,,,001,2025-03-17_15h07.10.828,SL_sali,2021.2.3,Win32,60.24096386,,,17,0,17,0,1,,,,,,,,
,,"[""diamond"",""no_dis"",""hori"",""left"",[99999,99999],[150,0]]",diamond,no_dis,hori,left,"[99999,99999]","[150,0]",left,1,0.7344,,,,,,001,2025-03-17_15h07.10.828,SL_sali,2021.2.3,Win32,60.24096386,,,18,0,18,0,1,,,,,,,,
,,"[""circle"",""green"",""vert"",""up"",[106,106],[-106,106]]",circle,green,vert,up,"[106,106]","[-106,106]",up,1,0.7469,,,,,,001,2025-03-17_15h07.10.828,SL_sali,2021.2.3,Win32,60.24096386,,,19,0,19,0,1,,,,,,,,
,,"[""circle"",""green"",""vert"",""up"",[150,0],[0,-150]]",circle,green,vert,up,"[150,0]","[0,-150]",up,1,0.6054,,,,,,001,2025-03-17_15h07.10.828,SL_sali,2021.2.3,Win32,60.24096386,,,20,0,20,0,1,,,,,,,,
,,"[""circle"",""red"",""hori"",""left"",[106,106],[0,150]]",circle,red,hori,left,"[106,106]","[0,150]",left,1,0.5968,,,,,,001,2025-03-17_15h07.10.828,SL_sali,2021.2.3,Win32,60.24096386,,,21,0,21,0,1,,,,,,,,
,,"[""circle"",""green"",""hori"",""left"",[106,106],[-150,0]]",circle,green,hori,left,"[106,106]","[-150,0]",left,1,0.5446,,,,,,001,2025-03-17_15h07.10.828,SL_sali,2021.2.3,Win32,60.24096386,,,22,0,22,0,1,,,,,,,,
,,"[""diamond"",""green"",""vert"",""up"",[150,0],[-106,-106]]",diamond,green,vert,up,"[150,0]","[-106,-106]",left,0,0.6059,,,,,,001,2025-03-17_15h07.10.828,SL_sali,2021.2.3,Win32,60.24096386,,,23,0,23,0,1,,,,,,,,
,,"[""circle"",""no_dis"",""hori"",""left"",[99999,99999],[0,-150]]",circle,no_dis,hori,left,"[99999,99999]","[0,-150]",up,0,0.6496,,,,,,001,2025-03-17_15h07.10.828,SL_sali,2021.2.3,Win32,60.24096386,,,24,0,24,0,1,,,,,,,,
,,"[""diamond"",""green"",""hori"",""left"",[-106,106],[150,0]]",diamond,green,hori,left,"[-106,106]","[150,0]",left,1,1.0671,,,,,,001,2025-03-17_15h07.10.828,SL_sali,2021.2.3,Win32,60.24096386,,,25,0,25,0,1,,,,,,,,
,,"[""diamond"",""green"",""hori"",""left"",[-106,106],[106,-106]]",diamond,green,hori,left,"[-106,106]","[106,-106]",left,1,0.7497,,,,,,001,2025-03-17_15h07.10.828,SL_sali,2021.2.3,Win32,60.24096386,,,26,0,26,0,1,,,,,,,,
,,"[""circle"",""red"",""vert"",""up"",[0,-150],[-106,-106]]",circle,red,vert,up,"[0,-150]","[-106,-106]",up,1,0.567,,,,,,001,2025-03-17_15h07.10.828,SL_sali,2021.2.3,Win32,60.24096386,,,27,0,27,0,1,,,,,,,,
,,"[""diamond"",""no_dis"",""hori"",""left"",[99999,99999],[0,150]]",diamond,no_dis,hori,left,"[99999,99999]","[0,150]",left,1,0.966,,,,,,001,2025-03-17_15h07.10.828,SL_sali,2021.2.3,Win32,60.24096386,,,28,0,28,0,1,,,,,,,,
,,"[""diamond"",""green"",""vert"",""up"",[0,-150],[0,150]]",diamond,green,vert,up,"[0,-150]","[0,150]",up,1,0.8545,,,,,,001,2025-03-17_15h07.10.828,SL_sali,2021.2.3,Win32,60.24096386,,,29,0,29,0,1,,,,,,,,
,,"[""circle"",""no_dis"",""vert"",""up"",[99999,99999],[106,106]]",circle,no_dis,vert,up,"[99999,99999]","[106,106]",left,0,0.6997,,,,,,001,2025-03-17_15h07.10.828,SL_sali,2021.2.3,Win32,60.24096386,,,30,0,30,0,1,,,,,,,,
,,"[""diamond"",""no_dis"",""vert"",""up"",[99999,99999],[-106,106]]",diamond,no_dis,vert,up,"[99999,99999]","[-106,106]",up,1,0.9499,,,,,,001,2025-03-17_15h07.10.828,SL_sali,2021.2.3,Win32,60.24096386,,,31,0,31,0,1,,,,,,,,
,,"[""diamond"",""green"",""vert"",""up"",[-150,0],[0,150]]",diamond,green,vert,up,"[-150,0]","[0,150]",up,1,1.5331,,,,,,001,2025-03-17_15h07.10.828,SL_sali,2021.2.3,Win32,60.24096386,,,32,0,32,0,1,,,,,,,,
,,"[""circle"",""no_dis"",""hori"",""left"",[99999,99999],[150,0]]",circle,no_dis,hori,left,"[99999,99999]","[150,0]",left,1,0.7496,,,,,,001,2025-03-17_15h07.10.828,SL_sali,2021.2.3,Win32,60.24096386,,,33,0,33,0,1,,,,,,,,
,,"[""circle"",""no_dis"",""vert"",""up"",[99999,99999],[-150,0]]",circle,no_dis,vert,up,"[99999,99999]","[-150,0]",up,1,0.7114,,,,,,001,2025-03-17_15h07.10.828,SL_sali,2021.2.3,Win32,60.24096386,,,34,0,34,0,1,,,,,,,,
,,"[""circle"",""no_dis"",""vert"",""up"",[99999,99999],[-150,0]]",circle,no_dis,vert,up,"[99999,99999]","[-150,0]",up,1,0.5877,,,,,,001,2025-03-17_15h07.10.828,SL_sali,2021.2.3,Win32,60.24096386,,,35,0,35,0,1,,,,,,,,
,,"[""diamond"",""no_dis"",""hori"",""left"",[99999,99999],[106,-106]]",diamond,no_dis,hori,left,"[99999,99999]","[106,-106]",left,1,1.2831,,,,,,001,2025-03-17_15h07.10.828,SL_sali,2021.2.3,Win32,60.24096386,,,36,0,36,0,1,,,,,,,,
,,"[""circle"",""red"",""vert"",""up"",[0,-150],[-106,-106]]",circle,red,vert,up,"[0,-150]","[-106,-106]",up,1,0.9653,,,,,,001,2025-03-17_15h07.10.828,SL_sali,2021.2.3,Win32,60.24096386,,,37,0,37,0,1,,,,,,,,
,,"[""circle"",""red"",""hori"",""left"",[0,-150],[-106,106]]",circle,red,hori,left,"[0,-150]","[-106,106]",left,1,0.774,,,,,,001,2025-03-17_15h07.10.828,SL_sali,2021.2.3,Win32,60.24096386,,,38,0,38,0,1,,,,,,,,
,,"[""circle"",""red"",""hori"",""left"",[0,-150],[150,0]]",circle,red,hori,left,"[0,-150]","[150,0]",left,1,0.7479,,,,,,001,2025-03-17_15h07.10.828,SL_sali,2021.2.3,Win32,60.24096386,,,39,0,39,0,1,,,,,,,,
,,"[""diamond"",""red"",""vert"",""up"",[0,-150],[-106,106]]",diamond,red,vert,up,"[0,-150]","[-106,106]",up,1,0.9709,,,,,,001,2025-03-17_15h07.10.828,SL_sali,2021.2.3,Win32,60.24096386,,,40,0,40,0,1,,,,,,,,
,,"[""diamond"",""green"",""hori"",""left"",[106,106],[-150,0]]",diamond,green,hori,left,"[106,106]","[-150,0]",left,1,1.2664,,,,,,001,2025-03-17_15h07.10.828,SL_sali,2021.2.3,Win32,60.24096386,,,41,0,41,0,1,,,,,,,,
,,"[""diamond"",""no_dis"",""hori"",""left"",[99999,99999],[106,-106]]",diamond,no_dis,hori,left,"[99999,99999]","[106,-106]",left,1,1.2167,,,,,,001,2025-03-17_15h07.10.828,SL_sali,2021.2.3,Win32,60.24096386,,,42,0,42,0,1,,,,,,,,
,,"[""circle"",""no_dis"",""vert"",""up"",[99999,99999],[-106,106]]",circle,no_dis,vert,up,"[99999,99999]","[-106,106]",up,1,0.6976,,,,,,001,2025-03-17_15h07.10.828,SL_sali,2021.2.3,Win32,60.24096386,,,43,0,43,0,1,,,,,,,,
,,"[""circle"",""no_dis"",""hori"",""left"",[99999,99999],[0,-150]]",circle,no_dis,hori,left,"[99999,99999]","[0,-150]",left,1,0.7465,,,,,,001,2025-03-17_15h07.10.828,SL_sali,2021.2.3,Win32,60.24096386,,,44,0,44,0,1,,,,,,,,
,,"[""diamond"",""green"",""vert"",""up"",[150,0],[-150,0]]",diamond,green,vert,up,"[150,0]","[-150,0]",up,1,0.999,,,,,,001,2025-03-17_15h07.10.828,SL_sali,2021.2.3,Win32,60.24096386,,,45,0,45,0,1,,,,,,,,
,,"[""circle"",""green"",""vert"",""up"",[-150,0],[150,0]]",circle,green,vert,up,"[-150,0]","[150,0]",up,1,0.66,,,,,,001,2025-03-17_15h07.10.828,SL_sali,2021.2.3,Win32,60.24096386,,,46,0,46,0,1,,,,,,,,
,,"[""diamond"",""red"",""hori"",""left"",[0,-150],[150,0]]",diamond,red,hori,left,"[0,-150]","[150,0]",left,1,1.0655,,,,,,001,2025-03-17_15h07.10.828,SL_sali,2021.2.3,Win32,60.24096386,,,47,0,47,0,1,,,,,,,,
,,"[""circle"",""no_dis"",""hori"",""left"",[99999,99999],[106,-106]]",circle,no_dis,hori,left,"[99999,99999]","[106,-106]",left,1,1.2558,,,,,,001,2025-03-17_15h07.10.828,SL_sali,2021.2.3,Win32,60.24096386,,,48,0,48,0,1,,,,,,,,
,,"[""diamond"",""no_dis"",""vert"",""up"",[99999,99999],[0,-150]]",diamond,no_dis,vert,up,"[99999,99999]","[0,-150]",up,1,0.9555,,,,,,001,2025-03-17_15h07.10.828,SL_sali,2021.2.3,Win32,60.24096386,,,49,0,49,0,1,,,,,,,,
,,"[""diamond"",""no_dis"",""vert"",""up"",[99999,99999],[-106,-106]]",diamond,no_dis,vert,up,"[99999,99999]","[-106,-106]",up,1,0.8338,,,,,,001,2025-03-17_15h07.10.828,SL_sali,2021.2.3,Win32,60.24096386,,,50,0,50,0,1,,,,,,,,
,,"[""diamond"",""green"",""vert"",""up"",[150,0],[106,-106]]",diamond,green,vert,up,"[150,0]","[106,-106]",up,1,1.2664,,,,,,001,2025-03-17_15h07.10.828,SL_sali,2021.2.3,Win32,60.24096386,,,51,0,51,0,1,,,,,,,,
,,"[""circle"",""green"",""vert"",""up"",[0,-150],[-106,-106]]",circle,green,vert,up,"[0,-150]","[-106,-106]",up,1,0.8686,,,,,,001,2025-03-17_15h07.10.828,SL_sali,2021.2.3,Win32,60.24096386,,,52,0,52,0,1,,,,,,,,
,,"[""circle"",""green"",""vert"",""up"",[0,150],[0,-150]]",circle,green,vert,up,"[0,150]","[0,-150]",up,1,0.6843,,,,,,001,2025-03-17_15h07.10.828,SL_sali,2021.2.3,Win32,60.24096386,,,53,0,53,0,1,,,,,,,,
,,"[""circle"",""no_dis"",""vert"",""up"",[99999,99999],[106,106]]",circle,no_dis,vert,up,"[99999,99999]","[106,106]",up,1,0.6932,,,,,,001,2025-03-17_15h07.10.828,SL_sali,2021.2.3,Win32,60.24096386,,,54,0,54,0,1,,,,,,,,
,,"[""diamond"",""red"",""vert"",""up"",[-106,-106],[-106,106]]",diamond,red,vert,up,"[-106,-106]","[-106,106]",up,1,0.9569,,,,,,001,2025-03-17_15h07.10.828,SL_sali,2021.2.3,Win32,60.24096386,,,55,0,55,0,1,,,,,,,,
,,"[""circle"",""green"",""hori"",""left"",[0,-150],[-106,-106]]",circle,green,hori,left,"[0,-150]","[-106,-106]",left,1,0.9327,,,,,,001,2025-03-17_15h07.10.828,SL_sali,2021.2.3,Win32,60.24096386,,,56,0,56,0,1,,,,,,,,
,,"[""diamond"",""red"",""hori"",""left"",[-106,-106],[106,-106]]",diamond,red,hori,left,"[-106,-106]","[106,-106]",up,0,0.8176,,,,,,001,2025-03-17_15h07.10.828,SL_sali,2021.2.3,Win32,60.24096386,,,57,0,57,0,1,,,,,,,,
,,"[""diamond"",""green"",""hori"",""left"",[-106,106],[0,-150]]",diamond,green,hori,left,"[-106,106]","[0,-150]",left,1,0.6438,,,,,,001,2025-03-17_15h07.10.828,SL_sali,2021.2.3,Win32,60.24096386,,,58,0,58,0,1,,,,,,,,
,,"[""diamond"",""red"",""vert"",""up"",[0,-150],[-106,-106]]",diamond,red,vert,up,"[0,-150]","[-106,-106]",up,1,0.9854,,,,,,001,2025-03-17_15h07.10.828,SL_sali,2021.2.3,Win32,60.24096386,,,59,0,59,0,1,,,,,,,,
,,"[""diamond"",""green"",""hori"",""left"",[0,150],[106,-106]]",diamond,green,hori,left,"[0,150]","[106,-106]",left,1,0.7332,,,,,,001,2025-03-17_15h07.10.828,SL_sali,2021.2.3,Win32,60.24096386,,,60,0,60,0,1,,,,,,,,
,,"[""circle"",""red"",""vert"",""up"",[0,150],[106,106]]",circle,red,vert,up,"[0,150]","[106,106]",up,1,1.0943,,,,,,001,2025-03-17_15h07.10.828,SL_sali,2021.2.3,Win32,60.24096386,,,61,0,61,0,1,,,,,,,,
,,"[""diamond"",""no_dis"",""vert"",""up"",[99999,99999],[0,-150]]",diamond,no_dis,vert,up,"[99999,99999]","[0,-150]",up,1,0.6495,,,,,,001,2025-03-17_15h07.10.828,SL_sali,2021.2.3,Win32,60.24096386,,,62,0,62,0,1,,,,,,,,
,,"[""circle"",""green"",""hori"",""left"",[0,-150],[106,106]]",circle,green,hori,left,"[0,-150]","[106,106]",left,1,0.7497,,,,,,001,2025-03-17_15h07.10.828,SL_sali,2021.2.3,Win32,60.24096386,,,63,0,63,0,1,,,,,,,,
,,"[""diamond"",""red"",""hori"",""left"",[0,-150],[0,150]]",diamond,red,hori,left,"[0,-150]","[0,150]",left,1,0.76,,,,,,001,2025-03-17_15h07.10.828,SL_sali,2021.2.3,Win32,60.24096386,,,64,0,64,0,1,,,,,,,,
,,"[""circle"",""green"",""vert"",""up"",[-106,-106],[106,106]]",circle,green,vert,up,"[-106,-106]","[106,106]",up,1,0.8033,,,,,,001,2025-03-17_15h07.10.828,SL_sali,2021.2.3,Win32,60.24096386,,,65,0,65,0,1,,,,,,,,
,,"[""circle"",""green"",""vert"",""up"",[-106,106],[150,0]]",circle,green,vert,up,"[-106,106]","[150,0]",up,1,0.6163,,,,,,001,2025-03-17_15h07.10.828,SL_sali,2021.2.3,Win32,60.24096386,,,66,0,66,0,1,,,,,,,,
,,"[""diamond"",""green"",""vert"",""up"",[-106,106],[-150,0]]",diamond,green,vert,up,"[-106,106]","[-150,0]",up,1,0.8159,,,,,,001,2025-03-17_15h07.10.828,SL_sali,2021.2.3,Win32,60.24096386,,,67,0,67,0,1,,,,,,,,
,,"[""diamond"",""green"",""hori"",""left"",[0,-150],[106,106]]",diamond,green,hori,left,"[0,-150]","[106,106]",left,1,0.6419,,,,,,001,2025-03-17_15h07.10.828,SL_sali,2021.2.3,Win32,60.24096386,,,68,0,68,0,1,,,,,,,,
,,"[""diamond"",""no_dis"",""hori"",""left"",[99999,99999],[0,150]]",diamond,no_dis,hori,left,"[99999,99999]","[0,150]",left,1,0.6495,,,,,,001,2025-03-17_15h07.10.828,SL_sali,2021.2.3,Win32,60.24096386,,,69,0,69,0,1,,,,,,,,
,,"[""diamond"",""red"",""vert"",""up"",[0,-150],[106,-106]]",diamond,red,vert,up,"[0,-150]","[106,-106]",up,1,0.6855,,,,,,001,2025-03-17_15h07.10.828,SL_sali,2021.2.3,Win32,60.24096386,,,70,0,70,0,1,,,,,,,,
,,"[""circle"",""no_dis"",""hori"",""left"",[99999,99999],[150,0]]",circle,no_dis,hori,left,"[99999,99999]","[150,0]",left,1,0.8785,,,,,,001,2025-03-17_15h07.10.828,SL_sali,2021.2.3,Win32,60.24096386,,,71,0,71,0,1,,,,,,,,
,,"[""circle"",""no_dis"",""hori"",""left"",[99999,99999],[0,150]]",circle,no_dis,hori,left,"[99999,99999]","[0,150]",left,1,0.6773,,,,,,001,2025-03-17_15h07.10.828,SL_sali,2021.2.3,Win32,60.24096386,,,72,0,72,0,1,,,,,,,,
,,"[""circle"",""no_dis"",""vert"",""up"",[99999,99999],[-106,-106]]",circle,no_dis,vert,up,"[99999,99999]","[-106,-106]",up,1,0.6931,,,,,,001,2025-03-17_15h07.10.828,SL_sali,2021.2.3,Win32,60.24096386,,,73,0,73,0,1,,,,,,,,
,,"[""circle"",""red"",""hori"",""left"",[-106,-106],[-150,0]]",circle,red,hori,left,"[-106,-106]","[-150,0]",left,1,0.9967,,,,,,001,2025-03-17_15h07.10.828,SL_sali,2021.2.3,Win32,60.24096386,,,74,0,74,0,1,,,,,,,,
,,"[""circle"",""red"",""hori"",""left"",[-150,0],[150,0]]",circle,red,hori,left,"[-150,0]","[150,0]",left,1,0.5329,,,,,,001,2025-03-17_15h07.10.828,SL_sali,2021.2.3,Win32,60.24096386,,,75,0,75,0,1,,,,,,,,
,,"[""diamond"",""no_dis"",""vert"",""up"",[99999,99999],[106,-106]]",diamond,no_dis,vert,up,"[99999,99999]","[106,-106]",up,1,0.8046,,,,,,001,2025-03-17_15h07.10.828,SL_sali,2021.2.3,Win32,60.24096386,,,76,0,76,0,1,,,,,,,,
,,"[""circle"",""red"",""vert"",""up"",[106,-106],[150,0]]",circle,red,vert,up,"[106,-106]","[150,0]",up,1,0.7604,,,,,,001,2025-03-17_15h07.10.828,SL_sali,2021.2.3,Win32,60.24096386,,,77,0,77,0,1,,,,,,,,
,,"[""circle"",""red"",""vert"",""up"",[0,150],[-150,0]]",circle,red,vert,up,"[0,150]","[-150,0]",up,1,0.816,,,,,,001,2025-03-17_15h07.10.828,SL_sali,2021.2.3,Win32,60.24096386,,,78,0,78,0,1,,,,,,,,
,,"[""circle"",""red"",""vert"",""up"",[106,-106],[-150,0]]",circle,red,vert,up,"[106,-106]","[-150,0]",up,1,0.5078,,,,,,001,2025-03-17_15h07.10.828,SL_sali,2021.2.3,Win32,60.24096386,,,79,0,79,0,1,,,,,,,,
,,"[""diamond"",""green"",""hori"",""left"",[-150,0],[0,-150]]",diamond,green,hori,left,"[-150,0]","[0,-150]",left,1,0.7165,,,,,,001,2025-03-17_15h07.10.828,SL_sali,2021.2.3,Win32,60.24096386,,,80,0,80,0,1,,,,,,,,
,,"[""diamond"",""no_dis"",""vert"",""up"",[99999,99999],[0,-150]]",diamond,no_dis,vert,up,"[99999,99999]","[0,-150]",up,1,0.7044,,,,,,001,2025-03-17_15h07.10.828,SL_sali,2021.2.3,Win32,60.24096386,,,81,0,81,0,1,,,,,,,,
,,"[""diamond"",""green"",""vert"",""up"",[0,-150],[106,-106]]",diamond,green,vert,up,"[0,-150]","[106,-106]",up,1,0.7496,,,,,,001,2025-03-17_15h07.10.828,SL_sali,2021.2.3,Win32,60.24096386,,,82,0,82,0,1,,,,,,,,
,,"[""diamond"",""red"",""vert"",""up"",[150,0],[106,106]]",diamond,red,vert,up,"[150,0]","[106,106]",up,1,1.0805,,,,,,001,2025-03-17_15h07.10.828,SL_sali,2021.2.3,Win32,60.24096386,,,83,0,83,0,1,,,,,,,,
,,"[""circle"",""no_dis"",""hori"",""left"",[99999,99999],[106,106]]",circle,no_dis,hori,left,"[99999,99999]","[106,106]",left,1,0.6888,,,,,,001,2025-03-17_15h07.10.828,SL_sali,2021.2.3,Win32,60.24096386,,,84,0,84,0,1,,,,,,,,
,,"[""circle"",""no_dis"",""vert"",""up"",[99999,99999],[-150,0]]",circle,no_dis,vert,up,"[99999,99999]","[-150,0]",up,1,0.6033,,,,,,001,2025-03-17_15h07.10.828,SL_sali,2021.2.3,Win32,60.24096386,,,85,0,85,0,1,,,,,,,,
,,"[""circle"",""red"",""vert"",""up"",[-106,106],[0,-150]]",circle,red,vert,up,"[-106,106]","[0,-150]",up,1,0.5687,,,,,,001,2025-03-17_15h07.10.828,SL_sali,2021.2.3,Win32,60.24096386,,,86,0,86,0,1,,,,,,,,
,,"[""diamond"",""green"",""vert"",""up"",[0,150],[-150,0]]",diamond,green,vert,up,"[0,150]","[-150,0]",up,1,0.8723,,,,,,001,2025-03-17_15h07.10.828,SL_sali,2021.2.3,Win32,60.24096386,,,87,0,87,0,1,,,,,,,,
,,"[""diamond"",""green"",""vert"",""up"",[150,0],[-106,-106]]",diamond,green,vert,up,"[150,0]","[-106,-106]",up,1,0.6066,,,,,,001,2025-03-17_15h07.10.828,SL_sali,2021.2.3,Win32,60.24096386,,,88,0,88,0,1,,,,,,,,
,,"[""circle"",""no_dis"",""hori"",""left"",[99999,99999],[-150,0]]",circle,no_dis,hori,left,"[99999,99999]","[-150,0]",left,1,0.8024,,,,,,001,2025-03-17_15h07.10.828,SL_sali,2021.2.3,Win32,60.24096386,,,89,0,89,0,1,,,,,,,,
,,"[""diamond"",""no_dis"",""vert"",""up"",[99999,99999],[106,106]]",diamond,no_dis,vert,up,"[99999,99999]","[106,106]",up,1,0.5842,,,,,,001,2025-03-17_15h07.10.828,SL_sali,2021.2.3,Win32,60.24096386,,,90,0,90,0,1,,,,,,,,
,,"[""circle"",""red"",""vert"",""up"",[-106,106],[150,0]]",circle,red,vert,up,"[-106,106]","[150,0]",up,1,0.8406,,,,,,001,2025-03-17_15h07.10.828,SL_sali,2021.2.3,Win32,60.24096386,,,91,0,91,0,1,,,,,,,,
,,"[""circle"",""red"",""vert"",""up"",[106,106],[-150,0]]",circle,red,vert,up,"[106,106]","[-150,0]",up,1,0.5127,,,,,,001,2025-03-17_15h07.10.828,SL_sali,2021.2.3,Win32,60.24096386,,,92,0,92,0,1,,,,,,,,
,,"[""circle"",""no_dis"",""vert"",""up"",[99999,99999],[106,106]]",circle,no_dis,vert,up,"[99999,99999]","[106,106]",up,1,0.5482,,,,,,001,2025-03-17_15h07.10.828,SL_sali,2021.2.3,Win32,60.24096386,,,93,0,93,0,1,,,,,,,,
,,"[""circle"",""green"",""vert"",""up"",[106,106],[-106,106]]",circle,green,vert,up,"[106,106]","[-106,106]",up,1,0.5074,,,,,,001,2025-03-17_15h07.10.828,SL_sali,2021.2.3,Win32,60.24096386,,,94,0,94,0,1,,,,,,,,
,,"[""diamond"",""no_dis"",""vert"",""up"",[99999,99999],[150,0]]",diamond,no_dis,vert,up,"[99999,99999]","[150,0]",up,1,0.9828,,,,,,001,2025-03-17_15h07.10.828,SL_sali,2021.2.3,Win32,60.24096386,,,95,0,95,0,1,,,,,,,,
,,"[""diamond"",""red"",""hori"",""left"",[106,-106],[106,106]]",diamond,red,hori,left,"[106,-106]","[106,106]",left,1,0.7977,,,,,,001,2025-03-17_15h07.10.828,SL_sali,2021.2.3,Win32,60.24096386,,,96,0,96,0,1,,,,,,,,
,,"[""circle"",""green"",""hori"",""left"",[0,150],[106,-106]]",circle,green,hori,left,"[0,150]","[106,-106]",left,1,0.7007,,,,,,001,2025-03-17_15h07.10.828,SL_sali,2021.2.3,Win32,60.24096386,,,97,0,97,0,1,,,,,,,,
,,"[""diamond"",""red"",""hori"",""left"",[-106,-106],[0,150]]",diamond,red,hori,left,"[-106,-106]","[0,150]",left,1,0.9993,,,,,,001,2025-03-17_15h07.10.828,SL_sali,2021.2.3,Win32,60.24096386,,,98,0,98,0,1,,,,,,,,
,,"[""circle"",""red"",""hori"",""left"",[0,-150],[106,106]]",circle,red,hori,left,"[0,-150]","[106,106]",left,1,0.916,,,,,,001,2025-03-17_15h07.10.828,SL_sali,2021.2.3,Win32,60.24096386,,,99,0,99,0,1,,,,,,,,
,,"[""diamond"",""no_dis"",""hori"",""left"",[99999,99999],[-106,-106]]",diamond,no_dis,hori,left,"[99999,99999]","[-106,-106]",left,1,1.1836,,,,,,001,2025-03-17_15h07.10.828,SL_sali,2021.2.3,Win32,60.24096386,,,100,0,100,0,1,,,,,,,,
,,"[""diamond"",""no_dis"",""hori"",""left"",[99999,99999],[-150,0]]",diamond,no_dis,hori,left,"[99999,99999]","[-150,0]",left,1,0.7002,,,,,,001,2025-03-17_15h07.10.828,SL_sali,2021.2.3,Win32,60.24096386,,,101,0,101,0,1,,,,,,,,
,,"[""circle"",""green"",""hori"",""left"",[-106,-106],[0,-150]]",circle,green,hori,left,"[-106,-106]","[0,-150]",left,1,0.7261,,,,,,001,2025-03-17_15h07.10.828,SL_sali,2021.2.3,Win32,60.24096386,,,102,0,102,0,1,,,,,,,,
,,"[""diamond"",""red"",""vert"",""up"",[106,-106],[-106,106]]",diamond,red,vert,up,"[106,-106]","[-106,106]",up,1,1.0145,,,,,,001,2025-03-17_15h07.10.828,SL_sali,2021.2.3,Win32,60.24096386,,,103,0,103,0,1,,,,,,,,
,,"[""diamond"",""no_dis"",""hori"",""left"",[99999,99999],[-106,-106]]",diamond,no_dis,hori,left,"[99999,99999]","[-106,-106]",left,1,0.9164,,,,,,001,2025-03-17_15h07.10.828,SL_sali,2021.2.3,Win32,60.24096386,,,104,0,104,0,1,,,,,,,,
,,"[""circle"",""no_dis"",""hori"",""left"",[99999,99999],[150,0]]",circle,no_dis,hori,left,"[99999,99999]","[150,0]",up,0,0.9106,,,,,,001,2025-03-17_15h07.10.828,SL_sali,2021.2.3,Win32,60.24096386,,,105,0,105,0,1,,,,,,,,
,,"[""circle"",""green"",""hori"",""left"",[106,106],[-106,106]]",circle,green,hori,left,"[106,106]","[-106,106]",left,1,0.8138,,,,,,001,2025-03-17_15h07.10.828,SL_sali,2021.2.3,Win32,60.24096386,,,106,0,106,0,1,,,,,,,,
,,"[""diamond"",""red"",""hori"",""left"",[0,-150],[106,-106]]",diamond,red,hori,left,"[0,-150]","[106,-106]",left,1,0.7094,,,,,,001,2025-03-17_15h07.10.828,SL_sali,2021.2.3,Win32,60.24096386,,,107,0,107,0,1,,,,,,,,
,,"[""diamond"",""red"",""vert"",""up"",[-150,0],[-106,106]]",diamond,red,vert,up,"[-150,0]","[-106,106]",up,1,0.8503,,,,,,001,2025-03-17_15h07.10.828,SL_sali,2021.2.3,Win32,60.24096386,,,108,0,108,0,1,,,,,,,,
,,"[""diamond"",""green"",""hori"",""left"",[106,-106],[-106,-106]]",diamond,green,hori,left,"[106,-106]","[-106,-106]",left,1,0.95,,,,,,001,2025-03-17_15h07.10.828,SL_sali,2021.2.3,Win32,60.24096386,,,109,0,109,0,1,,,,,,,,
,,"[""circle"",""no_dis"",""hori"",""left"",[99999,99999],[-106,-106]]",circle,no_dis,hori,left,"[99999,99999]","[-106,-106]",left,1,0.8117,,,,,,001,2025-03-17_15h07.10.828,SL_sali,2021.2.3,Win32,60.24096386,,,110,0,110,0,1,,,,,,,,
,,"[""diamond"",""red"",""hori"",""left"",[150,0],[106,-106]]",diamond,red,hori,left,"[150,0]","[106,-106]",left,1,1.2497,,,,,,001,2025-03-17_15h07.10.828,SL_sali,2021.2.3,Win32,60.24096386,,,111,0,111,0,1,,,,,,,,
,,"[""diamond"",""red"",""vert"",""up"",[0,-150],[-106,-106]]",diamond,red,vert,up,"[0,-150]","[-106,-106]",up,1,1.1866,,,,,,001,2025-03-17_15h07.10.828,SL_sali,2021.2.3,Win32,60.24096386,,,112,0,112,0,1,,,,,,,,
,,"[""diamond"",""green"",""hori"",""left"",[106,-106],[-106,-106]]",diamond,green,hori,left,"[106,-106]","[-106,-106]",left,1,0.7868,,,,,,001,2025-03-17_15h07.10.828,SL_sali,2021.2.3,Win32,60.24096386,,,113,0,113,0,1,,,,,,,,
,,"[""diamond"",""red"",""hori"",""left"",[-106,-106],[150,0]]",diamond,red,hori,left,"[-106,-106]","[150,0]",left,1,0.8678,,,,,,001,2025-03-17_15h07.10.828,SL_sali,2021.2.3,Win32,60.24096386,,,114,0,114,0,1,,,,,,,,
,,"[""diamond"",""red"",""vert"",""up"",[0,-150],[-106,-106]]",diamond,red,vert,up,"[0,-150]","[-106,-106]",up,1,0.9825,,,,,,001,2025-03-17_15h07.10.828,SL_sali,2021.2.3,Win32,60.24096386,,,115,0,115,0,1,,,,,,,,
,,"[""circle"",""green"",""vert"",""up"",[0,-150],[106,-106]]",circle,green,vert,up,"[0,-150]","[106,-106]",up,1,0.9366,,,,,,001,2025-03-17_15h07.10.828,SL_sali,2021.2.3,Win32,60.24096386,,,116,0,116,0,1,,,,,,,,
,,"[""circle"",""green"",""hori"",""left"",[0,-150],[150,0]]",circle,green,hori,left,"[0,-150]","[150,0]",left,1,0.9407,,,,,,001,2025-03-17_15h07.10.828,SL_sali,2021.2.3,Win32,60.24096386,,,117,0,117,0,1,,,,,,,,
,,"[""diamond"",""no_dis"",""vert"",""up"",[99999,99999],[106,-106]]",diamond,no_dis,vert,up,"[99999,99999]","[106,-106]",up,1,1.0203,,,,,,001,2025-03-17_15h07.10.828,SL_sali,2021.2.3,Win32,60.24096386,,,118,0,118,0,1,,,,,,,,
,,"[""circle"",""green"",""hori"",""left"",[106,106],[0,-150]]",circle,green,hori,left,"[106,106]","[0,-150]",left,1,1.3194,,,,,,001,2025-03-17_15h07.10.828,SL_sali,2021.2.3,Win32,60.24096386,,,119,0,119,0,1,,,,,,,,
,,,,,,,,,,,,,,,,,001,2025-03-17_15h07.10.828,SL_sali,2021.2.3,Win32,60.24096386,,,,,,,,3,space,10.9552,2,0,2,0,1
,,"[""diamond"",""no_dis"",""hori"",""left"",[99999,99999],[-106,-106]]",diamond,no_dis,hori,left,"[99999,99999]","[-106,-106]",left,1,0.9729,,,,,,001,2025-03-17_15h07.10.828,SL_sali,2021.2.3,Win32,60.24096386,,,0,0,0,0,1,,,,,,,,
,,"[""circle"",""green"",""vert"",""up"",[0,-150],[-106,-106]]",circle,green,vert,up,"[0,-150]","[-106,-106]",up,1,0.7491,,,,,,001,2025-03-17_15h07.10.828,SL_sali,2021.2.3,Win32,60.24096386,,,1,0,1,0,1,,,,,,,,
,,"[""circle"",""red"",""vert"",""up"",[106,-106],[-150,0]]",circle,red,vert,up,"[106,-106]","[-150,0]",up,1,0.8158,,,,,,001,2025-03-17_15h07.10.828,SL_sali,2021.2.3,Win32,60.24096386,,,2,0,2,0,1,,,,,,,,
,,"[""diamond"",""green"",""vert"",""up"",[0,-150],[106,-106]]",diamond,green,vert,up,"[0,-150]","[106,-106]",left,0,0.7997,,,,,,001,2025-03-17_15h07.10.828,SL_sali,2021.2.3,Win32,60.24096386,,,3,0,3,0,1,,,,,,,,
,,"[""circle"",""red"",""hori"",""left"",[-150,0],[150,0]]",circle,red,hori,left,"[-150,0]","[150,0]",left,1,0.8828,,,,,,001,2025-03-17_15h07.10.828,SL_sali,2021.2.3,Win32,60.24096386,,,4,0,4,0,1,,,,,,,,
,,"[""diamond"",""no_dis"",""vert"",""up"",[99999,99999],[-106,106]]",diamond,no_dis,vert,up,"[99999,99999]","[-106,106]",up,1,0.5802,,,,,,001,2025-03-17_15h07.10.828,SL_sali,2021.2.3,Win32,60.24096386,,,5,0,5,0,1,,,,,,,,
,,"[""circle"",""no_dis"",""hori"",""left"",[99999,99999],[150,0]]",circle,no_dis,hori,left,"[99999,99999]","[150,0]",left,1,0.6123,,,,,,001,2025-03-17_15h07.10.828,SL_sali,2021.2.3,Win32,60.24096386,,,6,0,6,0,1,,,,,,,,
,,"[""diamond"",""red"",""vert"",""up"",[0,-150],[-106,-106]]",diamond,red,vert,up,"[0,-150]","[-106,-106]",up,1,0.8496,,,,,,001,2025-03-17_15h07.10.828,SL_sali,2021.2.3,Win32,60.24096386,,,7,0,7,0,1,,,,,,,,
,,"[""diamond"",""green"",""hori"",""left"",[106,106],[-150,0]]",diamond,green,hori,left,"[106,106]","[-150,0]",left,1,1.2922,,,,,,001,2025-03-17_15h07.10.828,SL_sali,2021.2.3,Win32,60.24096386,,,8,0,8,0,1,,,,,,,,
,,"[""circle"",""no_dis"",""hori"",""left"",[99999,99999],[106,106]]",circle,no_dis,hori,left,"[99999,99999]","[106,106]",left,1,1.0474,,,,,,001,2025-03-17_15h07.10.828,SL_sali,2021.2.3,Win32,60.24096386,,,9,0,9,0,1,,,,,,,,
,,"[""diamond"",""red"",""hori"",""left"",[0,-150],[106,-106]]",diamond,red,hori,left,"[0,-150]","[106,-106]",up,0,0.8127,,,,,,001,2025-03-17_15h07.10.828,SL_sali,2021.2.3,Win32,60.24096386,,,10,0,10,0,1,,,,,,,,
,,"[""circle"",""red"",""vert"",""up"",[106,-106],[150,0]]",circle,red,vert,up,"[106,-106]","[150,0]",up,1,1.2664,,,,,,001,2025-03-17_15h07.10.828,SL_sali,2021.2.3,Win32,60.24096386,,,11,0,11,0,1,,,,,,,,
,,"[""diamond"",""red"",""vert"",""up"",[0,150],[106,106]]",diamond,red,vert,up,"[0,150]","[106,106]",up,1,1.3335,,,,,,001,2025-03-17_15h07.10.828,SL_sali,2021.2.3,Win32,60.24096386,,,12,0,12,0,1,,,,,,,,
,,"[""circle"",""no_dis"",""vert"",""up"",[99999,99999],[106,106]]",circle,no_dis,vert,up,"[99999,99999]","[106,106]",up,1,1.0502,,,,,,001,2025-03-17_15h07.10.828,SL_sali,2021.2.3,Win32,60.24096386,,,13,0,13,0,1,,,,,,,,
,,"[""diamond"",""red"",""vert"",""up"",[-150,0],[-106,106]]",diamond,red,vert,up,"[-150,0]","[-106,106]",up,1,0.7355,,,,,,001,2025-03-17_15h07.10.828,SL_sali,2021.2.3,Win32,60.24096386,,,14,0,14,0,1,,,,,,,,
,,"[""circle"",""green"",""hori"",""left"",[150,0],[106,106]]",circle,green,hori,left,"[150,0]","[106,106]",left,1,0.9489,,,,,,001,2025-03-17_15h07.10.828,SL_sali,2021.2.3,Win32,60.24096386,,,15,0,15,0,1,,,,,,,,
,,"[""circle"",""no_dis"",""vert"",""up"",[99999,99999],[-150,0]]",circle,no_dis,vert,up,"[99999,99999]","[-150,0]",up,1,0.6339,,,,,,001,2025-03-17_15h07.10.828,SL_sali,2021.2.3,Win32,60.24096386,,,16,0,16,0,1,,,,,,,,
,,"[""diamond"",""red"",""vert"",""up"",[-106,-106],[-106,106]]",diamond,red,vert,up,"[-106,-106]","[-106,106]",up,1,1.0163,,,,,,001,2025-03-17_15h07.10.828,SL_sali,2021.2.3,Win32,60.24096386,,,17,0,17,0,1,,,,,,,,
,,"[""diamond"",""green"",""hori"",""left"",[-106,106],[0,-150]]",diamond,green,hori,left,"[-106,106]","[0,-150]",left,1,0.9828,,,,,,001,2025-03-17_15h07.10.828,SL_sali,2021.2.3,Win32,60.24096386,,,18,0,18,0,1,,,,,,,,
,,"[""diamond"",""green"",""vert"",""up"",[-150,0],[0,150]]",diamond,green,vert,up,"[-150,0]","[0,150]",up,1,0.6638,,,,,,001,2025-03-17_15h07.10.828,SL_sali,2021.2.3,Win32,60.24096386,,,19,0,19,0,1,,,,,,,,
,,"[""diamond"",""green"",""vert"",""up"",[-106,106],[-150,0]]",diamond,green,vert,up,"[-106,106]","[-150,0]",up,1,1.0068,,,,,,001,2025-03-17_15h07.10.828,SL_sali,2021.2.3,Win32,60.24096386,,,20,0,20,0,1,,,,,,,,
,,"[""circle"",""no_dis"",""hori"",""left"",[99999,99999],[150,0]]",circle,no_dis,hori,left,"[99999,99999]","[150,0]",left,1,0.7464,,,,,,001,2025-03-17_15h07.10.828,SL_sali,2021.2.3,Win32,60.24096386,,,21,0,21,0,1,,,,,,,,
,,"[""circle"",""green"",""hori"",""left"",[106,106],[-106,106]]",circle,green,hori,left,"[106,106]","[-106,106]",left,1,0.7665,,,,,,001,2025-03-17_15h07.10.828,SL_sali,2021.2.3,Win32,60.24096386,,,22,0,22,0,1,,,,,,,,
,,"[""circle"",""red"",""vert"",""up"",[-106,106],[150,0]]",circle,red,vert,up,"[-106,106]","[150,0]",up,1,0.8249,,,,,,001,2025-03-17_15h07.10.828,SL_sali,2021.2.3,Win32,60.24096386,,,23,0,23,0,1,,,,,,,,
,,"[""diamond"",""no_dis"",""hori"",""left"",[99999,99999],[150,0]]",diamond,no_dis,hori,left,"[99999,99999]","[150,0]",left,1,0.8855,,,,,,001,2025-03-17_15h07.10.828,SL_sali,2021.2.3,Win32,60.24096386,,,24,0,24,0,1,,,,,,,,
,,"[""diamond"",""green"",""vert"",""up"",[150,0],[106,-106]]",diamond,green,vert,up,"[150,0]","[106,-106]",up,1,1.1995,,,,,,001,2025-03-17_15h07.10.828,SL_sali,2021.2.3,Win32,60.24096386,,,25,0,25,0,1,,,,,,,,
,,"[""diamond"",""no_dis"",""vert"",""up"",[99999,99999],[106,-106]]",diamond,no_dis,vert,up,"[99999,99999]","[106,-106]",up,1,0.6658,,,,,,001,2025-03-17_15h07.10.828,SL_sali,2021.2.3,Win32,60.24096386,,,26,0,26,0,1,,,,,,,,
,,"[""diamond"",""no_dis"",""vert"",""up"",[99999,99999],[-106,-106]]",diamond,no_dis,vert,up,"[99999,99999]","[-106,-106]",up,1,0.8401,,,,,,001,2025-03-17_15h07.10.828,SL_sali,2021.2.3,Win32,60.24096386,,,27,0,27,0,1,,,,,,,,
,,"[""diamond"",""green"",""hori"",""left"",[0,-150],[106,106]]",diamond,green,hori,left,"[0,-150]","[106,106]",left,1,0.6996,,,,,,001,2025-03-17_15h07.10.828,SL_sali,2021.2.3,Win32,60.24096386,,,28,0,28,0,1,,,,,,,,
,,"[""circle"",""red"",""vert"",""up"",[0,-150],[-106,-106]]",circle,red,vert,up,"[0,-150]","[-106,-106]",up,1,0.9994,,,,,,001,2025-03-17_15h07.10.828,SL_sali,2021.2.3,Win32,60.24096386,,,29,0,29,0,1,,,,,,,,
,,"[""circle"",""red"",""vert"",""up"",[106,106],[-150,0]]",circle,red,vert,up,"[106,106]","[-150,0]",up,1,1.1043,,,,,,001,2025-03-17_15h07.10.828,SL_sali,2021.2.3,Win32,60.24096386,,,30,0,30,0,1,,,,,,,,
,,"[""circle"",""green"",""vert"",""up"",[106,106],[-106,106]]",circle,green,vert,up,"[106,106]","[-106,106]",up,1,0.6005,,,,,,001,2025-03-17_15h07.10.828,SL_sali,2021.2.3,Win32,60.24096386,,,31,0,31,0,1,,,,,,,,
,,"[""circle"",""no_dis"",""vert"",""up"",[99999,99999],[-150,0]]",circle,no_dis,vert,up,"[99999,99999]","[-150,0]",up,1,0.6263,,,,,,001,2025-03-17_15h07.10.828,SL_sali,2021.2.3,Win32,60.24096386,,,32,0,32,0,1,,,,,,,,
,,"[""circle"",""red"",""vert"",""up"",[0,-150],[-106,-106]]",circle,red,vert,up,"[0,-150]","[-106,-106]",up,1,0.8166,,,,,,001,2025-03-17_15h07.10.828,SL_sali,2021.2.3,Win32,60.24096386,,,33,0,33,0,1,,,,,,,,
,,"[""circle"",""green"",""hori"",""left"",[0,150],[106,-106]]",circle,green,hori,left,"[0,150]","[106,-106]",left,1,0.616,,,,,,001,2025-03-17_15h07.10.828,SL_sali,2021.2.3,Win32,60.24096386,,,34,0,34,0,1,,,,,,,,
,,"[""diamond"",""red"",""vert"",""up"",[0,-150],[-106,-106]]",diamond,red,vert,up,"[0,-150]","[-106,-106]",up,1,1.0498,,,,,,001,2025-03-17_15h07.10.828,SL_sali,2021.2.3,Win32,60.24096386,,,35,0,35,0,1,,,,,,,,
,,"[""diamond"",""green"",""hori"",""left"",[-150,0],[0,-150]]",diamond,green,hori,left,"[-150,0]","[0,-150]",left,1,1.016,,,,,,001,2025-03-17_15h07.10.828,SL_sali,2021.2.3,Win32,60.24096386,,,36,0,36,0,1,,,,,,,,
,,"[""diamond"",""red"",""hori"",""left"",[0,-150],[0,150]]",diamond,red,hori,left,"[0,-150]","[0,150]",left,1,0.7174,,,,,,001,2025-03-17_15h07.10.828,SL_sali,2021.2.3,Win32,60.24096386,,,37,0,37,0,1,,,,,,,,
,,"[""circle"",""red"",""hori"",""left"",[0,-150],[150,0]]",circle,red,hori,left,"[0,-150]","[150,0]",left,1,0.7546,,,,,,001,2025-03-17_15h07.10.828,SL_sali,2021.2.3,Win32,60.24096386,,,38,0,38,0,1,,,,,,,,
,,"[""diamond"",""no_dis"",""vert"",""up"",[99999,99999],[106,-106]]",diamond,no_dis,vert,up,"[99999,99999]","[106,-106]",up,1,1.0159,,,,,,001,2025-03-17_15h07.10.828,SL_sali,2021.2.3,Win32,60.24096386,,,39,0,39,0,1,,,,,,,,
,,"[""circle"",""red"",""hori"",""left"",[106,106],[0,150]]",circle,red,hori,left,"[106,106]","[0,150]",left,1,0.9587,,,,,,001,2025-03-17_15h07.10.828,SL_sali,2021.2.3,Win32,60.24096386,,,40,0,40,0,1,,,,,,,,
,,"[""diamond"",""green"",""hori"",""left"",[-106,106],[150,0]]",diamond,green,hori,left,"[-106,106]","[150,0]",left,1,1.0966,,,,,,001,2025-03-17_15h07.10.828,SL_sali,2021.2.3,Win32,60.24096386,,,41,0,41,0,1,,,,,,,,
,,"[""diamond"",""red"",""hori"",""left"",[-106,-106],[0,150]]",diamond,red,hori,left,"[-106,-106]","[0,150]",left,1,0.6,,,,,,001,2025-03-17_15h07.10.828,SL_sali,2021.2.3,Win32,60.24096386,,,42,0,42,0,1,,,,,,,,
,,"[""diamond"",""no_dis"",""vert"",""up"",[99999,99999],[0,-150]]",diamond,no_dis,vert,up,"[99999,99999]","[0,-150]",up,1,0.7955,,,,,,001,2025-03-17_15h07.10.828,SL_sali,2021.2.3,Win32,60.24096386,,,43,0,43,0,1,,,,,,,,
,,"[""diamond"",""no_dis"",""hori"",""left"",[99999,99999],[0,150]]",diamond,no_dis,hori,left,"[99999,99999]","[0,150]",left,1,0.6935,,,,,,001,2025-03-17_15h07.10.828,SL_sali,2021.2.3,Win32,60.24096386,,,44,0,44,0,1,,,,,,,,
,,"[""diamond"",""red"",""vert"",""up"",[0,-150],[106,-106]]",diamond,red,vert,up,"[0,-150]","[106,-106]",up,1,0.9535,,,,,,001,2025-03-17_15h07.10.828,SL_sali,2021.2.3,Win32,60.24096386,,,45,0,45,0,1,,,,,,,,
,,"[""circle"",""red"",""hori"",""left"",[0,-150],[-106,-106]]",circle,red,hori,left,"[0,-150]","[-106,-106]",left,1,0.9838,,,,,,001,2025-03-17_15h07.10.828,SL_sali,2021.2.3,Win32,60.24096386,,,46,0,46,0,1,,,,,,,,
,,"[""circle"",""red"",""vert"",""up"",[0,150],[106,106]]",circle,red,vert,up,"[0,150]","[106,106]",up,1,1.4242,,,,,,001,2025-03-17_15h07.10.828,SL_sali,2021.2.3,Win32,60.24096386,,,47,0,47,0,1,,,,,,,,
,,"[""diamond"",""green"",""hori"",""left"",[106,-106],[-106,-106]]",diamond,green,hori,left,"[106,-106]","[-106,-106]",left,1,0.986,,,,,,001,2025-03-17_15h07.10.828,SL_sali,2021.2.3,Win32,60.24096386,,,48,0,48,0,1,,,,,,,,
,,"[""circle"",""green"",""hori"",""left"",[0,-150],[106,106]]",circle,green,hori,left,"[0,-150]","[106,106]",left,1,0.8498,,,,,,001,2025-03-17_15h07.10.828,SL_sali,2021.2.3,Win32,60.24096386,,,49,0,49,0,1,,,,,,,,
,,"[""diamond"",""red"",""hori"",""left"",[0,-150],[150,0]]",diamond,red,hori,left,"[0,-150]","[150,0]",left,1,1.2749,,,,,,001,2025-03-17_15h07.10.828,SL_sali,2021.2.3,Win32,60.24096386,,,50,0,50,0,1,,,,,,,,
,,"[""diamond"",""red"",""hori"",""left"",[-106,-106],[106,-106]]",diamond,red,hori,left,"[-106,-106]","[106,-106]",left,1,0.9704,,,,,,001,2025-03-17_15h07.10.828,SL_sali,2021.2.3,Win32,60.24096386,,,51,0,51,0,1,,,,,,,,
,,"[""diamond"",""green"",""hori"",""left"",[0,150],[106,-106]]",diamond,green,hori,left,"[0,150]","[106,-106]",left,1,1.2143,,,,,,001,2025-03-17_15h07.10.828,SL_sali,2021.2.3,Win32,60.24096386,,,52,0,52,0,1,,,,,,,,
,,"[""circle"",""red"",""vert"",""up"",[-106,106],[0,-150]]",circle,red,vert,up,"[-106,106]","[0,-150]",up,1,0.7824,,,,,,001,2025-03-17_15h07.10.828,SL_sali,2021.2.3,Win32,60.24096386,,,53,0,53,0,1,,,,,,,,
,,"[""diamond"",""red"",""hori"",""left"",[0,150],[106,-106]]",diamond,red,hori,left,"[0,150]","[106,-106]",left,1,0.8349,,,,,,001,2025-03-17_15h07.10.828,SL_sali,2021.2.3,Win32,60.24096386,,,54,0,54,0,1,,,,,,,,
,,"[""circle"",""no_dis"",""hori"",""left"",[99999,99999],[0,150]]",circle,no_dis,hori,left,"[99999,99999]","[0,150]",left,1,1.151,,,,,,001,2025-03-17_15h07.10.828,SL_sali,2021.2.3,Win32,60.24096386,,,55,0,55,0,1,,,,,,,,
,,"[""circle"",""green"",""vert"",""up"",[106,-106],[150,0]]",circle,green,vert,up,"[106,-106]","[150,0]",up,1,0.8332,,,,,,001,2025-03-17_15h07.10.828,SL_sali,2021.2.3,Win32,60.24096386,,,56,0,56,0,1,,,,,,,,
,,"[""circle"",""green"",""hori"",""left"",[0,-150],[-106,-106]]",circle,green,hori,left,"[0,-150]","[-106,-106]",left,1,0.9939,,,,,,001,2025-03-17_15h07.10.828,SL_sali,2021.2.3,Win32,60.24096386,,,57,0,57,0,1,,,,,,,,
,,"[""circle"",""green"",""vert"",""up"",[106,106],[-106,106]]",circle,green,vert,up,"[106,106]","[-106,106]",up,1,0.7663,,,,,,001,2025-03-17_15h07.10.828,SL_sali,2021.2.3,Win32,60.24096386,,,58,0,58,0,1,,,,,,,,
,,"[""diamond"",""no_dis"",""hori"",""left"",[99999,99999],[106,-106]]",diamond,no_dis,hori,left,"[99999,99999]","[106,-106]",left,1,0.7548,,,,,,001,2025-03-17_15h07.10.828,SL_sali,2021.2.3,Win32,60.24096386,,,59,0,59,0,1,,,,,,,,
,,"[""diamond"",""red"",""vert"",""up"",[0,-150],[-106,106]]",diamond,red,vert,up,"[0,-150]","[-106,106]",up,1,0.8415,,,,,,001,2025-03-17_15h07.10.828,SL_sali,2021.2.3,Win32,60.24096386,,,60,0,60,0,1,,,,,,,,
,,"[""circle"",""green"",""vert"",""up"",[-106,106],[150,0]]",circle,green,vert,up,"[-106,106]","[150,0]",up,1,0.8166,,,,,,001,2025-03-17_15h07.10.828,SL_sali,2021.2.3,Win32,60.24096386,,,61,0,61,0,1,,,,,,,,
,,"[""diamond"",""red"",""vert"",""up"",[150,0],[106,106]]",diamond,red,vert,up,"[150,0]","[106,106]",up,1,0.8515,,,,,,001,2025-03-17_15h07.10.828,SL_sali,2021.2.3,Win32,60.24096386,,,62,0,62,0,1,,,,,,,,
,,"[""circle"",""no_dis"",""vert"",""up"",[99999,99999],[-150,0]]",circle,no_dis,vert,up,"[99999,99999]","[-150,0]",up,1,1.0552,,,,,,001,2025-03-17_15h07.10.828,SL_sali,2021.2.3,Win32,60.24096386,,,63,0,63,0,1,,,,,,,,
,,"[""circle"",""red"",""vert"",""up"",[0,150],[-150,0]]",circle,red,vert,up,"[0,150]","[-150,0]",up,1,1.1899,,,,,,001,2025-03-17_15h07.10.828,SL_sali,2021.2.3,Win32,60.24096386,,,64,0,64,0,1,,,,,,,,
,,"[""circle"",""no_dis"",""hori"",""left"",[99999,99999],[106,-106]]",circle,no_dis,hori,left,"[99999,99999]","[106,-106]",left,1,0.6257,,,,,,001,2025-03-17_15h07.10.828,SL_sali,2021.2.3,Win32,60.24096386,,,65,0,65,0,1,,,,,,,,
,,"[""diamond"",""no_dis"",""vert"",""up"",[99999,99999],[0,-150]]",diamond,no_dis,vert,up,"[99999,99999]","[0,-150]",left,0,0.8156,,,,,,001,2025-03-17_15h07.10.828,SL_sali,2021.2.3,Win32,60.24096386,,,66,0,66,0,1,,,,,,,,
,,"[""diamond"",""no_dis"",""vert"",""up"",[99999,99999],[106,106]]",diamond,no_dis,vert,up,"[99999,99999]","[106,106]",up,1,0.9497,,,,,,001,2025-03-17_15h07.10.828,SL_sali,2021.2.3,Win32,60.24096386,,,67,0,67,0,1,,,,,,,,
,,"[""diamond"",""green"",""hori"",""left"",[106,-106],[-106,-106]]",diamond,green,hori,left,"[106,-106]","[-106,-106]",left,1,0.9994,,,,,,001,2025-03-17_15h07.10.828,SL_sali,2021.2.3,Win32,60.24096386,,,68,0,68,0,1,,,,,,,,
,,"[""diamond"",""red"",""hori"",""left"",[106,-106],[-106,-106]]",diamond,red,hori,left,"[106,-106]","[-106,-106]",left,1,0.975,,,,,,001,2025-03-17_15h07.10.828,SL_sali,2021.2.3,Win32,60.24096386,,,69,0,69,0,1,,,,,,,,
,,"[""diamond"",""no_dis"",""hori"",""left"",[99999,99999],[0,150]]",diamond,no_dis,hori,left,"[99999,99999]","[0,150]",left,1,0.6879,,,,,,001,2025-03-17_15h07.10.828,SL_sali,2021.2.3,Win32,60.24096386,,,70,0,70,0,1,,,,,,,,
,,"[""diamond"",""no_dis"",""hori"",""left"",[99999,99999],[0,150]]",diamond,no_dis,hori,left,"[99999,99999]","[0,150]",left,1,0.5855,,,,,,001,2025-03-17_15h07.10.828,SL_sali,2021.2.3,Win32,60.24096386,,,71,0,71,0,1,,,,,,,,
,,"[""circle"",""green"",""hori"",""left"",[106,106],[-150,0]]",circle,green,hori,left,"[106,106]","[-150,0]",left,1,0.7483,,,,,,001,2025-03-17_15h07.10.828,SL_sali,2021.2.3,Win32,60.24096386,,,72,0,72,0,1,,,,,,,,
,,"[""circle"",""no_dis"",""vert"",""up"",[99999,99999],[-106,106]]",circle,no_dis,vert,up,"[99999,99999]","[-106,106]",left,0,0.6514,,,,,,001,2025-03-17_15h07.10.828,SL_sali,2021.2.3,Win32,60.24096386,,,73,0,73,0,1,,,,,,,,
,,"[""diamond"",""red"",""hori"",""left"",[150,0],[106,-106]]",diamond,red,hori,left,"[150,0]","[106,-106]",left,1,1.3703,,,,,,001,2025-03-17_15h07.10.828,SL_sali,2021.2.3,Win32,60.24096386,,,74,0,74,0,1,,,,,,,,
,,"[""diamond"",""green"",""vert"",""up"",[0,-150],[0,150]]",diamond,green,vert,up,"[0,-150]","[0,150]",up,1,0.6831,,,,,,001,2025-03-17_15h07.10.828,SL_sali,2021.2.3,Win32,60.24096386,,,75,0,75,0,1,,,,,,,,
,,"[""diamond"",""no_dis"",""vert"",""up"",[99999,99999],[0,-150]]",diamond,no_dis,vert,up,"[99999,99999]","[0,-150]",up,1,0.617,,,,,,001,2025-03-17_15h07.10.828,SL_sali,2021.2.3,Win32,60.24096386,,,76,0,76,0,1,,,,,,,,
,,"[""diamond"",""red"",""hori"",""left"",[106,-106],[106,106]]",diamond,red,hori,left,"[106,-106]","[106,106]",left,1,1.0826,,,,,,001,2025-03-17_15h07.10.828,SL_sali,2021.2.3,Win32,60.24096386,,,77,0,77,0,1,,,,,,,,
,,"[""diamond"",""red"",""vert"",""up"",[106,-106],[-106,106]]",diamond,red,vert,up,"[106,-106]","[-106,106]",up,1,0.6175,,,,,,001,2025-03-17_15h07.10.828,SL_sali,2021.2.3,Win32,60.24096386,,,78,0,78,0,1,,,,,,,,
,,"[""circle"",""red"",""hori"",""left"",[0,-150],[-150,0]]",circle,red,hori,left,"[0,-150]","[-150,0]",left,1,0.6469,,,,,,001,2025-03-17_15h07.10.828,SL_sali,2021.2.3,Win32,60.24096386,,,79,0,79,0,1,,,,,,,,
,,"[""circle"",""green"",""vert"",""up"",[0,150],[0,-150]]",circle,green,vert,up,"[0,150]","[0,-150]",up,1,0.7774,,,,,,001,2025-03-17_15h07.10.828,SL_sali,2021.2.3,Win32,60.24096386,,,80,0,80,0,1,,,,,,,,
,,"[""diamond"",""green"",""vert"",""up"",[150,0],[-106,-106]]",diamond,green,vert,up,"[150,0]","[-106,-106]",up,1,0.9559,,,,,,001,2025-03-17_15h07.10.828,SL_sali,2021.2.3,Win32,60.24096386,,,81,0,81,0,1,,,,,,,,
,,"[""diamond"",""green"",""hori"",""left"",[-106,106],[106,-106]]",diamond,green,hori,left,"[-106,106]","[106,-106]",left,1,0.7499,,,,,,001,2025-03-17_15h07.10.828,SL_sali,2021.2.3,Win32,60.24096386,,,82,0,82,0,1,,,,,,,,
,,"[""circle"",""green"",""vert"",""up"",[-106,-106],[106,106]]",circle,green,vert,up,"[-106,-106]","[106,106]",up,1,0.9004,,,,,,001,2025-03-17_15h07.10.828,SL_sali,2021.2.3,Win32,60.24096386,,,83,0,83,0,1,,,,,,,,
,,"[""circle"",""no_dis"",""vert"",""up"",[99999,99999],[106,106]]",circle,no_dis,vert,up,"[99999,99999]","[106,106]",up,1,0.9489,,,,,,001,2025-03-17_15h07.10.828,SL_sali,2021.2.3,Win32,60.24096386,,,84,0,84,0,1,,,,,,,,
,,"[""circle"",""green"",""hori"",""left"",[-150,0],[106,106]]",circle,green,hori,left,"[-150,0]","[106,106]",left,1,0.9404,,,,,,001,2025-03-17_15h07.10.828,SL_sali,2021.2.3,Win32,60.24096386,,,85,0,85,0,1,,,,,,,,
,,"[""diamond"",""red"",""vert"",""up"",[0,-150],[-106,-106]]",diamond,red,vert,up,"[0,-150]","[-106,-106]",up,1,0.7813,,,,,,001,2025-03-17_15h07.10.828,SL_sali,2021.2.3,Win32,60.24096386,,,86,0,86,0,1,,,,,,,,
,,"[""diamond"",""no_dis"",""hori"",""left"",[99999,99999],[-106,-106]]",diamond,no_dis,hori,left,"[99999,99999]","[-106,-106]",left,1,0.8998,,,,,,001,2025-03-17_15h07.10.828,SL_sali,2021.2.3,Win32,60.24096386,,,87,0,87,0,1,,,,,,,,
,,"[""circle"",""no_dis"",""vert"",""up"",[99999,99999],[-106,106]]",circle,no_dis,vert,up,"[99999,99999]","[-106,106]",up,1,0.9992,,,,,,001,2025-03-17_15h07.10.828,SL_sali,2021.2.3,Win32,60.24096386,,,88,0,88,0,1,,,,,,,,
,,"[""circle"",""green"",""vert"",""up"",[-150,0],[150,0]]",circle,green,vert,up,"[-150,0]","[150,0]",up,1,0.6524,,,,,,001,2025-03-17_15h07.10.828,SL_sali,2021.2.3,Win32,60.24096386,,,89,0,89,0,1,,,,,,,,
,,"[""circle"",""no_dis"",""hori"",""left"",[99999,99999],[150,0]]",circle,no_dis,hori,left,"[99999,99999]","[150,0]",left,1,0.7331,,,,,,001,2025-03-17_15h07.10.828,SL_sali,2021.2.3,Win32,60.24096386,,,90,0,90,0,1,,,,,,,,
