﻿key_resp.keys,key_resp.rt,trial_para,tar_shape,dis_color_condi,tar_line,cor_resp,dis_loc,tar_loc,resp.keys,resp.corr,trials.thisRepN,trials.thisTrialN,trials.thisN,trials.thisIndex,trials.ran,participant,date,expName,psychopyVersion,OS,frameRate,resp.rt,key_resp_2.keys,key_resp_2.rt,trials_2.thisRepN,trials_2.thisTrialN,trials_2.thisN,trials_2.thisIndex,trials_2.ran,block_num,key_resp_3.keys,key_resp_3.rt,trials_3.thisRepN,trials_3.thisTrialN,trials_3.thisN,trials_3.thisIndex,trials_3.ran
space,15.2553,"[""diamond"",""red"",""hori"",""left"",[-106,106],[106,106]]",diamond,red,hori,left,"[-106,106]","[106,106]",,0,0,0,0,0,1,001,2025-03-11_22h52.49.500,SL_sali,2021.2.3,Win32,60.24096386,,,,,,,,,,,,,,,,
,,"[""circle"",""red"",""hori"",""left"",[0,150],[106,-106]]",circle,red,hori,left,"[0,150]","[106,-106]",left,1,1,0,1,0,1,001,2025-03-11_22h52.49.500,SL_sali,2021.2.3,Win32,60.24096386,1.0466,,,,,,,,,,,,,,,
,,"[""circle"",""no_dis"",""vert"",""up"",[99999,99999],[-106,106]]",circle,no_dis,vert,up,"[99999,99999]","[-106,106]",up,1,2,0,2,0,1,001,2025-03-11_22h52.49.500,SL_sali,2021.2.3,Win32,60.24096386,1.0155,,,,,,,,,,,,,,,
,,"[""diamond"",""green"",""hori"",""left"",[0,150],[150,0]]",diamond,green,hori,left,"[0,150]","[150,0]",left,1,3,0,3,0,1,001,2025-03-11_22h52.49.500,SL_sali,2021.2.3,Win32,60.24096386,1.2806,,,,,,,,,,,,,,,
,,"[""circle"",""no_dis"",""vert"",""up"",[99999,99999],[0,-150]]",circle,no_dis,vert,up,"[99999,99999]","[0,-150]",up,1,4,0,4,0,1,001,2025-03-11_22h52.49.500,SL_sali,2021.2.3,Win32,60.24096386,2.0502,,,,,,,,,,,,,,,
,,"[""circle"",""red"",""vert"",""up"",[0,-150],[0,150]]",circle,red,vert,up,"[0,-150]","[0,150]",up,1,5,0,5,0,1,001,2025-03-11_22h52.49.500,SL_sali,2021.2.3,Win32,60.24096386,2.6995,,,,,,,,,,,,,,,
,,"[""circle"",""no_dis"",""hori"",""left"",[99999,99999],[106,-106]]",circle,no_dis,hori,left,"[99999,99999]","[106,-106]",left,1,6,0,6,0,1,001,2025-03-11_22h52.49.500,SL_sali,2021.2.3,Win32,60.24096386,1.1642,,,,,,,,,,,,,,,
,,"[""circle"",""no_dis"",""vert"",""up"",[99999,99999],[0,150]]",circle,no_dis,vert,up,"[99999,99999]","[0,150]",left,0,7,0,7,0,1,001,2025-03-11_22h52.49.500,SL_sali,2021.2.3,Win32,60.24096386,1.7596,,,,,,,,,,,,,,,
,,"[""circle"",""green"",""vert"",""up"",[0,150],[-106,106]]",circle,green,vert,up,"[0,150]","[-106,106]",up,1,8,0,8,0,1,001,2025-03-11_22h52.49.500,SL_sali,2021.2.3,Win32,60.24096386,1.6751,,,,,,,,,,,,,,,
,,"[""circle"",""red"",""hori"",""left"",[0,150],[-106,-106]]",circle,red,hori,left,"[0,150]","[-106,-106]",left,1,9,0,9,0,1,001,2025-03-11_22h52.49.500,SL_sali,2021.2.3,Win32,60.24096386,1.3362,,,,,,,,,,,,,,,
,,"[""diamond"",""red"",""hori"",""left"",[-106,106],[106,106]]",diamond,red,hori,left,"[-106,106]","[106,106]",left,1,,,,,,001,2025-03-11_22h52.49.500,SL_sali,2021.2.3,Win32,60.24096386,1.2657,space,5.1067,0,0,0,0,1,,,,,,,,
,,"[""circle"",""red"",""hori"",""left"",[0,150],[106,-106]]",circle,red,hori,left,"[0,150]","[106,-106]",left,1,,,,,,001,2025-03-11_22h52.49.500,SL_sali,2021.2.3,Win32,60.24096386,1.5297,,,1,0,1,0,1,,,,,,,,
,,"[""circle"",""no_dis"",""vert"",""up"",[99999,99999],[-106,106]]",circle,no_dis,vert,up,"[99999,99999]","[-106,106]",up,1,,,,,,001,2025-03-11_22h52.49.500,SL_sali,2021.2.3,Win32,60.24096386,0.933,,,2,0,2,0,1,,,,,,,,
,,"[""diamond"",""green"",""hori"",""left"",[0,150],[150,0]]",diamond,green,hori,left,"[0,150]","[150,0]",left,1,,,,,,001,2025-03-11_22h52.49.500,SL_sali,2021.2.3,Win32,60.24096386,1.8603,,,3,0,3,0,1,,,,,,,,
,,"[""circle"",""no_dis"",""vert"",""up"",[99999,99999],[0,-150]]",circle,no_dis,vert,up,"[99999,99999]","[0,-150]",up,1,,,,,,001,2025-03-11_22h52.49.500,SL_sali,2021.2.3,Win32,60.24096386,1.4266,,,4,0,4,0,1,,,,,,,,
,,"[""circle"",""red"",""vert"",""up"",[0,-150],[0,150]]",circle,red,vert,up,"[0,-150]","[0,150]",left,0,,,,,,001,2025-03-11_22h52.49.500,SL_sali,2021.2.3,Win32,60.24096386,1.4795,,,5,0,5,0,1,,,,,,,,
,,"[""circle"",""no_dis"",""hori"",""left"",[99999,99999],[106,-106]]",circle,no_dis,hori,left,"[99999,99999]","[106,-106]",left,1,,,,,,001,2025-03-11_22h52.49.500,SL_sali,2021.2.3,Win32,60.24096386,1.194,,,6,0,6,0,1,,,,,,,,
,,"[""circle"",""no_dis"",""vert"",""up"",[99999,99999],[0,150]]",circle,no_dis,vert,up,"[99999,99999]","[0,150]",up,1,,,,,,001,2025-03-11_22h52.49.500,SL_sali,2021.2.3,Win32,60.24096386,2.9644,,,7,0,7,0,1,,,,,,,,
,,"[""circle"",""green"",""vert"",""up"",[0,150],[-106,106]]",circle,green,vert,up,"[0,150]","[-106,106]",up,1,,,,,,001,2025-03-11_22h52.49.500,SL_sali,2021.2.3,Win32,60.24096386,1.1582,,,8,0,8,0,1,,,,,,,,
,,"[""circle"",""red"",""hori"",""left"",[0,150],[-106,-106]]",circle,red,hori,left,"[0,150]","[-106,-106]",left,1,,,,,,001,2025-03-11_22h52.49.500,SL_sali,2021.2.3,Win32,60.24096386,1.3902,,,9,0,9,0,1,,,,,,,,
,,"[""circle"",""green"",""hori"",""left"",[-106,-106],[0,150]]",circle,green,hori,left,"[-106,-106]","[0,150]",left,1,,,,,,001,2025-03-11_22h52.49.500,SL_sali,2021.2.3,Win32,60.24096386,1.3532,,,10,0,10,0,1,,,,,,,,
,,"[""diamond"",""no_dis"",""hori"",""left"",[99999,99999],[150,0]]",diamond,no_dis,hori,left,"[99999,99999]","[150,0]",left,1,,,,,,001,2025-03-11_22h52.49.500,SL_sali,2021.2.3,Win32,60.24096386,1.2704,,,11,0,11,0,1,,,,,,,,
,,"[""circle"",""no_dis"",""vert"",""up"",[99999,99999],[106,-106]]",circle,no_dis,vert,up,"[99999,99999]","[106,-106]",up,1,,,,,,001,2025-03-11_22h52.49.500,SL_sali,2021.2.3,Win32,60.24096386,0.9368,,,12,0,12,0,1,,,,,,,,
,,"[""circle"",""red"",""hori"",""left"",[-150,0],[-106,-106]]",circle,red,hori,left,"[-150,0]","[-106,-106]",up,0,,,,,,001,2025-03-11_22h52.49.500,SL_sali,2021.2.3,Win32,60.24096386,1.3961,,,13,0,13,0,1,,,,,,,,
,,"[""circle"",""red"",""hori"",""left"",[150,0],[0,150]]",circle,red,hori,left,"[150,0]","[0,150]",up,0,,,,,,001,2025-03-11_22h52.49.500,SL_sali,2021.2.3,Win32,60.24096386,1.4819,,,14,0,14,0,1,,,,,,,,
,,"[""diamond"",""green"",""vert"",""up"",[150,0],[-150,0]]",diamond,green,vert,up,"[150,0]","[-150,0]",up,1,,,,,,001,2025-03-11_22h52.49.500,SL_sali,2021.2.3,Win32,60.24096386,1.352,,,15,0,15,0,1,,,,,,,,
,,"[""circle"",""no_dis"",""vert"",""up"",[99999,99999],[106,106]]",circle,no_dis,vert,up,"[99999,99999]","[106,106]",up,1,,,,,,001,2025-03-11_22h52.49.500,SL_sali,2021.2.3,Win32,60.24096386,1.7016,,,16,0,16,0,1,,,,,,,,
,,"[""circle"",""green"",""hori"",""left"",[0,150],[-106,106]]",circle,green,hori,left,"[0,150]","[-106,106]",left,1,,,,,,001,2025-03-11_22h52.49.500,SL_sali,2021.2.3,Win32,60.24096386,1.9055,,,17,0,17,0,1,,,,,,,,
,,"[""circle"",""red"",""hori"",""left"",[-106,106],[0,-150]]",circle,red,hori,left,"[-106,106]","[0,-150]",left,1,,,,,,001,2025-03-11_22h52.49.500,SL_sali,2021.2.3,Win32,60.24096386,1.2338,,,18,0,18,0,1,,,,,,,,
,,"[""diamond"",""red"",""vert"",""up"",[-106,106],[106,-106]]",diamond,red,vert,up,"[-106,106]","[106,-106]",up,1,,,,,,001,2025-03-11_22h52.49.500,SL_sali,2021.2.3,Win32,60.24096386,1.4156,,,19,0,19,0,1,,,,,,,,
,,"[""circle"",""red"",""hori"",""left"",[0,150],[106,-106]]",circle,red,hori,left,"[0,150]","[106,-106]",left,1,,,,,,001,2025-03-11_22h52.49.500,SL_sali,2021.2.3,Win32,60.24096386,1.7535,,,20,0,20,0,1,,,,,,,,
,,"[""circle"",""no_dis"",""vert"",""up"",[99999,99999],[-106,-106]]",circle,no_dis,vert,up,"[99999,99999]","[-106,-106]",up,1,,,,,,001,2025-03-11_22h52.49.500,SL_sali,2021.2.3,Win32,60.24096386,1.1216,,,21,0,21,0,1,,,,,,,,
,,"[""diamond"",""red"",""hori"",""left"",[150,0],[-150,0]]",diamond,red,hori,left,"[150,0]","[-150,0]",left,1,,,,,,001,2025-03-11_22h52.49.500,SL_sali,2021.2.3,Win32,60.24096386,2.3384,,,22,0,22,0,1,,,,,,,,
,,"[""diamond"",""no_dis"",""vert"",""up"",[99999,99999],[-106,106]]",diamond,no_dis,vert,up,"[99999,99999]","[-106,106]",up,1,,,,,,001,2025-03-11_22h52.49.500,SL_sali,2021.2.3,Win32,60.24096386,0.9148,,,23,0,23,0,1,,,,,,,,
,,"[""circle"",""green"",""vert"",""up"",[150,0],[0,-150]]",circle,green,vert,up,"[150,0]","[0,-150]",left,0,,,,,,001,2025-03-11_22h52.49.500,SL_sali,2021.2.3,Win32,60.24096386,1.9032,,,24,0,24,0,1,,,,,,,,
,,"[""circle"",""red"",""vert"",""up"",[106,106],[-150,0]]",circle,red,vert,up,"[106,106]","[-150,0]",up,1,,,,,,001,2025-03-11_22h52.49.500,SL_sali,2021.2.3,Win32,60.24096386,1.5591,,,25,0,25,0,1,,,,,,,,
,,"[""circle"",""red"",""vert"",""up"",[-106,-106],[-150,0]]",circle,red,vert,up,"[-106,-106]","[-150,0]",up,1,,,,,,001,2025-03-11_22h52.49.500,SL_sali,2021.2.3,Win32,60.24096386,1.8483,,,26,0,26,0,1,,,,,,,,
,,"[""circle"",""red"",""vert"",""up"",[-106,-106],[0,150]]",circle,red,vert,up,"[-106,-106]","[0,150]",up,1,,,,,,001,2025-03-11_22h52.49.500,SL_sali,2021.2.3,Win32,60.24096386,1.5306,,,27,0,27,0,1,,,,,,,,
,,"[""diamond"",""red"",""vert"",""up"",[-106,106],[106,-106]]",diamond,red,vert,up,"[-106,106]","[106,-106]",up,1,,,,,,001,2025-03-11_22h52.49.500,SL_sali,2021.2.3,Win32,60.24096386,1.1745,,,28,0,28,0,1,,,,,,,,
,,"[""circle"",""no_dis"",""hori"",""left"",[99999,99999],[0,150]]",circle,no_dis,hori,left,"[99999,99999]","[0,150]",left,1,,,,,,001,2025-03-11_22h52.49.500,SL_sali,2021.2.3,Win32,60.24096386,1.2019,,,29,0,29,0,1,,,,,,,,
,,"[""circle"",""green"",""vert"",""up"",[106,106],[106,-106]]",circle,green,vert,up,"[106,106]","[106,-106]",up,1,,,,,,001,2025-03-11_22h52.49.500,SL_sali,2021.2.3,Win32,60.24096386,2.1522,,,30,0,30,0,1,,,,,,,,
,,"[""diamond"",""red"",""hori"",""left"",[0,150],[150,0]]",diamond,red,hori,left,"[0,150]","[150,0]",left,1,,,,,,001,2025-03-11_22h52.49.500,SL_sali,2021.2.3,Win32,60.24096386,1.168,,,31,0,31,0,1,,,,,,,,
,,"[""diamond"",""no_dis"",""hori"",""left"",[99999,99999],[0,150]]",diamond,no_dis,hori,left,"[99999,99999]","[0,150]",left,1,,,,,,001,2025-03-11_22h52.49.500,SL_sali,2021.2.3,Win32,60.24096386,1.2476,,,32,0,32,0,1,,,,,,,,
,,"[""diamond"",""green"",""hori"",""left"",[106,-106],[106,106]]",diamond,green,hori,left,"[106,-106]","[106,106]",left,1,,,,,,001,2025-03-11_22h52.49.500,SL_sali,2021.2.3,Win32,60.24096386,2.1704,,,33,0,33,0,1,,,,,,,,
,,"[""circle"",""green"",""vert"",""up"",[-106,-106],[-150,0]]",circle,green,vert,up,"[-106,-106]","[-150,0]",left,0,,,,,,001,2025-03-11_22h52.49.500,SL_sali,2021.2.3,Win32,60.24096386,2.4643,,,34,0,34,0,1,,,,,,,,
,,"[""diamond"",""green"",""vert"",""up"",[106,-106],[-106,-106]]",diamond,green,vert,up,"[106,-106]","[-106,-106]",left,0,,,,,,001,2025-03-11_22h52.49.500,SL_sali,2021.2.3,Win32,60.24096386,2.1823,,,35,0,35,0,1,,,,,,,,
,,"[""diamond"",""green"",""vert"",""up"",[-106,106],[-106,-106]]",diamond,green,vert,up,"[-106,106]","[-106,-106]",up,1,,,,,,001,2025-03-11_22h52.49.500,SL_sali,2021.2.3,Win32,60.24096386,1.233,,,36,0,36,0,1,,,,,,,,
,,"[""diamond"",""red"",""hori"",""left"",[-150,0],[0,150]]",diamond,red,hori,left,"[-150,0]","[0,150]",left,1,,,,,,001,2025-03-11_22h52.49.500,SL_sali,2021.2.3,Win32,60.24096386,1.2892,,,37,0,37,0,1,,,,,,,,
,,"[""circle"",""green"",""hori"",""left"",[106,-106],[150,0]]",circle,green,hori,left,"[106,-106]","[150,0]",left,1,,,,,,001,2025-03-11_22h52.49.500,SL_sali,2021.2.3,Win32,60.24096386,1.7662,,,38,0,38,0,1,,,,,,,,
,,"[""circle"",""green"",""vert"",""up"",[-150,0],[0,150]]",circle,green,vert,up,"[-150,0]","[0,150]",up,1,,,,,,001,2025-03-11_22h52.49.500,SL_sali,2021.2.3,Win32,60.24096386,1.3977,,,39,0,39,0,1,,,,,,,,
,,"[""diamond"",""no_dis"",""hori"",""left"",[99999,99999],[-150,0]]",diamond,no_dis,hori,left,"[99999,99999]","[-150,0]",left,1,,,,,,001,2025-03-11_22h52.49.500,SL_sali,2021.2.3,Win32,60.24096386,1.5974,,,40,0,40,0,1,,,,,,,,
,,"[""circle"",""red"",""hori"",""left"",[0,150],[106,106]]",circle,red,hori,left,"[0,150]","[106,106]",left,1,,,,,,001,2025-03-11_22h52.49.500,SL_sali,2021.2.3,Win32,60.24096386,1.35,,,41,0,41,0,1,,,,,,,,
,,"[""diamond"",""no_dis"",""vert"",""up"",[99999,99999],[106,106]]",diamond,no_dis,vert,up,"[99999,99999]","[106,106]",up,1,,,,,,001,2025-03-11_22h52.49.500,SL_sali,2021.2.3,Win32,60.24096386,1.5903,,,42,0,42,0,1,,,,,,,,
,,"[""circle"",""no_dis"",""vert"",""up"",[99999,99999],[-106,-106]]",circle,no_dis,vert,up,"[99999,99999]","[-106,-106]",up,1,,,,,,001,2025-03-11_22h52.49.500,SL_sali,2021.2.3,Win32,60.24096386,1.4333,,,43,0,43,0,1,,,,,,,,
,,"[""diamond"",""green"",""hori"",""left"",[0,150],[-106,106]]",diamond,green,hori,left,"[0,150]","[-106,106]",left,1,,,,,,001,2025-03-11_22h52.49.500,SL_sali,2021.2.3,Win32,60.24096386,2.0252,,,44,0,44,0,1,,,,,,,,
,,"[""circle"",""red"",""hori"",""left"",[106,-106],[0,150]]",circle,red,hori,left,"[106,-106]","[0,150]",left,1,,,,,,001,2025-03-11_22h52.49.500,SL_sali,2021.2.3,Win32,60.24096386,1.5853,,,45,0,45,0,1,,,,,,,,
,,"[""circle"",""red"",""hori"",""left"",[0,150],[-106,-106]]",circle,red,hori,left,"[0,150]","[-106,-106]",left,1,,,,,,001,2025-03-11_22h52.49.500,SL_sali,2021.2.3,Win32,60.24096386,1.887,,,46,0,46,0,1,,,,,,,,
,,"[""circle"",""green"",""hori"",""left"",[0,150],[0,-150]]",circle,green,hori,left,"[0,150]","[0,-150]",left,1,,,,,,001,2025-03-11_22h52.49.500,SL_sali,2021.2.3,Win32,60.24096386,1.1632,,,47,0,47,0,1,,,,,,,,
,,"[""circle"",""no_dis"",""hori"",""left"",[99999,99999],[0,-150]]",circle,no_dis,hori,left,"[99999,99999]","[0,-150]",left,1,,,,,,001,2025-03-11_22h52.49.500,SL_sali,2021.2.3,Win32,60.24096386,0.784,,,48,0,48,0,1,,,,,,,,
,,"[""diamond"",""no_dis"",""vert"",""up"",[99999,99999],[0,150]]",diamond,no_dis,vert,up,"[99999,99999]","[0,150]",up,1,,,,,,001,2025-03-11_22h52.49.500,SL_sali,2021.2.3,Win32,60.24096386,0.9994,,,49,0,49,0,1,,,,,,,,
,,"[""circle"",""green"",""vert"",""up"",[0,-150],[-106,-106]]",circle,green,vert,up,"[0,-150]","[-106,-106]",up,1,,,,,,001,2025-03-11_22h52.49.500,SL_sali,2021.2.3,Win32,60.24096386,1.3505,,,50,0,50,0,1,,,,,,,,
,,"[""circle"",""green"",""hori"",""left"",[0,150],[-106,106]]",circle,green,hori,left,"[0,150]","[-106,106]",left,1,,,,,,001,2025-03-11_22h52.49.500,SL_sali,2021.2.3,Win32,60.24096386,0.7662,,,51,0,51,0,1,,,,,,,,
,,"[""diamond"",""red"",""vert"",""up"",[0,-150],[106,106]]",diamond,red,vert,up,"[0,-150]","[106,106]",up,1,,,,,,001,2025-03-11_22h52.49.500,SL_sali,2021.2.3,Win32,60.24096386,0.868,,,52,0,52,0,1,,,,,,,,
,,"[""diamond"",""green"",""vert"",""up"",[-150,0],[-106,-106]]",diamond,green,vert,up,"[-150,0]","[-106,-106]",up,1,,,,,,001,2025-03-11_22h52.49.500,SL_sali,2021.2.3,Win32,60.24096386,1.9149,,,53,0,53,0,1,,,,,,,,
,,"[""circle"",""green"",""vert"",""up"",[0,-150],[106,-106]]",circle,green,vert,up,"[0,-150]","[106,-106]",up,1,,,,,,001,2025-03-11_22h52.49.500,SL_sali,2021.2.3,Win32,60.24096386,1.5368,,,54,0,54,0,1,,,,,,,,
,,"[""diamond"",""no_dis"",""hori"",""left"",[99999,99999],[150,0]]",diamond,no_dis,hori,left,"[99999,99999]","[150,0]",left,1,,,,,,001,2025-03-11_22h52.49.500,SL_sali,2021.2.3,Win32,60.24096386,1.0055,,,55,0,55,0,1,,,,,,,,
,,"[""circle"",""green"",""vert"",""up"",[150,0],[0,150]]",circle,green,vert,up,"[150,0]","[0,150]",up,1,,,,,,001,2025-03-11_22h52.49.500,SL_sali,2021.2.3,Win32,60.24096386,1.6373,,,56,0,56,0,1,,,,,,,,
,,"[""diamond"",""no_dis"",""hori"",""left"",[99999,99999],[-150,0]]",diamond,no_dis,hori,left,"[99999,99999]","[-150,0]",up,0,,,,,,001,2025-03-11_22h52.49.500,SL_sali,2021.2.3,Win32,60.24096386,1.8374,,,57,0,57,0,1,,,,,,,,
,,"[""circle"",""green"",""vert"",""up"",[-106,106],[0,-150]]",circle,green,vert,up,"[-106,106]","[0,-150]",up,1,,,,,,001,2025-03-11_22h52.49.500,SL_sali,2021.2.3,Win32,60.24096386,1.4042,,,58,0,58,0,1,,,,,,,,
,,"[""diamond"",""green"",""vert"",""up"",[106,-106],[150,0]]",diamond,green,vert,up,"[106,-106]","[150,0]",left,0,,,,,,001,2025-03-11_22h52.49.500,SL_sali,2021.2.3,Win32,60.24096386,1.8909,,,59,0,59,0,1,,,,,,,,
,,"[""diamond"",""green"",""hori"",""left"",[-150,0],[0,-150]]",diamond,green,hori,left,"[-150,0]","[0,-150]",left,1,,,,,,001,2025-03-11_22h52.49.500,SL_sali,2021.2.3,Win32,60.24096386,1.7718,,,60,0,60,0,1,,,,,,,,
,,"[""diamond"",""no_dis"",""vert"",""up"",[99999,99999],[-106,-106]]",diamond,no_dis,vert,up,"[99999,99999]","[-106,-106]",up,1,,,,,,001,2025-03-11_22h52.49.500,SL_sali,2021.2.3,Win32,60.24096386,1.0826,,,61,0,61,0,1,,,,,,,,
,,"[""diamond"",""green"",""hori"",""left"",[0,150],[-106,106]]",diamond,green,hori,left,"[0,150]","[-106,106]",left,1,,,,,,001,2025-03-11_22h52.49.500,SL_sali,2021.2.3,Win32,60.24096386,1.3207,,,62,0,62,0,1,,,,,,,,
,,"[""diamond"",""green"",""hori"",""left"",[-106,-106],[0,-150]]",diamond,green,hori,left,"[-106,-106]","[0,-150]",left,1,,,,,,001,2025-03-11_22h52.49.500,SL_sali,2021.2.3,Win32,60.24096386,1.1865,,,63,0,63,0,1,,,,,,,,
,,"[""diamond"",""no_dis"",""vert"",""up"",[99999,99999],[-106,106]]",diamond,no_dis,vert,up,"[99999,99999]","[-106,106]",up,1,,,,,,001,2025-03-11_22h52.49.500,SL_sali,2021.2.3,Win32,60.24096386,1.7654,,,64,0,64,0,1,,,,,,,,
,,"[""diamond"",""no_dis"",""hori"",""left"",[99999,99999],[150,0]]",diamond,no_dis,hori,left,"[99999,99999]","[150,0]",left,1,,,,,,001,2025-03-11_22h52.49.500,SL_sali,2021.2.3,Win32,60.24096386,0.9743,,,65,0,65,0,1,,,,,,,,
,,"[""diamond"",""no_dis"",""hori"",""left"",[99999,99999],[-150,0]]",diamond,no_dis,hori,left,"[99999,99999]","[-150,0]",left,1,,,,,,001,2025-03-11_22h52.49.500,SL_sali,2021.2.3,Win32,60.24096386,1.1042,,,66,0,66,0,1,,,,,,,,
,,"[""diamond"",""no_dis"",""vert"",""up"",[99999,99999],[0,-150]]",diamond,no_dis,vert,up,"[99999,99999]","[0,-150]",up,1,,,,,,001,2025-03-11_22h52.49.500,SL_sali,2021.2.3,Win32,60.24096386,1.1706,,,67,0,67,0,1,,,,,,,,
,,"[""diamond"",""no_dis"",""vert"",""up"",[99999,99999],[0,-150]]",diamond,no_dis,vert,up,"[99999,99999]","[0,-150]",up,1,,,,,,001,2025-03-11_22h52.49.500,SL_sali,2021.2.3,Win32,60.24096386,1.3013,,,68,0,68,0,1,,,,,,,,
,,"[""circle"",""no_dis"",""vert"",""up"",[99999,99999],[106,-106]]",circle,no_dis,vert,up,"[99999,99999]","[106,-106]",up,1,,,,,,001,2025-03-11_22h52.49.500,SL_sali,2021.2.3,Win32,60.24096386,1.3165,,,69,0,69,0,1,,,,,,,,
,,"[""circle"",""green"",""hori"",""left"",[106,106],[-106,106]]",circle,green,hori,left,"[106,106]","[-106,106]",up,0,,,,,,001,2025-03-11_22h52.49.500,SL_sali,2021.2.3,Win32,60.24096386,1.6685,,,70,0,70,0,1,,,,,,,,
,,"[""diamond"",""red"",""vert"",""up"",[0,150],[150,0]]",diamond,red,vert,up,"[0,150]","[150,0]",up,1,,,,,,001,2025-03-11_22h52.49.500,SL_sali,2021.2.3,Win32,60.24096386,1.3908,,,71,0,71,0,1,,,,,,,,
,,"[""diamond"",""red"",""vert"",""up"",[0,150],[-106,106]]",diamond,red,vert,up,"[0,150]","[-106,106]",up,1,,,,,,001,2025-03-11_22h52.49.500,SL_sali,2021.2.3,Win32,60.24096386,1.3644,,,72,0,72,0,1,,,,,,,,
,,"[""diamond"",""red"",""hori"",""left"",[106,106],[0,150]]",diamond,red,hori,left,"[106,106]","[0,150]",left,1,,,,,,001,2025-03-11_22h52.49.500,SL_sali,2021.2.3,Win32,60.24096386,0.9239,,,73,0,73,0,1,,,,,,,,
,,"[""diamond"",""no_dis"",""vert"",""up"",[99999,99999],[0,150]]",diamond,no_dis,vert,up,"[99999,99999]","[0,150]",up,1,,,,,,001,2025-03-11_22h52.49.500,SL_sali,2021.2.3,Win32,60.24096386,1.8167,,,74,0,74,0,1,,,,,,,,
,,"[""diamond"",""green"",""hori"",""left"",[-106,106],[106,-106]]",diamond,green,hori,left,"[-106,106]","[106,-106]",left,1,,,,,,001,2025-03-11_22h52.49.500,SL_sali,2021.2.3,Win32,60.24096386,1.1927,,,75,0,75,0,1,,,,,,,,
,,"[""circle"",""red"",""hori"",""left"",[106,-106],[150,0]]",circle,red,hori,left,"[106,-106]","[150,0]",left,1,,,,,,001,2025-03-11_22h52.49.500,SL_sali,2021.2.3,Win32,60.24096386,1.7081,,,76,0,76,0,1,,,,,,,,
,,"[""circle"",""red"",""vert"",""up"",[-106,106],[150,0]]",circle,red,vert,up,"[-106,106]","[150,0]",up,1,,,,,,001,2025-03-11_22h52.49.500,SL_sali,2021.2.3,Win32,60.24096386,1.6049,,,77,0,77,0,1,,,,,,,,
,,"[""diamond"",""no_dis"",""vert"",""up"",[99999,99999],[-150,0]]",diamond,no_dis,vert,up,"[99999,99999]","[-150,0]",up,1,,,,,,001,2025-03-11_22h52.49.500,SL_sali,2021.2.3,Win32,60.24096386,1.1998,,,78,0,78,0,1,,,,,,,,
,,"[""circle"",""green"",""hori"",""left"",[0,150],[-106,-106]]",circle,green,hori,left,"[0,150]","[-106,-106]",left,1,,,,,,001,2025-03-11_22h52.49.500,SL_sali,2021.2.3,Win32,60.24096386,1.029,,,79,0,79,0,1,,,,,,,,
,,"[""circle"",""red"",""vert"",""up"",[-106,-106],[106,106]]",circle,red,vert,up,"[-106,-106]","[106,106]",left,0,,,,,,001,2025-03-11_22h52.49.500,SL_sali,2021.2.3,Win32,60.24096386,1.426,,,80,0,80,0,1,,,,,,,,
,,"[""circle"",""no_dis"",""vert"",""up"",[99999,99999],[106,106]]",circle,no_dis,vert,up,"[99999,99999]","[106,106]",up,1,,,,,,001,2025-03-11_22h52.49.500,SL_sali,2021.2.3,Win32,60.24096386,1.4181,,,81,0,81,0,1,,,,,,,,
,,"[""circle"",""green"",""hori"",""left"",[0,150],[-106,-106]]",circle,green,hori,left,"[0,150]","[-106,-106]",up,0,,,,,,001,2025-03-11_22h52.49.500,SL_sali,2021.2.3,Win32,60.24096386,1.4443,,,82,0,82,0,1,,,,,,,,
,,"[""diamond"",""red"",""vert"",""up"",[106,-106],[106,106]]",diamond,red,vert,up,"[106,-106]","[106,106]",left,0,,,,,,001,2025-03-11_22h52.49.500,SL_sali,2021.2.3,Win32,60.24096386,1.0871,,,83,0,83,0,1,,,,,,,,
,,"[""diamond"",""red"",""hori"",""left"",[0,150],[150,0]]",diamond,red,hori,left,"[0,150]","[150,0]",left,1,,,,,,001,2025-03-11_22h52.49.500,SL_sali,2021.2.3,Win32,60.24096386,1.784,,,84,0,84,0,1,,,,,,,,
,,"[""diamond"",""green"",""hori"",""left"",[150,0],[0,150]]",diamond,green,hori,left,"[150,0]","[0,150]",left,1,,,,,,001,2025-03-11_22h52.49.500,SL_sali,2021.2.3,Win32,60.24096386,1.0368,,,85,0,85,0,1,,,,,,,,
,,"[""diamond"",""red"",""hori"",""left"",[106,106],[0,-150]]",diamond,red,hori,left,"[106,106]","[0,-150]",left,1,,,,,,001,2025-03-11_22h52.49.500,SL_sali,2021.2.3,Win32,60.24096386,1.1299,,,86,0,86,0,1,,,,,,,,
,,"[""diamond"",""no_dis"",""hori"",""left"",[99999,99999],[150,0]]",diamond,no_dis,hori,left,"[99999,99999]","[150,0]",left,1,,,,,,001,2025-03-11_22h52.49.500,SL_sali,2021.2.3,Win32,60.24096386,1.2985,,,87,0,87,0,1,,,,,,,,
,,"[""diamond"",""green"",""vert"",""up"",[106,106],[0,150]]",diamond,green,vert,up,"[106,106]","[0,150]",up,1,,,,,,001,2025-03-11_22h52.49.500,SL_sali,2021.2.3,Win32,60.24096386,0.9218,,,88,0,88,0,1,,,,,,,,
,,"[""circle"",""green"",""vert"",""up"",[-150,0],[0,-150]]",circle,green,vert,up,"[-150,0]","[0,-150]",up,1,,,,,,001,2025-03-11_22h52.49.500,SL_sali,2021.2.3,Win32,60.24096386,1.7548,,,89,0,89,0,1,,,,,,,,
,,"[""circle"",""red"",""vert"",""up"",[106,106],[-150,0]]",circle,red,vert,up,"[106,106]","[-150,0]",left,0,,,,,,001,2025-03-11_22h52.49.500,SL_sali,2021.2.3,Win32,60.24096386,0.8468,,,90,0,90,0,1,,,,,,,,
,,"[""diamond"",""red"",""vert"",""up"",[0,150],[0,-150]]",diamond,red,vert,up,"[0,150]","[0,-150]",up,1,,,,,,001,2025-03-11_22h52.49.500,SL_sali,2021.2.3,Win32,60.24096386,1.5462,,,91,0,91,0,1,,,,,,,,
,,"[""diamond"",""green"",""vert"",""up"",[106,-106],[0,150]]",diamond,green,vert,up,"[106,-106]","[0,150]",up,1,,,,,,001,2025-03-11_22h52.49.500,SL_sali,2021.2.3,Win32,60.24096386,1.1321,,,92,0,92,0,1,,,,,,,,
,,"[""circle"",""no_dis"",""hori"",""left"",[99999,99999],[-106,-106]]",circle,no_dis,hori,left,"[99999,99999]","[-106,-106]",left,1,,,,,,001,2025-03-11_22h52.49.500,SL_sali,2021.2.3,Win32,60.24096386,1.606,,,93,0,93,0,1,,,,,,,,
,,"[""circle"",""no_dis"",""hori"",""left"",[99999,99999],[106,-106]]",circle,no_dis,hori,left,"[99999,99999]","[106,-106]",left,1,,,,,,001,2025-03-11_22h52.49.500,SL_sali,2021.2.3,Win32,60.24096386,1.063,,,94,0,94,0,1,,,,,,,,
,,"[""circle"",""no_dis"",""hori"",""left"",[99999,99999],[-106,-106]]",circle,no_dis,hori,left,"[99999,99999]","[-106,-106]",left,1,,,,,,001,2025-03-11_22h52.49.500,SL_sali,2021.2.3,Win32,60.24096386,1.2827,,,95,0,95,0,1,,,,,,,,
,,"[""diamond"",""no_dis"",""hori"",""left"",[99999,99999],[-106,106]]",diamond,no_dis,hori,left,"[99999,99999]","[-106,106]",left,1,,,,,,001,2025-03-11_22h52.49.500,SL_sali,2021.2.3,Win32,60.24096386,1.3004,,,96,0,96,0,1,,,,,,,,
,,"[""diamond"",""red"",""hori"",""left"",[150,0],[106,-106]]",diamond,red,hori,left,"[150,0]","[106,-106]",left,1,,,,,,001,2025-03-11_22h52.49.500,SL_sali,2021.2.3,Win32,60.24096386,1.8895,,,97,0,97,0,1,,,,,,,,
,,"[""circle"",""no_dis"",""hori"",""left"",[99999,99999],[106,106]]",circle,no_dis,hori,left,"[99999,99999]","[106,106]",left,1,,,,,,001,2025-03-11_22h52.49.500,SL_sali,2021.2.3,Win32,60.24096386,0.9345,,,98,0,98,0,1,,,,,,,,
,,"[""circle"",""no_dis"",""hori"",""left"",[99999,99999],[106,106]]",circle,no_dis,hori,left,"[99999,99999]","[106,106]",left,1,,,,,,001,2025-03-11_22h52.49.500,SL_sali,2021.2.3,Win32,60.24096386,0.8518,,,99,0,99,0,1,,,,,,,,
,,"[""diamond"",""green"",""hori"",""left"",[0,-150],[-150,0]]",diamond,green,hori,left,"[0,-150]","[-150,0]",left,1,,,,,,001,2025-03-11_22h52.49.500,SL_sali,2021.2.3,Win32,60.24096386,1.349,,,100,0,100,0,1,,,,,,,,
,,"[""circle"",""green"",""hori"",""left"",[-106,-106],[150,0]]",circle,green,hori,left,"[-106,-106]","[150,0]",up,0,,,,,,001,2025-03-11_22h52.49.500,SL_sali,2021.2.3,Win32,60.24096386,1.196,,,101,0,101,0,1,,,,,,,,
,,"[""diamond"",""red"",""hori"",""left"",[0,150],[150,0]]",diamond,red,hori,left,"[0,150]","[150,0]",left,1,,,,,,001,2025-03-11_22h52.49.500,SL_sali,2021.2.3,Win32,60.24096386,1.2659,,,102,0,102,0,1,,,,,,,,
,,"[""diamond"",""red"",""vert"",""up"",[150,0],[-106,-106]]",diamond,red,vert,up,"[150,0]","[-106,-106]",up,1,,,,,,001,2025-03-11_22h52.49.500,SL_sali,2021.2.3,Win32,60.24096386,1.532,,,103,0,103,0,1,,,,,,,,
,,"[""diamond"",""no_dis"",""hori"",""left"",[99999,99999],[106,-106]]",diamond,no_dis,hori,left,"[99999,99999]","[106,-106]",left,1,,,,,,001,2025-03-11_22h52.49.500,SL_sali,2021.2.3,Win32,60.24096386,1.3382,,,104,0,104,0,1,,,,,,,,
,,"[""diamond"",""green"",""vert"",""up"",[-106,-106],[-106,106]]",diamond,green,vert,up,"[-106,-106]","[-106,106]",up,1,,,,,,001,2025-03-11_22h52.49.500,SL_sali,2021.2.3,Win32,60.24096386,1.9401,,,105,0,105,0,1,,,,,,,,
,,"[""diamond"",""red"",""hori"",""left"",[0,-150],[0,150]]",diamond,red,hori,left,"[0,-150]","[0,150]",left,1,,,,,,001,2025-03-11_22h52.49.500,SL_sali,2021.2.3,Win32,60.24096386,1.0493,,,106,0,106,0,1,,,,,,,,
,,"[""circle"",""no_dis"",""vert"",""up"",[99999,99999],[-106,106]]",circle,no_dis,vert,up,"[99999,99999]","[-106,106]",up,1,,,,,,001,2025-03-11_22h52.49.500,SL_sali,2021.2.3,Win32,60.24096386,1.6589,,,107,0,107,0,1,,,,,,,,
,,"[""diamond"",""no_dis"",""vert"",""up"",[99999,99999],[-150,0]]",diamond,no_dis,vert,up,"[99999,99999]","[-150,0]",up,1,,,,,,001,2025-03-11_22h52.49.500,SL_sali,2021.2.3,Win32,60.24096386,1.6181,,,108,0,108,0,1,,,,,,,,
,,"[""circle"",""no_dis"",""hori"",""left"",[99999,99999],[0,-150]]",circle,no_dis,hori,left,"[99999,99999]","[0,-150]",left,1,,,,,,001,2025-03-11_22h52.49.500,SL_sali,2021.2.3,Win32,60.24096386,1.5191,,,109,0,109,0,1,,,,,,,,
,,"[""circle"",""red"",""vert"",""up"",[0,150],[0,-150]]",circle,red,vert,up,"[0,150]","[0,-150]",up,1,,,,,,001,2025-03-11_22h52.49.500,SL_sali,2021.2.3,Win32,60.24096386,2.2209,,,110,0,110,0,1,,,,,,,,
,,"[""circle"",""no_dis"",""hori"",""left"",[99999,99999],[150,0]]",circle,no_dis,hori,left,"[99999,99999]","[150,0]",left,1,,,,,,001,2025-03-11_22h52.49.500,SL_sali,2021.2.3,Win32,60.24096386,0.8171,,,111,0,111,0,1,,,,,,,,
,,"[""diamond"",""green"",""hori"",""left"",[0,-150],[106,106]]",diamond,green,hori,left,"[0,-150]","[106,106]",left,1,,,,,,001,2025-03-11_22h52.49.500,SL_sali,2021.2.3,Win32,60.24096386,1.1987,,,112,0,112,0,1,,,,,,,,
,,"[""diamond"",""red"",""vert"",""up"",[106,106],[0,150]]",diamond,red,vert,up,"[106,106]","[0,150]",up,1,,,,,,001,2025-03-11_22h52.49.500,SL_sali,2021.2.3,Win32,60.24096386,1.3184,,,113,0,113,0,1,,,,,,,,
,,"[""circle"",""green"",""hori"",""left"",[0,-150],[-106,106]]",circle,green,hori,left,"[0,-150]","[-106,106]",left,1,,,,,,001,2025-03-11_22h52.49.500,SL_sali,2021.2.3,Win32,60.24096386,1.0888,,,114,0,114,0,1,,,,,,,,
,,"[""circle"",""red"",""vert"",""up"",[-150,0],[0,150]]",circle,red,vert,up,"[-150,0]","[0,150]",up,1,,,,,,001,2025-03-11_22h52.49.500,SL_sali,2021.2.3,Win32,60.24096386,1.3989,,,115,0,115,0,1,,,,,,,,
,,"[""circle"",""red"",""vert"",""up"",[0,150],[-150,0]]",circle,red,vert,up,"[0,150]","[-150,0]",left,0,,,,,,001,2025-03-11_22h52.49.500,SL_sali,2021.2.3,Win32,60.24096386,0.9068,,,116,0,116,0,1,,,,,,,,
,,"[""diamond"",""green"",""vert"",""up"",[-150,0],[106,106]]",diamond,green,vert,up,"[-150,0]","[106,106]",up,1,,,,,,001,2025-03-11_22h52.49.500,SL_sali,2021.2.3,Win32,60.24096386,1.1239,,,117,0,117,0,1,,,,,,,,
,,"[""diamond"",""green"",""vert"",""up"",[0,150],[-106,106]]",diamond,green,vert,up,"[0,150]","[-106,106]",up,1,,,,,,001,2025-03-11_22h52.49.500,SL_sali,2021.2.3,Win32,60.24096386,1.0349,,,118,0,118,0,1,,,,,,,,
,,"[""diamond"",""red"",""vert"",""up"",[0,150],[0,-150]]",diamond,red,vert,up,"[0,150]","[0,-150]",up,1,,,,,,001,2025-03-11_22h52.49.500,SL_sali,2021.2.3,Win32,60.24096386,1.6176,,,119,0,119,0,1,,,,,,,,
,,,,,,,,,,,,,,,,001,2025-03-11_22h52.49.500,SL_sali,2021.2.3,Win32,60.24096386,,,,,,,,,1,space,1.9472,0,0,0,0,1
,,"[""circle"",""no_dis"",""hori"",""left"",[99999,99999],[-106,-106]]",circle,no_dis,hori,left,"[99999,99999]","[-106,-106]",left,1,,,,,,001,2025-03-11_22h52.49.500,SL_sali,2021.2.3,Win32,60.24096386,1.5415,,,0,0,0,0,1,,,,,,,,
,,"[""diamond"",""red"",""hori"",""left"",[150,0],[106,-106]]",diamond,red,hori,left,"[150,0]","[106,-106]",left,1,,,,,,001,2025-03-11_22h52.49.500,SL_sali,2021.2.3,Win32,60.24096386,1.715,,,1,0,1,0,1,,,,,,,,
,,"[""circle"",""red"",""hori"",""left"",[106,-106],[0,150]]",circle,red,hori,left,"[106,-106]","[0,150]",left,1,,,,,,001,2025-03-11_22h52.49.500,SL_sali,2021.2.3,Win32,60.24096386,1.1797,,,2,0,2,0,1,,,,,,,,
,,"[""diamond"",""no_dis"",""hori"",""left"",[99999,99999],[0,150]]",diamond,no_dis,hori,left,"[99999,99999]","[0,150]",left,1,,,,,,001,2025-03-11_22h52.49.500,SL_sali,2021.2.3,Win32,60.24096386,1.0088,,,3,0,3,0,1,,,,,,,,
,,"[""circle"",""red"",""vert"",""up"",[-150,0],[0,150]]",circle,red,vert,up,"[-150,0]","[0,150]",up,1,,,,,,001,2025-03-11_22h52.49.500,SL_sali,2021.2.3,Win32,60.24096386,1.1861,,,4,0,4,0,1,,,,,,,,
,,"[""diamond"",""red"",""vert"",""up"",[0,150],[0,-150]]",diamond,red,vert,up,"[0,150]","[0,-150]",up,1,,,,,,001,2025-03-11_22h52.49.500,SL_sali,2021.2.3,Win32,60.24096386,1.1773,,,5,0,5,0,1,,,,,,,,
,,"[""circle"",""red"",""vert"",""up"",[-106,-106],[106,106]]",circle,red,vert,up,"[-106,-106]","[106,106]",up,1,,,,,,001,2025-03-11_22h52.49.500,SL_sali,2021.2.3,Win32,60.24096386,1.2442,,,6,0,6,0,1,,,,,,,,
,,"[""diamond"",""green"",""vert"",""up"",[-150,0],[-106,-106]]",diamond,green,vert,up,"[-150,0]","[-106,-106]",up,1,,,,,,001,2025-03-11_22h52.49.500,SL_sali,2021.2.3,Win32,60.24096386,1.4851,,,7,0,7,0,1,,,,,,,,
,,"[""circle"",""green"",""hori"",""left"",[0,150],[-106,-106]]",circle,green,hori,left,"[0,150]","[-106,-106]",left,1,,,,,,001,2025-03-11_22h52.49.500,SL_sali,2021.2.3,Win32,60.24096386,1.3298,,,8,0,8,0,1,,,,,,,,
,,"[""circle"",""red"",""vert"",""up"",[106,106],[-150,0]]",circle,red,vert,up,"[106,106]","[-150,0]",up,1,,,,,,001,2025-03-11_22h52.49.500,SL_sali,2021.2.3,Win32,60.24096386,1.1839,,,9,0,9,0,1,,,,,,,,
,,"[""diamond"",""no_dis"",""vert"",""up"",[99999,99999],[0,-150]]",diamond,no_dis,vert,up,"[99999,99999]","[0,-150]",up,1,,,,,,001,2025-03-11_22h52.49.500,SL_sali,2021.2.3,Win32,60.24096386,1.1575,,,10,0,10,0,1,,,,,,,,
,,"[""circle"",""red"",""hori"",""left"",[106,-106],[150,0]]",circle,red,hori,left,"[106,-106]","[150,0]",left,1,,,,,,001,2025-03-11_22h52.49.500,SL_sali,2021.2.3,Win32,60.24096386,1.1574,,,11,0,11,0,1,,,,,,,,
,,"[""diamond"",""green"",""vert"",""up"",[150,0],[-150,0]]",diamond,green,vert,up,"[150,0]","[-150,0]",up,1,,,,,,001,2025-03-11_22h52.49.500,SL_sali,2021.2.3,Win32,60.24096386,0.7862,,,12,0,12,0,1,,,,,,,,
,,"[""circle"",""no_dis"",""hori"",""left"",[99999,99999],[-106,-106]]",circle,no_dis,hori,left,"[99999,99999]","[-106,-106]",left,1,,,,,,001,2025-03-11_22h52.49.500,SL_sali,2021.2.3,Win32,60.24096386,1.0061,,,13,0,13,0,1,,,,,,,,
,,"[""circle"",""red"",""hori"",""left"",[0,150],[106,-106]]",circle,red,hori,left,"[0,150]","[106,-106]",left,1,,,,,,001,2025-03-11_22h52.49.500,SL_sali,2021.2.3,Win32,60.24096386,1.0527,,,14,0,14,0,1,,,,,,,,
,,"[""circle"",""no_dis"",""hori"",""left"",[99999,99999],[106,106]]",circle,no_dis,hori,left,"[99999,99999]","[106,106]",left,1,,,,,,001,2025-03-11_22h52.49.500,SL_sali,2021.2.3,Win32,60.24096386,1.1824,,,15,0,15,0,1,,,,,,,,
,,"[""circle"",""no_dis"",""vert"",""up"",[99999,99999],[106,106]]",circle,no_dis,vert,up,"[99999,99999]","[106,106]",up,1,,,,,,001,2025-03-11_22h52.49.500,SL_sali,2021.2.3,Win32,60.24096386,1.2747,,,16,0,16,0,1,,,,,,,,
,,"[""circle"",""green"",""vert"",""up"",[150,0],[0,150]]",circle,green,vert,up,"[150,0]","[0,150]",up,1,,,,,,001,2025-03-11_22h52.49.500,SL_sali,2021.2.3,Win32,60.24096386,1.1716,,,17,0,17,0,1,,,,,,,,
,,"[""circle"",""no_dis"",""hori"",""left"",[99999,99999],[106,106]]",circle,no_dis,hori,left,"[99999,99999]","[106,106]",left,1,,,,,,001,2025-03-11_22h52.49.500,SL_sali,2021.2.3,Win32,60.24096386,0.8253,,,18,0,18,0,1,,,,,,,,
,,"[""circle"",""red"",""vert"",""up"",[0,150],[-150,0]]",circle,red,vert,up,"[0,150]","[-150,0]",up,1,,,,,,001,2025-03-11_22h52.49.500,SL_sali,2021.2.3,Win32,60.24096386,1.235,,,19,0,19,0,1,,,,,,,,
,,"[""circle"",""green"",""vert"",""up"",[-106,106],[0,-150]]",circle,green,vert,up,"[-106,106]","[0,-150]",up,1,,,,,,001,2025-03-11_22h52.49.500,SL_sali,2021.2.3,Win32,60.24096386,1.167,,,20,0,20,0,1,,,,,,,,
,,"[""diamond"",""no_dis"",""hori"",""left"",[99999,99999],[150,0]]",diamond,no_dis,hori,left,"[99999,99999]","[150,0]",left,1,,,,,,001,2025-03-11_22h52.49.500,SL_sali,2021.2.3,Win32,60.24096386,0.9649,,,21,0,21,0,1,,,,,,,,
,,"[""diamond"",""no_dis"",""hori"",""left"",[99999,99999],[150,0]]",diamond,no_dis,hori,left,"[99999,99999]","[150,0]",left,1,,,,,,001,2025-03-11_22h52.49.500,SL_sali,2021.2.3,Win32,60.24096386,0.9154,,,22,0,22,0,1,,,,,,,,
,,"[""circle"",""red"",""vert"",""up"",[-106,-106],[0,150]]",circle,red,vert,up,"[-106,-106]","[0,150]",left,0,,,,,,001,2025-03-11_22h52.49.500,SL_sali,2021.2.3,Win32,60.24096386,1.0081,,,23,0,23,0,1,,,,,,,,
,,"[""diamond"",""red"",""hori"",""left"",[0,150],[150,0]]",diamond,red,hori,left,"[0,150]","[150,0]",left,1,,,,,,001,2025-03-11_22h52.49.500,SL_sali,2021.2.3,Win32,60.24096386,1.0402,,,24,0,24,0,1,,,,,,,,
,,"[""diamond"",""red"",""hori"",""left"",[150,0],[-150,0]]",diamond,red,hori,left,"[150,0]","[-150,0]",left,1,,,,,,001,2025-03-11_22h52.49.500,SL_sali,2021.2.3,Win32,60.24096386,1.1851,,,25,0,25,0,1,,,,,,,,
,,"[""diamond"",""green"",""vert"",""up"",[106,-106],[0,150]]",diamond,green,vert,up,"[106,-106]","[0,150]",up,1,,,,,,001,2025-03-11_22h52.49.500,SL_sali,2021.2.3,Win32,60.24096386,1.0562,,,26,0,26,0,1,,,,,,,,
,,"[""circle"",""no_dis"",""hori"",""left"",[99999,99999],[106,-106]]",circle,no_dis,hori,left,"[99999,99999]","[106,-106]",left,1,,,,,,001,2025-03-11_22h52.49.500,SL_sali,2021.2.3,Win32,60.24096386,1.0696,,,27,0,27,0,1,,,,,,,,
,,"[""diamond"",""no_dis"",""vert"",""up"",[99999,99999],[-106,106]]",diamond,no_dis,vert,up,"[99999,99999]","[-106,106]",up,1,,,,,,001,2025-03-11_22h52.49.500,SL_sali,2021.2.3,Win32,60.24096386,1.4384,,,28,0,28,0,1,,,,,,,,
,,"[""circle"",""green"",""vert"",""up"",[-150,0],[0,-150]]",circle,green,vert,up,"[-150,0]","[0,-150]",up,1,,,,,,001,2025-03-11_22h52.49.500,SL_sali,2021.2.3,Win32,60.24096386,1.4599,,,29,0,29,0,1,,,,,,,,
,,"[""circle"",""no_dis"",""vert"",""up"",[99999,99999],[106,-106]]",circle,no_dis,vert,up,"[99999,99999]","[106,-106]",left,0,,,,,,001,2025-03-11_22h52.49.500,SL_sali,2021.2.3,Win32,60.24096386,1.2163,,,30,0,30,0,1,,,,,,,,
,,"[""diamond"",""no_dis"",""vert"",""up"",[99999,99999],[0,-150]]",diamond,no_dis,vert,up,"[99999,99999]","[0,-150]",up,1,,,,,,001,2025-03-11_22h52.49.500,SL_sali,2021.2.3,Win32,60.24096386,0.9425,,,31,0,31,0,1,,,,,,,,
,,"[""circle"",""green"",""hori"",""left"",[-106,-106],[0,150]]",circle,green,hori,left,"[-106,-106]","[0,150]",left,1,,,,,,001,2025-03-11_22h52.49.500,SL_sali,2021.2.3,Win32,60.24096386,1.3329,,,32,0,32,0,1,,,,,,,,
,,"[""diamond"",""green"",""hori"",""left"",[-106,106],[106,-106]]",diamond,green,hori,left,"[-106,106]","[106,-106]",left,1,,,,,,001,2025-03-11_22h52.49.500,SL_sali,2021.2.3,Win32,60.24096386,1.0247,,,33,0,33,0,1,,,,,,,,
,,"[""diamond"",""green"",""hori"",""left"",[106,-106],[106,106]]",diamond,green,hori,left,"[106,-106]","[106,106]",left,1,,,,,,001,2025-03-11_22h52.49.500,SL_sali,2021.2.3,Win32,60.24096386,1.1531,,,34,0,34,0,1,,,,,,,,
,,"[""diamond"",""no_dis"",""hori"",""left"",[99999,99999],[106,-106]]",diamond,no_dis,hori,left,"[99999,99999]","[106,-106]",left,1,,,,,,001,2025-03-11_22h52.49.500,SL_sali,2021.2.3,Win32,60.24096386,0.7754,,,35,0,35,0,1,,,,,,,,
,,"[""diamond"",""green"",""hori"",""left"",[0,150],[-106,106]]",diamond,green,hori,left,"[0,150]","[-106,106]",left,1,,,,,,001,2025-03-11_22h52.49.500,SL_sali,2021.2.3,Win32,60.24096386,1.3458,,,36,0,36,0,1,,,,,,,,
,,"[""circle"",""no_dis"",""hori"",""left"",[99999,99999],[0,-150]]",circle,no_dis,hori,left,"[99999,99999]","[0,-150]",left,1,,,,,,001,2025-03-11_22h52.49.500,SL_sali,2021.2.3,Win32,60.24096386,1.1697,,,37,0,37,0,1,,,,,,,,
,,"[""diamond"",""no_dis"",""vert"",""up"",[99999,99999],[-106,-106]]",diamond,no_dis,vert,up,"[99999,99999]","[-106,-106]",up,1,,,,,,001,2025-03-11_22h52.49.500,SL_sali,2021.2.3,Win32,60.24096386,0.9873,,,38,0,38,0,1,,,,,,,,
,,"[""circle"",""green"",""vert"",""up"",[-150,0],[0,150]]",circle,green,vert,up,"[-150,0]","[0,150]",left,0,,,,,,001,2025-03-11_22h52.49.500,SL_sali,2021.2.3,Win32,60.24096386,1.199,,,39,0,39,0,1,,,,,,,,
,,"[""diamond"",""red"",""hori"",""left"",[106,106],[0,150]]",diamond,red,hori,left,"[106,106]","[0,150]",left,1,,,,,,001,2025-03-11_22h52.49.500,SL_sali,2021.2.3,Win32,60.24096386,0.8792,,,40,0,40,0,1,,,,,,,,
,,"[""circle"",""no_dis"",""vert"",""up"",[99999,99999],[106,-106]]",circle,no_dis,vert,up,"[99999,99999]","[106,-106]",up,1,,,,,,001,2025-03-11_22h52.49.500,SL_sali,2021.2.3,Win32,60.24096386,0.8663,,,41,0,41,0,1,,,,,,,,
,,"[""diamond"",""green"",""hori"",""left"",[0,-150],[-150,0]]",diamond,green,hori,left,"[0,-150]","[-150,0]",left,1,,,,,,001,2025-03-11_22h52.49.500,SL_sali,2021.2.3,Win32,60.24096386,1.2377,,,42,0,42,0,1,,,,,,,,
,,"[""diamond"",""no_dis"",""hori"",""left"",[99999,99999],[150,0]]",diamond,no_dis,hori,left,"[99999,99999]","[150,0]",left,1,,,,,,001,2025-03-11_22h52.49.500,SL_sali,2021.2.3,Win32,60.24096386,0.6718,,,43,0,43,0,1,,,,,,,,
,,"[""diamond"",""red"",""vert"",""up"",[0,-150],[106,106]]",diamond,red,vert,up,"[0,-150]","[106,106]",up,1,,,,,,001,2025-03-11_22h52.49.500,SL_sali,2021.2.3,Win32,60.24096386,0.9902,,,44,0,44,0,1,,,,,,,,
,,"[""diamond"",""no_dis"",""vert"",""up"",[99999,99999],[-106,106]]",diamond,no_dis,vert,up,"[99999,99999]","[-106,106]",up,1,,,,,,001,2025-03-11_22h52.49.500,SL_sali,2021.2.3,Win32,60.24096386,0.774,,,45,0,45,0,1,,,,,,,,
,,"[""circle"",""no_dis"",""vert"",""up"",[99999,99999],[-106,-106]]",circle,no_dis,vert,up,"[99999,99999]","[-106,-106]",up,1,,,,,,001,2025-03-11_22h52.49.500,SL_sali,2021.2.3,Win32,60.24096386,1.1127,,,46,0,46,0,1,,,,,,,,
,,"[""diamond"",""green"",""vert"",""up"",[106,-106],[-106,-106]]",diamond,green,vert,up,"[106,-106]","[-106,-106]",up,1,,,,,,001,2025-03-11_22h52.49.500,SL_sali,2021.2.3,Win32,60.24096386,0.9357,,,47,0,47,0,1,,,,,,,,
,,"[""diamond"",""red"",""vert"",""up"",[-106,106],[106,-106]]",diamond,red,vert,up,"[-106,106]","[106,-106]",up,1,,,,,,001,2025-03-11_22h52.49.500,SL_sali,2021.2.3,Win32,60.24096386,1.1839,,,48,0,48,0,1,,,,,,,,
,,"[""diamond"",""green"",""hori"",""left"",[-150,0],[0,-150]]",diamond,green,hori,left,"[-150,0]","[0,-150]",left,1,,,,,,001,2025-03-11_22h52.49.500,SL_sali,2021.2.3,Win32,60.24096386,1.4029,,,49,0,49,0,1,,,,,,,,
,,"[""diamond"",""no_dis"",""vert"",""up"",[99999,99999],[0,150]]",diamond,no_dis,vert,up,"[99999,99999]","[0,150]",up,1,,,,,,001,2025-03-11_22h52.49.500,SL_sali,2021.2.3,Win32,60.24096386,0.7188,,,50,0,50,0,1,,,,,,,,
,,"[""diamond"",""red"",""vert"",""up"",[106,-106],[106,106]]",diamond,red,vert,up,"[106,-106]","[106,106]",up,1,,,,,,001,2025-03-11_22h52.49.500,SL_sali,2021.2.3,Win32,60.24096386,0.7045,,,51,0,51,0,1,,,,,,,,
,,"[""diamond"",""red"",""hori"",""left"",[0,150],[150,0]]",diamond,red,hori,left,"[0,150]","[150,0]",left,1,,,,,,001,2025-03-11_22h52.49.500,SL_sali,2021.2.3,Win32,60.24096386,1.1442,,,52,0,52,0,1,,,,,,,,
,,"[""circle"",""red"",""vert"",""up"",[0,150],[0,-150]]",circle,red,vert,up,"[0,150]","[0,-150]",up,1,,,,,,001,2025-03-11_22h52.49.500,SL_sali,2021.2.3,Win32,60.24096386,1.3004,,,53,0,53,0,1,,,,,,,,
,,"[""diamond"",""green"",""vert"",""up"",[106,106],[0,150]]",diamond,green,vert,up,"[106,106]","[0,150]",up,1,,,,,,001,2025-03-11_22h52.49.500,SL_sali,2021.2.3,Win32,60.24096386,0.74,,,54,0,54,0,1,,,,,,,,
,,"[""circle"",""green"",""vert"",""up"",[-106,-106],[-150,0]]",circle,green,vert,up,"[-106,-106]","[-150,0]",left,0,,,,,,001,2025-03-11_22h52.49.500,SL_sali,2021.2.3,Win32,60.24096386,1.3331,,,55,0,55,0,1,,,,,,,,
,,"[""diamond"",""red"",""vert"",""up"",[106,106],[0,150]]",diamond,red,vert,up,"[106,106]","[0,150]",up,1,,,,,,001,2025-03-11_22h52.49.500,SL_sali,2021.2.3,Win32,60.24096386,0.9371,,,56,0,56,0,1,,,,,,,,
,,"[""circle"",""red"",""hori"",""left"",[0,150],[-106,-106]]",circle,red,hori,left,"[0,150]","[-106,-106]",left,1,,,,,,001,2025-03-11_22h52.49.500,SL_sali,2021.2.3,Win32,60.24096386,1.2628,,,57,0,57,0,1,,,,,,,,
,,"[""diamond"",""no_dis"",""vert"",""up"",[99999,99999],[0,150]]",diamond,no_dis,vert,up,"[99999,99999]","[0,150]",up,1,,,,,,001,2025-03-11_22h52.49.500,SL_sali,2021.2.3,Win32,60.24096386,0.896,,,58,0,58,0,1,,,,,,,,
,,"[""diamond"",""no_dis"",""hori"",""left"",[99999,99999],[-150,0]]",diamond,no_dis,hori,left,"[99999,99999]","[-150,0]",left,1,,,,,,001,2025-03-11_22h52.49.500,SL_sali,2021.2.3,Win32,60.24096386,0.7129,,,59,0,59,0,1,,,,,,,,
,,"[""circle"",""green"",""vert"",""up"",[106,106],[106,-106]]",circle,green,vert,up,"[106,106]","[106,-106]",up,1,,,,,,001,2025-03-11_22h52.49.500,SL_sali,2021.2.3,Win32,60.24096386,1.3133,,,60,0,60,0,1,,,,,,,,
,,"[""circle"",""red"",""hori"",""left"",[0,150],[106,-106]]",circle,red,hori,left,"[0,150]","[106,-106]",up,0,,,,,,001,2025-03-11_22h52.49.500,SL_sali,2021.2.3,Win32,60.24096386,0.8893,,,61,0,61,0,1,,,,,,,,
,,"[""circle"",""no_dis"",""vert"",""up"",[99999,99999],[-106,-106]]",circle,no_dis,vert,up,"[99999,99999]","[-106,-106]",up,1,,,,,,001,2025-03-11_22h52.49.500,SL_sali,2021.2.3,Win32,60.24096386,0.9051,,,62,0,62,0,1,,,,,,,,
,,"[""circle"",""green"",""hori"",""left"",[0,150],[0,-150]]",circle,green,hori,left,"[0,150]","[0,-150]",left,1,,,,,,001,2025-03-11_22h52.49.500,SL_sali,2021.2.3,Win32,60.24096386,1.0727,,,63,0,63,0,1,,,,,,,,
,,"[""circle"",""no_dis"",""hori"",""left"",[99999,99999],[150,0]]",circle,no_dis,hori,left,"[99999,99999]","[150,0]",left,1,,,,,,001,2025-03-11_22h52.49.500,SL_sali,2021.2.3,Win32,60.24096386,0.6954,,,64,0,64,0,1,,,,,,,,
,,"[""diamond"",""no_dis"",""vert"",""up"",[99999,99999],[-150,0]]",diamond,no_dis,vert,up,"[99999,99999]","[-150,0]",up,1,,,,,,001,2025-03-11_22h52.49.500,SL_sali,2021.2.3,Win32,60.24096386,1.0134,,,65,0,65,0,1,,,,,,,,
,,"[""circle"",""red"",""hori"",""left"",[-150,0],[-106,-106]]",circle,red,hori,left,"[-150,0]","[-106,-106]",left,1,,,,,,001,2025-03-11_22h52.49.500,SL_sali,2021.2.3,Win32,60.24096386,1.1327,,,66,0,66,0,1,,,,,,,,
,,"[""diamond"",""red"",""vert"",""up"",[0,150],[150,0]]",diamond,red,vert,up,"[0,150]","[150,0]",up,1,,,,,,001,2025-03-11_22h52.49.500,SL_sali,2021.2.3,Win32,60.24096386,1.2702,,,67,0,67,0,1,,,,,,,,
,,"[""circle"",""green"",""hori"",""left"",[0,150],[-106,106]]",circle,green,hori,left,"[0,150]","[-106,106]",left,1,,,,,,001,2025-03-11_22h52.49.500,SL_sali,2021.2.3,Win32,60.24096386,1.1516,,,68,0,68,0,1,,,,,,,,
,,"[""diamond"",""green"",""hori"",""left"",[-106,-106],[0,-150]]",diamond,green,hori,left,"[-106,-106]","[0,-150]",left,1,,,,,,001,2025-03-11_22h52.49.500,SL_sali,2021.2.3,Win32,60.24096386,2.1719,,,69,0,69,0,1,,,,,,,,
,,"[""circle"",""green"",""vert"",""up"",[0,-150],[106,-106]]",circle,green,vert,up,"[0,-150]","[106,-106]",up,1,,,,,,001,2025-03-11_22h52.49.500,SL_sali,2021.2.3,Win32,60.24096386,0.8896,,,70,0,70,0,1,,,,,,,,
,,"[""diamond"",""no_dis"",""vert"",""up"",[99999,99999],[-150,0]]",diamond,no_dis,vert,up,"[99999,99999]","[-150,0]",up,1,,,,,,001,2025-03-11_22h52.49.500,SL_sali,2021.2.3,Win32,60.24096386,0.8179,,,71,0,71,0,1,,,,,,,,
,,"[""diamond"",""green"",""vert"",""up"",[106,-106],[150,0]]",diamond,green,vert,up,"[106,-106]","[150,0]",up,1,,,,,,001,2025-03-11_22h52.49.500,SL_sali,2021.2.3,Win32,60.24096386,1.2158,,,72,0,72,0,1,,,,,,,,
,,"[""diamond"",""red"",""vert"",""up"",[0,150],[-106,106]]",diamond,red,vert,up,"[0,150]","[-106,106]",up,1,,,,,,001,2025-03-11_22h52.49.500,SL_sali,2021.2.3,Win32,60.24096386,1.2669,,,73,0,73,0,1,,,,,,,,
,,"[""diamond"",""green"",""vert"",""up"",[-106,-106],[-106,106]]",diamond,green,vert,up,"[-106,-106]","[-106,106]",up,1,,,,,,001,2025-03-11_22h52.49.500,SL_sali,2021.2.3,Win32,60.24096386,0.8307,,,74,0,74,0,1,,,,,,,,
,,"[""circle"",""no_dis"",""vert"",""up"",[99999,99999],[0,150]]",circle,no_dis,vert,up,"[99999,99999]","[0,150]",left,0,,,,,,001,2025-03-11_22h52.49.500,SL_sali,2021.2.3,Win32,60.24096386,0.9167,,,75,0,75,0,1,,,,,,,,
,,"[""circle"",""green"",""vert"",""up"",[0,-150],[-106,-106]]",circle,green,vert,up,"[0,-150]","[-106,-106]",up,1,,,,,,001,2025-03-11_22h52.49.500,SL_sali,2021.2.3,Win32,60.24096386,1.5136,,,76,0,76,0,1,,,,,,,,
,,"[""diamond"",""green"",""vert"",""up"",[-106,106],[-106,-106]]",diamond,green,vert,up,"[-106,106]","[-106,-106]",left,0,,,,,,001,2025-03-11_22h52.49.500,SL_sali,2021.2.3,Win32,60.24096386,1.0785,,,77,0,77,0,1,,,,,,,,
,,"[""circle"",""red"",""hori"",""left"",[0,150],[-106,-106]]",circle,red,hori,left,"[0,150]","[-106,-106]",up,0,,,,,,001,2025-03-11_22h52.49.500,SL_sali,2021.2.3,Win32,60.24096386,0.9363,,,78,0,78,0,1,,,,,,,,
,,"[""diamond"",""red"",""hori"",""left"",[-150,0],[0,150]]",diamond,red,hori,left,"[-150,0]","[0,150]",left,1,,,,,,001,2025-03-11_22h52.49.500,SL_sali,2021.2.3,Win32,60.24096386,1.2309,,,79,0,79,0,1,,,,,,,,
,,"[""diamond"",""green"",""vert"",""up"",[0,150],[-106,106]]",diamond,green,vert,up,"[0,150]","[-106,106]",up,1,,,,,,001,2025-03-11_22h52.49.500,SL_sali,2021.2.3,Win32,60.24096386,1.0684,,,80,0,80,0,1,,,,,,,,
,,"[""diamond"",""red"",""vert"",""up"",[-106,106],[106,-106]]",diamond,red,vert,up,"[-106,106]","[106,-106]",left,0,,,,,,001,2025-03-11_22h52.49.500,SL_sali,2021.2.3,Win32,60.24096386,1.0126,,,81,0,81,0,1,,,,,,,,
,,"[""circle"",""red"",""vert"",""up"",[106,106],[-150,0]]",circle,red,vert,up,"[106,106]","[-150,0]",up,1,,,,,,001,2025-03-11_22h52.49.500,SL_sali,2021.2.3,Win32,60.24096386,1.43,,,82,0,82,0,1,,,,,,,,
,,"[""circle"",""no_dis"",""vert"",""up"",[99999,99999],[106,106]]",circle,no_dis,vert,up,"[99999,99999]","[106,106]",up,1,,,,,,001,2025-03-11_22h52.49.500,SL_sali,2021.2.3,Win32,60.24096386,1.0978,,,83,0,83,0,1,,,,,,,,
,,"[""diamond"",""no_dis"",""vert"",""up"",[99999,99999],[106,106]]",diamond,no_dis,vert,up,"[99999,99999]","[106,106]",up,1,,,,,,001,2025-03-11_22h52.49.500,SL_sali,2021.2.3,Win32,60.24096386,0.9282,,,84,0,84,0,1,,,,,,,,
,,"[""diamond"",""no_dis"",""hori"",""left"",[99999,99999],[-150,0]]",diamond,no_dis,hori,left,"[99999,99999]","[-150,0]",left,1,,,,,,001,2025-03-11_22h52.49.500,SL_sali,2021.2.3,Win32,60.24096386,1.2164,,,85,0,85,0,1,,,,,,,,
,,"[""circle"",""green"",""hori"",""left"",[-106,-106],[150,0]]",circle,green,hori,left,"[-106,-106]","[150,0]",up,0,,,,,,001,2025-03-11_22h52.49.500,SL_sali,2021.2.3,Win32,60.24096386,1.4095,,,86,0,86,0,1,,,,,,,,
,,"[""diamond"",""green"",""hori"",""left"",[0,150],[150,0]]",diamond,green,hori,left,"[0,150]","[150,0]",left,1,,,,,,001,2025-03-11_22h52.49.500,SL_sali,2021.2.3,Win32,60.24096386,1.0173,,,87,0,87,0,1,,,,,,,,
,,"[""circle"",""no_dis"",""vert"",""up"",[99999,99999],[-106,106]]",circle,no_dis,vert,up,"[99999,99999]","[-106,106]",up,1,,,,,,001,2025-03-11_22h52.49.500,SL_sali,2021.2.3,Win32,60.24096386,0.9652,,,88,0,88,0,1,,,,,,,,
,,"[""diamond"",""red"",""hori"",""left"",[106,106],[0,-150]]",diamond,red,hori,left,"[106,106]","[0,-150]",left,1,,,,,,001,2025-03-11_22h52.49.500,SL_sali,2021.2.3,Win32,60.24096386,1.3313,,,89,0,89,0,1,,,,,,,,
,,"[""circle"",""green"",""vert"",""up"",[0,150],[-106,106]]",circle,green,vert,up,"[0,150]","[-106,106]",up,1,,,,,,001,2025-03-11_22h52.49.500,SL_sali,2021.2.3,Win32,60.24096386,1.7493,,,90,0,90,0,1,,,,,,,,
,,"[""circle"",""red"",""vert"",""up"",[-106,-106],[-150,0]]",circle,red,vert,up,"[-106,-106]","[-150,0]",up,1,,,,,,001,2025-03-11_22h52.49.500,SL_sali,2021.2.3,Win32,60.24096386,2.1305,,,91,0,91,0,1,,,,,,,,
,,"[""circle"",""green"",""hori"",""left"",[0,150],[-106,106]]",circle,green,hori,left,"[0,150]","[-106,106]",left,1,,,,,,001,2025-03-11_22h52.49.500,SL_sali,2021.2.3,Win32,60.24096386,1.4182,,,92,0,92,0,1,,,,,,,,
,,"[""diamond"",""green"",""hori"",""left"",[0,-150],[106,106]]",diamond,green,hori,left,"[0,-150]","[106,106]",left,1,,,,,,001,2025-03-11_22h52.49.500,SL_sali,2021.2.3,Win32,60.24096386,1.1359,,,93,0,93,0,1,,,,,,,,
,,"[""diamond"",""red"",""hori"",""left"",[0,-150],[0,150]]",diamond,red,hori,left,"[0,-150]","[0,150]",left,1,,,,,,001,2025-03-11_22h52.49.500,SL_sali,2021.2.3,Win32,60.24096386,1.0625,,,94,0,94,0,1,,,,,,,,
,,"[""circle"",""no_dis"",""hori"",""left"",[99999,99999],[0,150]]",circle,no_dis,hori,left,"[99999,99999]","[0,150]",left,1,,,,,,001,2025-03-11_22h52.49.500,SL_sali,2021.2.3,Win32,60.24096386,1.051,,,95,0,95,0,1,,,,,,,,
,,"[""circle"",""green"",""hori"",""left"",[106,106],[-106,106]]",circle,green,hori,left,"[106,106]","[-106,106]",left,1,,,,,,001,2025-03-11_22h52.49.500,SL_sali,2021.2.3,Win32,60.24096386,1.3348,,,96,0,96,0,1,,,,,,,,
,,"[""circle"",""red"",""vert"",""up"",[0,-150],[0,150]]",circle,red,vert,up,"[0,-150]","[0,150]",up,1,,,,,,001,2025-03-11_22h52.49.500,SL_sali,2021.2.3,Win32,60.24096386,1.2141,,,97,0,97,0,1,,,,,,,,
,,"[""circle"",""no_dis"",""vert"",""up"",[99999,99999],[0,-150]]",circle,no_dis,vert,up,"[99999,99999]","[0,-150]",up,1,,,,,,001,2025-03-11_22h52.49.500,SL_sali,2021.2.3,Win32,60.24096386,1.016,,,98,0,98,0,1,,,,,,,,
,,"[""diamond"",""red"",""hori"",""left"",[0,150],[150,0]]",diamond,red,hori,left,"[0,150]","[150,0]",left,1,,,,,,001,2025-03-11_22h52.49.500,SL_sali,2021.2.3,Win32,60.24096386,0.9928,,,99,0,99,0,1,,,,,,,,
,,"[""circle"",""red"",""hori"",""left"",[150,0],[0,150]]",circle,red,hori,left,"[150,0]","[0,150]",left,1,,,,,,001,2025-03-11_22h52.49.500,SL_sali,2021.2.3,Win32,60.24096386,0.9241,,,100,0,100,0,1,,,,,,,,
,,"[""circle"",""red"",""hori"",""left"",[-106,106],[0,-150]]",circle,red,hori,left,"[-106,106]","[0,-150]",up,0,,,,,,001,2025-03-11_22h52.49.500,SL_sali,2021.2.3,Win32,60.24096386,1.3654,,,101,0,101,0,1,,,,,,,,
,,"[""circle"",""green"",""vert"",""up"",[150,0],[0,-150]]",circle,green,vert,up,"[150,0]","[0,-150]",up,1,,,,,,001,2025-03-11_22h52.49.500,SL_sali,2021.2.3,Win32,60.24096386,1.1793,,,102,0,102,0,1,,,,,,,,
,,"[""diamond"",""green"",""hori"",""left"",[0,150],[-106,106]]",diamond,green,hori,left,"[0,150]","[-106,106]",left,1,,,,,,001,2025-03-11_22h52.49.500,SL_sali,2021.2.3,Win32,60.24096386,1.4294,,,103,0,103,0,1,,,,,,,,
,,"[""diamond"",""green"",""vert"",""up"",[-150,0],[106,106]]",diamond,green,vert,up,"[-150,0]","[106,106]",up,1,,,,,,001,2025-03-11_22h52.49.500,SL_sali,2021.2.3,Win32,60.24096386,0.845,,,104,0,104,0,1,,,,,,,,
,,"[""diamond"",""no_dis"",""hori"",""left"",[99999,99999],[-150,0]]",diamond,no_dis,hori,left,"[99999,99999]","[-150,0]",up,0,,,,,,001,2025-03-11_22h52.49.500,SL_sali,2021.2.3,Win32,60.24096386,0.7791,,,105,0,105,0,1,,,,,,,,
,,"[""circle"",""no_dis"",""hori"",""left"",[99999,99999],[106,-106]]",circle,no_dis,hori,left,"[99999,99999]","[106,-106]",left,1,,,,,,001,2025-03-11_22h52.49.500,SL_sali,2021.2.3,Win32,60.24096386,0.7159,,,106,0,106,0,1,,,,,,,,
,,"[""circle"",""no_dis"",""vert"",""up"",[99999,99999],[-106,106]]",circle,no_dis,vert,up,"[99999,99999]","[-106,106]",up,1,,,,,,001,2025-03-11_22h52.49.500,SL_sali,2021.2.3,Win32,60.24096386,1.2345,,,107,0,107,0,1,,,,,,,,
,,"[""diamond"",""no_dis"",""hori"",""left"",[99999,99999],[-106,106]]",diamond,no_dis,hori,left,"[99999,99999]","[-106,106]",left,1,,,,,,001,2025-03-11_22h52.49.500,SL_sali,2021.2.3,Win32,60.24096386,1.3124,,,108,0,108,0,1,,,,,,,,
,,"[""circle"",""green"",""hori"",""left"",[0,-150],[-106,106]]",circle,green,hori,left,"[0,-150]","[-106,106]",up,0,,,,,,001,2025-03-11_22h52.49.500,SL_sali,2021.2.3,Win32,60.24096386,1.271,,,109,0,109,0,1,,,,,,,,
,,"[""diamond"",""green"",""hori"",""left"",[150,0],[0,150]]",diamond,green,hori,left,"[150,0]","[0,150]",left,1,,,,,,001,2025-03-11_22h52.49.500,SL_sali,2021.2.3,Win32,60.24096386,1.0647,,,110,0,110,0,1,,,,,,,,
,,"[""circle"",""green"",""hori"",""left"",[0,150],[-106,-106]]",circle,green,hori,left,"[0,150]","[-106,-106]",left,1,,,,,,001,2025-03-11_22h52.49.500,SL_sali,2021.2.3,Win32,60.24096386,1.1529,,,111,0,111,0,1,,,,,,,,
,,"[""circle"",""no_dis"",""hori"",""left"",[99999,99999],[0,-150]]",circle,no_dis,hori,left,"[99999,99999]","[0,-150]",left,1,,,,,,001,2025-03-11_22h52.49.500,SL_sali,2021.2.3,Win32,60.24096386,1.2532,,,112,0,112,0,1,,,,,,,,
,,"[""circle"",""red"",""hori"",""left"",[0,150],[106,106]]",circle,red,hori,left,"[0,150]","[106,106]",left,1,,,,,,001,2025-03-11_22h52.49.500,SL_sali,2021.2.3,Win32,60.24096386,1.2416,,,113,0,113,0,1,,,,,,,,
,,"[""diamond"",""red"",""vert"",""up"",[150,0],[-106,-106]]",diamond,red,vert,up,"[150,0]","[-106,-106]",up,1,,,,,,001,2025-03-11_22h52.49.500,SL_sali,2021.2.3,Win32,60.24096386,1.5137,,,114,0,114,0,1,,,,,,,,
,,"[""diamond"",""red"",""hori"",""left"",[-106,106],[106,106]]",diamond,red,hori,left,"[-106,106]","[106,106]",left,1,,,,,,001,2025-03-11_22h52.49.500,SL_sali,2021.2.3,Win32,60.24096386,0.9979,,,115,0,115,0,1,,,,,,,,
,,"[""circle"",""red"",""vert"",""up"",[-106,106],[150,0]]",circle,red,vert,up,"[-106,106]","[150,0]",up,1,,,,,,001,2025-03-11_22h52.49.500,SL_sali,2021.2.3,Win32,60.24096386,1.6616,,,116,0,116,0,1,,,,,,,,
,,"[""diamond"",""no_dis"",""hori"",""left"",[99999,99999],[150,0]]",diamond,no_dis,hori,left,"[99999,99999]","[150,0]",left,1,,,,,,001,2025-03-11_22h52.49.500,SL_sali,2021.2.3,Win32,60.24096386,1.1215,,,117,0,117,0,1,,,,,,,,
,,"[""diamond"",""red"",""vert"",""up"",[0,150],[0,-150]]",diamond,red,vert,up,"[0,150]","[0,-150]",up,1,,,,,,001,2025-03-11_22h52.49.500,SL_sali,2021.2.3,Win32,60.24096386,1.0024,,,118,0,118,0,1,,,,,,,,
,,"[""circle"",""green"",""hori"",""left"",[106,-106],[150,0]]",circle,green,hori,left,"[106,-106]","[150,0]",left,1,,,,,,001,2025-03-11_22h52.49.500,SL_sali,2021.2.3,Win32,60.24096386,0.9803,,,119,0,119,0,1,,,,,,,,
,,,,,,,,,,,,,,,,001,2025-03-11_22h52.49.500,SL_sali,2021.2.3,Win32,60.24096386,,,,,,,,,2,space,3.9345,1,0,1,0,1
,,"[""diamond"",""red"",""hori"",""left"",[0,-150],[0,150]]",diamond,red,hori,left,"[0,-150]","[0,150]",left,1,,,,,,001,2025-03-11_22h52.49.500,SL_sali,2021.2.3,Win32,60.24096386,0.8847,,,0,0,0,0,1,,,,,,,,
,,"[""diamond"",""no_dis"",""vert"",""up"",[99999,99999],[0,-150]]",diamond,no_dis,vert,up,"[99999,99999]","[0,-150]",up,1,,,,,,001,2025-03-11_22h52.49.500,SL_sali,2021.2.3,Win32,60.24096386,1.4047,,,1,0,1,0,1,,,,,,,,
,,"[""diamond"",""green"",""vert"",""up"",[0,150],[-106,106]]",diamond,green,vert,up,"[0,150]","[-106,106]",up,1,,,,,,001,2025-03-11_22h52.49.500,SL_sali,2021.2.3,Win32,60.24096386,0.7958,,,2,0,2,0,1,,,,,,,,
,,"[""circle"",""no_dis"",""vert"",""up"",[99999,99999],[106,106]]",circle,no_dis,vert,up,"[99999,99999]","[106,106]",up,1,,,,,,001,2025-03-11_22h52.49.500,SL_sali,2021.2.3,Win32,60.24096386,1.219,,,3,0,3,0,1,,,,,,,,
,,"[""circle"",""no_dis"",""vert"",""up"",[99999,99999],[106,-106]]",circle,no_dis,vert,up,"[99999,99999]","[106,-106]",up,1,,,,,,001,2025-03-11_22h52.49.500,SL_sali,2021.2.3,Win32,60.24096386,1.0213,,,4,0,4,0,1,,,,,,,,
,,"[""circle"",""green"",""vert"",""up"",[-150,0],[0,150]]",circle,green,vert,up,"[-150,0]","[0,150]",up,1,,,,,,001,2025-03-11_22h52.49.500,SL_sali,2021.2.3,Win32,60.24096386,1.601,,,5,0,5,0,1,,,,,,,,
,,"[""circle"",""red"",""hori"",""left"",[0,150],[106,-106]]",circle,red,hori,left,"[0,150]","[106,-106]",left,1,,,,,,001,2025-03-11_22h52.49.500,SL_sali,2021.2.3,Win32,60.24096386,0.6461,,,6,0,6,0,1,,,,,,,,
,,"[""diamond"",""no_dis"",""hori"",""left"",[99999,99999],[150,0]]",diamond,no_dis,hori,left,"[99999,99999]","[150,0]",left,1,,,,,,001,2025-03-11_22h52.49.500,SL_sali,2021.2.3,Win32,60.24096386,0.9978,,,7,0,7,0,1,,,,,,,,
,,"[""circle"",""no_dis"",""hori"",""left"",[99999,99999],[0,150]]",circle,no_dis,hori,left,"[99999,99999]","[0,150]",left,1,,,,,,001,2025-03-11_22h52.49.500,SL_sali,2021.2.3,Win32,60.24096386,0.7654,,,8,0,8,0,1,,,,,,,,
,,"[""diamond"",""green"",""hori"",""left"",[0,150],[-106,106]]",diamond,green,hori,left,"[0,150]","[-106,106]",up,0,,,,,,001,2025-03-11_22h52.49.500,SL_sali,2021.2.3,Win32,60.24096386,1.0337,,,9,0,9,0,1,,,,,,,,
,,"[""diamond"",""no_dis"",""hori"",""left"",[99999,99999],[-150,0]]",diamond,no_dis,hori,left,"[99999,99999]","[-150,0]",left,1,,,,,,001,2025-03-11_22h52.49.500,SL_sali,2021.2.3,Win32,60.24096386,0.8111,,,10,0,10,0,1,,,,,,,,
,,"[""circle"",""green"",""hori"",""left"",[0,150],[-106,-106]]",circle,green,hori,left,"[0,150]","[-106,-106]",left,1,,,,,,001,2025-03-11_22h52.49.500,SL_sali,2021.2.3,Win32,60.24096386,0.9668,,,11,0,11,0,1,,,,,,,,
,,"[""circle"",""red"",""hori"",""left"",[-150,0],[-106,-106]]",circle,red,hori,left,"[-150,0]","[-106,-106]",left,1,,,,,,001,2025-03-11_22h52.49.500,SL_sali,2021.2.3,Win32,60.24096386,1.5117,,,12,0,12,0,1,,,,,,,,
,,"[""circle"",""red"",""vert"",""up"",[-106,-106],[-150,0]]",circle,red,vert,up,"[-106,-106]","[-150,0]",up,1,,,,,,001,2025-03-11_22h52.49.500,SL_sali,2021.2.3,Win32,60.24096386,1.2323,,,13,0,13,0,1,,,,,,,,
,,"[""circle"",""red"",""vert"",""up"",[106,106],[-150,0]]",circle,red,vert,up,"[106,106]","[-150,0]",up,1,,,,,,001,2025-03-11_22h52.49.500,SL_sali,2021.2.3,Win32,60.24096386,1.1747,,,14,0,14,0,1,,,,,,,,
,,"[""circle"",""green"",""hori"",""left"",[106,-106],[150,0]]",circle,green,hori,left,"[106,-106]","[150,0]",left,1,,,,,,001,2025-03-11_22h52.49.500,SL_sali,2021.2.3,Win32,60.24096386,0.9231,,,15,0,15,0,1,,,,,,,,
,,"[""diamond"",""red"",""vert"",""up"",[0,150],[150,0]]",diamond,red,vert,up,"[0,150]","[150,0]",up,1,,,,,,001,2025-03-11_22h52.49.500,SL_sali,2021.2.3,Win32,60.24096386,1.3124,,,16,0,16,0,1,,,,,,,,
,,"[""diamond"",""no_dis"",""vert"",""up"",[99999,99999],[-150,0]]",diamond,no_dis,vert,up,"[99999,99999]","[-150,0]",up,1,,,,,,001,2025-03-11_22h52.49.500,SL_sali,2021.2.3,Win32,60.24096386,0.7105,,,17,0,17,0,1,,,,,,,,
,,"[""diamond"",""red"",""vert"",""up"",[0,150],[-106,106]]",diamond,red,vert,up,"[0,150]","[-106,106]",up,1,,,,,,001,2025-03-11_22h52.49.500,SL_sali,2021.2.3,Win32,60.24096386,0.917,,,18,0,18,0,1,,,,,,,,
,,"[""diamond"",""green"",""vert"",""up"",[-106,106],[-106,-106]]",diamond,green,vert,up,"[-106,106]","[-106,-106]",up,1,,,,,,001,2025-03-11_22h52.49.500,SL_sali,2021.2.3,Win32,60.24096386,0.9957,,,19,0,19,0,1,,,,,,,,
,,"[""circle"",""green"",""vert"",""up"",[0,150],[-106,106]]",circle,green,vert,up,"[0,150]","[-106,106]",up,1,,,,,,001,2025-03-11_22h52.49.500,SL_sali,2021.2.3,Win32,60.24096386,1.0309,,,20,0,20,0,1,,,,,,,,
,,"[""circle"",""no_dis"",""vert"",""up"",[99999,99999],[0,-150]]",circle,no_dis,vert,up,"[99999,99999]","[0,-150]",up,1,,,,,,001,2025-03-11_22h52.49.500,SL_sali,2021.2.3,Win32,60.24096386,0.8565,,,21,0,21,0,1,,,,,,,,
,,"[""diamond"",""red"",""hori"",""left"",[106,106],[0,150]]",diamond,red,hori,left,"[106,106]","[0,150]",left,1,,,,,,001,2025-03-11_22h52.49.500,SL_sali,2021.2.3,Win32,60.24096386,1.6367,,,22,0,22,0,1,,,,,,,,
,,"[""circle"",""no_dis"",""hori"",""left"",[99999,99999],[-106,-106]]",circle,no_dis,hori,left,"[99999,99999]","[-106,-106]",left,1,,,,,,001,2025-03-11_22h52.49.500,SL_sali,2021.2.3,Win32,60.24096386,1.1055,,,23,0,23,0,1,,,,,,,,
,,"[""circle"",""no_dis"",""hori"",""left"",[99999,99999],[0,-150]]",circle,no_dis,hori,left,"[99999,99999]","[0,-150]",left,1,,,,,,001,2025-03-11_22h52.49.500,SL_sali,2021.2.3,Win32,60.24096386,0.6316,,,24,0,24,0,1,,,,,,,,
,,"[""circle"",""no_dis"",""hori"",""left"",[99999,99999],[-106,-106]]",circle,no_dis,hori,left,"[99999,99999]","[-106,-106]",left,1,,,,,,001,2025-03-11_22h52.49.500,SL_sali,2021.2.3,Win32,60.24096386,0.6751,,,25,0,25,0,1,,,,,,,,
,,"[""circle"",""red"",""vert"",""up"",[-106,106],[150,0]]",circle,red,vert,up,"[-106,106]","[150,0]",up,1,,,,,,001,2025-03-11_22h52.49.500,SL_sali,2021.2.3,Win32,60.24096386,1.0854,,,26,0,26,0,1,,,,,,,,
,,"[""circle"",""red"",""hori"",""left"",[106,-106],[0,150]]",circle,red,hori,left,"[106,-106]","[0,150]",up,0,,,,,,001,2025-03-11_22h52.49.500,SL_sali,2021.2.3,Win32,60.24096386,0.718,,,27,0,27,0,1,,,,,,,,
,,"[""diamond"",""red"",""vert"",""up"",[0,150],[0,-150]]",diamond,red,vert,up,"[0,150]","[0,-150]",left,0,,,,,,001,2025-03-11_22h52.49.500,SL_sali,2021.2.3,Win32,60.24096386,1.8998,,,28,0,28,0,1,,,,,,,,
,,"[""diamond"",""no_dis"",""hori"",""left"",[99999,99999],[150,0]]",diamond,no_dis,hori,left,"[99999,99999]","[150,0]",left,1,,,,,,001,2025-03-11_22h52.49.500,SL_sali,2021.2.3,Win32,60.24096386,0.8321,,,29,0,29,0,1,,,,,,,,
,,"[""diamond"",""red"",""vert"",""up"",[0,-150],[106,106]]",diamond,red,vert,up,"[0,-150]","[106,106]",up,1,,,,,,001,2025-03-11_22h52.49.500,SL_sali,2021.2.3,Win32,60.24096386,0.9397,,,30,0,30,0,1,,,,,,,,
,,"[""diamond"",""red"",""vert"",""up"",[0,150],[0,-150]]",diamond,red,vert,up,"[0,150]","[0,-150]",up,1,,,,,,001,2025-03-11_22h52.49.500,SL_sali,2021.2.3,Win32,60.24096386,1.0165,,,31,0,31,0,1,,,,,,,,
,,"[""circle"",""red"",""vert"",""up"",[0,150],[0,-150]]",circle,red,vert,up,"[0,150]","[0,-150]",up,1,,,,,,001,2025-03-11_22h52.49.500,SL_sali,2021.2.3,Win32,60.24096386,1.4483,,,32,0,32,0,1,,,,,,,,
,,"[""circle"",""no_dis"",""hori"",""left"",[99999,99999],[150,0]]",circle,no_dis,hori,left,"[99999,99999]","[150,0]",left,1,,,,,,001,2025-03-11_22h52.49.500,SL_sali,2021.2.3,Win32,60.24096386,0.7671,,,33,0,33,0,1,,,,,,,,
,,"[""circle"",""no_dis"",""vert"",""up"",[99999,99999],[-106,106]]",circle,no_dis,vert,up,"[99999,99999]","[-106,106]",left,0,,,,,,001,2025-03-11_22h52.49.500,SL_sali,2021.2.3,Win32,60.24096386,1.0397,,,34,0,34,0,1,,,,,,,,
,,"[""diamond"",""green"",""vert"",""up"",[-106,-106],[-106,106]]",diamond,green,vert,up,"[-106,-106]","[-106,106]",left,0,,,,,,001,2025-03-11_22h52.49.500,SL_sali,2021.2.3,Win32,60.24096386,1.0287,,,35,0,35,0,1,,,,,,,,
,,"[""diamond"",""red"",""vert"",""up"",[-106,106],[106,-106]]",diamond,red,vert,up,"[-106,106]","[106,-106]",left,0,,,,,,001,2025-03-11_22h52.49.500,SL_sali,2021.2.3,Win32,60.24096386,1.3537,,,36,0,36,0,1,,,,,,,,
,,"[""diamond"",""red"",""hori"",""left"",[0,150],[150,0]]",diamond,red,hori,left,"[0,150]","[150,0]",left,1,,,,,,001,2025-03-11_22h52.49.500,SL_sali,2021.2.3,Win32,60.24096386,1.5016,,,37,0,37,0,1,,,,,,,,
,,"[""circle"",""no_dis"",""vert"",""up"",[99999,99999],[-106,106]]",circle,no_dis,vert,up,"[99999,99999]","[-106,106]",up,1,,,,,,001,2025-03-11_22h52.49.500,SL_sali,2021.2.3,Win32,60.24096386,1.0426,,,38,0,38,0,1,,,,,,,,
,,"[""circle"",""green"",""hori"",""left"",[0,150],[0,-150]]",circle,green,hori,left,"[0,150]","[0,-150]",left,1,,,,,,001,2025-03-11_22h52.49.500,SL_sali,2021.2.3,Win32,60.24096386,0.9335,,,39,0,39,0,1,,,,,,,,
,,"[""diamond"",""red"",""vert"",""up"",[150,0],[-106,-106]]",diamond,red,vert,up,"[150,0]","[-106,-106]",up,1,,,,,,001,2025-03-11_22h52.49.500,SL_sali,2021.2.3,Win32,60.24096386,1.4979,,,40,0,40,0,1,,,,,,,,
,,"[""circle"",""green"",""vert"",""up"",[-106,106],[0,-150]]",circle,green,vert,up,"[-106,106]","[0,-150]",left,0,,,,,,001,2025-03-11_22h52.49.500,SL_sali,2021.2.3,Win32,60.24096386,0.9808,,,41,0,41,0,1,,,,,,,,
,,"[""circle"",""red"",""hori"",""left"",[106,-106],[150,0]]",circle,red,hori,left,"[106,-106]","[150,0]",left,1,,,,,,001,2025-03-11_22h52.49.500,SL_sali,2021.2.3,Win32,60.24096386,1.4985,,,42,0,42,0,1,,,,,,,,
,,"[""diamond"",""no_dis"",""vert"",""up"",[99999,99999],[0,-150]]",diamond,no_dis,vert,up,"[99999,99999]","[0,-150]",up,1,,,,,,001,2025-03-11_22h52.49.500,SL_sali,2021.2.3,Win32,60.24096386,1.2975,,,43,0,43,0,1,,,,,,,,
,,"[""diamond"",""no_dis"",""hori"",""left"",[99999,99999],[106,-106]]",diamond,no_dis,hori,left,"[99999,99999]","[106,-106]",left,1,,,,,,001,2025-03-11_22h52.49.500,SL_sali,2021.2.3,Win32,60.24096386,0.7217,,,44,0,44,0,1,,,,,,,,
,,"[""circle"",""no_dis"",""hori"",""left"",[99999,99999],[106,-106]]",circle,no_dis,hori,left,"[99999,99999]","[106,-106]",left,1,,,,,,001,2025-03-11_22h52.49.500,SL_sali,2021.2.3,Win32,60.24096386,1.4404,,,45,0,45,0,1,,,,,,,,
,,"[""diamond"",""no_dis"",""hori"",""left"",[99999,99999],[150,0]]",diamond,no_dis,hori,left,"[99999,99999]","[150,0]",left,1,,,,,,001,2025-03-11_22h52.49.500,SL_sali,2021.2.3,Win32,60.24096386,1.0096,,,46,0,46,0,1,,,,,,,,
,,"[""circle"",""green"",""hori"",""left"",[106,106],[-106,106]]",circle,green,hori,left,"[106,106]","[-106,106]",up,0,,,,,,001,2025-03-11_22h52.49.500,SL_sali,2021.2.3,Win32,60.24096386,0.9333,,,47,0,47,0,1,,,,,,,,
,,"[""diamond"",""no_dis"",""hori"",""left"",[99999,99999],[-150,0]]",diamond,no_dis,hori,left,"[99999,99999]","[-150,0]",left,1,,,,,,001,2025-03-11_22h52.49.500,SL_sali,2021.2.3,Win32,60.24096386,1.1976,,,48,0,48,0,1,,,,,,,,
,,"[""circle"",""no_dis"",""vert"",""up"",[99999,99999],[106,106]]",circle,no_dis,vert,up,"[99999,99999]","[106,106]",up,1,,,,,,001,2025-03-11_22h52.49.500,SL_sali,2021.2.3,Win32,60.24096386,0.9574,,,49,0,49,0,1,,,,,,,,
,,"[""diamond"",""no_dis"",""vert"",""up"",[99999,99999],[-106,106]]",diamond,no_dis,vert,up,"[99999,99999]","[-106,106]",up,1,,,,,,001,2025-03-11_22h52.49.500,SL_sali,2021.2.3,Win32,60.24096386,0.9028,,,50,0,50,0,1,,,,,,,,
,,"[""circle"",""red"",""vert"",""up"",[-106,-106],[106,106]]",circle,red,vert,up,"[-106,-106]","[106,106]",up,1,,,,,,001,2025-03-11_22h52.49.500,SL_sali,2021.2.3,Win32,60.24096386,1.5244,,,51,0,51,0,1,,,,,,,,
,,"[""circle"",""no_dis"",""vert"",""up"",[99999,99999],[-106,-106]]",circle,no_dis,vert,up,"[99999,99999]","[-106,-106]",up,1,,,,,,001,2025-03-11_22h52.49.500,SL_sali,2021.2.3,Win32,60.24096386,1.9038,,,52,0,52,0,1,,,,,,,,
,,"[""diamond"",""green"",""hori"",""left"",[-106,-106],[0,-150]]",diamond,green,hori,left,"[-106,-106]","[0,-150]",left,1,,,,,,001,2025-03-11_22h52.49.500,SL_sali,2021.2.3,Win32,60.24096386,1.2373,,,53,0,53,0,1,,,,,,,,
,,"[""circle"",""red"",""hori"",""left"",[150,0],[0,150]]",circle,red,hori,left,"[150,0]","[0,150]",up,0,,,,,,001,2025-03-11_22h52.49.500,SL_sali,2021.2.3,Win32,60.24096386,1.1289,,,54,0,54,0,1,,,,,,,,
,,"[""circle"",""no_dis"",""hori"",""left"",[99999,99999],[106,-106]]",circle,no_dis,hori,left,"[99999,99999]","[106,-106]",left,1,,,,,,001,2025-03-11_22h52.49.500,SL_sali,2021.2.3,Win32,60.24096386,1.0448,,,55,0,55,0,1,,,,,,,,
,,"[""circle"",""green"",""hori"",""left"",[0,150],[-106,-106]]",circle,green,hori,left,"[0,150]","[-106,-106]",left,1,,,,,,001,2025-03-11_22h52.49.500,SL_sali,2021.2.3,Win32,60.24096386,1.3523,,,56,0,56,0,1,,,,,,,,
,,"[""circle"",""red"",""hori"",""left"",[0,150],[106,-106]]",circle,red,hori,left,"[0,150]","[106,-106]",left,1,,,,,,001,2025-03-11_22h52.49.500,SL_sali,2021.2.3,Win32,60.24096386,1.006,,,57,0,57,0,1,,,,,,,,
,,"[""diamond"",""red"",""hori"",""left"",[106,106],[0,-150]]",diamond,red,hori,left,"[106,106]","[0,-150]",left,1,,,,,,001,2025-03-11_22h52.49.500,SL_sali,2021.2.3,Win32,60.24096386,0.9987,,,58,0,58,0,1,,,,,,,,
,,"[""diamond"",""no_dis"",""hori"",""left"",[99999,99999],[150,0]]",diamond,no_dis,hori,left,"[99999,99999]","[150,0]",left,1,,,,,,001,2025-03-11_22h52.49.500,SL_sali,2021.2.3,Win32,60.24096386,0.8093,,,59,0,59,0,1,,,,,,,,
,,"[""circle"",""green"",""vert"",""up"",[0,-150],[-106,-106]]",circle,green,vert,up,"[0,-150]","[-106,-106]",up,1,,,,,,001,2025-03-11_22h52.49.500,SL_sali,2021.2.3,Win32,60.24096386,1.0944,,,60,0,60,0,1,,,,,,,,
,,"[""circle"",""green"",""hori"",""left"",[-106,-106],[0,150]]",circle,green,hori,left,"[-106,-106]","[0,150]",left,1,,,,,,001,2025-03-11_22h52.49.500,SL_sali,2021.2.3,Win32,60.24096386,1.4491,,,61,0,61,0,1,,,,,,,,
,,"[""circle"",""red"",""hori"",""left"",[0,150],[-106,-106]]",circle,red,hori,left,"[0,150]","[-106,-106]",left,1,,,,,,001,2025-03-11_22h52.49.500,SL_sali,2021.2.3,Win32,60.24096386,0.8277,,,62,0,62,0,1,,,,,,,,
,,"[""circle"",""no_dis"",""hori"",""left"",[99999,99999],[0,-150]]",circle,no_dis,hori,left,"[99999,99999]","[0,-150]",left,1,,,,,,001,2025-03-11_22h52.49.500,SL_sali,2021.2.3,Win32,60.24096386,0.6919,,,63,0,63,0,1,,,,,,,,
,,"[""circle"",""green"",""hori"",""left"",[0,150],[-106,106]]",circle,green,hori,left,"[0,150]","[-106,106]",left,1,,,,,,001,2025-03-11_22h52.49.500,SL_sali,2021.2.3,Win32,60.24096386,0.888,,,64,0,64,0,1,,,,,,,,
,,"[""diamond"",""no_dis"",""vert"",""up"",[99999,99999],[-106,106]]",diamond,no_dis,vert,up,"[99999,99999]","[-106,106]",up,1,,,,,,001,2025-03-11_22h52.49.500,SL_sali,2021.2.3,Win32,60.24096386,0.9264,,,65,0,65,0,1,,,,,,,,
,,"[""diamond"",""green"",""vert"",""up"",[106,-106],[150,0]]",diamond,green,vert,up,"[106,-106]","[150,0]",up,1,,,,,,001,2025-03-11_22h52.49.500,SL_sali,2021.2.3,Win32,60.24096386,1.0674,,,66,0,66,0,1,,,,,,,,
,,"[""diamond"",""no_dis"",""vert"",""up"",[99999,99999],[0,150]]",diamond,no_dis,vert,up,"[99999,99999]","[0,150]",up,1,,,,,,001,2025-03-11_22h52.49.500,SL_sali,2021.2.3,Win32,60.24096386,0.8674,,,67,0,67,0,1,,,,,,,,
,,"[""diamond"",""no_dis"",""hori"",""left"",[99999,99999],[0,150]]",diamond,no_dis,hori,left,"[99999,99999]","[0,150]",left,1,,,,,,001,2025-03-11_22h52.49.500,SL_sali,2021.2.3,Win32,60.24096386,0.9997,,,68,0,68,0,1,,,,,,,,
,,"[""diamond"",""green"",""vert"",""up"",[-150,0],[106,106]]",diamond,green,vert,up,"[-150,0]","[106,106]",up,1,,,,,,001,2025-03-11_22h52.49.500,SL_sali,2021.2.3,Win32,60.24096386,0.704,,,69,0,69,0,1,,,,,,,,
,,"[""diamond"",""no_dis"",""hori"",""left"",[99999,99999],[-150,0]]",diamond,no_dis,hori,left,"[99999,99999]","[-150,0]",left,1,,,,,,001,2025-03-11_22h52.49.500,SL_sali,2021.2.3,Win32,60.24096386,1.1227,,,70,0,70,0,1,,,,,,,,
,,"[""diamond"",""green"",""hori"",""left"",[0,150],[-106,106]]",diamond,green,hori,left,"[0,150]","[-106,106]",left,1,,,,,,001,2025-03-11_22h52.49.500,SL_sali,2021.2.3,Win32,60.24096386,1.0649,,,71,0,71,0,1,,,,,,,,
,,"[""circle"",""no_dis"",""vert"",""up"",[99999,99999],[-106,-106]]",circle,no_dis,vert,up,"[99999,99999]","[-106,-106]",up,1,,,,,,001,2025-03-11_22h52.49.500,SL_sali,2021.2.3,Win32,60.24096386,0.6969,,,72,0,72,0,1,,,,,,,,
,,"[""diamond"",""no_dis"",""vert"",""up"",[99999,99999],[0,150]]",diamond,no_dis,vert,up,"[99999,99999]","[0,150]",up,1,,,,,,001,2025-03-11_22h52.49.500,SL_sali,2021.2.3,Win32,60.24096386,0.5742,,,73,0,73,0,1,,,,,,,,
,,"[""diamond"",""red"",""hori"",""left"",[0,150],[150,0]]",diamond,red,hori,left,"[0,150]","[150,0]",left,1,,,,,,001,2025-03-11_22h52.49.500,SL_sali,2021.2.3,Win32,60.24096386,1.2197,,,74,0,74,0,1,,,,,,,,
,,"[""circle"",""red"",""hori"",""left"",[0,150],[-106,-106]]",circle,red,hori,left,"[0,150]","[-106,-106]",left,1,,,,,,001,2025-03-11_22h52.49.500,SL_sali,2021.2.3,Win32,60.24096386,1.1638,,,75,0,75,0,1,,,,,,,,
,,"[""diamond"",""red"",""hori"",""left"",[-106,106],[106,106]]",diamond,red,hori,left,"[-106,106]","[106,106]",left,1,,,,,,001,2025-03-11_22h52.49.500,SL_sali,2021.2.3,Win32,60.24096386,0.8069,,,76,0,76,0,1,,,,,,,,
,,"[""diamond"",""green"",""vert"",""up"",[-150,0],[-106,-106]]",diamond,green,vert,up,"[-150,0]","[-106,-106]",up,1,,,,,,001,2025-03-11_22h52.49.500,SL_sali,2021.2.3,Win32,60.24096386,1.1924,,,77,0,77,0,1,,,,,,,,
,,"[""circle"",""green"",""vert"",""up"",[150,0],[0,150]]",circle,green,vert,up,"[150,0]","[0,150]",up,1,,,,,,001,2025-03-11_22h52.49.500,SL_sali,2021.2.3,Win32,60.24096386,1.0373,,,78,0,78,0,1,,,,,,,,
,,"[""circle"",""green"",""hori"",""left"",[-106,-106],[150,0]]",circle,green,hori,left,"[-106,-106]","[150,0]",left,1,,,,,,001,2025-03-11_22h52.49.500,SL_sali,2021.2.3,Win32,60.24096386,1.1878,,,79,0,79,0,1,,,,,,,,
,,"[""circle"",""no_dis"",""vert"",""up"",[99999,99999],[0,150]]",circle,no_dis,vert,up,"[99999,99999]","[0,150]",up,1,,,,,,001,2025-03-11_22h52.49.500,SL_sali,2021.2.3,Win32,60.24096386,1.0353,,,80,0,80,0,1,,,,,,,,
,,"[""diamond"",""green"",""hori"",""left"",[0,-150],[-150,0]]",diamond,green,hori,left,"[0,-150]","[-150,0]",left,1,,,,,,001,2025-03-11_22h52.49.500,SL_sali,2021.2.3,Win32,60.24096386,0.8625,,,81,0,81,0,1,,,,,,,,
,,"[""circle"",""red"",""hori"",""left"",[0,150],[106,106]]",circle,red,hori,left,"[0,150]","[106,106]",left,1,,,,,,001,2025-03-11_22h52.49.500,SL_sali,2021.2.3,Win32,60.24096386,1.4863,,,82,0,82,0,1,,,,,,,,
,,"[""circle"",""green"",""vert"",""up"",[150,0],[0,-150]]",circle,green,vert,up,"[150,0]","[0,-150]",up,1,,,,,,001,2025-03-11_22h52.49.500,SL_sali,2021.2.3,Win32,60.24096386,1.5204,,,83,0,83,0,1,,,,,,,,
,,"[""diamond"",""green"",""vert"",""up"",[106,-106],[0,150]]",diamond,green,vert,up,"[106,-106]","[0,150]",up,1,,,,,,001,2025-03-11_22h52.49.500,SL_sali,2021.2.3,Win32,60.24096386,1.4067,,,84,0,84,0,1,,,,,,,,
,,"[""diamond"",""green"",""hori"",""left"",[-106,106],[106,-106]]",diamond,green,hori,left,"[-106,106]","[106,-106]",left,1,,,,,,001,2025-03-11_22h52.49.500,SL_sali,2021.2.3,Win32,60.24096386,1.0083,,,85,0,85,0,1,,,,,,,,
,,"[""circle"",""no_dis"",""vert"",""up"",[99999,99999],[106,-106]]",circle,no_dis,vert,up,"[99999,99999]","[106,-106]",up,1,,,,,,001,2025-03-11_22h52.49.500,SL_sali,2021.2.3,Win32,60.24096386,0.9709,,,86,0,86,0,1,,,,,,,,
,,"[""diamond"",""green"",""vert"",""up"",[106,-106],[-106,-106]]",diamond,green,vert,up,"[106,-106]","[-106,-106]",up,1,,,,,,001,2025-03-11_22h52.49.500,SL_sali,2021.2.3,Win32,60.24096386,1.1166,,,87,0,87,0,1,,,,,,,,
,,"[""diamond"",""red"",""hori"",""left"",[150,0],[-150,0]]",diamond,red,hori,left,"[150,0]","[-150,0]",left,1,,,,,,001,2025-03-11_22h52.49.500,SL_sali,2021.2.3,Win32,60.24096386,1.0619,,,88,0,88,0,1,,,,,,,,
,,"[""circle"",""green"",""vert"",""up"",[-106,-106],[-150,0]]",circle,green,vert,up,"[-106,-106]","[-150,0]",up,1,,,,,,001,2025-03-11_22h52.49.500,SL_sali,2021.2.3,Win32,60.24096386,1.25,,,89,0,89,0,1,,,,,,,,
,,"[""diamond"",""red"",""hori"",""left"",[0,150],[150,0]]",diamond,red,hori,left,"[0,150]","[150,0]",left,1,,,,,,001,2025-03-11_22h52.49.500,SL_sali,2021.2.3,Win32,60.24096386,1.0522,,,90,0,90,0,1,,,,,,,,
,,"[""circle"",""green"",""vert"",""up"",[0,-150],[106,-106]]",circle,green,vert,up,"[0,-150]","[106,-106]",left,0,,,,,,001,2025-03-11_22h52.49.500,SL_sali,2021.2.3,Win32,60.24096386,0.9813,,,91,0,91,0,1,,,,,,,,
,,"[""diamond"",""green"",""vert"",""up"",[106,106],[0,150]]",diamond,green,vert,up,"[106,106]","[0,150]",up,1,,,,,,001,2025-03-11_22h52.49.500,SL_sali,2021.2.3,Win32,60.24096386,0.9023,,,92,0,92,0,1,,,,,,,,
,,"[""circle"",""no_dis"",""hori"",""left"",[99999,99999],[106,106]]",circle,no_dis,hori,left,"[99999,99999]","[106,106]",left,1,,,,,,001,2025-03-11_22h52.49.500,SL_sali,2021.2.3,Win32,60.24096386,0.7865,,,93,0,93,0,1,,,,,,,,
,,"[""diamond"",""red"",""vert"",""up"",[106,-106],[106,106]]",diamond,red,vert,up,"[106,-106]","[106,106]",up,1,,,,,,001,2025-03-11_22h52.49.500,SL_sali,2021.2.3,Win32,60.24096386,1.0435,,,94,0,94,0,1,,,,,,,,
,,"[""circle"",""green"",""vert"",""up"",[106,106],[106,-106]]",circle,green,vert,up,"[106,106]","[106,-106]",up,1,,,,,,001,2025-03-11_22h52.49.500,SL_sali,2021.2.3,Win32,60.24096386,1.2776,,,95,0,95,0,1,,,,,,,,
,,"[""diamond"",""red"",""hori"",""left"",[150,0],[106,-106]]",diamond,red,hori,left,"[150,0]","[106,-106]",left,1,,,,,,001,2025-03-11_22h52.49.500,SL_sali,2021.2.3,Win32,60.24096386,1.2802,,,96,0,96,0,1,,,,,,,,
,,"[""diamond"",""red"",""vert"",""up"",[-106,106],[106,-106]]",diamond,red,vert,up,"[-106,106]","[106,-106]",up,1,,,,,,001,2025-03-11_22h52.49.500,SL_sali,2021.2.3,Win32,60.24096386,1.2267,,,97,0,97,0,1,,,,,,,,
,,"[""diamond"",""green"",""hori"",""left"",[150,0],[0,150]]",diamond,green,hori,left,"[150,0]","[0,150]",left,1,,,,,,001,2025-03-11_22h52.49.500,SL_sali,2021.2.3,Win32,60.24096386,1.278,,,98,0,98,0,1,,,,,,,,
,,"[""diamond"",""green"",""hori"",""left"",[0,150],[150,0]]",diamond,green,hori,left,"[0,150]","[150,0]",left,1,,,,,,001,2025-03-11_22h52.49.500,SL_sali,2021.2.3,Win32,60.24096386,1.1309,,,99,0,99,0,1,,,,,,,,
,,"[""diamond"",""red"",""hori"",""left"",[-150,0],[0,150]]",diamond,red,hori,left,"[-150,0]","[0,150]",left,1,,,,,,001,2025-03-11_22h52.49.500,SL_sali,2021.2.3,Win32,60.24096386,0.7376,,,100,0,100,0,1,,,,,,,,
,,"[""diamond"",""green"",""vert"",""up"",[150,0],[-150,0]]",diamond,green,vert,up,"[150,0]","[-150,0]",up,1,,,,,,001,2025-03-11_22h52.49.500,SL_sali,2021.2.3,Win32,60.24096386,0.7548,,,101,0,101,0,1,,,,,,,,
,,"[""diamond"",""no_dis"",""hori"",""left"",[99999,99999],[-106,106]]",diamond,no_dis,hori,left,"[99999,99999]","[-106,106]",left,1,,,,,,001,2025-03-11_22h52.49.500,SL_sali,2021.2.3,Win32,60.24096386,0.6794,,,102,0,102,0,1,,,,,,,,
,,"[""circle"",""green"",""hori"",""left"",[0,-150],[-106,106]]",circle,green,hori,left,"[0,-150]","[-106,106]",left,1,,,,,,001,2025-03-11_22h52.49.500,SL_sali,2021.2.3,Win32,60.24096386,1.0203,,,103,0,103,0,1,,,,,,,,
,,"[""diamond"",""no_dis"",""vert"",""up"",[99999,99999],[106,106]]",diamond,no_dis,vert,up,"[99999,99999]","[106,106]",up,1,,,,,,001,2025-03-11_22h52.49.500,SL_sali,2021.2.3,Win32,60.24096386,1.2328,,,104,0,104,0,1,,,,,,,,
,,"[""circle"",""red"",""vert"",""up"",[-150,0],[0,150]]",circle,red,vert,up,"[-150,0]","[0,150]",up,1,,,,,,001,2025-03-11_22h52.49.500,SL_sali,2021.2.3,Win32,60.24096386,1.3513,,,105,0,105,0,1,,,,,,,,
,,"[""circle"",""green"",""vert"",""up"",[-150,0],[0,-150]]",circle,green,vert,up,"[-150,0]","[0,-150]",up,1,,,,,,001,2025-03-11_22h52.49.500,SL_sali,2021.2.3,Win32,60.24096386,1.4481,,,106,0,106,0,1,,,,,,,,
,,"[""diamond"",""green"",""hori"",""left"",[0,-150],[106,106]]",diamond,green,hori,left,"[0,-150]","[106,106]",left,1,,,,,,001,2025-03-11_22h52.49.500,SL_sali,2021.2.3,Win32,60.24096386,0.7474,,,107,0,107,0,1,,,,,,,,
,,"[""circle"",""red"",""vert"",""up"",[0,-150],[0,150]]",circle,red,vert,up,"[0,-150]","[0,150]",up,1,,,,,,001,2025-03-11_22h52.49.500,SL_sali,2021.2.3,Win32,60.24096386,0.9025,,,108,0,108,0,1,,,,,,,,
,,"[""circle"",""red"",""hori"",""left"",[-106,106],[0,-150]]",circle,red,hori,left,"[-106,106]","[0,-150]",left,1,,,,,,001,2025-03-11_22h52.49.500,SL_sali,2021.2.3,Win32,60.24096386,1.1864,,,109,0,109,0,1,,,,,,,,
,,"[""diamond"",""no_dis"",""vert"",""up"",[99999,99999],[-106,-106]]",diamond,no_dis,vert,up,"[99999,99999]","[-106,-106]",up,1,,,,,,001,2025-03-11_22h52.49.500,SL_sali,2021.2.3,Win32,60.24096386,0.9169,,,110,0,110,0,1,,,,,,,,
,,"[""circle"",""green"",""hori"",""left"",[0,150],[-106,106]]",circle,green,hori,left,"[0,150]","[-106,106]",left,1,,,,,,001,2025-03-11_22h52.49.500,SL_sali,2021.2.3,Win32,60.24096386,1.1027,,,111,0,111,0,1,,,,,,,,
,,"[""circle"",""no_dis"",""hori"",""left"",[99999,99999],[106,106]]",circle,no_dis,hori,left,"[99999,99999]","[106,106]",left,1,,,,,,001,2025-03-11_22h52.49.500,SL_sali,2021.2.3,Win32,60.24096386,1.233,,,112,0,112,0,1,,,,,,,,
,,"[""circle"",""red"",""vert"",""up"",[0,150],[-150,0]]",circle,red,vert,up,"[0,150]","[-150,0]",up,1,,,,,,001,2025-03-11_22h52.49.500,SL_sali,2021.2.3,Win32,60.24096386,1.2363,,,113,0,113,0,1,,,,,,,,
,,"[""diamond"",""no_dis"",""vert"",""up"",[99999,99999],[-150,0]]",diamond,no_dis,vert,up,"[99999,99999]","[-150,0]",up,1,,,,,,001,2025-03-11_22h52.49.500,SL_sali,2021.2.3,Win32,60.24096386,0.7785,,,114,0,114,0,1,,,,,,,,
,,"[""diamond"",""green"",""hori"",""left"",[106,-106],[106,106]]",diamond,green,hori,left,"[106,-106]","[106,106]",left,1,,,,,,001,2025-03-11_22h52.49.500,SL_sali,2021.2.3,Win32,60.24096386,0.965,,,115,0,115,0,1,,,,,,,,
,,"[""diamond"",""red"",""vert"",""up"",[106,106],[0,150]]",diamond,red,vert,up,"[106,106]","[0,150]",up,1,,,,,,001,2025-03-11_22h52.49.500,SL_sali,2021.2.3,Win32,60.24096386,1.0373,,,116,0,116,0,1,,,,,,,,
,,"[""circle"",""red"",""vert"",""up"",[106,106],[-150,0]]",circle,red,vert,up,"[106,106]","[-150,0]",up,1,,,,,,001,2025-03-11_22h52.49.500,SL_sali,2021.2.3,Win32,60.24096386,0.8993,,,117,0,117,0,1,,,,,,,,
,,"[""circle"",""red"",""vert"",""up"",[-106,-106],[0,150]]",circle,red,vert,up,"[-106,-106]","[0,150]",up,1,,,,,,001,2025-03-11_22h52.49.500,SL_sali,2021.2.3,Win32,60.24096386,1.0148,,,118,0,118,0,1,,,,,,,,
,,"[""diamond"",""green"",""hori"",""left"",[-150,0],[0,-150]]",diamond,green,hori,left,"[-150,0]","[0,-150]",left,1,,,,,,001,2025-03-11_22h52.49.500,SL_sali,2021.2.3,Win32,60.24096386,1.0713,,,119,0,119,0,1,,,,,,,,
,,,,,,,,,,,,,,,,001,2025-03-11_22h52.49.500,SL_sali,2021.2.3,Win32,60.24096386,,,,,,,,,3,space,3.2329,2,0,2,0,1
,,"[""diamond"",""red"",""hori"",""left"",[150,0],[106,-106]]",diamond,red,hori,left,"[150,0]","[106,-106]",left,1,,,,,,001,2025-03-11_22h52.49.500,SL_sali,2021.2.3,Win32,60.24096386,1.0274,,,0,0,0,0,1,,,,,,,,
,,"[""circle"",""green"",""vert"",""up"",[-106,106],[0,-150]]",circle,green,vert,up,"[-106,106]","[0,-150]",up,1,,,,,,001,2025-03-11_22h52.49.500,SL_sali,2021.2.3,Win32,60.24096386,0.8016,,,1,0,1,0,1,,,,,,,,
,,"[""circle"",""red"",""hori"",""left"",[0,150],[106,-106]]",circle,red,hori,left,"[0,150]","[106,-106]",left,1,,,,,,001,2025-03-11_22h52.49.500,SL_sali,2021.2.3,Win32,60.24096386,0.8487,,,2,0,2,0,1,,,,,,,,
,,"[""diamond"",""red"",""vert"",""up"",[0,150],[0,-150]]",diamond,red,vert,up,"[0,150]","[0,-150]",left,0,,,,,,001,2025-03-11_22h52.49.500,SL_sali,2021.2.3,Win32,60.24096386,0.8813,,,3,0,3,0,1,,,,,,,,
,,"[""circle"",""red"",""vert"",""up"",[-150,0],[0,150]]",circle,red,vert,up,"[-150,0]","[0,150]",up,1,,,,,,001,2025-03-11_22h52.49.500,SL_sali,2021.2.3,Win32,60.24096386,0.7973,,,4,0,4,0,1,,,,,,,,
,,"[""circle"",""green"",""hori"",""left"",[0,-150],[-106,106]]",circle,green,hori,left,"[0,-150]","[-106,106]",left,1,,,,,,001,2025-03-11_22h52.49.500,SL_sali,2021.2.3,Win32,60.24096386,0.7574,,,5,0,5,0,1,,,,,,,,
,,"[""circle"",""no_dis"",""hori"",""left"",[99999,99999],[106,106]]",circle,no_dis,hori,left,"[99999,99999]","[106,106]",left,1,,,,,,001,2025-03-11_22h52.49.500,SL_sali,2021.2.3,Win32,60.24096386,0.8062,,,6,0,6,0,1,,,,,,,,
,,"[""circle"",""no_dis"",""vert"",""up"",[99999,99999],[0,150]]",circle,no_dis,vert,up,"[99999,99999]","[0,150]",up,1,,,,,,001,2025-03-11_22h52.49.500,SL_sali,2021.2.3,Win32,60.24096386,0.6702,,,7,0,7,0,1,,,,,,,,
,,"[""diamond"",""red"",""hori"",""left"",[106,106],[0,150]]",diamond,red,hori,left,"[106,106]","[0,150]",left,1,,,,,,001,2025-03-11_22h52.49.500,SL_sali,2021.2.3,Win32,60.24096386,1.4501,,,8,0,8,0,1,,,,,,,,
,,"[""circle"",""no_dis"",""vert"",""up"",[99999,99999],[-106,106]]",circle,no_dis,vert,up,"[99999,99999]","[-106,106]",up,1,,,,,,001,2025-03-11_22h52.49.500,SL_sali,2021.2.3,Win32,60.24096386,1.7133,,,9,0,9,0,1,,,,,,,,
,,"[""circle"",""green"",""vert"",""up"",[-150,0],[0,150]]",circle,green,vert,up,"[-150,0]","[0,150]",left,0,,,,,,001,2025-03-11_22h52.49.500,SL_sali,2021.2.3,Win32,60.24096386,1.1844,,,10,0,10,0,1,,,,,,,,
,,"[""circle"",""red"",""vert"",""up"",[0,150],[-150,0]]",circle,red,vert,up,"[0,150]","[-150,0]",up,1,,,,,,001,2025-03-11_22h52.49.500,SL_sali,2021.2.3,Win32,60.24096386,1.599,,,11,0,11,0,1,,,,,,,,
,,"[""diamond"",""no_dis"",""hori"",""left"",[99999,99999],[-106,106]]",diamond,no_dis,hori,left,"[99999,99999]","[-106,106]",left,1,,,,,,001,2025-03-11_22h52.49.500,SL_sali,2021.2.3,Win32,60.24096386,1.1314,,,12,0,12,0,1,,,,,,,,
,,"[""circle"",""red"",""vert"",""up"",[106,106],[-150,0]]",circle,red,vert,up,"[106,106]","[-150,0]",up,1,,,,,,001,2025-03-11_22h52.49.500,SL_sali,2021.2.3,Win32,60.24096386,1.705,,,13,0,13,0,1,,,,,,,,
,,"[""circle"",""green"",""hori"",""left"",[0,150],[-106,-106]]",circle,green,hori,left,"[0,150]","[-106,-106]",left,1,,,,,,001,2025-03-11_22h52.49.500,SL_sali,2021.2.3,Win32,60.24096386,2.1388,,,14,0,14,0,1,,,,,,,,
,,"[""circle"",""red"",""hori"",""left"",[0,150],[-106,-106]]",circle,red,hori,left,"[0,150]","[-106,-106]",left,1,,,,,,001,2025-03-11_22h52.49.500,SL_sali,2021.2.3,Win32,60.24096386,1.3361,,,15,0,15,0,1,,,,,,,,
,,"[""diamond"",""no_dis"",""vert"",""up"",[99999,99999],[0,-150]]",diamond,no_dis,vert,up,"[99999,99999]","[0,-150]",up,1,,,,,,001,2025-03-11_22h52.49.500,SL_sali,2021.2.3,Win32,60.24096386,1.0268,,,16,0,16,0,1,,,,,,,,
,,"[""circle"",""green"",""vert"",""up"",[0,-150],[-106,-106]]",circle,green,vert,up,"[0,-150]","[-106,-106]",up,1,,,,,,001,2025-03-11_22h52.49.500,SL_sali,2021.2.3,Win32,60.24096386,1.7339,,,17,0,17,0,1,,,,,,,,
,,"[""diamond"",""no_dis"",""hori"",""left"",[99999,99999],[150,0]]",diamond,no_dis,hori,left,"[99999,99999]","[150,0]",left,1,,,,,,001,2025-03-11_22h52.49.500,SL_sali,2021.2.3,Win32,60.24096386,0.9711,,,18,0,18,0,1,,,,,,,,
,,"[""circle"",""green"",""hori"",""left"",[0,150],[-106,106]]",circle,green,hori,left,"[0,150]","[-106,106]",left,1,,,,,,001,2025-03-11_22h52.49.500,SL_sali,2021.2.3,Win32,60.24096386,1.4561,,,19,0,19,0,1,,,,,,,,
,,"[""diamond"",""no_dis"",""vert"",""up"",[99999,99999],[-106,106]]",diamond,no_dis,vert,up,"[99999,99999]","[-106,106]",left,0,,,,,,001,2025-03-11_22h52.49.500,SL_sali,2021.2.3,Win32,60.24096386,0.9139,,,20,0,20,0,1,,,,,,,,
,,"[""circle"",""red"",""vert"",""up"",[-106,-106],[-150,0]]",circle,red,vert,up,"[-106,-106]","[-150,0]",up,1,,,,,,001,2025-03-11_22h52.49.500,SL_sali,2021.2.3,Win32,60.24096386,1.3629,,,21,0,21,0,1,,,,,,,,
,,"[""circle"",""no_dis"",""hori"",""left"",[99999,99999],[106,-106]]",circle,no_dis,hori,left,"[99999,99999]","[106,-106]",left,1,,,,,,001,2025-03-11_22h52.49.500,SL_sali,2021.2.3,Win32,60.24096386,1.6658,,,22,0,22,0,1,,,,,,,,
,,"[""circle"",""no_dis"",""hori"",""left"",[99999,99999],[-106,-106]]",circle,no_dis,hori,left,"[99999,99999]","[-106,-106]",left,1,,,,,,001,2025-03-11_22h52.49.500,SL_sali,2021.2.3,Win32,60.24096386,1.5474,,,23,0,23,0,1,,,,,,,,
,,"[""diamond"",""green"",""vert"",""up"",[106,106],[0,150]]",diamond,green,vert,up,"[106,106]","[0,150]",up,1,,,,,,001,2025-03-11_22h52.49.500,SL_sali,2021.2.3,Win32,60.24096386,2.5621,,,24,0,24,0,1,,,,,,,,
,,"[""diamond"",""red"",""hori"",""left"",[-150,0],[0,150]]",diamond,red,hori,left,"[-150,0]","[0,150]",left,1,,,,,,001,2025-03-11_22h52.49.500,SL_sali,2021.2.3,Win32,60.24096386,1.1956,,,25,0,25,0,1,,,,,,,,
,,"[""diamond"",""red"",""hori"",""left"",[-106,106],[106,106]]",diamond,red,hori,left,"[-106,106]","[106,106]",left,1,,,,,,001,2025-03-11_22h52.49.500,SL_sali,2021.2.3,Win32,60.24096386,0.8147,,,26,0,26,0,1,,,,,,,,
,,"[""circle"",""red"",""hori"",""left"",[106,-106],[150,0]]",circle,red,hori,left,"[106,-106]","[150,0]",left,1,,,,,,001,2025-03-11_22h52.49.500,SL_sali,2021.2.3,Win32,60.24096386,1.0228,,,27,0,27,0,1,,,,,,,,
,,"[""circle"",""green"",""hori"",""left"",[106,-106],[150,0]]",circle,green,hori,left,"[106,-106]","[150,0]",left,1,,,,,,001,2025-03-11_22h52.49.500,SL_sali,2021.2.3,Win32,60.24096386,0.9447,,,28,0,28,0,1,,,,,,,,
,,"[""circle"",""red"",""hori"",""left"",[150,0],[0,150]]",circle,red,hori,left,"[150,0]","[0,150]",left,1,,,,,,001,2025-03-11_22h52.49.500,SL_sali,2021.2.3,Win32,60.24096386,1.1633,,,29,0,29,0,1,,,,,,,,
,,"[""circle"",""green"",""vert"",""up"",[150,0],[0,150]]",circle,green,vert,up,"[150,0]","[0,150]",left,0,,,,,,001,2025-03-11_22h52.49.500,SL_sali,2021.2.3,Win32,60.24096386,0.5385,,,30,0,30,0,1,,,,,,,,
,,"[""circle"",""no_dis"",""vert"",""up"",[99999,99999],[-106,106]]",circle,no_dis,vert,up,"[99999,99999]","[-106,106]",up,1,,,,,,001,2025-03-11_22h52.49.500,SL_sali,2021.2.3,Win32,60.24096386,0.8673,,,31,0,31,0,1,,,,,,,,
,,"[""diamond"",""no_dis"",""vert"",""up"",[99999,99999],[-106,106]]",diamond,no_dis,vert,up,"[99999,99999]","[-106,106]",left,0,,,,,,001,2025-03-11_22h52.49.500,SL_sali,2021.2.3,Win32,60.24096386,0.7303,,,32,0,32,0,1,,,,,,,,
,,"[""diamond"",""green"",""hori"",""left"",[0,150],[-106,106]]",diamond,green,hori,left,"[0,150]","[-106,106]",left,1,,,,,,001,2025-03-11_22h52.49.500,SL_sali,2021.2.3,Win32,60.24096386,1.4285,,,33,0,33,0,1,,,,,,,,
,,"[""diamond"",""red"",""vert"",""up"",[0,150],[-106,106]]",diamond,red,vert,up,"[0,150]","[-106,106]",up,1,,,,,,001,2025-03-11_22h52.49.500,SL_sali,2021.2.3,Win32,60.24096386,1.1562,,,34,0,34,0,1,,,,,,,,
,,"[""circle"",""green"",""hori"",""left"",[0,150],[-106,-106]]",circle,green,hori,left,"[0,150]","[-106,-106]",left,1,,,,,,001,2025-03-11_22h52.49.500,SL_sali,2021.2.3,Win32,60.24096386,1.3079,,,35,0,35,0,1,,,,,,,,
,,"[""circle"",""no_dis"",""vert"",""up"",[99999,99999],[106,-106]]",circle,no_dis,vert,up,"[99999,99999]","[106,-106]",up,1,,,,,,001,2025-03-11_22h52.49.500,SL_sali,2021.2.3,Win32,60.24096386,0.914,,,36,0,36,0,1,,,,,,,,
,,"[""diamond"",""no_dis"",""vert"",""up"",[99999,99999],[0,150]]",diamond,no_dis,vert,up,"[99999,99999]","[0,150]",left,0,,,,,,001,2025-03-11_22h52.49.500,SL_sali,2021.2.3,Win32,60.24096386,0.6955,,,37,0,37,0,1,,,,,,,,
,,"[""circle"",""red"",""hori"",""left"",[-106,106],[0,-150]]",circle,red,hori,left,"[-106,106]","[0,-150]",up,0,,,,,,001,2025-03-11_22h52.49.500,SL_sali,2021.2.3,Win32,60.24096386,1.203,,,38,0,38,0,1,,,,,,,,
,,"[""circle"",""no_dis"",""vert"",""up"",[99999,99999],[106,-106]]",circle,no_dis,vert,up,"[99999,99999]","[106,-106]",up,1,,,,,,001,2025-03-11_22h52.49.500,SL_sali,2021.2.3,Win32,60.24096386,1.0009,,,39,0,39,0,1,,,,,,,,
,,"[""diamond"",""no_dis"",""hori"",""left"",[99999,99999],[150,0]]",diamond,no_dis,hori,left,"[99999,99999]","[150,0]",left,1,,,,,,001,2025-03-11_22h52.49.500,SL_sali,2021.2.3,Win32,60.24096386,1.0769,,,40,0,40,0,1,,,,,,,,
,,"[""diamond"",""red"",""hori"",""left"",[0,150],[150,0]]",diamond,red,hori,left,"[0,150]","[150,0]",left,1,,,,,,001,2025-03-11_22h52.49.500,SL_sali,2021.2.3,Win32,60.24096386,1.1688,,,41,0,41,0,1,,,,,,,,
,,"[""circle"",""red"",""vert"",""up"",[0,150],[0,-150]]",circle,red,vert,up,"[0,150]","[0,-150]",up,1,,,,,,001,2025-03-11_22h52.49.500,SL_sali,2021.2.3,Win32,60.24096386,0.9839,,,42,0,42,0,1,,,,,,,,
,,"[""diamond"",""no_dis"",""hori"",""left"",[99999,99999],[-150,0]]",diamond,no_dis,hori,left,"[99999,99999]","[-150,0]",left,1,,,,,,001,2025-03-11_22h52.49.500,SL_sali,2021.2.3,Win32,60.24096386,0.816,,,43,0,43,0,1,,,,,,,,
,,"[""diamond"",""no_dis"",""vert"",""up"",[99999,99999],[-106,-106]]",diamond,no_dis,vert,up,"[99999,99999]","[-106,-106]",up,1,,,,,,001,2025-03-11_22h52.49.500,SL_sali,2021.2.3,Win32,60.24096386,0.9259,,,44,0,44,0,1,,,,,,,,
,,"[""circle"",""green"",""vert"",""up"",[106,106],[106,-106]]",circle,green,vert,up,"[106,106]","[106,-106]",up,1,,,,,,001,2025-03-11_22h52.49.500,SL_sali,2021.2.3,Win32,60.24096386,1.1624,,,45,0,45,0,1,,,,,,,,
,,"[""diamond"",""no_dis"",""hori"",""left"",[99999,99999],[150,0]]",diamond,no_dis,hori,left,"[99999,99999]","[150,0]",left,1,,,,,,001,2025-03-11_22h52.49.500,SL_sali,2021.2.3,Win32,60.24096386,0.7978,,,46,0,46,0,1,,,,,,,,
,,"[""circle"",""red"",""hori"",""left"",[-150,0],[-106,-106]]",circle,red,hori,left,"[-150,0]","[-106,-106]",left,1,,,,,,001,2025-03-11_22h52.49.500,SL_sali,2021.2.3,Win32,60.24096386,1.2497,,,47,0,47,0,1,,,,,,,,
,,"[""diamond"",""red"",""hori"",""left"",[106,106],[0,-150]]",diamond,red,hori,left,"[106,106]","[0,-150]",left,1,,,,,,001,2025-03-11_22h52.49.500,SL_sali,2021.2.3,Win32,60.24096386,0.9824,,,48,0,48,0,1,,,,,,,,
,,"[""circle"",""no_dis"",""vert"",""up"",[99999,99999],[106,106]]",circle,no_dis,vert,up,"[99999,99999]","[106,106]",up,1,,,,,,001,2025-03-11_22h52.49.500,SL_sali,2021.2.3,Win32,60.24096386,0.9171,,,49,0,49,0,1,,,,,,,,
,,"[""circle"",""no_dis"",""hori"",""left"",[99999,99999],[0,150]]",circle,no_dis,hori,left,"[99999,99999]","[0,150]",left,1,,,,,,001,2025-03-11_22h52.49.500,SL_sali,2021.2.3,Win32,60.24096386,0.7825,,,50,0,50,0,1,,,,,,,,
,,"[""diamond"",""green"",""vert"",""up"",[-150,0],[106,106]]",diamond,green,vert,up,"[-150,0]","[106,106]",up,1,,,,,,001,2025-03-11_22h52.49.500,SL_sali,2021.2.3,Win32,60.24096386,0.8466,,,51,0,51,0,1,,,,,,,,
,,"[""diamond"",""green"",""hori"",""left"",[-106,-106],[0,-150]]",diamond,green,hori,left,"[-106,-106]","[0,-150]",left,1,,,,,,001,2025-03-11_22h52.49.500,SL_sali,2021.2.3,Win32,60.24096386,1.5503,,,52,0,52,0,1,,,,,,,,
,,"[""diamond"",""no_dis"",""hori"",""left"",[99999,99999],[-150,0]]",diamond,no_dis,hori,left,"[99999,99999]","[-150,0]",left,1,,,,,,001,2025-03-11_22h52.49.500,SL_sali,2021.2.3,Win32,60.24096386,0.6683,,,53,0,53,0,1,,,,,,,,
,,"[""diamond"",""green"",""hori"",""left"",[0,150],[-106,106]]",diamond,green,hori,left,"[0,150]","[-106,106]",left,1,,,,,,001,2025-03-11_22h52.49.500,SL_sali,2021.2.3,Win32,60.24096386,0.8129,,,54,0,54,0,1,,,,,,,,
,,"[""diamond"",""no_dis"",""hori"",""left"",[99999,99999],[0,150]]",diamond,no_dis,hori,left,"[99999,99999]","[0,150]",left,1,,,,,,001,2025-03-11_22h52.49.500,SL_sali,2021.2.3,Win32,60.24096386,0.8011,,,55,0,55,0,1,,,,,,,,
,,"[""diamond"",""red"",""vert"",""up"",[0,150],[150,0]]",diamond,red,vert,up,"[0,150]","[150,0]",up,1,,,,,,001,2025-03-11_22h52.49.500,SL_sali,2021.2.3,Win32,60.24096386,1.4483,,,56,0,56,0,1,,,,,,,,
,,"[""circle"",""green"",""hori"",""left"",[0,150],[-106,106]]",circle,green,hori,left,"[0,150]","[-106,106]",left,1,,,,,,001,2025-03-11_22h52.49.500,SL_sali,2021.2.3,Win32,60.24096386,1.1322,,,57,0,57,0,1,,,,,,,,
,,"[""diamond"",""no_dis"",""vert"",""up"",[99999,99999],[106,106]]",diamond,no_dis,vert,up,"[99999,99999]","[106,106]",up,1,,,,,,001,2025-03-11_22h52.49.500,SL_sali,2021.2.3,Win32,60.24096386,0.9977,,,58,0,58,0,1,,,,,,,,
,,"[""circle"",""red"",""hori"",""left"",[0,150],[106,-106]]",circle,red,hori,left,"[0,150]","[106,-106]",left,1,,,,,,001,2025-03-11_22h52.49.500,SL_sali,2021.2.3,Win32,60.24096386,1.2289,,,59,0,59,0,1,,,,,,,,
,,"[""diamond"",""green"",""hori"",""left"",[-106,106],[106,-106]]",diamond,green,hori,left,"[-106,106]","[106,-106]",left,1,,,,,,001,2025-03-11_22h52.49.500,SL_sali,2021.2.3,Win32,60.24096386,0.8093,,,60,0,60,0,1,,,,,,,,
,,"[""diamond"",""green"",""hori"",""left"",[0,-150],[-150,0]]",diamond,green,hori,left,"[0,-150]","[-150,0]",left,1,,,,,,001,2025-03-11_22h52.49.500,SL_sali,2021.2.3,Win32,60.24096386,0.857,,,61,0,61,0,1,,,,,,,,
,,"[""circle"",""no_dis"",""hori"",""left"",[99999,99999],[150,0]]",circle,no_dis,hori,left,"[99999,99999]","[150,0]",left,1,,,,,,001,2025-03-11_22h52.49.500,SL_sali,2021.2.3,Win32,60.24096386,1.1362,,,62,0,62,0,1,,,,,,,,
,,"[""diamond"",""green"",""vert"",""up"",[106,-106],[-106,-106]]",diamond,green,vert,up,"[106,-106]","[-106,-106]",up,1,,,,,,001,2025-03-11_22h52.49.500,SL_sali,2021.2.3,Win32,60.24096386,1.169,,,63,0,63,0,1,,,,,,,,
,,"[""diamond"",""green"",""hori"",""left"",[150,0],[0,150]]",diamond,green,hori,left,"[150,0]","[0,150]",left,1,,,,,,001,2025-03-11_22h52.49.500,SL_sali,2021.2.3,Win32,60.24096386,0.9083,,,64,0,64,0,1,,,,,,,,
,,"[""circle"",""no_dis"",""vert"",""up"",[99999,99999],[106,106]]",circle,no_dis,vert,up,"[99999,99999]","[106,106]",up,1,,,,,,001,2025-03-11_22h52.49.500,SL_sali,2021.2.3,Win32,60.24096386,0.7808,,,65,0,65,0,1,,,,,,,,
,,"[""circle"",""green"",""vert"",""up"",[-150,0],[0,-150]]",circle,green,vert,up,"[-150,0]","[0,-150]",up,1,,,,,,001,2025-03-11_22h52.49.500,SL_sali,2021.2.3,Win32,60.24096386,1.066,,,66,0,66,0,1,,,,,,,,
,,"[""diamond"",""green"",""hori"",""left"",[-150,0],[0,-150]]",diamond,green,hori,left,"[-150,0]","[0,-150]",left,1,,,,,,001,2025-03-11_22h52.49.500,SL_sali,2021.2.3,Win32,60.24096386,1.3066,,,67,0,67,0,1,,,,,,,,
,,"[""diamond"",""no_dis"",""hori"",""left"",[99999,99999],[-150,0]]",diamond,no_dis,hori,left,"[99999,99999]","[-150,0]",left,1,,,,,,001,2025-03-11_22h52.49.500,SL_sali,2021.2.3,Win32,60.24096386,0.6871,,,68,0,68,0,1,,,,,,,,
,,"[""circle"",""green"",""hori"",""left"",[-106,-106],[150,0]]",circle,green,hori,left,"[-106,-106]","[150,0]",left,1,,,,,,001,2025-03-11_22h52.49.500,SL_sali,2021.2.3,Win32,60.24096386,1.033,,,69,0,69,0,1,,,,,,,,
,,"[""diamond"",""red"",""hori"",""left"",[0,150],[150,0]]",diamond,red,hori,left,"[0,150]","[150,0]",left,1,,,,,,001,2025-03-11_22h52.49.500,SL_sali,2021.2.3,Win32,60.24096386,0.8616,,,70,0,70,0,1,,,,,,,,
,,"[""circle"",""no_dis"",""vert"",""up"",[99999,99999],[-106,-106]]",circle,no_dis,vert,up,"[99999,99999]","[-106,-106]",up,1,,,,,,001,2025-03-11_22h52.49.500,SL_sali,2021.2.3,Win32,60.24096386,0.8492,,,71,0,71,0,1,,,,,,,,
,,"[""circle"",""green"",""hori"",""left"",[-106,-106],[0,150]]",circle,green,hori,left,"[-106,-106]","[0,150]",left,1,,,,,,001,2025-03-11_22h52.49.500,SL_sali,2021.2.3,Win32,60.24096386,0.838,,,72,0,72,0,1,,,,,,,,
,,"[""diamond"",""red"",""vert"",""up"",[0,-150],[106,106]]",diamond,red,vert,up,"[0,-150]","[106,106]",up,1,,,,,,001,2025-03-11_22h52.49.500,SL_sali,2021.2.3,Win32,60.24096386,0.8965,,,73,0,73,0,1,,,,,,,,
,,"[""circle"",""no_dis"",""vert"",""up"",[99999,99999],[0,-150]]",circle,no_dis,vert,up,"[99999,99999]","[0,-150]",up,1,,,,,,001,2025-03-11_22h52.49.500,SL_sali,2021.2.3,Win32,60.24096386,1.3641,,,74,0,74,0,1,,,,,,,,
,,"[""diamond"",""green"",""vert"",""up"",[106,-106],[150,0]]",diamond,green,vert,up,"[106,-106]","[150,0]",up,1,,,,,,001,2025-03-11_22h52.49.500,SL_sali,2021.2.3,Win32,60.24096386,0.9832,,,75,0,75,0,1,,,,,,,,
,,"[""diamond"",""no_dis"",""vert"",""up"",[99999,99999],[0,-150]]",diamond,no_dis,vert,up,"[99999,99999]","[0,-150]",up,1,,,,,,001,2025-03-11_22h52.49.500,SL_sali,2021.2.3,Win32,60.24096386,0.7074,,,76,0,76,0,1,,,,,,,,
,,"[""circle"",""no_dis"",""hori"",""left"",[99999,99999],[106,-106]]",circle,no_dis,hori,left,"[99999,99999]","[106,-106]",left,1,,,,,,001,2025-03-11_22h52.49.500,SL_sali,2021.2.3,Win32,60.24096386,0.7301,,,77,0,77,0,1,,,,,,,,
,,"[""diamond"",""green"",""vert"",""up"",[-106,106],[-106,-106]]",diamond,green,vert,up,"[-106,106]","[-106,-106]",up,1,,,,,,001,2025-03-11_22h52.49.500,SL_sali,2021.2.3,Win32,60.24096386,1.2564,,,78,0,78,0,1,,,,,,,,
,,"[""circle"",""green"",""vert"",""up"",[-106,-106],[-150,0]]",circle,green,vert,up,"[-106,-106]","[-150,0]",up,1,,,,,,001,2025-03-11_22h52.49.500,SL_sali,2021.2.3,Win32,60.24096386,1.3363,,,79,0,79,0,1,,,,,,,,
,,"[""circle"",""green"",""hori"",""left"",[106,106],[-106,106]]",circle,green,hori,left,"[106,106]","[-106,106]",left,1,,,,,,001,2025-03-11_22h52.49.500,SL_sali,2021.2.3,Win32,60.24096386,1.3637,,,80,0,80,0,1,,,,,,,,
,,"[""circle"",""red"",""vert"",""up"",[-106,-106],[106,106]]",circle,red,vert,up,"[-106,-106]","[106,106]",up,1,,,,,,001,2025-03-11_22h52.49.500,SL_sali,2021.2.3,Win32,60.24096386,1.697,,,81,0,81,0,1,,,,,,,,
,,"[""diamond"",""green"",""vert"",""up"",[150,0],[-150,0]]",diamond,green,vert,up,"[150,0]","[-150,0]",up,1,,,,,,001,2025-03-11_22h52.49.500,SL_sali,2021.2.3,Win32,60.24096386,0.8988,,,82,0,82,0,1,,,,,,,,
,,"[""circle"",""green"",""vert"",""up"",[0,-150],[106,-106]]",circle,green,vert,up,"[0,-150]","[106,-106]",up,1,,,,,,001,2025-03-11_22h52.49.500,SL_sali,2021.2.3,Win32,60.24096386,1.5721,,,83,0,83,0,1,,,,,,,,
,,"[""diamond"",""no_dis"",""vert"",""up"",[99999,99999],[0,150]]",diamond,no_dis,vert,up,"[99999,99999]","[0,150]",up,1,,,,,,001,2025-03-11_22h52.49.500,SL_sali,2021.2.3,Win32,60.24096386,0.8283,,,84,0,84,0,1,,,,,,,,
,,"[""circle"",""green"",""vert"",""up"",[150,0],[0,-150]]",circle,green,vert,up,"[150,0]","[0,-150]",up,1,,,,,,001,2025-03-11_22h52.49.500,SL_sali,2021.2.3,Win32,60.24096386,1.296,,,85,0,85,0,1,,,,,,,,
,,"[""diamond"",""red"",""hori"",""left"",[0,150],[150,0]]",diamond,red,hori,left,"[0,150]","[150,0]",left,1,,,,,,001,2025-03-11_22h52.49.500,SL_sali,2021.2.3,Win32,60.24096386,1.2937,,,86,0,86,0,1,,,,,,,,
,,"[""diamond"",""no_dis"",""vert"",""up"",[99999,99999],[-150,0]]",diamond,no_dis,vert,up,"[99999,99999]","[-150,0]",up,1,,,,,,001,2025-03-11_22h52.49.500,SL_sali,2021.2.3,Win32,60.24096386,0.851,,,87,0,87,0,1,,,,,,,,
,,"[""circle"",""no_dis"",""hori"",""left"",[99999,99999],[106,106]]",circle,no_dis,hori,left,"[99999,99999]","[106,106]",left,1,,,,,,001,2025-03-11_22h52.49.500,SL_sali,2021.2.3,Win32,60.24096386,0.7876,,,88,0,88,0,1,,,,,,,,
,,"[""diamond"",""red"",""vert"",""up"",[150,0],[-106,-106]]",diamond,red,vert,up,"[150,0]","[-106,-106]",up,1,,,,,,001,2025-03-11_22h52.49.500,SL_sali,2021.2.3,Win32,60.24096386,1.093,,,89,0,89,0,1,,,,,,,,
,,"[""circle"",""red"",""hori"",""left"",[0,150],[106,106]]",circle,red,hori,left,"[0,150]","[106,106]",left,1,,,,,,001,2025-03-11_22h52.49.500,SL_sali,2021.2.3,Win32,60.24096386,1.1717,,,90,0,90,0,1,,,,,,,,
,,"[""diamond"",""green"",""hori"",""left"",[0,150],[150,0]]",diamond,green,hori,left,"[0,150]","[150,0]",left,1,,,,,,001,2025-03-11_22h52.49.500,SL_sali,2021.2.3,Win32,60.24096386,0.9426,,,91,0,91,0,1,,,,,,,,
