﻿key_resp.keys,key_resp.rt,trial_para,tar_shape,dis_color_condi,tar_line,cor_resp,dis_loc,tar_loc,resp.keys,resp.corr,trials.thisRepN,trials.thisTrialN,trials.thisN,trials.thisIndex,trials.ran,participant,date,expName,psychopyVersion,OS,frameRate,resp.rt,key_resp_2.keys,key_resp_2.rt,trials_2.thisRepN,trials_2.thisTrialN,trials_2.thisN,trials_2.thisIndex,trials_2.ran,block_num,key_resp_3.keys,key_resp_3.rt,trials_3.thisRepN,trials_3.thisTrialN,trials_3.thisN,trials_3.thisIndex,trials_3.ran
space,12.8842,"[""circle"",""red"",""vert"",""up"",[0,150],[-150,0]]",circle,red,vert,up,"[0,150]","[-150,0]",,0,0,0,0,0,1,001,2025-03-17_15h01.45.414,SL_sali,2021.2.3,Win32,166.6666667,,,,,,,,,,,,,,,,
,,"[""diamond"",""green"",""vert"",""up"",[-106,106],[106,106]]",diamond,green,vert,up,"[-106,106]","[106,106]",left,0,1,0,1,0,1,001,2025-03-17_15h01.45.414,SL_sali,2021.2.3,Win32,166.6666667,2.808,,,,,,,,,,,,,,,
,,"[""circle"",""green"",""vert"",""up"",[106,-106],[-150,0]]",circle,green,vert,up,"[106,-106]","[-150,0]",up,1,2,0,2,0,1,001,2025-03-17_15h01.45.414,SL_sali,2021.2.3,Win32,166.6666667,1.149,,,,,,,,,,,,,,,
,,"[""diamond"",""no_dis"",""vert"",""up"",[99999,99999],[106,106]]",diamond,no_dis,vert,up,"[99999,99999]","[106,106]",up,1,3,0,3,0,1,001,2025-03-17_15h01.45.414,SL_sali,2021.2.3,Win32,166.6666667,1.8729,,,,,,,,,,,,,,,
,,"[""circle"",""red"",""hori"",""left"",[-106,-106],[-150,0]]",circle,red,hori,left,"[-106,-106]","[-150,0]",left,1,4,0,4,0,1,001,2025-03-17_15h01.45.414,SL_sali,2021.2.3,Win32,166.6666667,1.273,,,,,,,,,,,,,,,
,,"[""circle"",""no_dis"",""vert"",""up"",[99999,99999],[-106,-106]]",circle,no_dis,vert,up,"[99999,99999]","[-106,-106]",left,0,5,0,5,0,1,001,2025-03-17_15h01.45.414,SL_sali,2021.2.3,Win32,166.6666667,1.3803,,,,,,,,,,,,,,,
,,"[""diamond"",""green"",""vert"",""up"",[-106,-106],[150,0]]",diamond,green,vert,up,"[-106,-106]","[150,0]",up,1,6,0,6,0,1,001,2025-03-17_15h01.45.414,SL_sali,2021.2.3,Win32,166.6666667,0.73,,,,,,,,,,,,,,,
,,"[""diamond"",""no_dis"",""vert"",""up"",[99999,99999],[106,-106]]",diamond,no_dis,vert,up,"[99999,99999]","[106,-106]",up,1,7,0,7,0,1,001,2025-03-17_15h01.45.414,SL_sali,2021.2.3,Win32,166.6666667,1.4302,,,,,,,,,,,,,,,
,,"[""circle"",""green"",""hori"",""left"",[106,-106],[0,150]]",circle,green,hori,left,"[106,-106]","[0,150]",left,1,8,0,8,0,1,001,2025-03-17_15h01.45.414,SL_sali,2021.2.3,Win32,166.6666667,1.364,,,,,,,,,,,,,,,
,,"[""circle"",""green"",""hori"",""left"",[-150,0],[106,-106]]",circle,green,hori,left,"[-150,0]","[106,-106]",up,0,9,0,9,0,1,001,2025-03-17_15h01.45.414,SL_sali,2021.2.3,Win32,166.6666667,0.7532,,,,,,,,,,,,,,,
,,"[""circle"",""red"",""vert"",""up"",[0,150],[-150,0]]",circle,red,vert,up,"[0,150]","[-150,0]",up,1,,,,,,001,2025-03-17_15h01.45.414,SL_sali,2021.2.3,Win32,166.6666667,0.7594,space,6.5001,0,0,0,0,1,,,,,,,,
,,"[""diamond"",""green"",""vert"",""up"",[-106,106],[106,106]]",diamond,green,vert,up,"[-106,106]","[106,106]",up,1,,,,,,001,2025-03-17_15h01.45.414,SL_sali,2021.2.3,Win32,166.6666667,1.5032,,,1,0,1,0,1,,,,,,,,
,,"[""circle"",""green"",""vert"",""up"",[106,-106],[-150,0]]",circle,green,vert,up,"[106,-106]","[-150,0]",up,1,,,,,,001,2025-03-17_15h01.45.414,SL_sali,2021.2.3,Win32,166.6666667,1.8917,,,2,0,2,0,1,,,,,,,,
,,"[""diamond"",""no_dis"",""vert"",""up"",[99999,99999],[106,106]]",diamond,no_dis,vert,up,"[99999,99999]","[106,106]",up,1,,,,,,001,2025-03-17_15h01.45.414,SL_sali,2021.2.3,Win32,166.6666667,1.7764,,,3,0,3,0,1,,,,,,,,
,,"[""circle"",""red"",""hori"",""left"",[-106,-106],[-150,0]]",circle,red,hori,left,"[-106,-106]","[-150,0]",left,1,,,,,,001,2025-03-17_15h01.45.414,SL_sali,2021.2.3,Win32,166.6666667,1.4681,,,4,0,4,0,1,,,,,,,,
,,"[""circle"",""no_dis"",""vert"",""up"",[99999,99999],[-106,-106]]",circle,no_dis,vert,up,"[99999,99999]","[-106,-106]",up,1,,,,,,001,2025-03-17_15h01.45.414,SL_sali,2021.2.3,Win32,166.6666667,1.1636,,,5,0,5,0,1,,,,,,,,
,,"[""diamond"",""green"",""vert"",""up"",[-106,-106],[150,0]]",diamond,green,vert,up,"[-106,-106]","[150,0]",up,1,,,,,,001,2025-03-17_15h01.45.414,SL_sali,2021.2.3,Win32,166.6666667,1.552,,,6,0,6,0,1,,,,,,,,
,,"[""diamond"",""no_dis"",""vert"",""up"",[99999,99999],[106,-106]]",diamond,no_dis,vert,up,"[99999,99999]","[106,-106]",up,1,,,,,,001,2025-03-17_15h01.45.414,SL_sali,2021.2.3,Win32,166.6666667,1.0604,,,7,0,7,0,1,,,,,,,,
,,"[""circle"",""green"",""hori"",""left"",[106,-106],[0,150]]",circle,green,hori,left,"[106,-106]","[0,150]",left,1,,,,,,001,2025-03-17_15h01.45.414,SL_sali,2021.2.3,Win32,166.6666667,1.5332,,,8,0,8,0,1,,,,,,,,
,,"[""circle"",""green"",""hori"",""left"",[-150,0],[106,-106]]",circle,green,hori,left,"[-150,0]","[106,-106]",left,1,,,,,,001,2025-03-17_15h01.45.414,SL_sali,2021.2.3,Win32,166.6666667,1.5065,,,9,0,9,0,1,,,,,,,,
,,"[""circle"",""red"",""vert"",""up"",[-106,-106],[-106,106]]",circle,red,vert,up,"[-106,-106]","[-106,106]",up,1,,,,,,001,2025-03-17_15h01.45.414,SL_sali,2021.2.3,Win32,166.6666667,1.1358,,,10,0,10,0,1,,,,,,,,
,,"[""diamond"",""red"",""vert"",""up"",[106,106],[-150,0]]",diamond,red,vert,up,"[106,106]","[-150,0]",up,1,,,,,,001,2025-03-17_15h01.45.414,SL_sali,2021.2.3,Win32,166.6666667,1.4069,,,11,0,11,0,1,,,,,,,,
,,"[""circle"",""green"",""vert"",""up"",[0,-150],[0,150]]",circle,green,vert,up,"[0,-150]","[0,150]",up,1,,,,,,001,2025-03-17_15h01.45.414,SL_sali,2021.2.3,Win32,166.6666667,1.4732,,,12,0,12,0,1,,,,,,,,
,,"[""circle"",""no_dis"",""vert"",""up"",[99999,99999],[106,106]]",circle,no_dis,vert,up,"[99999,99999]","[106,106]",up,1,,,,,,001,2025-03-17_15h01.45.414,SL_sali,2021.2.3,Win32,166.6666667,1.2069,,,13,0,13,0,1,,,,,,,,
,,"[""diamond"",""green"",""hori"",""left"",[0,-150],[106,-106]]",diamond,green,hori,left,"[0,-150]","[106,-106]",left,1,,,,,,001,2025-03-17_15h01.45.414,SL_sali,2021.2.3,Win32,166.6666667,1.5453,,,14,0,14,0,1,,,,,,,,
,,"[""circle"",""green"",""vert"",""up"",[-106,106],[106,-106]]",circle,green,vert,up,"[-106,106]","[106,-106]",up,1,,,,,,001,2025-03-17_15h01.45.414,SL_sali,2021.2.3,Win32,166.6666667,1.5657,,,15,0,15,0,1,,,,,,,,
,,"[""diamond"",""no_dis"",""hori"",""left"",[99999,99999],[-150,0]]",diamond,no_dis,hori,left,"[99999,99999]","[-150,0]",up,0,,,,,,001,2025-03-17_15h01.45.414,SL_sali,2021.2.3,Win32,166.6666667,1.6441,,,16,0,16,0,1,,,,,,,,
,,"[""diamond"",""red"",""hori"",""left"",[-150,0],[106,106]]",diamond,red,hori,left,"[-150,0]","[106,106]",left,1,,,,,,001,2025-03-17_15h01.45.414,SL_sali,2021.2.3,Win32,166.6666667,1.334,,,17,0,17,0,1,,,,,,,,
,,"[""diamond"",""green"",""hori"",""left"",[0,150],[150,0]]",diamond,green,hori,left,"[0,150]","[150,0]",left,1,,,,,,001,2025-03-17_15h01.45.414,SL_sali,2021.2.3,Win32,166.6666667,1.4552,,,18,0,18,0,1,,,,,,,,
,,"[""diamond"",""green"",""hori"",""left"",[-106,-106],[106,-106]]",diamond,green,hori,left,"[-106,-106]","[106,-106]",left,1,,,,,,001,2025-03-17_15h01.45.414,SL_sali,2021.2.3,Win32,166.6666667,1.5759,,,19,0,19,0,1,,,,,,,,
,,"[""circle"",""red"",""hori"",""left"",[-106,-106],[0,-150]]",circle,red,hori,left,"[-106,-106]","[0,-150]",left,1,,,,,,001,2025-03-17_15h01.45.414,SL_sali,2021.2.3,Win32,166.6666667,1.4484,,,20,0,20,0,1,,,,,,,,
,,"[""circle"",""no_dis"",""hori"",""left"",[99999,99999],[0,-150]]",circle,no_dis,hori,left,"[99999,99999]","[0,-150]",left,1,,,,,,001,2025-03-17_15h01.45.414,SL_sali,2021.2.3,Win32,166.6666667,1.4074,,,21,0,21,0,1,,,,,,,,
,,"[""diamond"",""no_dis"",""hori"",""left"",[99999,99999],[-106,106]]",diamond,no_dis,hori,left,"[99999,99999]","[-106,106]",left,1,,,,,,001,2025-03-17_15h01.45.414,SL_sali,2021.2.3,Win32,166.6666667,1.5462,,,22,0,22,0,1,,,,,,,,
,,"[""circle"",""red"",""vert"",""up"",[150,0],[0,150]]",circle,red,vert,up,"[150,0]","[0,150]",up,1,,,,,,001,2025-03-17_15h01.45.414,SL_sali,2021.2.3,Win32,166.6666667,1.522,,,23,0,23,0,1,,,,,,,,
,,"[""diamond"",""red"",""vert"",""up"",[106,106],[-150,0]]",diamond,red,vert,up,"[106,106]","[-150,0]",up,1,,,,,,001,2025-03-17_15h01.45.414,SL_sali,2021.2.3,Win32,166.6666667,1.3159,,,24,0,24,0,1,,,,,,,,
,,"[""circle"",""no_dis"",""vert"",""up"",[99999,99999],[0,-150]]",circle,no_dis,vert,up,"[99999,99999]","[0,-150]",up,1,,,,,,001,2025-03-17_15h01.45.414,SL_sali,2021.2.3,Win32,166.6666667,1.5396,,,25,0,25,0,1,,,,,,,,
,,"[""circle"",""green"",""hori"",""left"",[106,-106],[106,106]]",circle,green,hori,left,"[106,-106]","[106,106]",left,1,,,,,,001,2025-03-17_15h01.45.414,SL_sali,2021.2.3,Win32,166.6666667,1.2193,,,26,0,26,0,1,,,,,,,,
,,"[""circle"",""no_dis"",""vert"",""up"",[99999,99999],[106,-106]]",circle,no_dis,vert,up,"[99999,99999]","[106,-106]",up,1,,,,,,001,2025-03-17_15h01.45.414,SL_sali,2021.2.3,Win32,166.6666667,1.2871,,,27,0,27,0,1,,,,,,,,
,,"[""circle"",""red"",""hori"",""left"",[150,0],[-106,106]]",circle,red,hori,left,"[150,0]","[-106,106]",left,1,,,,,,001,2025-03-17_15h01.45.414,SL_sali,2021.2.3,Win32,166.6666667,1.2019,,,28,0,28,0,1,,,,,,,,
,,"[""diamond"",""green"",""hori"",""left"",[0,150],[-106,106]]",diamond,green,hori,left,"[0,150]","[-106,106]",left,1,,,,,,001,2025-03-17_15h01.45.414,SL_sali,2021.2.3,Win32,166.6666667,1.7516,,,29,0,29,0,1,,,,,,,,
,,"[""diamond"",""no_dis"",""vert"",""up"",[99999,99999],[-106,106]]",diamond,no_dis,vert,up,"[99999,99999]","[-106,106]",up,1,,,,,,001,2025-03-17_15h01.45.414,SL_sali,2021.2.3,Win32,166.6666667,1.1636,,,30,0,30,0,1,,,,,,,,
,,"[""diamond"",""red"",""vert"",""up"",[-106,-106],[106,106]]",diamond,red,vert,up,"[-106,-106]","[106,106]",up,1,,,,,,001,2025-03-17_15h01.45.414,SL_sali,2021.2.3,Win32,166.6666667,1.4674,,,31,0,31,0,1,,,,,,,,
,,"[""diamond"",""green"",""vert"",""up"",[-106,-106],[106,106]]",diamond,green,vert,up,"[-106,-106]","[106,106]",up,1,,,,,,001,2025-03-17_15h01.45.414,SL_sali,2021.2.3,Win32,166.6666667,0.7583,,,32,0,32,0,1,,,,,,,,
,,"[""diamond"",""red"",""hori"",""left"",[-106,-106],[106,106]]",diamond,red,hori,left,"[-106,-106]","[106,106]",left,1,,,,,,001,2025-03-17_15h01.45.414,SL_sali,2021.2.3,Win32,166.6666667,0.8381,,,33,0,33,0,1,,,,,,,,
,,"[""circle"",""no_dis"",""vert"",""up"",[99999,99999],[-150,0]]",circle,no_dis,vert,up,"[99999,99999]","[-150,0]",up,1,,,,,,001,2025-03-17_15h01.45.414,SL_sali,2021.2.3,Win32,166.6666667,1.3664,,,34,0,34,0,1,,,,,,,,
,,"[""diamond"",""no_dis"",""hori"",""left"",[99999,99999],[106,-106]]",diamond,no_dis,hori,left,"[99999,99999]","[106,-106]",left,1,,,,,,001,2025-03-17_15h01.45.414,SL_sali,2021.2.3,Win32,166.6666667,1.1598,,,35,0,35,0,1,,,,,,,,
,,"[""diamond"",""green"",""hori"",""left"",[0,150],[106,106]]",diamond,green,hori,left,"[0,150]","[106,106]",left,1,,,,,,001,2025-03-17_15h01.45.414,SL_sali,2021.2.3,Win32,166.6666667,1.1903,,,36,0,36,0,1,,,,,,,,
,,"[""circle"",""green"",""hori"",""left"",[0,150],[106,-106]]",circle,green,hori,left,"[0,150]","[106,-106]",left,1,,,,,,001,2025-03-17_15h01.45.414,SL_sali,2021.2.3,Win32,166.6666667,0.9038,,,37,0,37,0,1,,,,,,,,
,,"[""diamond"",""red"",""hori"",""left"",[150,0],[0,150]]",diamond,red,hori,left,"[150,0]","[0,150]",left,1,,,,,,001,2025-03-17_15h01.45.414,SL_sali,2021.2.3,Win32,166.6666667,1.1243,,,38,0,38,0,1,,,,,,,,
,,"[""circle"",""green"",""hori"",""left"",[-106,106],[0,-150]]",circle,green,hori,left,"[-106,106]","[0,-150]",left,1,,,,,,001,2025-03-17_15h01.45.414,SL_sali,2021.2.3,Win32,166.6666667,1.2685,,,39,0,39,0,1,,,,,,,,
,,"[""circle"",""no_dis"",""hori"",""left"",[99999,99999],[0,-150]]",circle,no_dis,hori,left,"[99999,99999]","[0,-150]",left,1,,,,,,001,2025-03-17_15h01.45.414,SL_sali,2021.2.3,Win32,166.6666667,1.3062,,,40,0,40,0,1,,,,,,,,
,,"[""circle"",""red"",""hori"",""left"",[-106,-106],[-150,0]]",circle,red,hori,left,"[-106,-106]","[-150,0]",left,1,,,,,,001,2025-03-17_15h01.45.414,SL_sali,2021.2.3,Win32,166.6666667,1.2824,,,41,0,41,0,1,,,,,,,,
,,"[""diamond"",""red"",""vert"",""up"",[0,-150],[106,-106]]",diamond,red,vert,up,"[0,-150]","[106,-106]",up,1,,,,,,001,2025-03-17_15h01.45.414,SL_sali,2021.2.3,Win32,166.6666667,1.1947,,,42,0,42,0,1,,,,,,,,
,,"[""circle"",""red"",""hori"",""left"",[150,0],[-150,0]]",circle,red,hori,left,"[150,0]","[-150,0]",left,1,,,,,,001,2025-03-17_15h01.45.414,SL_sali,2021.2.3,Win32,166.6666667,1.0199,,,43,0,43,0,1,,,,,,,,
,,"[""circle"",""red"",""hori"",""left"",[-106,-106],[-106,106]]",circle,red,hori,left,"[-106,-106]","[-106,106]",left,1,,,,,,001,2025-03-17_15h01.45.414,SL_sali,2021.2.3,Win32,166.6666667,0.9353,,,44,0,44,0,1,,,,,,,,
,,"[""diamond"",""green"",""hori"",""left"",[-106,-106],[0,-150]]",diamond,green,hori,left,"[-106,-106]","[0,-150]",left,1,,,,,,001,2025-03-17_15h01.45.414,SL_sali,2021.2.3,Win32,166.6666667,1.0315,,,45,0,45,0,1,,,,,,,,
,,"[""diamond"",""red"",""vert"",""up"",[-150,0],[0,150]]",diamond,red,vert,up,"[-150,0]","[0,150]",up,1,,,,,,001,2025-03-17_15h01.45.414,SL_sali,2021.2.3,Win32,166.6666667,1.2493,,,46,0,46,0,1,,,,,,,,
,,"[""circle"",""green"",""vert"",""up"",[-150,0],[-106,106]]",circle,green,vert,up,"[-150,0]","[-106,106]",up,1,,,,,,001,2025-03-17_15h01.45.414,SL_sali,2021.2.3,Win32,166.6666667,0.9763,,,47,0,47,0,1,,,,,,,,
,,"[""diamond"",""red"",""hori"",""left"",[106,-106],[-106,106]]",diamond,red,hori,left,"[106,-106]","[-106,106]",left,1,,,,,,001,2025-03-17_15h01.45.414,SL_sali,2021.2.3,Win32,166.6666667,1.0188,,,48,0,48,0,1,,,,,,,,
,,"[""circle"",""no_dis"",""hori"",""left"",[99999,99999],[0,-150]]",circle,no_dis,hori,left,"[99999,99999]","[0,-150]",left,1,,,,,,001,2025-03-17_15h01.45.414,SL_sali,2021.2.3,Win32,166.6666667,1.1643,,,49,0,49,0,1,,,,,,,,
,,"[""circle"",""no_dis"",""vert"",""up"",[99999,99999],[-106,106]]",circle,no_dis,vert,up,"[99999,99999]","[-106,106]",up,1,,,,,,001,2025-03-17_15h01.45.414,SL_sali,2021.2.3,Win32,166.6666667,1.0388,,,50,0,50,0,1,,,,,,,,
,,"[""diamond"",""no_dis"",""vert"",""up"",[99999,99999],[0,-150]]",diamond,no_dis,vert,up,"[99999,99999]","[0,-150]",up,1,,,,,,001,2025-03-17_15h01.45.414,SL_sali,2021.2.3,Win32,166.6666667,1.4192,,,51,0,51,0,1,,,,,,,,
,,"[""circle"",""no_dis"",""vert"",""up"",[99999,99999],[0,150]]",circle,no_dis,vert,up,"[99999,99999]","[0,150]",up,1,,,,,,001,2025-03-17_15h01.45.414,SL_sali,2021.2.3,Win32,166.6666667,1.3281,,,52,0,52,0,1,,,,,,,,
,,"[""circle"",""green"",""vert"",""up"",[150,0],[-106,-106]]",circle,green,vert,up,"[150,0]","[-106,-106]",up,1,,,,,,001,2025-03-17_15h01.45.414,SL_sali,2021.2.3,Win32,166.6666667,1.1541,,,53,0,53,0,1,,,,,,,,
,,"[""diamond"",""no_dis"",""vert"",""up"",[99999,99999],[106,106]]",diamond,no_dis,vert,up,"[99999,99999]","[106,106]",up,1,,,,,,001,2025-03-17_15h01.45.414,SL_sali,2021.2.3,Win32,166.6666667,1.2007,,,54,0,54,0,1,,,,,,,,
,,"[""diamond"",""red"",""hori"",""left"",[150,0],[0,-150]]",diamond,red,hori,left,"[150,0]","[0,-150]",left,1,,,,,,001,2025-03-17_15h01.45.414,SL_sali,2021.2.3,Win32,166.6666667,1.1805,,,55,0,55,0,1,,,,,,,,
,,"[""circle"",""red"",""vert"",""up"",[106,-106],[-106,-106]]",circle,red,vert,up,"[106,-106]","[-106,-106]",up,1,,,,,,001,2025-03-17_15h01.45.414,SL_sali,2021.2.3,Win32,166.6666667,1.419,,,56,0,56,0,1,,,,,,,,
,,"[""circle"",""no_dis"",""hori"",""left"",[99999,99999],[-106,106]]",circle,no_dis,hori,left,"[99999,99999]","[-106,106]",left,1,,,,,,001,2025-03-17_15h01.45.414,SL_sali,2021.2.3,Win32,166.6666667,1.0804,,,57,0,57,0,1,,,,,,,,
,,"[""diamond"",""green"",""vert"",""up"",[-150,0],[106,-106]]",diamond,green,vert,up,"[-150,0]","[106,-106]",up,1,,,,,,001,2025-03-17_15h01.45.414,SL_sali,2021.2.3,Win32,166.6666667,1.1524,,,58,0,58,0,1,,,,,,,,
,,"[""circle"",""red"",""hori"",""left"",[-106,-106],[0,150]]",circle,red,hori,left,"[-106,-106]","[0,150]",left,1,,,,,,001,2025-03-17_15h01.45.414,SL_sali,2021.2.3,Win32,166.6666667,0.9945,,,59,0,59,0,1,,,,,,,,
,,"[""circle"",""no_dis"",""vert"",""up"",[99999,99999],[-150,0]]",circle,no_dis,vert,up,"[99999,99999]","[-150,0]",up,1,,,,,,001,2025-03-17_15h01.45.414,SL_sali,2021.2.3,Win32,166.6666667,1.1465,,,60,0,60,0,1,,,,,,,,
,,"[""circle"",""red"",""hori"",""left"",[-106,-106],[106,106]]",circle,red,hori,left,"[-106,-106]","[106,106]",left,1,,,,,,001,2025-03-17_15h01.45.414,SL_sali,2021.2.3,Win32,166.6666667,0.9968,,,61,0,61,0,1,,,,,,,,
,,"[""circle"",""green"",""hori"",""left"",[0,-150],[-106,-106]]",circle,green,hori,left,"[0,-150]","[-106,-106]",left,1,,,,,,001,2025-03-17_15h01.45.414,SL_sali,2021.2.3,Win32,166.6666667,0.9761,,,62,0,62,0,1,,,,,,,,
,,"[""diamond"",""no_dis"",""vert"",""up"",[99999,99999],[150,0]]",diamond,no_dis,vert,up,"[99999,99999]","[150,0]",up,1,,,,,,001,2025-03-17_15h01.45.414,SL_sali,2021.2.3,Win32,166.6666667,0.6369,,,63,0,63,0,1,,,,,,,,
,,"[""circle"",""no_dis"",""hori"",""left"",[99999,99999],[-106,-106]]",circle,no_dis,hori,left,"[99999,99999]","[-106,-106]",left,1,,,,,,001,2025-03-17_15h01.45.414,SL_sali,2021.2.3,Win32,166.6666667,0.6398,,,64,0,64,0,1,,,,,,,,
,,"[""diamond"",""green"",""vert"",""up"",[0,-150],[106,-106]]",diamond,green,vert,up,"[0,-150]","[106,-106]",up,1,,,,,,001,2025-03-17_15h01.45.414,SL_sali,2021.2.3,Win32,166.6666667,0.919,,,65,0,65,0,1,,,,,,,,
,,"[""circle"",""green"",""vert"",""up"",[106,-106],[-106,106]]",circle,green,vert,up,"[106,-106]","[-106,106]",up,1,,,,,,001,2025-03-17_15h01.45.414,SL_sali,2021.2.3,Win32,166.6666667,1.0149,,,66,0,66,0,1,,,,,,,,
,,"[""diamond"",""no_dis"",""hori"",""left"",[99999,99999],[150,0]]",diamond,no_dis,hori,left,"[99999,99999]","[150,0]",left,1,,,,,,001,2025-03-17_15h01.45.414,SL_sali,2021.2.3,Win32,166.6666667,0.7295,,,67,0,67,0,1,,,,,,,,
,,"[""circle"",""no_dis"",""hori"",""left"",[99999,99999],[-106,-106]]",circle,no_dis,hori,left,"[99999,99999]","[-106,-106]",left,1,,,,,,001,2025-03-17_15h01.45.414,SL_sali,2021.2.3,Win32,166.6666667,1.0915,,,68,0,68,0,1,,,,,,,,
,,"[""circle"",""red"",""vert"",""up"",[-106,106],[150,0]]",circle,red,vert,up,"[-106,106]","[150,0]",up,1,,,,,,001,2025-03-17_15h01.45.414,SL_sali,2021.2.3,Win32,166.6666667,1.3217,,,69,0,69,0,1,,,,,,,,
,,"[""circle"",""green"",""vert"",""up"",[150,0],[106,-106]]",circle,green,vert,up,"[150,0]","[106,-106]",up,1,,,,,,001,2025-03-17_15h01.45.414,SL_sali,2021.2.3,Win32,166.6666667,1.5344,,,70,0,70,0,1,,,,,,,,
,,"[""circle"",""no_dis"",""vert"",""up"",[99999,99999],[-106,-106]]",circle,no_dis,vert,up,"[99999,99999]","[-106,-106]",left,0,,,,,,001,2025-03-17_15h01.45.414,SL_sali,2021.2.3,Win32,166.6666667,1.5217,,,71,0,71,0,1,,,,,,,,
,,"[""diamond"",""green"",""hori"",""left"",[-106,106],[0,-150]]",diamond,green,hori,left,"[-106,106]","[0,-150]",left,1,,,,,,001,2025-03-17_15h01.45.414,SL_sali,2021.2.3,Win32,166.6666667,1.6668,,,72,0,72,0,1,,,,,,,,
,,"[""diamond"",""green"",""vert"",""up"",[0,-150],[-106,106]]",diamond,green,vert,up,"[0,-150]","[-106,106]",up,1,,,,,,001,2025-03-17_15h01.45.414,SL_sali,2021.2.3,Win32,166.6666667,1.5932,,,73,0,73,0,1,,,,,,,,
,,"[""circle"",""green"",""hori"",""left"",[-106,-106],[106,-106]]",circle,green,hori,left,"[-106,-106]","[106,-106]",left,1,,,,,,001,2025-03-17_15h01.45.414,SL_sali,2021.2.3,Win32,166.6666667,1.0611,,,74,0,74,0,1,,,,,,,,
,,"[""circle"",""red"",""vert"",""up"",[106,106],[106,-106]]",circle,red,vert,up,"[106,106]","[106,-106]",up,1,,,,,,001,2025-03-17_15h01.45.414,SL_sali,2021.2.3,Win32,166.6666667,0.9277,,,75,0,75,0,1,,,,,,,,
,,"[""circle"",""green"",""vert"",""up"",[-106,-106],[-106,106]]",circle,green,vert,up,"[-106,-106]","[-106,106]",up,1,,,,,,001,2025-03-17_15h01.45.414,SL_sali,2021.2.3,Win32,166.6666667,0.9276,,,76,0,76,0,1,,,,,,,,
,,"[""diamond"",""no_dis"",""hori"",""left"",[99999,99999],[-150,0]]",diamond,no_dis,hori,left,"[99999,99999]","[-150,0]",left,1,,,,,,001,2025-03-17_15h01.45.414,SL_sali,2021.2.3,Win32,166.6666667,1.1328,,,77,0,77,0,1,,,,,,,,
,,"[""circle"",""green"",""hori"",""left"",[-150,0],[-106,106]]",circle,green,hori,left,"[-150,0]","[-106,106]",left,1,,,,,,001,2025-03-17_15h01.45.414,SL_sali,2021.2.3,Win32,166.6666667,1.0453,,,78,0,78,0,1,,,,,,,,
,,"[""circle"",""red"",""hori"",""left"",[0,150],[-106,-106]]",circle,red,hori,left,"[0,150]","[-106,-106]",left,1,,,,,,001,2025-03-17_15h01.45.414,SL_sali,2021.2.3,Win32,166.6666667,1.2614,,,79,0,79,0,1,,,,,,,,
,,"[""diamond"",""green"",""vert"",""up"",[-106,-106],[106,106]]",diamond,green,vert,up,"[-106,-106]","[106,106]",up,1,,,,,,001,2025-03-17_15h01.45.414,SL_sali,2021.2.3,Win32,166.6666667,1.0409,,,80,0,80,0,1,,,,,,,,
,,"[""circle"",""green"",""vert"",""up"",[-106,-106],[-106,106]]",circle,green,vert,up,"[-106,-106]","[-106,106]",up,1,,,,,,001,2025-03-17_15h01.45.414,SL_sali,2021.2.3,Win32,166.6666667,1.0272,,,81,0,81,0,1,,,,,,,,
,,"[""diamond"",""no_dis"",""hori"",""left"",[99999,99999],[150,0]]",diamond,no_dis,hori,left,"[99999,99999]","[150,0]",left,1,,,,,,001,2025-03-17_15h01.45.414,SL_sali,2021.2.3,Win32,166.6666667,1.0677,,,82,0,82,0,1,,,,,,,,
,,"[""circle"",""green"",""hori"",""left"",[106,106],[0,150]]",circle,green,hori,left,"[106,106]","[0,150]",left,1,,,,,,001,2025-03-17_15h01.45.414,SL_sali,2021.2.3,Win32,166.6666667,1.0623,,,83,0,83,0,1,,,,,,,,
,,"[""circle"",""red"",""vert"",""up"",[0,-150],[150,0]]",circle,red,vert,up,"[0,-150]","[150,0]",up,1,,,,,,001,2025-03-17_15h01.45.414,SL_sali,2021.2.3,Win32,166.6666667,1.1697,,,84,0,84,0,1,,,,,,,,
,,"[""diamond"",""no_dis"",""hori"",""left"",[99999,99999],[106,-106]]",diamond,no_dis,hori,left,"[99999,99999]","[106,-106]",left,1,,,,,,001,2025-03-17_15h01.45.414,SL_sali,2021.2.3,Win32,166.6666667,0.973,,,85,0,85,0,1,,,,,,,,
,,"[""circle"",""green"",""hori"",""left"",[106,-106],[-150,0]]",circle,green,hori,left,"[106,-106]","[-150,0]",left,1,,,,,,001,2025-03-17_15h01.45.414,SL_sali,2021.2.3,Win32,166.6666667,1.0931,,,86,0,86,0,1,,,,,,,,
,,"[""circle"",""green"",""vert"",""up"",[-106,106],[150,0]]",circle,green,vert,up,"[-106,106]","[150,0]",up,1,,,,,,001,2025-03-17_15h01.45.414,SL_sali,2021.2.3,Win32,166.6666667,0.7705,,,87,0,87,0,1,,,,,,,,
,,"[""diamond"",""red"",""hori"",""left"",[106,106],[106,-106]]",diamond,red,hori,left,"[106,106]","[106,-106]",left,1,,,,,,001,2025-03-17_15h01.45.414,SL_sali,2021.2.3,Win32,166.6666667,1.0296,,,88,0,88,0,1,,,,,,,,
,,"[""circle"",""no_dis"",""vert"",""up"",[99999,99999],[150,0]]",circle,no_dis,vert,up,"[99999,99999]","[150,0]",up,1,,,,,,001,2025-03-17_15h01.45.414,SL_sali,2021.2.3,Win32,166.6666667,1.4552,,,89,0,89,0,1,,,,,,,,
,,"[""diamond"",""no_dis"",""vert"",""up"",[99999,99999],[150,0]]",diamond,no_dis,vert,up,"[99999,99999]","[150,0]",up,1,,,,,,001,2025-03-17_15h01.45.414,SL_sali,2021.2.3,Win32,166.6666667,1.0675,,,90,0,90,0,1,,,,,,,,
,,"[""diamond"",""red"",""vert"",""up"",[-106,106],[0,150]]",diamond,red,vert,up,"[-106,106]","[0,150]",up,1,,,,,,001,2025-03-17_15h01.45.414,SL_sali,2021.2.3,Win32,166.6666667,1.4429,,,91,0,91,0,1,,,,,,,,
,,"[""diamond"",""no_dis"",""vert"",""up"",[99999,99999],[0,150]]",diamond,no_dis,vert,up,"[99999,99999]","[0,150]",up,1,,,,,,001,2025-03-17_15h01.45.414,SL_sali,2021.2.3,Win32,166.6666667,1.1371,,,92,0,92,0,1,,,,,,,,
,,"[""diamond"",""red"",""vert"",""up"",[-106,-106],[150,0]]",diamond,red,vert,up,"[-106,-106]","[150,0]",up,1,,,,,,001,2025-03-17_15h01.45.414,SL_sali,2021.2.3,Win32,166.6666667,1.1473,,,93,0,93,0,1,,,,,,,,
,,"[""diamond"",""no_dis"",""hori"",""left"",[99999,99999],[106,106]]",diamond,no_dis,hori,left,"[99999,99999]","[106,106]",left,1,,,,,,001,2025-03-17_15h01.45.414,SL_sali,2021.2.3,Win32,166.6666667,1.3838,,,94,0,94,0,1,,,,,,,,
,,"[""diamond"",""red"",""hori"",""left"",[0,150],[-150,0]]",diamond,red,hori,left,"[0,150]","[-150,0]",left,1,,,,,,001,2025-03-17_15h01.45.414,SL_sali,2021.2.3,Win32,166.6666667,1.1277,,,95,0,95,0,1,,,,,,,,
,,"[""diamond"",""green"",""hori"",""left"",[-106,-106],[0,-150]]",diamond,green,hori,left,"[-106,-106]","[0,-150]",left,1,,,,,,001,2025-03-17_15h01.45.414,SL_sali,2021.2.3,Win32,166.6666667,1.5277,,,96,0,96,0,1,,,,,,,,
,,"[""diamond"",""red"",""vert"",""up"",[106,-106],[0,150]]",diamond,red,vert,up,"[106,-106]","[0,150]",up,1,,,,,,001,2025-03-17_15h01.45.414,SL_sali,2021.2.3,Win32,166.6666667,0.8522,,,97,0,97,0,1,,,,,,,,
,,"[""circle"",""no_dis"",""hori"",""left"",[99999,99999],[106,106]]",circle,no_dis,hori,left,"[99999,99999]","[106,106]",left,1,,,,,,001,2025-03-17_15h01.45.414,SL_sali,2021.2.3,Win32,166.6666667,0.9354,,,98,0,98,0,1,,,,,,,,
,,"[""diamond"",""green"",""vert"",""up"",[-106,-106],[0,150]]",diamond,green,vert,up,"[-106,-106]","[0,150]",up,1,,,,,,001,2025-03-17_15h01.45.414,SL_sali,2021.2.3,Win32,166.6666667,1.1729,,,99,0,99,0,1,,,,,,,,
,,"[""diamond"",""green"",""vert"",""up"",[0,-150],[150,0]]",diamond,green,vert,up,"[0,-150]","[150,0]",up,1,,,,,,001,2025-03-17_15h01.45.414,SL_sali,2021.2.3,Win32,166.6666667,1.0066,,,100,0,100,0,1,,,,,,,,
,,"[""diamond"",""no_dis"",""vert"",""up"",[99999,99999],[-106,-106]]",diamond,no_dis,vert,up,"[99999,99999]","[-106,-106]",up,1,,,,,,001,2025-03-17_15h01.45.414,SL_sali,2021.2.3,Win32,166.6666667,1.5151,,,101,0,101,0,1,,,,,,,,
,,"[""diamond"",""green"",""hori"",""left"",[106,106],[0,-150]]",diamond,green,hori,left,"[106,106]","[0,-150]",left,1,,,,,,001,2025-03-17_15h01.45.414,SL_sali,2021.2.3,Win32,166.6666667,1.4066,,,102,0,102,0,1,,,,,,,,
,,"[""circle"",""no_dis"",""hori"",""left"",[99999,99999],[106,-106]]",circle,no_dis,hori,left,"[99999,99999]","[106,-106]",left,1,,,,,,001,2025-03-17_15h01.45.414,SL_sali,2021.2.3,Win32,166.6666667,1.049,,,103,0,103,0,1,,,,,,,,
,,"[""diamond"",""no_dis"",""vert"",""up"",[99999,99999],[-150,0]]",diamond,no_dis,vert,up,"[99999,99999]","[-150,0]",up,1,,,,,,001,2025-03-17_15h01.45.414,SL_sali,2021.2.3,Win32,166.6666667,1.3283,,,104,0,104,0,1,,,,,,,,
,,"[""diamond"",""red"",""hori"",""left"",[150,0],[-150,0]]",diamond,red,hori,left,"[150,0]","[-150,0]",left,1,,,,,,001,2025-03-17_15h01.45.414,SL_sali,2021.2.3,Win32,166.6666667,0.8483,,,105,0,105,0,1,,,,,,,,
,,"[""diamond"",""no_dis"",""hori"",""left"",[99999,99999],[0,150]]",diamond,no_dis,hori,left,"[99999,99999]","[0,150]",left,1,,,,,,001,2025-03-17_15h01.45.414,SL_sali,2021.2.3,Win32,166.6666667,1.1039,,,106,0,106,0,1,,,,,,,,
,,"[""diamond"",""green"",""vert"",""up"",[-106,-106],[0,150]]",diamond,green,vert,up,"[-106,-106]","[0,150]",up,1,,,,,,001,2025-03-17_15h01.45.414,SL_sali,2021.2.3,Win32,166.6666667,1.1472,,,107,0,107,0,1,,,,,,,,
,,"[""diamond"",""red"",""vert"",""up"",[106,106],[150,0]]",diamond,red,vert,up,"[106,106]","[150,0]",up,1,,,,,,001,2025-03-17_15h01.45.414,SL_sali,2021.2.3,Win32,166.6666667,1.6366,,,108,0,108,0,1,,,,,,,,
,,"[""circle"",""red"",""vert"",""up"",[-106,-106],[106,-106]]",circle,red,vert,up,"[-106,-106]","[106,-106]",up,1,,,,,,001,2025-03-17_15h01.45.414,SL_sali,2021.2.3,Win32,166.6666667,1.0974,,,109,0,109,0,1,,,,,,,,
,,"[""diamond"",""red"",""hori"",""left"",[-150,0],[0,-150]]",diamond,red,hori,left,"[-150,0]","[0,-150]",left,1,,,,,,001,2025-03-17_15h01.45.414,SL_sali,2021.2.3,Win32,166.6666667,1.1603,,,110,0,110,0,1,,,,,,,,
,,"[""diamond"",""red"",""vert"",""up"",[-106,-106],[150,0]]",diamond,red,vert,up,"[-106,-106]","[150,0]",up,1,,,,,,001,2025-03-17_15h01.45.414,SL_sali,2021.2.3,Win32,166.6666667,0.8139,,,111,0,111,0,1,,,,,,,,
,,"[""circle"",""no_dis"",""hori"",""left"",[99999,99999],[0,150]]",circle,no_dis,hori,left,"[99999,99999]","[0,150]",left,1,,,,,,001,2025-03-17_15h01.45.414,SL_sali,2021.2.3,Win32,166.6666667,1.4362,,,112,0,112,0,1,,,,,,,,
,,"[""circle"",""red"",""vert"",""up"",[0,150],[150,0]]",circle,red,vert,up,"[0,150]","[150,0]",up,1,,,,,,001,2025-03-17_15h01.45.414,SL_sali,2021.2.3,Win32,166.6666667,1.3645,,,113,0,113,0,1,,,,,,,,
,,"[""diamond"",""green"",""hori"",""left"",[106,106],[150,0]]",diamond,green,hori,left,"[106,106]","[150,0]",left,1,,,,,,001,2025-03-17_15h01.45.414,SL_sali,2021.2.3,Win32,166.6666667,1.2859,,,114,0,114,0,1,,,,,,,,
,,"[""circle"",""red"",""vert"",""up"",[-150,0],[-106,106]]",circle,red,vert,up,"[-150,0]","[-106,106]",up,1,,,,,,001,2025-03-17_15h01.45.414,SL_sali,2021.2.3,Win32,166.6666667,1.9248,,,115,0,115,0,1,,,,,,,,
,,"[""circle"",""red"",""hori"",""left"",[-106,-106],[0,-150]]",circle,red,hori,left,"[-106,-106]","[0,-150]",left,1,,,,,,001,2025-03-17_15h01.45.414,SL_sali,2021.2.3,Win32,166.6666667,1.1444,,,116,0,116,0,1,,,,,,,,
,,"[""diamond"",""no_dis"",""hori"",""left"",[99999,99999],[0,150]]",diamond,no_dis,hori,left,"[99999,99999]","[0,150]",left,1,,,,,,001,2025-03-17_15h01.45.414,SL_sali,2021.2.3,Win32,166.6666667,1.5066,,,117,0,117,0,1,,,,,,,,
,,"[""circle"",""no_dis"",""hori"",""left"",[99999,99999],[-106,106]]",circle,no_dis,hori,left,"[99999,99999]","[-106,106]",left,1,,,,,,001,2025-03-17_15h01.45.414,SL_sali,2021.2.3,Win32,166.6666667,1.1628,,,118,0,118,0,1,,,,,,,,
,,"[""diamond"",""red"",""hori"",""left"",[-106,106],[0,-150]]",diamond,red,hori,left,"[-106,106]","[0,-150]",left,1,,,,,,001,2025-03-17_15h01.45.414,SL_sali,2021.2.3,Win32,166.6666667,2.1742,,,119,0,119,0,1,,,,,,,,
,,,,,,,,,,,,,,,,001,2025-03-17_15h01.45.414,SL_sali,2021.2.3,Win32,166.6666667,,,,,,,,,1,space,46.7185,0,0,0,0,1
,,"[""diamond"",""red"",""hori"",""left"",[106,-106],[-106,106]]",diamond,red,hori,left,"[106,-106]","[-106,106]",left,1,,,,,,001,2025-03-17_15h01.45.414,SL_sali,2021.2.3,Win32,166.6666667,0.9827,,,0,0,0,0,1,,,,,,,,
,,"[""circle"",""red"",""hori"",""left"",[-106,-106],[-150,0]]",circle,red,hori,left,"[-106,-106]","[-150,0]",left,1,,,,,,001,2025-03-17_15h01.45.414,SL_sali,2021.2.3,Win32,166.6666667,1.361,,,1,0,1,0,1,,,,,,,,
,,"[""diamond"",""red"",""vert"",""up"",[106,106],[-150,0]]",diamond,red,vert,up,"[106,106]","[-150,0]",up,1,,,,,,001,2025-03-17_15h01.45.414,SL_sali,2021.2.3,Win32,166.6666667,1.3395,,,2,0,2,0,1,,,,,,,,
,,"[""circle"",""green"",""vert"",""up"",[-106,-106],[-106,106]]",circle,green,vert,up,"[-106,-106]","[-106,106]",up,1,,,,,,001,2025-03-17_15h01.45.414,SL_sali,2021.2.3,Win32,166.6666667,1.0519,,,3,0,3,0,1,,,,,,,,
,,"[""circle"",""no_dis"",""vert"",""up"",[99999,99999],[0,-150]]",circle,no_dis,vert,up,"[99999,99999]","[0,-150]",up,1,,,,,,001,2025-03-17_15h01.45.414,SL_sali,2021.2.3,Win32,166.6666667,0.9881,,,4,0,4,0,1,,,,,,,,
,,"[""diamond"",""no_dis"",""vert"",""up"",[99999,99999],[-150,0]]",diamond,no_dis,vert,up,"[99999,99999]","[-150,0]",up,1,,,,,,001,2025-03-17_15h01.45.414,SL_sali,2021.2.3,Win32,166.6666667,1.644,,,5,0,5,0,1,,,,,,,,
,,"[""diamond"",""red"",""hori"",""left"",[-106,106],[0,-150]]",diamond,red,hori,left,"[-106,106]","[0,-150]",left,1,,,,,,001,2025-03-17_15h01.45.414,SL_sali,2021.2.3,Win32,166.6666667,1.8068,,,6,0,6,0,1,,,,,,,,
,,"[""circle"",""green"",""hori"",""left"",[106,-106],[0,150]]",circle,green,hori,left,"[106,-106]","[0,150]",left,1,,,,,,001,2025-03-17_15h01.45.414,SL_sali,2021.2.3,Win32,166.6666667,1.486,,,7,0,7,0,1,,,,,,,,
,,"[""circle"",""no_dis"",""hori"",""left"",[99999,99999],[106,-106]]",circle,no_dis,hori,left,"[99999,99999]","[106,-106]",left,1,,,,,,001,2025-03-17_15h01.45.414,SL_sali,2021.2.3,Win32,166.6666667,1.1658,,,8,0,8,0,1,,,,,,,,
,,"[""diamond"",""red"",""vert"",""up"",[0,-150],[106,-106]]",diamond,red,vert,up,"[0,-150]","[106,-106]",up,1,,,,,,001,2025-03-17_15h01.45.414,SL_sali,2021.2.3,Win32,166.6666667,0.952,,,9,0,9,0,1,,,,,,,,
,,"[""diamond"",""green"",""vert"",""up"",[-150,0],[106,-106]]",diamond,green,vert,up,"[-150,0]","[106,-106]",up,1,,,,,,001,2025-03-17_15h01.45.414,SL_sali,2021.2.3,Win32,166.6666667,1.243,,,10,0,10,0,1,,,,,,,,
,,"[""circle"",""no_dis"",""vert"",""up"",[99999,99999],[-150,0]]",circle,no_dis,vert,up,"[99999,99999]","[-150,0]",up,1,,,,,,001,2025-03-17_15h01.45.414,SL_sali,2021.2.3,Win32,166.6666667,0.9846,,,11,0,11,0,1,,,,,,,,
,,"[""diamond"",""green"",""hori"",""left"",[106,106],[0,-150]]",diamond,green,hori,left,"[106,106]","[0,-150]",left,1,,,,,,001,2025-03-17_15h01.45.414,SL_sali,2021.2.3,Win32,166.6666667,1.3227,,,12,0,12,0,1,,,,,,,,
,,"[""diamond"",""green"",""hori"",""left"",[0,150],[106,106]]",diamond,green,hori,left,"[0,150]","[106,106]",left,1,,,,,,001,2025-03-17_15h01.45.414,SL_sali,2021.2.3,Win32,166.6666667,1.5334,,,13,0,13,0,1,,,,,,,,
,,"[""diamond"",""green"",""hori"",""left"",[-106,-106],[0,-150]]",diamond,green,hori,left,"[-106,-106]","[0,-150]",left,1,,,,,,001,2025-03-17_15h01.45.414,SL_sali,2021.2.3,Win32,166.6666667,1.2923,,,14,0,14,0,1,,,,,,,,
,,"[""circle"",""red"",""vert"",""up"",[0,150],[150,0]]",circle,red,vert,up,"[0,150]","[150,0]",up,1,,,,,,001,2025-03-17_15h01.45.414,SL_sali,2021.2.3,Win32,166.6666667,1.233,,,15,0,15,0,1,,,,,,,,
,,"[""diamond"",""red"",""hori"",""left"",[150,0],[0,-150]]",diamond,red,hori,left,"[150,0]","[0,-150]",left,1,,,,,,001,2025-03-17_15h01.45.414,SL_sali,2021.2.3,Win32,166.6666667,1.1395,,,16,0,16,0,1,,,,,,,,
,,"[""circle"",""red"",""hori"",""left"",[-106,-106],[0,150]]",circle,red,hori,left,"[-106,-106]","[0,150]",left,1,,,,,,001,2025-03-17_15h01.45.414,SL_sali,2021.2.3,Win32,166.6666667,2.3762,,,17,0,17,0,1,,,,,,,,
,,"[""diamond"",""red"",""hori"",""left"",[150,0],[0,150]]",diamond,red,hori,left,"[150,0]","[0,150]",left,1,,,,,,001,2025-03-17_15h01.45.414,SL_sali,2021.2.3,Win32,166.6666667,1.5588,,,18,0,18,0,1,,,,,,,,
,,"[""circle"",""red"",""vert"",""up"",[0,-150],[150,0]]",circle,red,vert,up,"[0,-150]","[150,0]",up,1,,,,,,001,2025-03-17_15h01.45.414,SL_sali,2021.2.3,Win32,166.6666667,1.7834,,,19,0,19,0,1,,,,,,,,
,,"[""diamond"",""red"",""vert"",""up"",[-106,-106],[150,0]]",diamond,red,vert,up,"[-106,-106]","[150,0]",up,1,,,,,,001,2025-03-17_15h01.45.414,SL_sali,2021.2.3,Win32,166.6666667,2.4262,,,20,0,20,0,1,,,,,,,,
,,"[""circle"",""green"",""vert"",""up"",[106,-106],[-106,106]]",circle,green,vert,up,"[106,-106]","[-106,106]",up,1,,,,,,001,2025-03-17_15h01.45.414,SL_sali,2021.2.3,Win32,166.6666667,2.0626,,,21,0,21,0,1,,,,,,,,
,,"[""circle"",""no_dis"",""vert"",""up"",[99999,99999],[-150,0]]",circle,no_dis,vert,up,"[99999,99999]","[-150,0]",up,1,,,,,,001,2025-03-17_15h01.45.414,SL_sali,2021.2.3,Win32,166.6666667,1.3915,,,22,0,22,0,1,,,,,,,,
,,"[""diamond"",""green"",""vert"",""up"",[0,-150],[-106,106]]",diamond,green,vert,up,"[0,-150]","[-106,106]",up,1,,,,,,001,2025-03-17_15h01.45.414,SL_sali,2021.2.3,Win32,166.6666667,1.9968,,,23,0,23,0,1,,,,,,,,
,,"[""diamond"",""red"",""hori"",""left"",[106,106],[106,-106]]",diamond,red,hori,left,"[106,106]","[106,-106]",left,1,,,,,,001,2025-03-17_15h01.45.414,SL_sali,2021.2.3,Win32,166.6666667,1.1491,,,24,0,24,0,1,,,,,,,,
,,"[""diamond"",""no_dis"",""hori"",""left"",[99999,99999],[150,0]]",diamond,no_dis,hori,left,"[99999,99999]","[150,0]",left,1,,,,,,001,2025-03-17_15h01.45.414,SL_sali,2021.2.3,Win32,166.6666667,0.9277,,,25,0,25,0,1,,,,,,,,
,,"[""diamond"",""green"",""vert"",""up"",[-106,-106],[150,0]]",diamond,green,vert,up,"[-106,-106]","[150,0]",up,1,,,,,,001,2025-03-17_15h01.45.414,SL_sali,2021.2.3,Win32,166.6666667,0.9731,,,26,0,26,0,1,,,,,,,,
,,"[""circle"",""no_dis"",""hori"",""left"",[99999,99999],[-106,106]]",circle,no_dis,hori,left,"[99999,99999]","[-106,106]",left,1,,,,,,001,2025-03-17_15h01.45.414,SL_sali,2021.2.3,Win32,166.6666667,0.7282,,,27,0,27,0,1,,,,,,,,
,,"[""circle"",""red"",""hori"",""left"",[150,0],[-106,106]]",circle,red,hori,left,"[150,0]","[-106,106]",left,1,,,,,,001,2025-03-17_15h01.45.414,SL_sali,2021.2.3,Win32,166.6666667,0.8453,,,28,0,28,0,1,,,,,,,,
,,"[""circle"",""green"",""vert"",""up"",[-106,106],[150,0]]",circle,green,vert,up,"[-106,106]","[150,0]",up,1,,,,,,001,2025-03-17_15h01.45.414,SL_sali,2021.2.3,Win32,166.6666667,0.7822,,,29,0,29,0,1,,,,,,,,
,,"[""circle"",""green"",""hori"",""left"",[106,-106],[-150,0]]",circle,green,hori,left,"[106,-106]","[-150,0]",left,1,,,,,,001,2025-03-17_15h01.45.414,SL_sali,2021.2.3,Win32,166.6666667,0.7764,,,30,0,30,0,1,,,,,,,,
,,"[""diamond"",""green"",""vert"",""up"",[-106,-106],[0,150]]",diamond,green,vert,up,"[-106,-106]","[0,150]",up,1,,,,,,001,2025-03-17_15h01.45.414,SL_sali,2021.2.3,Win32,166.6666667,1.0427,,,31,0,31,0,1,,,,,,,,
,,"[""diamond"",""green"",""vert"",""up"",[-106,-106],[106,106]]",diamond,green,vert,up,"[-106,-106]","[106,106]",up,1,,,,,,001,2025-03-17_15h01.45.414,SL_sali,2021.2.3,Win32,166.6666667,1.1837,,,32,0,32,0,1,,,,,,,,
,,"[""circle"",""red"",""vert"",""up"",[0,150],[-150,0]]",circle,red,vert,up,"[0,150]","[-150,0]",up,1,,,,,,001,2025-03-17_15h01.45.414,SL_sali,2021.2.3,Win32,166.6666667,1.3667,,,33,0,33,0,1,,,,,,,,
,,"[""circle"",""green"",""hori"",""left"",[106,106],[0,150]]",circle,green,hori,left,"[106,106]","[0,150]",left,1,,,,,,001,2025-03-17_15h01.45.414,SL_sali,2021.2.3,Win32,166.6666667,0.8789,,,34,0,34,0,1,,,,,,,,
,,"[""circle"",""no_dis"",""vert"",""up"",[99999,99999],[-106,106]]",circle,no_dis,vert,up,"[99999,99999]","[-106,106]",up,1,,,,,,001,2025-03-17_15h01.45.414,SL_sali,2021.2.3,Win32,166.6666667,0.7461,,,35,0,35,0,1,,,,,,,,
,,"[""circle"",""green"",""vert"",""up"",[106,-106],[-150,0]]",circle,green,vert,up,"[106,-106]","[-150,0]",up,1,,,,,,001,2025-03-17_15h01.45.414,SL_sali,2021.2.3,Win32,166.6666667,0.9478,,,36,0,36,0,1,,,,,,,,
,,"[""diamond"",""no_dis"",""vert"",""up"",[99999,99999],[-106,-106]]",diamond,no_dis,vert,up,"[99999,99999]","[-106,-106]",up,1,,,,,,001,2025-03-17_15h01.45.414,SL_sali,2021.2.3,Win32,166.6666667,1.5782,,,37,0,37,0,1,,,,,,,,
,,"[""diamond"",""green"",""vert"",""up"",[-106,-106],[0,150]]",diamond,green,vert,up,"[-106,-106]","[0,150]",up,1,,,,,,001,2025-03-17_15h01.45.414,SL_sali,2021.2.3,Win32,166.6666667,1.5645,,,38,0,38,0,1,,,,,,,,
,,"[""diamond"",""green"",""vert"",""up"",[-106,-106],[106,106]]",diamond,green,vert,up,"[-106,-106]","[106,106]",up,1,,,,,,001,2025-03-17_15h01.45.414,SL_sali,2021.2.3,Win32,166.6666667,1.0842,,,39,0,39,0,1,,,,,,,,
,,"[""diamond"",""green"",""hori"",""left"",[-106,106],[0,-150]]",diamond,green,hori,left,"[-106,106]","[0,-150]",left,1,,,,,,001,2025-03-17_15h01.45.414,SL_sali,2021.2.3,Win32,166.6666667,0.8385,,,40,0,40,0,1,,,,,,,,
,,"[""diamond"",""red"",""hori"",""left"",[150,0],[-150,0]]",diamond,red,hori,left,"[150,0]","[-150,0]",left,1,,,,,,001,2025-03-17_15h01.45.414,SL_sali,2021.2.3,Win32,166.6666667,1.2778,,,41,0,41,0,1,,,,,,,,
,,"[""circle"",""green"",""hori"",""left"",[-106,-106],[106,-106]]",circle,green,hori,left,"[-106,-106]","[106,-106]",left,1,,,,,,001,2025-03-17_15h01.45.414,SL_sali,2021.2.3,Win32,166.6666667,1.0672,,,42,0,42,0,1,,,,,,,,
,,"[""circle"",""red"",""hori"",""left"",[0,150],[-106,-106]]",circle,red,hori,left,"[0,150]","[-106,-106]",left,1,,,,,,001,2025-03-17_15h01.45.414,SL_sali,2021.2.3,Win32,166.6666667,1.6306,,,43,0,43,0,1,,,,,,,,
,,"[""circle"",""green"",""hori"",""left"",[0,150],[106,-106]]",circle,green,hori,left,"[0,150]","[106,-106]",left,1,,,,,,001,2025-03-17_15h01.45.414,SL_sali,2021.2.3,Win32,166.6666667,0.8912,,,44,0,44,0,1,,,,,,,,
,,"[""diamond"",""red"",""hori"",""left"",[-150,0],[106,106]]",diamond,red,hori,left,"[-150,0]","[106,106]",left,1,,,,,,001,2025-03-17_15h01.45.414,SL_sali,2021.2.3,Win32,166.6666667,1.3522,,,45,0,45,0,1,,,,,,,,
,,"[""diamond"",""red"",""vert"",""up"",[106,106],[-150,0]]",diamond,red,vert,up,"[106,106]","[-150,0]",up,1,,,,,,001,2025-03-17_15h01.45.414,SL_sali,2021.2.3,Win32,166.6666667,1.2242,,,46,0,46,0,1,,,,,,,,
,,"[""circle"",""red"",""hori"",""left"",[-106,-106],[0,-150]]",circle,red,hori,left,"[-106,-106]","[0,-150]",left,1,,,,,,001,2025-03-17_15h01.45.414,SL_sali,2021.2.3,Win32,166.6666667,1.3877,,,47,0,47,0,1,,,,,,,,
,,"[""circle"",""green"",""vert"",""up"",[-150,0],[-106,106]]",circle,green,vert,up,"[-150,0]","[-106,106]",up,1,,,,,,001,2025-03-17_15h01.45.414,SL_sali,2021.2.3,Win32,166.6666667,1.3706,,,48,0,48,0,1,,,,,,,,
,,"[""diamond"",""no_dis"",""vert"",""up"",[99999,99999],[106,-106]]",diamond,no_dis,vert,up,"[99999,99999]","[106,-106]",up,1,,,,,,001,2025-03-17_15h01.45.414,SL_sali,2021.2.3,Win32,166.6666667,1.0004,,,49,0,49,0,1,,,,,,,,
,,"[""circle"",""red"",""vert"",""up"",[-106,-106],[106,-106]]",circle,red,vert,up,"[-106,-106]","[106,-106]",up,1,,,,,,001,2025-03-17_15h01.45.414,SL_sali,2021.2.3,Win32,166.6666667,1.4976,,,50,0,50,0,1,,,,,,,,
,,"[""circle"",""red"",""hori"",""left"",[-106,-106],[106,106]]",circle,red,hori,left,"[-106,-106]","[106,106]",left,1,,,,,,001,2025-03-17_15h01.45.414,SL_sali,2021.2.3,Win32,166.6666667,1.0083,,,51,0,51,0,1,,,,,,,,
,,"[""circle"",""no_dis"",""hori"",""left"",[99999,99999],[-106,106]]",circle,no_dis,hori,left,"[99999,99999]","[-106,106]",left,1,,,,,,001,2025-03-17_15h01.45.414,SL_sali,2021.2.3,Win32,166.6666667,0.9822,,,52,0,52,0,1,,,,,,,,
,,"[""diamond"",""no_dis"",""hori"",""left"",[99999,99999],[106,-106]]",diamond,no_dis,hori,left,"[99999,99999]","[106,-106]",left,1,,,,,,001,2025-03-17_15h01.45.414,SL_sali,2021.2.3,Win32,166.6666667,1.7415,,,53,0,53,0,1,,,,,,,,
,,"[""circle"",""green"",""vert"",""up"",[150,0],[106,-106]]",circle,green,vert,up,"[150,0]","[106,-106]",up,1,,,,,,001,2025-03-17_15h01.45.414,SL_sali,2021.2.3,Win32,166.6666667,1.9038,,,54,0,54,0,1,,,,,,,,
,,"[""diamond"",""no_dis"",""hori"",""left"",[99999,99999],[-150,0]]",diamond,no_dis,hori,left,"[99999,99999]","[-150,0]",left,1,,,,,,001,2025-03-17_15h01.45.414,SL_sali,2021.2.3,Win32,166.6666667,1.11,,,55,0,55,0,1,,,,,,,,
,,"[""circle"",""no_dis"",""hori"",""left"",[99999,99999],[0,-150]]",circle,no_dis,hori,left,"[99999,99999]","[0,-150]",left,1,,,,,,001,2025-03-17_15h01.45.414,SL_sali,2021.2.3,Win32,166.6666667,0.9572,,,56,0,56,0,1,,,,,,,,
,,"[""diamond"",""red"",""vert"",""up"",[106,106],[150,0]]",diamond,red,vert,up,"[106,106]","[150,0]",up,1,,,,,,001,2025-03-17_15h01.45.414,SL_sali,2021.2.3,Win32,166.6666667,1.3366,,,57,0,57,0,1,,,,,,,,
,,"[""circle"",""red"",""hori"",""left"",[-106,-106],[-106,106]]",circle,red,hori,left,"[-106,-106]","[-106,106]",left,1,,,,,,001,2025-03-17_15h01.45.414,SL_sali,2021.2.3,Win32,166.6666667,0.9952,,,58,0,58,0,1,,,,,,,,
,,"[""diamond"",""green"",""hori"",""left"",[-106,-106],[106,-106]]",diamond,green,hori,left,"[-106,-106]","[106,-106]",left,1,,,,,,001,2025-03-17_15h01.45.414,SL_sali,2021.2.3,Win32,166.6666667,1.2032,,,59,0,59,0,1,,,,,,,,
,,"[""diamond"",""red"",""vert"",""up"",[-106,-106],[106,106]]",diamond,red,vert,up,"[-106,-106]","[106,106]",up,1,,,,,,001,2025-03-17_15h01.45.414,SL_sali,2021.2.3,Win32,166.6666667,1.6363,,,60,0,60,0,1,,,,,,,,
,,"[""diamond"",""no_dis"",""vert"",""up"",[99999,99999],[0,-150]]",diamond,no_dis,vert,up,"[99999,99999]","[0,-150]",up,1,,,,,,001,2025-03-17_15h01.45.414,SL_sali,2021.2.3,Win32,166.6666667,1.0608,,,61,0,61,0,1,,,,,,,,
,,"[""diamond"",""no_dis"",""hori"",""left"",[99999,99999],[106,-106]]",diamond,no_dis,hori,left,"[99999,99999]","[106,-106]",left,1,,,,,,001,2025-03-17_15h01.45.414,SL_sali,2021.2.3,Win32,166.6666667,0.8077,,,62,0,62,0,1,,,,,,,,
,,"[""diamond"",""no_dis"",""vert"",""up"",[99999,99999],[-106,106]]",diamond,no_dis,vert,up,"[99999,99999]","[-106,106]",up,1,,,,,,001,2025-03-17_15h01.45.414,SL_sali,2021.2.3,Win32,166.6666667,0.7526,,,63,0,63,0,1,,,,,,,,
,,"[""diamond"",""green"",""hori"",""left"",[0,-150],[106,-106]]",diamond,green,hori,left,"[0,-150]","[106,-106]",left,1,,,,,,001,2025-03-17_15h01.45.414,SL_sali,2021.2.3,Win32,166.6666667,0.6576,,,64,0,64,0,1,,,,,,,,
,,"[""circle"",""no_dis"",""vert"",""up"",[99999,99999],[150,0]]",circle,no_dis,vert,up,"[99999,99999]","[150,0]",up,1,,,,,,001,2025-03-17_15h01.45.414,SL_sali,2021.2.3,Win32,166.6666667,0.7218,,,65,0,65,0,1,,,,,,,,
,,"[""circle"",""red"",""hori"",""left"",[-106,-106],[0,-150]]",circle,red,hori,left,"[-106,-106]","[0,-150]",left,1,,,,,,001,2025-03-17_15h01.45.414,SL_sali,2021.2.3,Win32,166.6666667,0.9232,,,66,0,66,0,1,,,,,,,,
,,"[""circle"",""red"",""vert"",""up"",[106,-106],[-106,-106]]",circle,red,vert,up,"[106,-106]","[-106,-106]",up,1,,,,,,001,2025-03-17_15h01.45.414,SL_sali,2021.2.3,Win32,166.6666667,1.9395,,,67,0,67,0,1,,,,,,,,
,,"[""circle"",""green"",""vert"",""up"",[-106,106],[106,-106]]",circle,green,vert,up,"[-106,106]","[106,-106]",up,1,,,,,,001,2025-03-17_15h01.45.414,SL_sali,2021.2.3,Win32,166.6666667,1.503,,,68,0,68,0,1,,,,,,,,
,,"[""circle"",""no_dis"",""hori"",""left"",[99999,99999],[0,-150]]",circle,no_dis,hori,left,"[99999,99999]","[0,-150]",left,1,,,,,,001,2025-03-17_15h01.45.414,SL_sali,2021.2.3,Win32,166.6666667,0.9548,,,69,0,69,0,1,,,,,,,,
,,"[""circle"",""no_dis"",""vert"",""up"",[99999,99999],[106,106]]",circle,no_dis,vert,up,"[99999,99999]","[106,106]",up,1,,,,,,001,2025-03-17_15h01.45.414,SL_sali,2021.2.3,Win32,166.6666667,1.8495,,,70,0,70,0,1,,,,,,,,
,,"[""diamond"",""red"",""hori"",""left"",[-106,-106],[106,106]]",diamond,red,hori,left,"[-106,-106]","[106,106]",left,1,,,,,,001,2025-03-17_15h01.45.414,SL_sali,2021.2.3,Win32,166.6666667,2.1294,,,71,0,71,0,1,,,,,,,,
,,"[""circle"",""no_dis"",""vert"",""up"",[99999,99999],[-106,-106]]",circle,no_dis,vert,up,"[99999,99999]","[-106,-106]",up,1,,,,,,001,2025-03-17_15h01.45.414,SL_sali,2021.2.3,Win32,166.6666667,2.4253,,,72,0,72,0,1,,,,,,,,
,,"[""diamond"",""red"",""vert"",""up"",[-150,0],[0,150]]",diamond,red,vert,up,"[-150,0]","[0,150]",up,1,,,,,,001,2025-03-17_15h01.45.414,SL_sali,2021.2.3,Win32,166.6666667,1.6796,,,73,0,73,0,1,,,,,,,,
,,"[""circle"",""green"",""vert"",""up"",[0,-150],[0,150]]",circle,green,vert,up,"[0,-150]","[0,150]",up,1,,,,,,001,2025-03-17_15h01.45.414,SL_sali,2021.2.3,Win32,166.6666667,2.1459,,,74,0,74,0,1,,,,,,,,
,,"[""diamond"",""green"",""vert"",""up"",[0,-150],[106,-106]]",diamond,green,vert,up,"[0,-150]","[106,-106]",up,1,,,,,,001,2025-03-17_15h01.45.414,SL_sali,2021.2.3,Win32,166.6666667,1.5756,,,75,0,75,0,1,,,,,,,,
,,"[""circle"",""no_dis"",""hori"",""left"",[99999,99999],[0,-150]]",circle,no_dis,hori,left,"[99999,99999]","[0,-150]",left,1,,,,,,001,2025-03-17_15h01.45.414,SL_sali,2021.2.3,Win32,166.6666667,1.5724,,,76,0,76,0,1,,,,,,,,
,,"[""circle"",""no_dis"",""vert"",""up"",[99999,99999],[0,150]]",circle,no_dis,vert,up,"[99999,99999]","[0,150]",up,1,,,,,,001,2025-03-17_15h01.45.414,SL_sali,2021.2.3,Win32,166.6666667,1.4091,,,77,0,77,0,1,,,,,,,,
,,"[""circle"",""red"",""vert"",""up"",[150,0],[0,150]]",circle,red,vert,up,"[150,0]","[0,150]",up,1,,,,,,001,2025-03-17_15h01.45.414,SL_sali,2021.2.3,Win32,166.6666667,2.1297,,,78,0,78,0,1,,,,,,,,
,,"[""diamond"",""no_dis"",""vert"",""up"",[99999,99999],[106,106]]",diamond,no_dis,vert,up,"[99999,99999]","[106,106]",up,1,,,,,,001,2025-03-17_15h01.45.414,SL_sali,2021.2.3,Win32,166.6666667,0.8125,,,79,0,79,0,1,,,,,,,,
,,"[""diamond"",""green"",""vert"",""up"",[0,-150],[150,0]]",diamond,green,vert,up,"[0,-150]","[150,0]",up,1,,,,,,001,2025-03-17_15h01.45.414,SL_sali,2021.2.3,Win32,166.6666667,1.1151,,,80,0,80,0,1,,,,,,,,
,,"[""diamond"",""no_dis"",""vert"",""up"",[99999,99999],[150,0]]",diamond,no_dis,vert,up,"[99999,99999]","[150,0]",up,1,,,,,,001,2025-03-17_15h01.45.414,SL_sali,2021.2.3,Win32,166.6666667,0.9396,,,81,0,81,0,1,,,,,,,,
,,"[""circle"",""green"",""hori"",""left"",[-150,0],[-106,106]]",circle,green,hori,left,"[-150,0]","[-106,106]",left,1,,,,,,001,2025-03-17_15h01.45.414,SL_sali,2021.2.3,Win32,166.6666667,1.8669,,,82,0,82,0,1,,,,,,,,
,,"[""circle"",""green"",""hori"",""left"",[-150,0],[106,-106]]",circle,green,hori,left,"[-150,0]","[106,-106]",left,1,,,,,,001,2025-03-17_15h01.45.414,SL_sali,2021.2.3,Win32,166.6666667,0.7702,,,83,0,83,0,1,,,,,,,,
,,"[""diamond"",""no_dis"",""hori"",""left"",[99999,99999],[106,106]]",diamond,no_dis,hori,left,"[99999,99999]","[106,106]",left,1,,,,,,001,2025-03-17_15h01.45.414,SL_sali,2021.2.3,Win32,166.6666667,1.1607,,,84,0,84,0,1,,,,,,,,
,,"[""diamond"",""green"",""hori"",""left"",[106,106],[150,0]]",diamond,green,hori,left,"[106,106]","[150,0]",left,1,,,,,,001,2025-03-17_15h01.45.414,SL_sali,2021.2.3,Win32,166.6666667,1.7395,,,85,0,85,0,1,,,,,,,,
,,"[""circle"",""no_dis"",""hori"",""left"",[99999,99999],[-106,-106]]",circle,no_dis,hori,left,"[99999,99999]","[-106,-106]",left,1,,,,,,001,2025-03-17_15h01.45.414,SL_sali,2021.2.3,Win32,166.6666667,1.206,,,86,0,86,0,1,,,,,,,,
,,"[""diamond"",""no_dis"",""hori"",""left"",[99999,99999],[0,150]]",diamond,no_dis,hori,left,"[99999,99999]","[0,150]",left,1,,,,,,001,2025-03-17_15h01.45.414,SL_sali,2021.2.3,Win32,166.6666667,1.4798,,,87,0,87,0,1,,,,,,,,
,,"[""diamond"",""red"",""hori"",""left"",[0,150],[-150,0]]",diamond,red,hori,left,"[0,150]","[-150,0]",left,1,,,,,,001,2025-03-17_15h01.45.414,SL_sali,2021.2.3,Win32,166.6666667,1.0072,,,88,0,88,0,1,,,,,,,,
,,"[""circle"",""no_dis"",""vert"",""up"",[99999,99999],[-106,-106]]",circle,no_dis,vert,up,"[99999,99999]","[-106,-106]",up,1,,,,,,001,2025-03-17_15h01.45.414,SL_sali,2021.2.3,Win32,166.6666667,0.964,,,89,0,89,0,1,,,,,,,,
,,"[""diamond"",""red"",""vert"",""up"",[-106,106],[0,150]]",diamond,red,vert,up,"[-106,106]","[0,150]",up,1,,,,,,001,2025-03-17_15h01.45.414,SL_sali,2021.2.3,Win32,166.6666667,1.3154,,,90,0,90,0,1,,,,,,,,
,,"[""diamond"",""green"",""vert"",""up"",[-106,106],[106,106]]",diamond,green,vert,up,"[-106,106]","[106,106]",up,1,,,,,,001,2025-03-17_15h01.45.414,SL_sali,2021.2.3,Win32,166.6666667,1.7644,,,91,0,91,0,1,,,,,,,,
,,"[""diamond"",""no_dis"",""vert"",""up"",[99999,99999],[0,150]]",diamond,no_dis,vert,up,"[99999,99999]","[0,150]",up,1,,,,,,001,2025-03-17_15h01.45.414,SL_sali,2021.2.3,Win32,166.6666667,1.5763,,,92,0,92,0,1,,,,,,,,
,,"[""circle"",""red"",""vert"",""up"",[106,106],[106,-106]]",circle,red,vert,up,"[106,106]","[106,-106]",up,1,,,,,,001,2025-03-17_15h01.45.414,SL_sali,2021.2.3,Win32,166.6666667,1.47,,,93,0,93,0,1,,,,,,,,
,,"[""circle"",""green"",""hori"",""left"",[106,-106],[106,106]]",circle,green,hori,left,"[106,-106]","[106,106]",left,1,,,,,,001,2025-03-17_15h01.45.414,SL_sali,2021.2.3,Win32,166.6666667,1.3636,,,94,0,94,0,1,,,,,,,,
,,"[""circle"",""red"",""vert"",""up"",[-106,-106],[-106,106]]",circle,red,vert,up,"[-106,-106]","[-106,106]",up,1,,,,,,001,2025-03-17_15h01.45.414,SL_sali,2021.2.3,Win32,166.6666667,1.4549,,,95,0,95,0,1,,,,,,,,
,,"[""diamond"",""no_dis"",""vert"",""up"",[99999,99999],[150,0]]",diamond,no_dis,vert,up,"[99999,99999]","[150,0]",up,1,,,,,,001,2025-03-17_15h01.45.414,SL_sali,2021.2.3,Win32,166.6666667,1.073,,,96,0,96,0,1,,,,,,,,
,,"[""circle"",""green"",""hori"",""left"",[0,-150],[-106,-106]]",circle,green,hori,left,"[0,-150]","[-106,-106]",left,1,,,,,,001,2025-03-17_15h01.45.414,SL_sali,2021.2.3,Win32,166.6666667,1.8823,,,97,0,97,0,1,,,,,,,,
,,"[""diamond"",""green"",""hori"",""left"",[0,150],[150,0]]",diamond,green,hori,left,"[0,150]","[150,0]",left,1,,,,,,001,2025-03-17_15h01.45.414,SL_sali,2021.2.3,Win32,166.6666667,1.3883,,,98,0,98,0,1,,,,,,,,
,,"[""diamond"",""no_dis"",""hori"",""left"",[99999,99999],[-150,0]]",diamond,no_dis,hori,left,"[99999,99999]","[-150,0]",left,1,,,,,,001,2025-03-17_15h01.45.414,SL_sali,2021.2.3,Win32,166.6666667,1.1339,,,99,0,99,0,1,,,,,,,,
,,"[""diamond"",""no_dis"",""hori"",""left"",[99999,99999],[-106,106]]",diamond,no_dis,hori,left,"[99999,99999]","[-106,106]",left,1,,,,,,001,2025-03-17_15h01.45.414,SL_sali,2021.2.3,Win32,166.6666667,0.949,,,100,0,100,0,1,,,,,,,,
,,"[""circle"",""green"",""hori"",""left"",[-106,106],[0,-150]]",circle,green,hori,left,"[-106,106]","[0,-150]",left,1,,,,,,001,2025-03-17_15h01.45.414,SL_sali,2021.2.3,Win32,166.6666667,1.4488,,,101,0,101,0,1,,,,,,,,
,,"[""circle"",""green"",""vert"",""up"",[150,0],[-106,-106]]",circle,green,vert,up,"[150,0]","[-106,-106]",up,1,,,,,,001,2025-03-17_15h01.45.414,SL_sali,2021.2.3,Win32,166.6666667,2.2183,,,102,0,102,0,1,,,,,,,,
,,"[""diamond"",""red"",""vert"",""up"",[106,-106],[0,150]]",diamond,red,vert,up,"[106,-106]","[0,150]",up,1,,,,,,001,2025-03-17_15h01.45.414,SL_sali,2021.2.3,Win32,166.6666667,1.4079,,,103,0,103,0,1,,,,,,,,
,,"[""diamond"",""green"",""hori"",""left"",[-106,-106],[0,-150]]",diamond,green,hori,left,"[-106,-106]","[0,-150]",left,1,,,,,,001,2025-03-17_15h01.45.414,SL_sali,2021.2.3,Win32,166.6666667,1.4941,,,104,0,104,0,1,,,,,,,,
,,"[""circle"",""green"",""vert"",""up"",[-106,-106],[-106,106]]",circle,green,vert,up,"[-106,-106]","[-106,106]",up,1,,,,,,001,2025-03-17_15h01.45.414,SL_sali,2021.2.3,Win32,166.6666667,1.4923,,,105,0,105,0,1,,,,,,,,
,,"[""diamond"",""no_dis"",""vert"",""up"",[99999,99999],[106,106]]",diamond,no_dis,vert,up,"[99999,99999]","[106,106]",up,1,,,,,,001,2025-03-17_15h01.45.414,SL_sali,2021.2.3,Win32,166.6666667,1.4366,,,106,0,106,0,1,,,,,,,,
,,"[""circle"",""red"",""hori"",""left"",[-106,-106],[-150,0]]",circle,red,hori,left,"[-106,-106]","[-150,0]",left,1,,,,,,001,2025-03-17_15h01.45.414,SL_sali,2021.2.3,Win32,166.6666667,1.153,,,107,0,107,0,1,,,,,,,,
,,"[""diamond"",""red"",""vert"",""up"",[-106,-106],[150,0]]",diamond,red,vert,up,"[-106,-106]","[150,0]",up,1,,,,,,001,2025-03-17_15h01.45.414,SL_sali,2021.2.3,Win32,166.6666667,0.766,,,108,0,108,0,1,,,,,,,,
,,"[""circle"",""no_dis"",""hori"",""left"",[99999,99999],[106,106]]",circle,no_dis,hori,left,"[99999,99999]","[106,106]",left,1,,,,,,001,2025-03-17_15h01.45.414,SL_sali,2021.2.3,Win32,166.6666667,1.4672,,,109,0,109,0,1,,,,,,,,
,,"[""circle"",""no_dis"",""hori"",""left"",[99999,99999],[0,150]]",circle,no_dis,hori,left,"[99999,99999]","[0,150]",left,1,,,,,,001,2025-03-17_15h01.45.414,SL_sali,2021.2.3,Win32,166.6666667,0.6327,,,110,0,110,0,1,,,,,,,,
,,"[""diamond"",""red"",""hori"",""left"",[-150,0],[0,-150]]",diamond,red,hori,left,"[-150,0]","[0,-150]",left,1,,,,,,001,2025-03-17_15h01.45.414,SL_sali,2021.2.3,Win32,166.6666667,1.1604,,,111,0,111,0,1,,,,,,,,
,,"[""circle"",""red"",""hori"",""left"",[150,0],[-150,0]]",circle,red,hori,left,"[150,0]","[-150,0]",left,1,,,,,,001,2025-03-17_15h01.45.414,SL_sali,2021.2.3,Win32,166.6666667,2.0364,,,112,0,112,0,1,,,,,,,,
,,"[""circle"",""red"",""vert"",""up"",[-106,106],[150,0]]",circle,red,vert,up,"[-106,106]","[150,0]",up,1,,,,,,001,2025-03-17_15h01.45.414,SL_sali,2021.2.3,Win32,166.6666667,1.1957,,,113,0,113,0,1,,,,,,,,
,,"[""diamond"",""green"",""hori"",""left"",[0,150],[-106,106]]",diamond,green,hori,left,"[0,150]","[-106,106]",left,1,,,,,,001,2025-03-17_15h01.45.414,SL_sali,2021.2.3,Win32,166.6666667,1.8917,,,114,0,114,0,1,,,,,,,,
,,"[""circle"",""no_dis"",""hori"",""left"",[99999,99999],[-106,-106]]",circle,no_dis,hori,left,"[99999,99999]","[-106,-106]",left,1,,,,,,001,2025-03-17_15h01.45.414,SL_sali,2021.2.3,Win32,166.6666667,0.9401,,,115,0,115,0,1,,,,,,,,
,,"[""circle"",""no_dis"",""vert"",""up"",[99999,99999],[106,-106]]",circle,no_dis,vert,up,"[99999,99999]","[106,-106]",left,0,,,,,,001,2025-03-17_15h01.45.414,SL_sali,2021.2.3,Win32,166.6666667,2.7165,,,116,0,116,0,1,,,,,,,,
,,"[""diamond"",""no_dis"",""hori"",""left"",[99999,99999],[150,0]]",diamond,no_dis,hori,left,"[99999,99999]","[150,0]",left,1,,,,,,001,2025-03-17_15h01.45.414,SL_sali,2021.2.3,Win32,166.6666667,1.2452,,,117,0,117,0,1,,,,,,,,
,,"[""circle"",""red"",""vert"",""up"",[-150,0],[-106,106]]",circle,red,vert,up,"[-150,0]","[-106,106]",up,1,,,,,,001,2025-03-17_15h01.45.414,SL_sali,2021.2.3,Win32,166.6666667,1.6426,,,118,0,118,0,1,,,,,,,,
,,"[""diamond"",""no_dis"",""hori"",""left"",[99999,99999],[0,150]]",diamond,no_dis,hori,left,"[99999,99999]","[0,150]",up,0,,,,,,001,2025-03-17_15h01.45.414,SL_sali,2021.2.3,Win32,166.6666667,2.0856,,,119,0,119,0,1,,,,,,,,
,,,,,,,,,,,,,,,,001,2025-03-17_15h01.45.414,SL_sali,2021.2.3,Win32,166.6666667,,,,,,,,,2,space,67.4287,1,0,1,0,1
,,"[""diamond"",""green"",""hori"",""left"",[106,106],[150,0]]",diamond,green,hori,left,"[106,106]","[150,0]",left,1,,,,,,001,2025-03-17_15h01.45.414,SL_sali,2021.2.3,Win32,166.6666667,1.9591,,,0,0,0,0,1,,,,,,,,
,,"[""diamond"",""green"",""vert"",""up"",[-106,-106],[106,106]]",diamond,green,vert,up,"[-106,-106]","[106,106]",up,1,,,,,,001,2025-03-17_15h01.45.414,SL_sali,2021.2.3,Win32,166.6666667,1.2498,,,1,0,1,0,1,,,,,,,,
,,"[""circle"",""green"",""hori"",""left"",[106,-106],[106,106]]",circle,green,hori,left,"[106,-106]","[106,106]",left,1,,,,,,001,2025-03-17_15h01.45.414,SL_sali,2021.2.3,Win32,166.6666667,1.0246,,,2,0,2,0,1,,,,,,,,
,,"[""diamond"",""red"",""vert"",""up"",[-106,-106],[150,0]]",diamond,red,vert,up,"[-106,-106]","[150,0]",up,1,,,,,,001,2025-03-17_15h01.45.414,SL_sali,2021.2.3,Win32,166.6666667,2.1185,,,3,0,3,0,1,,,,,,,,
,,"[""circle"",""green"",""hori"",""left"",[-150,0],[-106,106]]",circle,green,hori,left,"[-150,0]","[-106,106]",left,1,,,,,,001,2025-03-17_15h01.45.414,SL_sali,2021.2.3,Win32,166.6666667,1.7395,,,4,0,4,0,1,,,,,,,,
,,"[""diamond"",""no_dis"",""vert"",""up"",[99999,99999],[-106,-106]]",diamond,no_dis,vert,up,"[99999,99999]","[-106,-106]",up,1,,,,,,001,2025-03-17_15h01.45.414,SL_sali,2021.2.3,Win32,166.6666667,1.1943,,,5,0,5,0,1,,,,,,,,
,,"[""circle"",""no_dis"",""hori"",""left"",[99999,99999],[0,-150]]",circle,no_dis,hori,left,"[99999,99999]","[0,-150]",left,1,,,,,,001,2025-03-17_15h01.45.414,SL_sali,2021.2.3,Win32,166.6666667,1.3407,,,6,0,6,0,1,,,,,,,,
,,"[""circle"",""no_dis"",""hori"",""left"",[99999,99999],[-106,106]]",circle,no_dis,hori,left,"[99999,99999]","[-106,106]",left,1,,,,,,001,2025-03-17_15h01.45.414,SL_sali,2021.2.3,Win32,166.6666667,1.0305,,,7,0,7,0,1,,,,,,,,
,,"[""circle"",""green"",""vert"",""up"",[106,-106],[-106,106]]",circle,green,vert,up,"[106,-106]","[-106,106]",up,1,,,,,,001,2025-03-17_15h01.45.414,SL_sali,2021.2.3,Win32,166.6666667,1.4916,,,8,0,8,0,1,,,,,,,,
,,"[""circle"",""red"",""vert"",""up"",[0,-150],[150,0]]",circle,red,vert,up,"[0,-150]","[150,0]",up,1,,,,,,001,2025-03-17_15h01.45.414,SL_sali,2021.2.3,Win32,166.6666667,1.2701,,,9,0,9,0,1,,,,,,,,
,,"[""diamond"",""green"",""vert"",""up"",[-106,-106],[106,106]]",diamond,green,vert,up,"[-106,-106]","[106,106]",up,1,,,,,,001,2025-03-17_15h01.45.414,SL_sali,2021.2.3,Win32,166.6666667,1.6735,,,10,0,10,0,1,,,,,,,,
,,"[""circle"",""red"",""vert"",""up"",[150,0],[0,150]]",circle,red,vert,up,"[150,0]","[0,150]",up,1,,,,,,001,2025-03-17_15h01.45.414,SL_sali,2021.2.3,Win32,166.6666667,1.4853,,,11,0,11,0,1,,,,,,,,
,,"[""diamond"",""no_dis"",""vert"",""up"",[99999,99999],[106,-106]]",diamond,no_dis,vert,up,"[99999,99999]","[106,-106]",up,1,,,,,,001,2025-03-17_15h01.45.414,SL_sali,2021.2.3,Win32,166.6666667,1.1456,,,12,0,12,0,1,,,,,,,,
,,"[""circle"",""green"",""hori"",""left"",[0,150],[106,-106]]",circle,green,hori,left,"[0,150]","[106,-106]",left,1,,,,,,001,2025-03-17_15h01.45.414,SL_sali,2021.2.3,Win32,166.6666667,1.0368,,,13,0,13,0,1,,,,,,,,
,,"[""diamond"",""green"",""hori"",""left"",[-106,-106],[0,-150]]",diamond,green,hori,left,"[-106,-106]","[0,-150]",left,1,,,,,,001,2025-03-17_15h01.45.414,SL_sali,2021.2.3,Win32,166.6666667,1.5214,,,14,0,14,0,1,,,,,,,,
,,"[""diamond"",""no_dis"",""vert"",""up"",[99999,99999],[106,106]]",diamond,no_dis,vert,up,"[99999,99999]","[106,106]",up,1,,,,,,001,2025-03-17_15h01.45.414,SL_sali,2021.2.3,Win32,166.6666667,0.9824,,,15,0,15,0,1,,,,,,,,
,,"[""diamond"",""green"",""vert"",""up"",[0,-150],[150,0]]",diamond,green,vert,up,"[0,-150]","[150,0]",up,1,,,,,,001,2025-03-17_15h01.45.414,SL_sali,2021.2.3,Win32,166.6666667,0.8497,,,16,0,16,0,1,,,,,,,,
,,"[""circle"",""red"",""hori"",""left"",[-106,-106],[0,-150]]",circle,red,hori,left,"[-106,-106]","[0,-150]",left,1,,,,,,001,2025-03-17_15h01.45.414,SL_sali,2021.2.3,Win32,166.6666667,1.0456,,,17,0,17,0,1,,,,,,,,
,,"[""circle"",""red"",""hori"",""left"",[-106,-106],[0,-150]]",circle,red,hori,left,"[-106,-106]","[0,-150]",left,1,,,,,,001,2025-03-17_15h01.45.414,SL_sali,2021.2.3,Win32,166.6666667,0.9852,,,18,0,18,0,1,,,,,,,,
,,"[""diamond"",""no_dis"",""hori"",""left"",[99999,99999],[-106,106]]",diamond,no_dis,hori,left,"[99999,99999]","[-106,106]",left,1,,,,,,001,2025-03-17_15h01.45.414,SL_sali,2021.2.3,Win32,166.6666667,0.8194,,,19,0,19,0,1,,,,,,,,
,,"[""diamond"",""green"",""vert"",""up"",[-150,0],[106,-106]]",diamond,green,vert,up,"[-150,0]","[106,-106]",up,1,,,,,,001,2025-03-17_15h01.45.414,SL_sali,2021.2.3,Win32,166.6666667,0.8429,,,20,0,20,0,1,,,,,,,,
,,"[""diamond"",""red"",""hori"",""left"",[150,0],[0,150]]",diamond,red,hori,left,"[150,0]","[0,150]",left,1,,,,,,001,2025-03-17_15h01.45.414,SL_sali,2021.2.3,Win32,166.6666667,1.0815,,,21,0,21,0,1,,,,,,,,
,,"[""diamond"",""red"",""vert"",""up"",[106,-106],[0,150]]",diamond,red,vert,up,"[106,-106]","[0,150]",up,1,,,,,,001,2025-03-17_15h01.45.414,SL_sali,2021.2.3,Win32,166.6666667,1.5882,,,22,0,22,0,1,,,,,,,,
,,"[""circle"",""no_dis"",""hori"",""left"",[99999,99999],[-106,-106]]",circle,no_dis,hori,left,"[99999,99999]","[-106,-106]",left,1,,,,,,001,2025-03-17_15h01.45.414,SL_sali,2021.2.3,Win32,166.6666667,0.8065,,,23,0,23,0,1,,,,,,,,
,,"[""circle"",""no_dis"",""vert"",""up"",[99999,99999],[-106,-106]]",circle,no_dis,vert,up,"[99999,99999]","[-106,-106]",left,0,,,,,,001,2025-03-17_15h01.45.414,SL_sali,2021.2.3,Win32,166.6666667,1.4332,,,24,0,24,0,1,,,,,,,,
,,"[""circle"",""red"",""hori"",""left"",[-106,-106],[106,106]]",circle,red,hori,left,"[-106,-106]","[106,106]",left,1,,,,,,001,2025-03-17_15h01.45.414,SL_sali,2021.2.3,Win32,166.6666667,1.079,,,25,0,25,0,1,,,,,,,,
,,"[""diamond"",""red"",""vert"",""up"",[-106,106],[0,150]]",diamond,red,vert,up,"[-106,106]","[0,150]",up,1,,,,,,001,2025-03-17_15h01.45.414,SL_sali,2021.2.3,Win32,166.6666667,1.9216,,,26,0,26,0,1,,,,,,,,
,,"[""circle"",""no_dis"",""hori"",""left"",[99999,99999],[106,-106]]",circle,no_dis,hori,left,"[99999,99999]","[106,-106]",left,1,,,,,,001,2025-03-17_15h01.45.414,SL_sali,2021.2.3,Win32,166.6666667,1.067,,,27,0,27,0,1,,,,,,,,
,,"[""circle"",""red"",""vert"",""up"",[106,106],[106,-106]]",circle,red,vert,up,"[106,106]","[106,-106]",up,1,,,,,,001,2025-03-17_15h01.45.414,SL_sali,2021.2.3,Win32,166.6666667,1.0545,,,28,0,28,0,1,,,,,,,,
,,"[""diamond"",""red"",""hori"",""left"",[-106,-106],[106,106]]",diamond,red,hori,left,"[-106,-106]","[106,106]",left,1,,,,,,001,2025-03-17_15h01.45.414,SL_sali,2021.2.3,Win32,166.6666667,0.6917,,,29,0,29,0,1,,,,,,,,
,,"[""circle"",""red"",""hori"",""left"",[-106,-106],[0,150]]",circle,red,hori,left,"[-106,-106]","[0,150]",left,1,,,,,,001,2025-03-17_15h01.45.414,SL_sali,2021.2.3,Win32,166.6666667,1.5887,,,30,0,30,0,1,,,,,,,,
,,"[""diamond"",""red"",""hori"",""left"",[-106,106],[0,-150]]",diamond,red,hori,left,"[-106,106]","[0,-150]",left,1,,,,,,001,2025-03-17_15h01.45.414,SL_sali,2021.2.3,Win32,166.6666667,1.376,,,31,0,31,0,1,,,,,,,,
,,"[""diamond"",""red"",""hori"",""left"",[150,0],[-150,0]]",diamond,red,hori,left,"[150,0]","[-150,0]",left,1,,,,,,001,2025-03-17_15h01.45.414,SL_sali,2021.2.3,Win32,166.6666667,1.1855,,,32,0,32,0,1,,,,,,,,
,,"[""circle"",""green"",""vert"",""up"",[150,0],[106,-106]]",circle,green,vert,up,"[150,0]","[106,-106]",up,1,,,,,,001,2025-03-17_15h01.45.414,SL_sali,2021.2.3,Win32,166.6666667,1.5166,,,33,0,33,0,1,,,,,,,,
,,"[""diamond"",""green"",""hori"",""left"",[0,150],[-106,106]]",diamond,green,hori,left,"[0,150]","[-106,106]",left,1,,,,,,001,2025-03-17_15h01.45.414,SL_sali,2021.2.3,Win32,166.6666667,1.7335,,,34,0,34,0,1,,,,,,,,
,,"[""circle"",""red"",""hori"",""left"",[150,0],[-106,106]]",circle,red,hori,left,"[150,0]","[-106,106]",left,1,,,,,,001,2025-03-17_15h01.45.414,SL_sali,2021.2.3,Win32,166.6666667,0.7353,,,35,0,35,0,1,,,,,,,,
,,"[""diamond"",""no_dis"",""vert"",""up"",[99999,99999],[-150,0]]",diamond,no_dis,vert,up,"[99999,99999]","[-150,0]",up,1,,,,,,001,2025-03-17_15h01.45.414,SL_sali,2021.2.3,Win32,166.6666667,0.9994,,,36,0,36,0,1,,,,,,,,
,,"[""circle"",""green"",""vert"",""up"",[0,-150],[0,150]]",circle,green,vert,up,"[0,-150]","[0,150]",up,1,,,,,,001,2025-03-17_15h01.45.414,SL_sali,2021.2.3,Win32,166.6666667,1.2353,,,37,0,37,0,1,,,,,,,,
,,"[""circle"",""red"",""vert"",""up"",[0,150],[150,0]]",circle,red,vert,up,"[0,150]","[150,0]",up,1,,,,,,001,2025-03-17_15h01.45.414,SL_sali,2021.2.3,Win32,166.6666667,1.0645,,,38,0,38,0,1,,,,,,,,
,,"[""diamond"",""no_dis"",""vert"",""up"",[99999,99999],[150,0]]",diamond,no_dis,vert,up,"[99999,99999]","[150,0]",up,1,,,,,,001,2025-03-17_15h01.45.414,SL_sali,2021.2.3,Win32,166.6666667,1.1758,,,39,0,39,0,1,,,,,,,,
,,"[""diamond"",""green"",""hori"",""left"",[-106,106],[0,-150]]",diamond,green,hori,left,"[-106,106]","[0,-150]",left,1,,,,,,001,2025-03-17_15h01.45.414,SL_sali,2021.2.3,Win32,166.6666667,1.3819,,,40,0,40,0,1,,,,,,,,
,,"[""circle"",""green"",""vert"",""up"",[150,0],[-106,-106]]",circle,green,vert,up,"[150,0]","[-106,-106]",up,1,,,,,,001,2025-03-17_15h01.45.414,SL_sali,2021.2.3,Win32,166.6666667,1.1999,,,41,0,41,0,1,,,,,,,,
,,"[""diamond"",""red"",""vert"",""up"",[-150,0],[0,150]]",diamond,red,vert,up,"[-150,0]","[0,150]",up,1,,,,,,001,2025-03-17_15h01.45.414,SL_sali,2021.2.3,Win32,166.6666667,1.3279,,,42,0,42,0,1,,,,,,,,
,,"[""diamond"",""red"",""vert"",""up"",[106,106],[-150,0]]",diamond,red,vert,up,"[106,106]","[-150,0]",up,1,,,,,,001,2025-03-17_15h01.45.414,SL_sali,2021.2.3,Win32,166.6666667,2.0428,,,43,0,43,0,1,,,,,,,,
,,"[""diamond"",""red"",""vert"",""up"",[106,106],[150,0]]",diamond,red,vert,up,"[106,106]","[150,0]",up,1,,,,,,001,2025-03-17_15h01.45.414,SL_sali,2021.2.3,Win32,166.6666667,1.5277,,,44,0,44,0,1,,,,,,,,
,,"[""circle"",""green"",""vert"",""up"",[-150,0],[-106,106]]",circle,green,vert,up,"[-150,0]","[-106,106]",up,1,,,,,,001,2025-03-17_15h01.45.414,SL_sali,2021.2.3,Win32,166.6666667,1.8975,,,45,0,45,0,1,,,,,,,,
,,"[""circle"",""green"",""hori"",""left"",[106,106],[0,150]]",circle,green,hori,left,"[106,106]","[0,150]",left,1,,,,,,001,2025-03-17_15h01.45.414,SL_sali,2021.2.3,Win32,166.6666667,1.2953,,,46,0,46,0,1,,,,,,,,
,,"[""diamond"",""no_dis"",""hori"",""left"",[99999,99999],[-150,0]]",diamond,no_dis,hori,left,"[99999,99999]","[-150,0]",left,1,,,,,,001,2025-03-17_15h01.45.414,SL_sali,2021.2.3,Win32,166.6666667,1.2213,,,47,0,47,0,1,,,,,,,,
,,"[""circle"",""no_dis"",""vert"",""up"",[99999,99999],[0,150]]",circle,no_dis,vert,up,"[99999,99999]","[0,150]",up,1,,,,,,001,2025-03-17_15h01.45.414,SL_sali,2021.2.3,Win32,166.6666667,1.0614,,,48,0,48,0,1,,,,,,,,
,,"[""circle"",""red"",""vert"",""up"",[-106,-106],[-106,106]]",circle,red,vert,up,"[-106,-106]","[-106,106]",up,1,,,,,,001,2025-03-17_15h01.45.414,SL_sali,2021.2.3,Win32,166.6666667,1.2673,,,49,0,49,0,1,,,,,,,,
,,"[""diamond"",""no_dis"",""vert"",""up"",[99999,99999],[0,150]]",diamond,no_dis,vert,up,"[99999,99999]","[0,150]",up,1,,,,,,001,2025-03-17_15h01.45.414,SL_sali,2021.2.3,Win32,166.6666667,1.5098,,,50,0,50,0,1,,,,,,,,
,,"[""diamond"",""green"",""hori"",""left"",[-106,-106],[106,-106]]",diamond,green,hori,left,"[-106,-106]","[106,-106]",left,1,,,,,,001,2025-03-17_15h01.45.414,SL_sali,2021.2.3,Win32,166.6666667,1.5105,,,51,0,51,0,1,,,,,,,,
,,"[""diamond"",""green"",""vert"",""up"",[-106,-106],[0,150]]",diamond,green,vert,up,"[-106,-106]","[0,150]",up,1,,,,,,001,2025-03-17_15h01.45.414,SL_sali,2021.2.3,Win32,166.6666667,1.5518,,,52,0,52,0,1,,,,,,,,
,,"[""diamond"",""green"",""hori"",""left"",[0,150],[106,106]]",diamond,green,hori,left,"[0,150]","[106,106]",left,1,,,,,,001,2025-03-17_15h01.45.414,SL_sali,2021.2.3,Win32,166.6666667,1.3216,,,53,0,53,0,1,,,,,,,,
,,"[""circle"",""green"",""hori"",""left"",[-150,0],[106,-106]]",circle,green,hori,left,"[-150,0]","[106,-106]",left,1,,,,,,001,2025-03-17_15h01.45.414,SL_sali,2021.2.3,Win32,166.6666667,1.0365,,,54,0,54,0,1,,,,,,,,
,,"[""circle"",""red"",""hori"",""left"",[0,150],[-106,-106]]",circle,red,hori,left,"[0,150]","[-106,-106]",left,1,,,,,,001,2025-03-17_15h01.45.414,SL_sali,2021.2.3,Win32,166.6666667,1.3416,,,55,0,55,0,1,,,,,,,,
,,"[""diamond"",""red"",""hori"",""left"",[-150,0],[106,106]]",diamond,red,hori,left,"[-150,0]","[106,106]",left,1,,,,,,001,2025-03-17_15h01.45.414,SL_sali,2021.2.3,Win32,166.6666667,0.8692,,,56,0,56,0,1,,,,,,,,
,,"[""circle"",""no_dis"",""hori"",""left"",[99999,99999],[106,106]]",circle,no_dis,hori,left,"[99999,99999]","[106,106]",left,1,,,,,,001,2025-03-17_15h01.45.414,SL_sali,2021.2.3,Win32,166.6666667,1.443,,,57,0,57,0,1,,,,,,,,
,,"[""diamond"",""red"",""hori"",""left"",[150,0],[0,-150]]",diamond,red,hori,left,"[150,0]","[0,-150]",left,1,,,,,,001,2025-03-17_15h01.45.414,SL_sali,2021.2.3,Win32,166.6666667,1.9097,,,58,0,58,0,1,,,,,,,,
,,"[""circle"",""green"",""hori"",""left"",[-106,106],[0,-150]]",circle,green,hori,left,"[-106,106]","[0,-150]",left,1,,,,,,001,2025-03-17_15h01.45.414,SL_sali,2021.2.3,Win32,166.6666667,1.1341,,,59,0,59,0,1,,,,,,,,
,,"[""diamond"",""red"",""hori"",""left"",[0,150],[-150,0]]",diamond,red,hori,left,"[0,150]","[-150,0]",left,1,,,,,,001,2025-03-17_15h01.45.414,SL_sali,2021.2.3,Win32,166.6666667,1.1819,,,60,0,60,0,1,,,,,,,,
,,"[""circle"",""red"",""hori"",""left"",[-106,-106],[-106,106]]",circle,red,hori,left,"[-106,-106]","[-106,106]",left,1,,,,,,001,2025-03-17_15h01.45.414,SL_sali,2021.2.3,Win32,166.6666667,0.7468,,,61,0,61,0,1,,,,,,,,
,,"[""diamond"",""green"",""hori"",""left"",[-106,-106],[0,-150]]",diamond,green,hori,left,"[-106,-106]","[0,-150]",left,1,,,,,,001,2025-03-17_15h01.45.414,SL_sali,2021.2.3,Win32,166.6666667,1.467,,,62,0,62,0,1,,,,,,,,
,,"[""circle"",""no_dis"",""vert"",""up"",[99999,99999],[0,-150]]",circle,no_dis,vert,up,"[99999,99999]","[0,-150]",up,1,,,,,,001,2025-03-17_15h01.45.414,SL_sali,2021.2.3,Win32,166.6666667,1.0568,,,63,0,63,0,1,,,,,,,,
,,"[""circle"",""no_dis"",""vert"",""up"",[99999,99999],[106,-106]]",circle,no_dis,vert,up,"[99999,99999]","[106,-106]",up,1,,,,,,001,2025-03-17_15h01.45.414,SL_sali,2021.2.3,Win32,166.6666667,1.2576,,,64,0,64,0,1,,,,,,,,
,,"[""circle"",""no_dis"",""hori"",""left"",[99999,99999],[-106,-106]]",circle,no_dis,hori,left,"[99999,99999]","[-106,-106]",left,1,,,,,,001,2025-03-17_15h01.45.414,SL_sali,2021.2.3,Win32,166.6666667,1.1583,,,65,0,65,0,1,,,,,,,,
,,"[""circle"",""red"",""vert"",""up"",[-106,106],[150,0]]",circle,red,vert,up,"[-106,106]","[150,0]",up,1,,,,,,001,2025-03-17_15h01.45.414,SL_sali,2021.2.3,Win32,166.6666667,1.1287,,,66,0,66,0,1,,,,,,,,
,,"[""circle"",""no_dis"",""vert"",""up"",[99999,99999],[150,0]]",circle,no_dis,vert,up,"[99999,99999]","[150,0]",up,1,,,,,,001,2025-03-17_15h01.45.414,SL_sali,2021.2.3,Win32,166.6666667,1.0148,,,67,0,67,0,1,,,,,,,,
,,"[""diamond"",""green"",""hori"",""left"",[106,106],[0,-150]]",diamond,green,hori,left,"[106,106]","[0,-150]",left,1,,,,,,001,2025-03-17_15h01.45.414,SL_sali,2021.2.3,Win32,166.6666667,1.0547,,,68,0,68,0,1,,,,,,,,
,,"[""diamond"",""no_dis"",""vert"",""up"",[99999,99999],[-106,106]]",diamond,no_dis,vert,up,"[99999,99999]","[-106,106]",up,1,,,,,,001,2025-03-17_15h01.45.414,SL_sali,2021.2.3,Win32,166.6666667,1.3055,,,69,0,69,0,1,,,,,,,,
,,"[""circle"",""red"",""vert"",""up"",[106,-106],[-106,-106]]",circle,red,vert,up,"[106,-106]","[-106,-106]",up,1,,,,,,001,2025-03-17_15h01.45.414,SL_sali,2021.2.3,Win32,166.6666667,0.994,,,70,0,70,0,1,,,,,,,,
,,"[""circle"",""no_dis"",""vert"",""up"",[99999,99999],[-106,106]]",circle,no_dis,vert,up,"[99999,99999]","[-106,106]",up,1,,,,,,001,2025-03-17_15h01.45.414,SL_sali,2021.2.3,Win32,166.6666667,0.9721,,,71,0,71,0,1,,,,,,,,
,,"[""diamond"",""red"",""vert"",""up"",[-106,-106],[106,106]]",diamond,red,vert,up,"[-106,-106]","[106,106]",up,1,,,,,,001,2025-03-17_15h01.45.414,SL_sali,2021.2.3,Win32,166.6666667,0.9944,,,72,0,72,0,1,,,,,,,,
,,"[""diamond"",""green"",""vert"",""up"",[0,-150],[-106,106]]",diamond,green,vert,up,"[0,-150]","[-106,106]",up,1,,,,,,001,2025-03-17_15h01.45.414,SL_sali,2021.2.3,Win32,166.6666667,1.5238,,,73,0,73,0,1,,,,,,,,
,,"[""diamond"",""no_dis"",""hori"",""left"",[99999,99999],[106,-106]]",diamond,no_dis,hori,left,"[99999,99999]","[106,-106]",left,1,,,,,,001,2025-03-17_15h01.45.414,SL_sali,2021.2.3,Win32,166.6666667,1.1652,,,74,0,74,0,1,,,,,,,,
,,"[""circle"",""green"",""vert"",""up"",[-106,-106],[-106,106]]",circle,green,vert,up,"[-106,-106]","[-106,106]",up,1,,,,,,001,2025-03-17_15h01.45.414,SL_sali,2021.2.3,Win32,166.6666667,1.1524,,,75,0,75,0,1,,,,,,,,
,,"[""circle"",""red"",""vert"",""up"",[-106,-106],[106,-106]]",circle,red,vert,up,"[-106,-106]","[106,-106]",up,1,,,,,,001,2025-03-17_15h01.45.414,SL_sali,2021.2.3,Win32,166.6666667,1.625,,,76,0,76,0,1,,,,,,,,
,,"[""diamond"",""no_dis"",""vert"",""up"",[99999,99999],[0,-150]]",diamond,no_dis,vert,up,"[99999,99999]","[0,-150]",up,1,,,,,,001,2025-03-17_15h01.45.414,SL_sali,2021.2.3,Win32,166.6666667,1.7998,,,77,0,77,0,1,,,,,,,,
,,"[""diamond"",""no_dis"",""hori"",""left"",[99999,99999],[-150,0]]",diamond,no_dis,hori,left,"[99999,99999]","[-150,0]",left,1,,,,,,001,2025-03-17_15h01.45.414,SL_sali,2021.2.3,Win32,166.6666667,1.3092,,,78,0,78,0,1,,,,,,,,
,,"[""diamond"",""red"",""hori"",""left"",[-150,0],[0,-150]]",diamond,red,hori,left,"[-150,0]","[0,-150]",left,1,,,,,,001,2025-03-17_15h01.45.414,SL_sali,2021.2.3,Win32,166.6666667,1.4189,,,79,0,79,0,1,,,,,,,,
,,"[""circle"",""green"",""vert"",""up"",[-106,106],[150,0]]",circle,green,vert,up,"[-106,106]","[150,0]",up,1,,,,,,001,2025-03-17_15h01.45.414,SL_sali,2021.2.3,Win32,166.6666667,1.8038,,,80,0,80,0,1,,,,,,,,
,,"[""circle"",""red"",""hori"",""left"",[150,0],[-150,0]]",circle,red,hori,left,"[150,0]","[-150,0]",left,1,,,,,,001,2025-03-17_15h01.45.414,SL_sali,2021.2.3,Win32,166.6666667,1.2263,,,81,0,81,0,1,,,,,,,,
,,"[""diamond"",""green"",""vert"",""up"",[-106,-106],[0,150]]",diamond,green,vert,up,"[-106,-106]","[0,150]",up,1,,,,,,001,2025-03-17_15h01.45.414,SL_sali,2021.2.3,Win32,166.6666667,0.918,,,82,0,82,0,1,,,,,,,,
,,"[""diamond"",""red"",""vert"",""up"",[106,106],[-150,0]]",diamond,red,vert,up,"[106,106]","[-150,0]",up,1,,,,,,001,2025-03-17_15h01.45.414,SL_sali,2021.2.3,Win32,166.6666667,1.1154,,,83,0,83,0,1,,,,,,,,
,,"[""circle"",""green"",""hori"",""left"",[106,-106],[0,150]]",circle,green,hori,left,"[106,-106]","[0,150]",left,1,,,,,,001,2025-03-17_15h01.45.414,SL_sali,2021.2.3,Win32,166.6666667,2.9215,,,84,0,84,0,1,,,,,,,,
,,"[""circle"",""no_dis"",""hori"",""left"",[99999,99999],[0,-150]]",circle,no_dis,hori,left,"[99999,99999]","[0,-150]",left,1,,,,,,001,2025-03-17_15h01.45.414,SL_sali,2021.2.3,Win32,166.6666667,0.8737,,,85,0,85,0,1,,,,,,,,
,,"[""circle"",""no_dis"",""hori"",""left"",[99999,99999],[0,-150]]",circle,no_dis,hori,left,"[99999,99999]","[0,-150]",left,1,,,,,,001,2025-03-17_15h01.45.414,SL_sali,2021.2.3,Win32,166.6666667,1.1728,,,86,0,86,0,1,,,,,,,,
,,"[""diamond"",""green"",""vert"",""up"",[-106,-106],[150,0]]",diamond,green,vert,up,"[-106,-106]","[150,0]",up,1,,,,,,001,2025-03-17_15h01.45.414,SL_sali,2021.2.3,Win32,166.6666667,1.0135,,,87,0,87,0,1,,,,,,,,
,,"[""circle"",""green"",""hori"",""left"",[0,-150],[-106,-106]]",circle,green,hori,left,"[0,-150]","[-106,-106]",left,1,,,,,,001,2025-03-17_15h01.45.414,SL_sali,2021.2.3,Win32,166.6666667,1.1945,,,88,0,88,0,1,,,,,,,,
,,"[""circle"",""green"",""vert"",""up"",[-106,-106],[-106,106]]",circle,green,vert,up,"[-106,-106]","[-106,106]",up,1,,,,,,001,2025-03-17_15h01.45.414,SL_sali,2021.2.3,Win32,166.6666667,1.2806,,,89,0,89,0,1,,,,,,,,
,,"[""diamond"",""no_dis"",""hori"",""left"",[99999,99999],[0,150]]",diamond,no_dis,hori,left,"[99999,99999]","[0,150]",left,1,,,,,,001,2025-03-17_15h01.45.414,SL_sali,2021.2.3,Win32,166.6666667,0.8395,,,90,0,90,0,1,,,,,,,,
,,"[""diamond"",""red"",""hori"",""left"",[106,106],[106,-106]]",diamond,red,hori,left,"[106,106]","[106,-106]",left,1,,,,,,001,2025-03-17_15h01.45.414,SL_sali,2021.2.3,Win32,166.6666667,1.5344,,,91,0,91,0,1,,,,,,,,
,,"[""circle"",""green"",""hori"",""left"",[-106,-106],[106,-106]]",circle,green,hori,left,"[-106,-106]","[106,-106]",left,1,,,,,,001,2025-03-17_15h01.45.414,SL_sali,2021.2.3,Win32,166.6666667,1.5216,,,92,0,92,0,1,,,,,,,,
,,"[""diamond"",""no_dis"",""hori"",""left"",[99999,99999],[106,-106]]",diamond,no_dis,hori,left,"[99999,99999]","[106,-106]",up,0,,,,,,001,2025-03-17_15h01.45.414,SL_sali,2021.2.3,Win32,166.6666667,1.3101,,,93,0,93,0,1,,,,,,,,
,,"[""circle"",""red"",""hori"",""left"",[-106,-106],[-150,0]]",circle,red,hori,left,"[-106,-106]","[-150,0]",left,1,,,,,,001,2025-03-17_15h01.45.414,SL_sali,2021.2.3,Win32,166.6666667,0.8015,,,94,0,94,0,1,,,,,,,,
,,"[""diamond"",""red"",""vert"",""up"",[-106,-106],[150,0]]",diamond,red,vert,up,"[-106,-106]","[150,0]",up,1,,,,,,001,2025-03-17_15h01.45.414,SL_sali,2021.2.3,Win32,166.6666667,1.7712,,,95,0,95,0,1,,,,,,,,
,,"[""diamond"",""no_dis"",""hori"",""left"",[99999,99999],[0,150]]",diamond,no_dis,hori,left,"[99999,99999]","[0,150]",left,1,,,,,,001,2025-03-17_15h01.45.414,SL_sali,2021.2.3,Win32,166.6666667,0.9776,,,96,0,96,0,1,,,,,,,,
,,"[""diamond"",""red"",""vert"",""up"",[0,-150],[106,-106]]",diamond,red,vert,up,"[0,-150]","[106,-106]",up,1,,,,,,001,2025-03-17_15h01.45.414,SL_sali,2021.2.3,Win32,166.6666667,0.8693,,,97,0,97,0,1,,,,,,,,
,,"[""circle"",""no_dis"",""vert"",""up"",[99999,99999],[-150,0]]",circle,no_dis,vert,up,"[99999,99999]","[-150,0]",up,1,,,,,,001,2025-03-17_15h01.45.414,SL_sali,2021.2.3,Win32,166.6666667,0.8674,,,98,0,98,0,1,,,,,,,,
,,"[""diamond"",""green"",""vert"",""up"",[-106,106],[106,106]]",diamond,green,vert,up,"[-106,106]","[106,106]",up,1,,,,,,001,2025-03-17_15h01.45.414,SL_sali,2021.2.3,Win32,166.6666667,0.9673,,,99,0,99,0,1,,,,,,,,
,,"[""circle"",""green"",""vert"",""up"",[106,-106],[-150,0]]",circle,green,vert,up,"[106,-106]","[-150,0]",up,1,,,,,,001,2025-03-17_15h01.45.414,SL_sali,2021.2.3,Win32,166.6666667,1.3941,,,100,0,100,0,1,,,,,,,,
,,"[""diamond"",""green"",""hori"",""left"",[0,150],[150,0]]",diamond,green,hori,left,"[0,150]","[150,0]",left,1,,,,,,001,2025-03-17_15h01.45.414,SL_sali,2021.2.3,Win32,166.6666667,0.9397,,,101,0,101,0,1,,,,,,,,
,,"[""circle"",""green"",""hori"",""left"",[106,-106],[-150,0]]",circle,green,hori,left,"[106,-106]","[-150,0]",left,1,,,,,,001,2025-03-17_15h01.45.414,SL_sali,2021.2.3,Win32,166.6666667,2.3395,,,102,0,102,0,1,,,,,,,,
,,"[""diamond"",""green"",""vert"",""up"",[0,-150],[106,-106]]",diamond,green,vert,up,"[0,-150]","[106,-106]",up,1,,,,,,001,2025-03-17_15h01.45.414,SL_sali,2021.2.3,Win32,166.6666667,1.4003,,,103,0,103,0,1,,,,,,,,
,,"[""circle"",""no_dis"",""vert"",""up"",[99999,99999],[106,106]]",circle,no_dis,vert,up,"[99999,99999]","[106,106]",up,1,,,,,,001,2025-03-17_15h01.45.414,SL_sali,2021.2.3,Win32,166.6666667,2.0403,,,104,0,104,0,1,,,,,,,,
,,"[""circle"",""no_dis"",""hori"",""left"",[99999,99999],[-106,106]]",circle,no_dis,hori,left,"[99999,99999]","[-106,106]",left,1,,,,,,001,2025-03-17_15h01.45.414,SL_sali,2021.2.3,Win32,166.6666667,0.8671,,,105,0,105,0,1,,,,,,,,
,,"[""diamond"",""green"",""hori"",""left"",[0,-150],[106,-106]]",diamond,green,hori,left,"[0,-150]","[106,-106]",left,1,,,,,,001,2025-03-17_15h01.45.414,SL_sali,2021.2.3,Win32,166.6666667,1.3393,,,106,0,106,0,1,,,,,,,,
,,"[""circle"",""green"",""vert"",""up"",[-106,106],[106,-106]]",circle,green,vert,up,"[-106,106]","[106,-106]",up,1,,,,,,001,2025-03-17_15h01.45.414,SL_sali,2021.2.3,Win32,166.6666667,0.9528,,,107,0,107,0,1,,,,,,,,
,,"[""circle"",""red"",""hori"",""left"",[-106,-106],[-150,0]]",circle,red,hori,left,"[-106,-106]","[-150,0]",left,1,,,,,,001,2025-03-17_15h01.45.414,SL_sali,2021.2.3,Win32,166.6666667,0.9944,,,108,0,108,0,1,,,,,,,,
,,"[""diamond"",""no_dis"",""hori"",""left"",[99999,99999],[106,106]]",diamond,no_dis,hori,left,"[99999,99999]","[106,106]",left,1,,,,,,001,2025-03-17_15h01.45.414,SL_sali,2021.2.3,Win32,166.6666667,0.7824,,,109,0,109,0,1,,,,,,,,
,,"[""diamond"",""no_dis"",""hori"",""left"",[99999,99999],[150,0]]",diamond,no_dis,hori,left,"[99999,99999]","[150,0]",left,1,,,,,,001,2025-03-17_15h01.45.414,SL_sali,2021.2.3,Win32,166.6666667,1.491,,,110,0,110,0,1,,,,,,,,
,,"[""circle"",""no_dis"",""hori"",""left"",[99999,99999],[0,150]]",circle,no_dis,hori,left,"[99999,99999]","[0,150]",left,1,,,,,,001,2025-03-17_15h01.45.414,SL_sali,2021.2.3,Win32,166.6666667,1.5583,,,111,0,111,0,1,,,,,,,,
,,"[""circle"",""no_dis"",""vert"",""up"",[99999,99999],[-106,-106]]",circle,no_dis,vert,up,"[99999,99999]","[-106,-106]",up,1,,,,,,001,2025-03-17_15h01.45.414,SL_sali,2021.2.3,Win32,166.6666667,0.8423,,,112,0,112,0,1,,,,,,,,
,,"[""diamond"",""no_dis"",""vert"",""up"",[99999,99999],[106,106]]",diamond,no_dis,vert,up,"[99999,99999]","[106,106]",up,1,,,,,,001,2025-03-17_15h01.45.414,SL_sali,2021.2.3,Win32,166.6666667,1.1096,,,113,0,113,0,1,,,,,,,,
,,"[""diamond"",""red"",""hori"",""left"",[106,-106],[-106,106]]",diamond,red,hori,left,"[106,-106]","[-106,106]",left,1,,,,,,001,2025-03-17_15h01.45.414,SL_sali,2021.2.3,Win32,166.6666667,1.0745,,,114,0,114,0,1,,,,,,,,
,,"[""circle"",""red"",""vert"",""up"",[0,150],[-150,0]]",circle,red,vert,up,"[0,150]","[-150,0]",up,1,,,,,,001,2025-03-17_15h01.45.414,SL_sali,2021.2.3,Win32,166.6666667,1.0865,,,115,0,115,0,1,,,,,,,,
,,"[""diamond"",""no_dis"",""vert"",""up"",[99999,99999],[150,0]]",diamond,no_dis,vert,up,"[99999,99999]","[150,0]",up,1,,,,,,001,2025-03-17_15h01.45.414,SL_sali,2021.2.3,Win32,166.6666667,1.5029,,,116,0,116,0,1,,,,,,,,
,,"[""circle"",""red"",""vert"",""up"",[-150,0],[-106,106]]",circle,red,vert,up,"[-150,0]","[-106,106]",up,1,,,,,,001,2025-03-17_15h01.45.414,SL_sali,2021.2.3,Win32,166.6666667,0.9221,,,117,0,117,0,1,,,,,,,,
,,"[""circle"",""no_dis"",""vert"",""up"",[99999,99999],[-150,0]]",circle,no_dis,vert,up,"[99999,99999]","[-150,0]",up,1,,,,,,001,2025-03-17_15h01.45.414,SL_sali,2021.2.3,Win32,166.6666667,0.995,,,118,0,118,0,1,,,,,,,,
,,"[""diamond"",""no_dis"",""hori"",""left"",[99999,99999],[150,0]]",diamond,no_dis,hori,left,"[99999,99999]","[150,0]",left,1,,,,,,001,2025-03-17_15h01.45.414,SL_sali,2021.2.3,Win32,166.6666667,1.1464,,,119,0,119,0,1,,,,,,,,
,,,,,,,,,,,,,,,,001,2025-03-17_15h01.45.414,SL_sali,2021.2.3,Win32,166.6666667,,,,,,,,,3,space,1.2787,2,0,2,0,1
,,"[""circle"",""no_dis"",""vert"",""up"",[99999,99999],[-150,0]]",circle,no_dis,vert,up,"[99999,99999]","[-150,0]",up,1,,,,,,001,2025-03-17_15h01.45.414,SL_sali,2021.2.3,Win32,166.6666667,0.8281,,,0,0,0,0,1,,,,,,,,
,,"[""diamond"",""red"",""vert"",""up"",[106,106],[150,0]]",diamond,red,vert,up,"[106,106]","[150,0]",up,1,,,,,,001,2025-03-17_15h01.45.414,SL_sali,2021.2.3,Win32,166.6666667,1.7219,,,1,0,1,0,1,,,,,,,,
,,"[""circle"",""red"",""hori"",""left"",[-106,-106],[-150,0]]",circle,red,hori,left,"[-106,-106]","[-150,0]",left,1,,,,,,001,2025-03-17_15h01.45.414,SL_sali,2021.2.3,Win32,166.6666667,0.8915,,,2,0,2,0,1,,,,,,,,
,,"[""diamond"",""red"",""hori"",""left"",[106,106],[106,-106]]",diamond,red,hori,left,"[106,106]","[106,-106]",up,0,,,,,,001,2025-03-17_15h01.45.414,SL_sali,2021.2.3,Win32,166.6666667,1.0796,,,3,0,3,0,1,,,,,,,,
,,"[""circle"",""no_dis"",""hori"",""left"",[99999,99999],[-106,106]]",circle,no_dis,hori,left,"[99999,99999]","[-106,106]",left,1,,,,,,001,2025-03-17_15h01.45.414,SL_sali,2021.2.3,Win32,166.6666667,0.9454,,,4,0,4,0,1,,,,,,,,
,,"[""diamond"",""red"",""vert"",""up"",[106,-106],[0,150]]",diamond,red,vert,up,"[106,-106]","[0,150]",up,1,,,,,,001,2025-03-17_15h01.45.414,SL_sali,2021.2.3,Win32,166.6666667,1.2427,,,5,0,5,0,1,,,,,,,,
,,"[""diamond"",""green"",""hori"",""left"",[106,106],[0,-150]]",diamond,green,hori,left,"[106,106]","[0,-150]",left,1,,,,,,001,2025-03-17_15h01.45.414,SL_sali,2021.2.3,Win32,166.6666667,0.9179,,,6,0,6,0,1,,,,,,,,
,,"[""diamond"",""red"",""hori"",""left"",[-106,-106],[106,106]]",diamond,red,hori,left,"[-106,-106]","[106,106]",left,1,,,,,,001,2025-03-17_15h01.45.414,SL_sali,2021.2.3,Win32,166.6666667,0.7458,,,7,0,7,0,1,,,,,,,,
,,"[""diamond"",""green"",""hori"",""left"",[-106,-106],[0,-150]]",diamond,green,hori,left,"[-106,-106]","[0,-150]",left,1,,,,,,001,2025-03-17_15h01.45.414,SL_sali,2021.2.3,Win32,166.6666667,0.9222,,,8,0,8,0,1,,,,,,,,
,,"[""circle"",""green"",""hori"",""left"",[106,106],[0,150]]",circle,green,hori,left,"[106,106]","[0,150]",left,1,,,,,,001,2025-03-17_15h01.45.414,SL_sali,2021.2.3,Win32,166.6666667,1.0305,,,9,0,9,0,1,,,,,,,,
,,"[""diamond"",""green"",""hori"",""left"",[0,150],[150,0]]",diamond,green,hori,left,"[0,150]","[150,0]",left,1,,,,,,001,2025-03-17_15h01.45.414,SL_sali,2021.2.3,Win32,166.6666667,1.0079,,,10,0,10,0,1,,,,,,,,
,,"[""diamond"",""no_dis"",""hori"",""left"",[99999,99999],[-106,106]]",diamond,no_dis,hori,left,"[99999,99999]","[-106,106]",left,1,,,,,,001,2025-03-17_15h01.45.414,SL_sali,2021.2.3,Win32,166.6666667,1.0031,,,11,0,11,0,1,,,,,,,,
,,"[""circle"",""no_dis"",""hori"",""left"",[99999,99999],[-106,-106]]",circle,no_dis,hori,left,"[99999,99999]","[-106,-106]",left,1,,,,,,001,2025-03-17_15h01.45.414,SL_sali,2021.2.3,Win32,166.6666667,0.7463,,,12,0,12,0,1,,,,,,,,
,,"[""circle"",""red"",""hori"",""left"",[150,0],[-106,106]]",circle,red,hori,left,"[150,0]","[-106,106]",left,1,,,,,,001,2025-03-17_15h01.45.414,SL_sali,2021.2.3,Win32,166.6666667,0.9301,,,13,0,13,0,1,,,,,,,,
,,"[""diamond"",""no_dis"",""vert"",""up"",[99999,99999],[106,106]]",diamond,no_dis,vert,up,"[99999,99999]","[106,106]",up,1,,,,,,001,2025-03-17_15h01.45.414,SL_sali,2021.2.3,Win32,166.6666667,0.6196,,,14,0,14,0,1,,,,,,,,
,,"[""circle"",""red"",""vert"",""up"",[-106,-106],[-106,106]]",circle,red,vert,up,"[-106,-106]","[-106,106]",up,1,,,,,,001,2025-03-17_15h01.45.414,SL_sali,2021.2.3,Win32,166.6666667,1.0909,,,15,0,15,0,1,,,,,,,,
,,"[""diamond"",""green"",""hori"",""left"",[-106,-106],[106,-106]]",diamond,green,hori,left,"[-106,-106]","[106,-106]",left,1,,,,,,001,2025-03-17_15h01.45.414,SL_sali,2021.2.3,Win32,166.6666667,1.2201,,,16,0,16,0,1,,,,,,,,
,,"[""diamond"",""red"",""hori"",""left"",[150,0],[0,-150]]",diamond,red,hori,left,"[150,0]","[0,-150]",left,1,,,,,,001,2025-03-17_15h01.45.414,SL_sali,2021.2.3,Win32,166.6666667,0.9339,,,17,0,17,0,1,,,,,,,,
,,"[""diamond"",""no_dis"",""hori"",""left"",[99999,99999],[150,0]]",diamond,no_dis,hori,left,"[99999,99999]","[150,0]",left,1,,,,,,001,2025-03-17_15h01.45.414,SL_sali,2021.2.3,Win32,166.6666667,0.7823,,,18,0,18,0,1,,,,,,,,
,,"[""circle"",""red"",""hori"",""left"",[-106,-106],[0,150]]",circle,red,hori,left,"[-106,-106]","[0,150]",left,1,,,,,,001,2025-03-17_15h01.45.414,SL_sali,2021.2.3,Win32,166.6666667,1.4121,,,19,0,19,0,1,,,,,,,,
,,"[""diamond"",""no_dis"",""hori"",""left"",[99999,99999],[0,150]]",diamond,no_dis,hori,left,"[99999,99999]","[0,150]",left,1,,,,,,001,2025-03-17_15h01.45.414,SL_sali,2021.2.3,Win32,166.6666667,1.225,,,20,0,20,0,1,,,,,,,,
,,"[""diamond"",""no_dis"",""hori"",""left"",[99999,99999],[106,-106]]",diamond,no_dis,hori,left,"[99999,99999]","[106,-106]",left,1,,,,,,001,2025-03-17_15h01.45.414,SL_sali,2021.2.3,Win32,166.6666667,1.2481,,,21,0,21,0,1,,,,,,,,
,,"[""circle"",""no_dis"",""hori"",""left"",[99999,99999],[0,150]]",circle,no_dis,hori,left,"[99999,99999]","[0,150]",left,1,,,,,,001,2025-03-17_15h01.45.414,SL_sali,2021.2.3,Win32,166.6666667,0.9094,,,22,0,22,0,1,,,,,,,,
,,"[""circle"",""green"",""hori"",""left"",[0,-150],[-106,-106]]",circle,green,hori,left,"[0,-150]","[-106,-106]",left,1,,,,,,001,2025-03-17_15h01.45.414,SL_sali,2021.2.3,Win32,166.6666667,1.0734,,,23,0,23,0,1,,,,,,,,
,,"[""circle"",""red"",""hori"",""left"",[-106,-106],[0,-150]]",circle,red,hori,left,"[-106,-106]","[0,-150]",left,1,,,,,,001,2025-03-17_15h01.45.414,SL_sali,2021.2.3,Win32,166.6666667,0.9527,,,24,0,24,0,1,,,,,,,,
,,"[""diamond"",""green"",""vert"",""up"",[-106,-106],[0,150]]",diamond,green,vert,up,"[-106,-106]","[0,150]",up,1,,,,,,001,2025-03-17_15h01.45.414,SL_sali,2021.2.3,Win32,166.6666667,1.0247,,,25,0,25,0,1,,,,,,,,
,,"[""circle"",""green"",""hori"",""left"",[106,-106],[106,106]]",circle,green,hori,left,"[106,-106]","[106,106]",left,1,,,,,,001,2025-03-17_15h01.45.414,SL_sali,2021.2.3,Win32,166.6666667,1.8607,,,26,0,26,0,1,,,,,,,,
,,"[""circle"",""green"",""hori"",""left"",[-106,-106],[106,-106]]",circle,green,hori,left,"[-106,-106]","[106,-106]",left,1,,,,,,001,2025-03-17_15h01.45.414,SL_sali,2021.2.3,Win32,166.6666667,1.3756,,,27,0,27,0,1,,,,,,,,
,,"[""circle"",""red"",""hori"",""left"",[-106,-106],[-150,0]]",circle,red,hori,left,"[-106,-106]","[-150,0]",left,1,,,,,,001,2025-03-17_15h01.45.414,SL_sali,2021.2.3,Win32,166.6666667,1.2972,,,28,0,28,0,1,,,,,,,,
,,"[""circle"",""no_dis"",""vert"",""up"",[99999,99999],[-106,-106]]",circle,no_dis,vert,up,"[99999,99999]","[-106,-106]",up,1,,,,,,001,2025-03-17_15h01.45.414,SL_sali,2021.2.3,Win32,166.6666667,1.0641,,,29,0,29,0,1,,,,,,,,
,,"[""diamond"",""red"",""vert"",""up"",[-150,0],[0,150]]",diamond,red,vert,up,"[-150,0]","[0,150]",up,1,,,,,,001,2025-03-17_15h01.45.414,SL_sali,2021.2.3,Win32,166.6666667,1.446,,,30,0,30,0,1,,,,,,,,
,,"[""diamond"",""red"",""vert"",""up"",[-106,-106],[106,106]]",diamond,red,vert,up,"[-106,-106]","[106,106]",up,1,,,,,,001,2025-03-17_15h01.45.414,SL_sali,2021.2.3,Win32,166.6666667,1.1658,,,31,0,31,0,1,,,,,,,,
,,"[""circle"",""no_dis"",""vert"",""up"",[99999,99999],[0,-150]]",circle,no_dis,vert,up,"[99999,99999]","[0,-150]",up,1,,,,,,001,2025-03-17_15h01.45.414,SL_sali,2021.2.3,Win32,166.6666667,0.9279,,,32,0,32,0,1,,,,,,,,
,,"[""diamond"",""no_dis"",""vert"",""up"",[99999,99999],[-150,0]]",diamond,no_dis,vert,up,"[99999,99999]","[-150,0]",up,1,,,,,,001,2025-03-17_15h01.45.414,SL_sali,2021.2.3,Win32,166.6666667,1.073,,,33,0,33,0,1,,,,,,,,
,,"[""diamond"",""red"",""hori"",""left"",[150,0],[0,150]]",diamond,red,hori,left,"[150,0]","[0,150]",left,1,,,,,,001,2025-03-17_15h01.45.414,SL_sali,2021.2.3,Win32,166.6666667,0.9631,,,34,0,34,0,1,,,,,,,,
,,"[""circle"",""red"",""vert"",""up"",[106,106],[106,-106]]",circle,red,vert,up,"[106,106]","[106,-106]",up,1,,,,,,001,2025-03-17_15h01.45.414,SL_sali,2021.2.3,Win32,166.6666667,0.8672,,,35,0,35,0,1,,,,,,,,
,,"[""circle"",""red"",""vert"",""up"",[-106,106],[150,0]]",circle,red,vert,up,"[-106,106]","[150,0]",up,1,,,,,,001,2025-03-17_15h01.45.414,SL_sali,2021.2.3,Win32,166.6666667,0.796,,,36,0,36,0,1,,,,,,,,
,,"[""diamond"",""no_dis"",""hori"",""left"",[99999,99999],[0,150]]",diamond,no_dis,hori,left,"[99999,99999]","[0,150]",left,1,,,,,,001,2025-03-17_15h01.45.414,SL_sali,2021.2.3,Win32,166.6666667,1.0127,,,37,0,37,0,1,,,,,,,,
,,"[""diamond"",""no_dis"",""hori"",""left"",[99999,99999],[150,0]]",diamond,no_dis,hori,left,"[99999,99999]","[150,0]",left,1,,,,,,001,2025-03-17_15h01.45.414,SL_sali,2021.2.3,Win32,166.6666667,0.6264,,,38,0,38,0,1,,,,,,,,
,,"[""diamond"",""red"",""vert"",""up"",[0,-150],[106,-106]]",diamond,red,vert,up,"[0,-150]","[106,-106]",up,1,,,,,,001,2025-03-17_15h01.45.414,SL_sali,2021.2.3,Win32,166.6666667,1.1584,,,39,0,39,0,1,,,,,,,,
,,"[""diamond"",""red"",""hori"",""left"",[-106,106],[0,-150]]",diamond,red,hori,left,"[-106,106]","[0,-150]",left,1,,,,,,001,2025-03-17_15h01.45.414,SL_sali,2021.2.3,Win32,166.6666667,0.8913,,,40,0,40,0,1,,,,,,,,
,,"[""diamond"",""green"",""vert"",""up"",[-106,-106],[106,106]]",diamond,green,vert,up,"[-106,-106]","[106,106]",up,1,,,,,,001,2025-03-17_15h01.45.414,SL_sali,2021.2.3,Win32,166.6666667,1.0788,,,41,0,41,0,1,,,,,,,,
,,"[""circle"",""green"",""vert"",""up"",[106,-106],[-150,0]]",circle,green,vert,up,"[106,-106]","[-150,0]",up,1,,,,,,001,2025-03-17_15h01.45.414,SL_sali,2021.2.3,Win32,166.6666667,1.46,,,42,0,42,0,1,,,,,,,,
,,"[""circle"",""red"",""vert"",""up"",[106,-106],[-106,-106]]",circle,red,vert,up,"[106,-106]","[-106,-106]",up,1,,,,,,001,2025-03-17_15h01.45.414,SL_sali,2021.2.3,Win32,166.6666667,1.2091,,,43,0,43,0,1,,,,,,,,
,,"[""diamond"",""no_dis"",""vert"",""up"",[99999,99999],[150,0]]",diamond,no_dis,vert,up,"[99999,99999]","[150,0]",up,1,,,,,,001,2025-03-17_15h01.45.414,SL_sali,2021.2.3,Win32,166.6666667,0.9783,,,44,0,44,0,1,,,,,,,,
,,"[""diamond"",""no_dis"",""vert"",""up"",[99999,99999],[106,-106]]",diamond,no_dis,vert,up,"[99999,99999]","[106,-106]",up,1,,,,,,001,2025-03-17_15h01.45.414,SL_sali,2021.2.3,Win32,166.6666667,0.8092,,,45,0,45,0,1,,,,,,,,
,,"[""diamond"",""no_dis"",""vert"",""up"",[99999,99999],[-106,-106]]",diamond,no_dis,vert,up,"[99999,99999]","[-106,-106]",up,1,,,,,,001,2025-03-17_15h01.45.414,SL_sali,2021.2.3,Win32,166.6666667,0.9414,,,46,0,46,0,1,,,,,,,,
,,"[""circle"",""no_dis"",""hori"",""left"",[99999,99999],[-106,-106]]",circle,no_dis,hori,left,"[99999,99999]","[-106,-106]",left,1,,,,,,001,2025-03-17_15h01.45.414,SL_sali,2021.2.3,Win32,166.6666667,0.8608,,,47,0,47,0,1,,,,,,,,
,,"[""diamond"",""green"",""hori"",""left"",[0,150],[106,106]]",diamond,green,hori,left,"[0,150]","[106,106]",left,1,,,,,,001,2025-03-17_15h01.45.414,SL_sali,2021.2.3,Win32,166.6666667,1.7152,,,48,0,48,0,1,,,,,,,,
,,"[""diamond"",""no_dis"",""hori"",""left"",[99999,99999],[-150,0]]",diamond,no_dis,hori,left,"[99999,99999]","[-150,0]",left,1,,,,,,001,2025-03-17_15h01.45.414,SL_sali,2021.2.3,Win32,166.6666667,1.1571,,,49,0,49,0,1,,,,,,,,
,,"[""diamond"",""no_dis"",""vert"",""up"",[99999,99999],[0,150]]",diamond,no_dis,vert,up,"[99999,99999]","[0,150]",up,1,,,,,,001,2025-03-17_15h01.45.414,SL_sali,2021.2.3,Win32,166.6666667,0.9534,,,50,0,50,0,1,,,,,,,,
,,"[""circle"",""red"",""hori"",""left"",[0,150],[-106,-106]]",circle,red,hori,left,"[0,150]","[-106,-106]",left,1,,,,,,001,2025-03-17_15h01.45.414,SL_sali,2021.2.3,Win32,166.6666667,0.8349,,,51,0,51,0,1,,,,,,,,
,,"[""diamond"",""red"",""vert"",""up"",[106,106],[-150,0]]",diamond,red,vert,up,"[106,106]","[-150,0]",up,1,,,,,,001,2025-03-17_15h01.45.414,SL_sali,2021.2.3,Win32,166.6666667,0.8425,,,52,0,52,0,1,,,,,,,,
,,"[""diamond"",""green"",""hori"",""left"",[0,-150],[106,-106]]",diamond,green,hori,left,"[0,-150]","[106,-106]",left,1,,,,,,001,2025-03-17_15h01.45.414,SL_sali,2021.2.3,Win32,166.6666667,1.2369,,,53,0,53,0,1,,,,,,,,
,,"[""diamond"",""green"",""vert"",""up"",[0,-150],[-106,106]]",diamond,green,vert,up,"[0,-150]","[-106,106]",up,1,,,,,,001,2025-03-17_15h01.45.414,SL_sali,2021.2.3,Win32,166.6666667,1.3131,,,54,0,54,0,1,,,,,,,,
,,"[""circle"",""no_dis"",""hori"",""left"",[99999,99999],[0,-150]]",circle,no_dis,hori,left,"[99999,99999]","[0,-150]",left,1,,,,,,001,2025-03-17_15h01.45.414,SL_sali,2021.2.3,Win32,166.6666667,1.2038,,,55,0,55,0,1,,,,,,,,
,,"[""circle"",""red"",""hori"",""left"",[-106,-106],[0,-150]]",circle,red,hori,left,"[-106,-106]","[0,-150]",left,1,,,,,,001,2025-03-17_15h01.45.414,SL_sali,2021.2.3,Win32,166.6666667,2.1093,,,56,0,56,0,1,,,,,,,,
,,"[""circle"",""no_dis"",""vert"",""up"",[99999,99999],[-150,0]]",circle,no_dis,vert,up,"[99999,99999]","[-150,0]",up,1,,,,,,001,2025-03-17_15h01.45.414,SL_sali,2021.2.3,Win32,166.6666667,1.2159,,,57,0,57,0,1,,,,,,,,
,,"[""diamond"",""red"",""vert"",""up"",[106,106],[-150,0]]",diamond,red,vert,up,"[106,106]","[-150,0]",up,1,,,,,,001,2025-03-17_15h01.45.414,SL_sali,2021.2.3,Win32,166.6666667,1.6365,,,58,0,58,0,1,,,,,,,,
,,"[""diamond"",""no_dis"",""hori"",""left"",[99999,99999],[106,106]]",diamond,no_dis,hori,left,"[99999,99999]","[106,106]",left,1,,,,,,001,2025-03-17_15h01.45.414,SL_sali,2021.2.3,Win32,166.6666667,2.381,,,59,0,59,0,1,,,,,,,,
,,"[""circle"",""no_dis"",""vert"",""up"",[99999,99999],[106,-106]]",circle,no_dis,vert,up,"[99999,99999]","[106,-106]",up,1,,,,,,001,2025-03-17_15h01.45.414,SL_sali,2021.2.3,Win32,166.6666667,1.5992,,,60,0,60,0,1,,,,,,,,
,,"[""circle"",""no_dis"",""hori"",""left"",[99999,99999],[106,-106]]",circle,no_dis,hori,left,"[99999,99999]","[106,-106]",left,1,,,,,,001,2025-03-17_15h01.45.414,SL_sali,2021.2.3,Win32,166.6666667,0.6895,,,61,0,61,0,1,,,,,,,,
,,"[""circle"",""green"",""vert"",""up"",[0,-150],[0,150]]",circle,green,vert,up,"[0,-150]","[0,150]",up,1,,,,,,001,2025-03-17_15h01.45.414,SL_sali,2021.2.3,Win32,166.6666667,0.8416,,,62,0,62,0,1,,,,,,,,
,,"[""diamond"",""red"",""hori"",""left"",[150,0],[-150,0]]",diamond,red,hori,left,"[150,0]","[-150,0]",left,1,,,,,,001,2025-03-17_15h01.45.414,SL_sali,2021.2.3,Win32,166.6666667,0.9738,,,63,0,63,0,1,,,,,,,,
,,"[""diamond"",""no_dis"",""vert"",""up"",[99999,99999],[106,106]]",diamond,no_dis,vert,up,"[99999,99999]","[106,106]",up,1,,,,,,001,2025-03-17_15h01.45.414,SL_sali,2021.2.3,Win32,166.6666667,1.0294,,,64,0,64,0,1,,,,,,,,
,,"[""diamond"",""no_dis"",""vert"",""up"",[99999,99999],[-106,106]]",diamond,no_dis,vert,up,"[99999,99999]","[-106,106]",up,1,,,,,,001,2025-03-17_15h01.45.414,SL_sali,2021.2.3,Win32,166.6666667,0.8973,,,65,0,65,0,1,,,,,,,,
,,"[""diamond"",""red"",""vert"",""up"",[-106,-106],[150,0]]",diamond,red,vert,up,"[-106,-106]","[150,0]",up,1,,,,,,001,2025-03-17_15h01.45.414,SL_sali,2021.2.3,Win32,166.6666667,0.7826,,,66,0,66,0,1,,,,,,,,
,,"[""circle"",""red"",""vert"",""up"",[0,-150],[150,0]]",circle,red,vert,up,"[0,-150]","[150,0]",up,1,,,,,,001,2025-03-17_15h01.45.414,SL_sali,2021.2.3,Win32,166.6666667,1.1277,,,67,0,67,0,1,,,,,,,,
,,"[""circle"",""red"",""vert"",""up"",[-150,0],[-106,106]]",circle,red,vert,up,"[-150,0]","[-106,106]",up,1,,,,,,001,2025-03-17_15h01.45.414,SL_sali,2021.2.3,Win32,166.6666667,0.8822,,,68,0,68,0,1,,,,,,,,
,,"[""circle"",""green"",""vert"",""up"",[-106,106],[106,-106]]",circle,green,vert,up,"[-106,106]","[106,-106]",up,1,,,,,,001,2025-03-17_15h01.45.414,SL_sali,2021.2.3,Win32,166.6666667,0.7543,,,69,0,69,0,1,,,,,,,,
,,"[""diamond"",""green"",""hori"",""left"",[-106,-106],[0,-150]]",diamond,green,hori,left,"[-106,-106]","[0,-150]",left,1,,,,,,001,2025-03-17_15h01.45.414,SL_sali,2021.2.3,Win32,166.6666667,1.3525,,,70,0,70,0,1,,,,,,,,
,,"[""circle"",""red"",""vert"",""up"",[150,0],[0,150]]",circle,red,vert,up,"[150,0]","[0,150]",up,1,,,,,,001,2025-03-17_15h01.45.414,SL_sali,2021.2.3,Win32,166.6666667,1.4216,,,71,0,71,0,1,,,,,,,,
,,"[""diamond"",""green"",""vert"",""up"",[-106,106],[106,106]]",diamond,green,vert,up,"[-106,106]","[106,106]",up,1,,,,,,001,2025-03-17_15h01.45.414,SL_sali,2021.2.3,Win32,166.6666667,1.4792,,,72,0,72,0,1,,,,,,,,
,,"[""circle"",""green"",""hori"",""left"",[106,-106],[0,150]]",circle,green,hori,left,"[106,-106]","[0,150]",left,1,,,,,,001,2025-03-17_15h01.45.414,SL_sali,2021.2.3,Win32,166.6666667,1.249,,,73,0,73,0,1,,,,,,,,
,,"[""circle"",""green"",""vert"",""up"",[-106,-106],[-106,106]]",circle,green,vert,up,"[-106,-106]","[-106,106]",up,1,,,,,,001,2025-03-17_15h01.45.414,SL_sali,2021.2.3,Win32,166.6666667,1.0744,,,74,0,74,0,1,,,,,,,,
,,"[""circle"",""red"",""vert"",""up"",[-106,-106],[106,-106]]",circle,red,vert,up,"[-106,-106]","[106,-106]",up,1,,,,,,001,2025-03-17_15h01.45.414,SL_sali,2021.2.3,Win32,166.6666667,0.9161,,,75,0,75,0,1,,,,,,,,
,,"[""circle"",""green"",""hori"",""left"",[-150,0],[-106,106]]",circle,green,hori,left,"[-150,0]","[-106,106]",left,1,,,,,,001,2025-03-17_15h01.45.414,SL_sali,2021.2.3,Win32,166.6666667,1.1943,,,76,0,76,0,1,,,,,,,,
,,"[""circle"",""green"",""vert"",""up"",[150,0],[-106,-106]]",circle,green,vert,up,"[150,0]","[-106,-106]",up,1,,,,,,001,2025-03-17_15h01.45.414,SL_sali,2021.2.3,Win32,166.6666667,0.8304,,,77,0,77,0,1,,,,,,,,
,,"[""diamond"",""green"",""vert"",""up"",[-106,-106],[106,106]]",diamond,green,vert,up,"[-106,-106]","[106,106]",up,1,,,,,,001,2025-03-17_15h01.45.414,SL_sali,2021.2.3,Win32,166.6666667,1.3902,,,78,0,78,0,1,,,,,,,,
,,"[""circle"",""no_dis"",""vert"",""up"",[99999,99999],[-106,106]]",circle,no_dis,vert,up,"[99999,99999]","[-106,106]",up,1,,,,,,001,2025-03-17_15h01.45.414,SL_sali,2021.2.3,Win32,166.6666667,1.2177,,,79,0,79,0,1,,,,,,,,
,,"[""circle"",""red"",""hori"",""left"",[-106,-106],[-106,106]]",circle,red,hori,left,"[-106,-106]","[-106,106]",left,1,,,,,,001,2025-03-17_15h01.45.414,SL_sali,2021.2.3,Win32,166.6666667,0.7913,,,80,0,80,0,1,,,,,,,,
,,"[""diamond"",""green"",""hori"",""left"",[0,150],[-106,106]]",diamond,green,hori,left,"[0,150]","[-106,106]",up,0,,,,,,001,2025-03-17_15h01.45.414,SL_sali,2021.2.3,Win32,166.6666667,1.1823,,,81,0,81,0,1,,,,,,,,
,,"[""circle"",""no_dis"",""hori"",""left"",[99999,99999],[-106,106]]",circle,no_dis,hori,left,"[99999,99999]","[-106,106]",left,1,,,,,,001,2025-03-17_15h01.45.414,SL_sali,2021.2.3,Win32,166.6666667,0.7211,,,82,0,82,0,1,,,,,,,,
,,"[""diamond"",""red"",""hori"",""left"",[-150,0],[0,-150]]",diamond,red,hori,left,"[-150,0]","[0,-150]",left,1,,,,,,001,2025-03-17_15h01.45.414,SL_sali,2021.2.3,Win32,166.6666667,0.9908,,,83,0,83,0,1,,,,,,,,
,,"[""circle"",""green"",""vert"",""up"",[106,-106],[-106,106]]",circle,green,vert,up,"[106,-106]","[-106,106]",up,1,,,,,,001,2025-03-17_15h01.45.414,SL_sali,2021.2.3,Win32,166.6666667,0.8206,,,84,0,84,0,1,,,,,,,,
,,"[""diamond"",""no_dis"",""hori"",""left"",[99999,99999],[106,-106]]",diamond,no_dis,hori,left,"[99999,99999]","[106,-106]",left,1,,,,,,001,2025-03-17_15h01.45.414,SL_sali,2021.2.3,Win32,166.6666667,1.0736,,,85,0,85,0,1,,,,,,,,
,,"[""circle"",""no_dis"",""hori"",""left"",[99999,99999],[0,-150]]",circle,no_dis,hori,left,"[99999,99999]","[0,-150]",left,1,,,,,,001,2025-03-17_15h01.45.414,SL_sali,2021.2.3,Win32,166.6666667,1.2371,,,86,0,86,0,1,,,,,,,,
,,"[""diamond"",""no_dis"",""vert"",""up"",[99999,99999],[0,-150]]",diamond,no_dis,vert,up,"[99999,99999]","[0,-150]",up,1,,,,,,001,2025-03-17_15h01.45.414,SL_sali,2021.2.3,Win32,166.6666667,1.5056,,,87,0,87,0,1,,,,,,,,
,,"[""circle"",""green"",""hori"",""left"",[106,-106],[-150,0]]",circle,green,hori,left,"[106,-106]","[-150,0]",left,1,,,,,,001,2025-03-17_15h01.45.414,SL_sali,2021.2.3,Win32,166.6666667,1.3541,,,88,0,88,0,1,,,,,,,,
