﻿key_resp.keys,key_resp.rt,trial_para,tar_shape,dis_color_condi,tar_line,cor_resp,dis_loc,tar_loc,resp.keys,resp.corr,resp.rt,trials.thisRepN,trials.thisTrialN,trials.thisN,trials.thisIndex,trials.ran,participant,date,expName,psychopyVersion,OS,frameRate,key_resp_2.keys,key_resp_2.rt,trials_2.thisRepN,trials_2.thisTrialN,trials_2.thisN,trials_2.thisIndex,trials_2.ran,block_num,key_resp_3.keys,key_resp_3.rt,trials_3.thisRepN,trials_3.thisTrialN,trials_3.thisN,trials_3.thisIndex,trials_3.ran
space,12.1741,"[""circle"",""green"",""hori"",""left"",[106,106],[0,150]]",circle,green,hori,left,"[106,106]","[0,150]",up,0,2.8443,0,0,0,0,1,001,2025-03-10_17h02.04.066,SL_sali,2021.2.3,Win32,59.52380952,,,,,,,,,,,,,,,
,,"[""diamond"",""red"",""hori"",""left"",[-150,0],[0,-150]]",diamond,red,hori,left,"[-150,0]","[0,-150]",left,1,2.5771,1,0,1,0,1,001,2025-03-10_17h02.04.066,SL_sali,2021.2.3,Win32,59.52380952,,,,,,,,,,,,,,,
,,"[""circle"",""green"",""vert"",""up"",[-106,106],[106,-106]]",circle,green,vert,up,"[-106,106]","[106,-106]",,0,,2,0,2,0,1,001,2025-03-10_17h02.04.066,SL_sali,2021.2.3,Win32,59.52380952,,,,,,,,,,,,,,,
,,"[""diamond"",""no_dis"",""hori"",""left"",[99999,99999],[0,-150]]",diamond,no_dis,hori,left,"[99999,99999]","[0,-150]",left,1,1.7736,3,0,3,0,1,001,2025-03-10_17h02.04.066,SL_sali,2021.2.3,Win32,59.52380952,,,,,,,,,,,,,,,
,,"[""circle"",""green"",""hori"",""left"",[-106,106],[150,0]]",circle,green,hori,left,"[-106,106]","[150,0]",left,1,1.352,4,0,4,0,1,001,2025-03-10_17h02.04.066,SL_sali,2021.2.3,Win32,59.52380952,,,,,,,,,,,,,,,
,,"[""diamond"",""red"",""vert"",""up"",[106,106],[150,0]]",diamond,red,vert,up,"[106,106]","[150,0]",up,1,1.465,5,0,5,0,1,001,2025-03-10_17h02.04.066,SL_sali,2021.2.3,Win32,59.52380952,,,,,,,,,,,,,,,
,,"[""diamond"",""red"",""vert"",""up"",[-106,-106],[106,106]]",diamond,red,vert,up,"[-106,-106]","[106,106]",up,1,2.1415,6,0,6,0,1,001,2025-03-10_17h02.04.066,SL_sali,2021.2.3,Win32,59.52380952,,,,,,,,,,,,,,,
,,"[""circle"",""no_dis"",""vert"",""up"",[99999,99999],[-106,-106]]",circle,no_dis,vert,up,"[99999,99999]","[-106,-106]",up,1,1.2663,7,0,7,0,1,001,2025-03-10_17h02.04.066,SL_sali,2021.2.3,Win32,59.52380952,,,,,,,,,,,,,,,
,,"[""diamond"",""red"",""vert"",""up"",[-106,106],[0,-150]]",diamond,red,vert,up,"[-106,106]","[0,-150]",up,1,1.6626,8,0,8,0,1,001,2025-03-10_17h02.04.066,SL_sali,2021.2.3,Win32,59.52380952,,,,,,,,,,,,,,,
,,"[""diamond"",""red"",""vert"",""up"",[-106,106],[106,106]]",diamond,red,vert,up,"[-106,106]","[106,106]",up,1,0.9355,9,0,9,0,1,001,2025-03-10_17h02.04.066,SL_sali,2021.2.3,Win32,59.52380952,,,,,,,,,,,,,,,
,,"[""circle"",""green"",""hori"",""left"",[106,106],[0,150]]",circle,green,hori,left,"[106,106]","[0,150]",left,1,1.8574,,,,,,001,2025-03-10_17h02.04.066,SL_sali,2021.2.3,Win32,59.52380952,space,3.5798,0,0,0,0,1,,,,,,,,
,,"[""diamond"",""red"",""hori"",""left"",[-150,0],[0,-150]]",diamond,red,hori,left,"[-150,0]","[0,-150]",left,1,1.3348,,,,,,001,2025-03-10_17h02.04.066,SL_sali,2021.2.3,Win32,59.52380952,,,1,0,1,0,1,,,,,,,,
,,"[""circle"",""green"",""vert"",""up"",[-106,106],[106,-106]]",circle,green,vert,up,"[-106,106]","[106,-106]",up,1,1.185,,,,,,001,2025-03-10_17h02.04.066,SL_sali,2021.2.3,Win32,59.52380952,,,2,0,2,0,1,,,,,,,,
,,"[""diamond"",""no_dis"",""hori"",""left"",[99999,99999],[0,-150]]",diamond,no_dis,hori,left,"[99999,99999]","[0,-150]",left,1,0.8724,,,,,,001,2025-03-10_17h02.04.066,SL_sali,2021.2.3,Win32,59.52380952,,,3,0,3,0,1,,,,,,,,
,,"[""circle"",""green"",""hori"",""left"",[-106,106],[150,0]]",circle,green,hori,left,"[-106,106]","[150,0]",up,0,1.528,,,,,,001,2025-03-10_17h02.04.066,SL_sali,2021.2.3,Win32,59.52380952,,,4,0,4,0,1,,,,,,,,
,,"[""diamond"",""red"",""vert"",""up"",[106,106],[150,0]]",diamond,red,vert,up,"[106,106]","[150,0]",up,1,1.4641,,,,,,001,2025-03-10_17h02.04.066,SL_sali,2021.2.3,Win32,59.52380952,,,5,0,5,0,1,,,,,,,,
,,"[""diamond"",""red"",""vert"",""up"",[-106,-106],[106,106]]",diamond,red,vert,up,"[-106,-106]","[106,106]",up,1,1.2123,,,,,,001,2025-03-10_17h02.04.066,SL_sali,2021.2.3,Win32,59.52380952,,,6,0,6,0,1,,,,,,,,
,,"[""circle"",""no_dis"",""vert"",""up"",[99999,99999],[-106,-106]]",circle,no_dis,vert,up,"[99999,99999]","[-106,-106]",up,1,1.2877,,,,,,001,2025-03-10_17h02.04.066,SL_sali,2021.2.3,Win32,59.52380952,,,7,0,7,0,1,,,,,,,,
,,"[""diamond"",""red"",""vert"",""up"",[-106,106],[0,-150]]",diamond,red,vert,up,"[-106,106]","[0,-150]",up,1,1.0169,,,,,,001,2025-03-10_17h02.04.066,SL_sali,2021.2.3,Win32,59.52380952,,,8,0,8,0,1,,,,,,,,
,,"[""diamond"",""red"",""vert"",""up"",[-106,106],[106,106]]",diamond,red,vert,up,"[-106,106]","[106,106]",up,1,1.6965,,,,,,001,2025-03-10_17h02.04.066,SL_sali,2021.2.3,Win32,59.52380952,,,9,0,9,0,1,,,,,,,,
,,"[""circle"",""green"",""hori"",""left"",[0,150],[106,-106]]",circle,green,hori,left,"[0,150]","[106,-106]",left,1,1.071,,,,,,001,2025-03-10_17h02.04.066,SL_sali,2021.2.3,Win32,59.52380952,,,10,0,10,0,1,,,,,,,,
,,"[""circle"",""red"",""hori"",""left"",[106,106],[0,-150]]",circle,red,hori,left,"[106,106]","[0,-150]",left,1,1.5613,,,,,,001,2025-03-10_17h02.04.066,SL_sali,2021.2.3,Win32,59.52380952,,,11,0,11,0,1,,,,,,,,
,,"[""circle"",""green"",""vert"",""up"",[0,150],[-106,106]]",circle,green,vert,up,"[0,150]","[-106,106]",up,1,1.5696,,,,,,001,2025-03-10_17h02.04.066,SL_sali,2021.2.3,Win32,59.52380952,,,12,0,12,0,1,,,,,,,,
,,"[""circle"",""green"",""hori"",""left"",[-106,106],[150,0]]",circle,green,hori,left,"[-106,106]","[150,0]",left,1,1.2217,,,,,,001,2025-03-10_17h02.04.066,SL_sali,2021.2.3,Win32,59.52380952,,,13,0,13,0,1,,,,,,,,
,,"[""circle"",""no_dis"",""hori"",""left"",[99999,99999],[0,150]]",circle,no_dis,hori,left,"[99999,99999]","[0,150]",left,1,1.4005,,,,,,001,2025-03-10_17h02.04.066,SL_sali,2021.2.3,Win32,59.52380952,,,14,0,14,0,1,,,,,,,,
,,"[""circle"",""green"",""hori"",""left"",[106,-106],[-106,106]]",circle,green,hori,left,"[106,-106]","[-106,106]",left,1,1.324,,,,,,001,2025-03-10_17h02.04.066,SL_sali,2021.2.3,Win32,59.52380952,,,15,0,15,0,1,,,,,,,,
,,"[""circle"",""green"",""hori"",""left"",[0,150],[106,-106]]",circle,green,hori,left,"[0,150]","[106,-106]",left,1,0.9115,,,,,,001,2025-03-10_17h02.04.066,SL_sali,2021.2.3,Win32,59.52380952,,,16,0,16,0,1,,,,,,,,
,,"[""diamond"",""no_dis"",""vert"",""up"",[99999,99999],[-150,0]]",diamond,no_dis,vert,up,"[99999,99999]","[-150,0]",up,1,1.4336,,,,,,001,2025-03-10_17h02.04.066,SL_sali,2021.2.3,Win32,59.52380952,,,17,0,17,0,1,,,,,,,,
,,"[""circle"",""red"",""hori"",""left"",[-106,-106],[106,106]]",circle,red,hori,left,"[-106,-106]","[106,106]",left,1,1.3308,,,,,,001,2025-03-10_17h02.04.066,SL_sali,2021.2.3,Win32,59.52380952,,,18,0,18,0,1,,,,,,,,
,,"[""diamond"",""red"",""vert"",""up"",[0,-150],[0,150]]",diamond,red,vert,up,"[0,-150]","[0,150]",up,1,1.1188,,,,,,001,2025-03-10_17h02.04.066,SL_sali,2021.2.3,Win32,59.52380952,,,19,0,19,0,1,,,,,,,,
,,"[""diamond"",""no_dis"",""vert"",""up"",[99999,99999],[-150,0]]",diamond,no_dis,vert,up,"[99999,99999]","[-150,0]",up,1,1.2411,,,,,,001,2025-03-10_17h02.04.066,SL_sali,2021.2.3,Win32,59.52380952,,,20,0,20,0,1,,,,,,,,
,,"[""diamond"",""no_dis"",""vert"",""up"",[99999,99999],[106,106]]",diamond,no_dis,vert,up,"[99999,99999]","[106,106]",up,1,0.8439,,,,,,001,2025-03-10_17h02.04.066,SL_sali,2021.2.3,Win32,59.52380952,,,21,0,21,0,1,,,,,,,,
,,"[""diamond"",""no_dis"",""vert"",""up"",[99999,99999],[-106,106]]",diamond,no_dis,vert,up,"[99999,99999]","[-106,106]",up,1,0.9783,,,,,,001,2025-03-10_17h02.04.066,SL_sali,2021.2.3,Win32,59.52380952,,,22,0,22,0,1,,,,,,,,
,,"[""circle"",""no_dis"",""hori"",""left"",[99999,99999],[0,150]]",circle,no_dis,hori,left,"[99999,99999]","[0,150]",left,1,0.9005,,,,,,001,2025-03-10_17h02.04.066,SL_sali,2021.2.3,Win32,59.52380952,,,23,0,23,0,1,,,,,,,,
,,"[""circle"",""no_dis"",""hori"",""left"",[99999,99999],[150,0]]",circle,no_dis,hori,left,"[99999,99999]","[150,0]",left,1,1.3621,,,,,,001,2025-03-10_17h02.04.066,SL_sali,2021.2.3,Win32,59.52380952,,,24,0,24,0,1,,,,,,,,
,,"[""circle"",""green"",""hori"",""left"",[-106,106],[150,0]]",circle,green,hori,left,"[-106,106]","[150,0]",left,1,1.4315,,,,,,001,2025-03-10_17h02.04.066,SL_sali,2021.2.3,Win32,59.52380952,,,25,0,25,0,1,,,,,,,,
,,"[""diamond"",""red"",""hori"",""left"",[150,0],[0,-150]]",diamond,red,hori,left,"[150,0]","[0,-150]",left,1,1.5467,,,,,,001,2025-03-10_17h02.04.066,SL_sali,2021.2.3,Win32,59.52380952,,,26,0,26,0,1,,,,,,,,
,,"[""circle"",""red"",""hori"",""left"",[-106,-106],[-150,0]]",circle,red,hori,left,"[-106,-106]","[-150,0]",up,0,1.4588,,,,,,001,2025-03-10_17h02.04.066,SL_sali,2021.2.3,Win32,59.52380952,,,27,0,27,0,1,,,,,,,,
,,"[""circle"",""red"",""vert"",""up"",[-150,0],[0,150]]",circle,red,vert,up,"[-150,0]","[0,150]",up,1,1.2729,,,,,,001,2025-03-10_17h02.04.066,SL_sali,2021.2.3,Win32,59.52380952,,,28,0,28,0,1,,,,,,,,
,,"[""circle"",""red"",""vert"",""up"",[106,-106],[0,-150]]",circle,red,vert,up,"[106,-106]","[0,-150]",up,1,1.3966,,,,,,001,2025-03-10_17h02.04.066,SL_sali,2021.2.3,Win32,59.52380952,,,29,0,29,0,1,,,,,,,,
,,"[""diamond"",""green"",""hori"",""left"",[-106,106],[106,106]]",diamond,green,hori,left,"[-106,106]","[106,106]",left,1,1.5169,,,,,,001,2025-03-10_17h02.04.066,SL_sali,2021.2.3,Win32,59.52380952,,,30,0,30,0,1,,,,,,,,
,,"[""diamond"",""green"",""vert"",""up"",[106,-106],[0,-150]]",diamond,green,vert,up,"[106,-106]","[0,-150]",up,1,0.9297,,,,,,001,2025-03-10_17h02.04.066,SL_sali,2021.2.3,Win32,59.52380952,,,31,0,31,0,1,,,,,,,,
,,"[""diamond"",""red"",""hori"",""left"",[106,-106],[-150,0]]",diamond,red,hori,left,"[106,-106]","[-150,0]",up,0,0.7789,,,,,,001,2025-03-10_17h02.04.066,SL_sali,2021.2.3,Win32,59.52380952,,,32,0,32,0,1,,,,,,,,
,,"[""diamond"",""red"",""hori"",""left"",[-106,106],[0,-150]]",diamond,red,hori,left,"[-106,106]","[0,-150]",left,1,1.5468,,,,,,001,2025-03-10_17h02.04.066,SL_sali,2021.2.3,Win32,59.52380952,,,33,0,33,0,1,,,,,,,,
,,"[""circle"",""red"",""hori"",""left"",[-106,-106],[0,-150]]",circle,red,hori,left,"[-106,-106]","[0,-150]",left,1,1.5459,,,,,,001,2025-03-10_17h02.04.066,SL_sali,2021.2.3,Win32,59.52380952,,,34,0,34,0,1,,,,,,,,
,,"[""diamond"",""no_dis"",""vert"",""up"",[99999,99999],[-150,0]]",diamond,no_dis,vert,up,"[99999,99999]","[-150,0]",up,1,1.3303,,,,,,001,2025-03-10_17h02.04.066,SL_sali,2021.2.3,Win32,59.52380952,,,35,0,35,0,1,,,,,,,,
,,"[""circle"",""no_dis"",""vert"",""up"",[99999,99999],[-106,106]]",circle,no_dis,vert,up,"[99999,99999]","[-106,106]",up,1,0.9569,,,,,,001,2025-03-10_17h02.04.066,SL_sali,2021.2.3,Win32,59.52380952,,,36,0,36,0,1,,,,,,,,
,,"[""diamond"",""green"",""hori"",""left"",[-150,0],[0,150]]",diamond,green,hori,left,"[-150,0]","[0,150]",left,1,1.1976,,,,,,001,2025-03-10_17h02.04.066,SL_sali,2021.2.3,Win32,59.52380952,,,37,0,37,0,1,,,,,,,,
,,"[""circle"",""red"",""vert"",""up"",[0,150],[-106,-106]]",circle,red,vert,up,"[0,150]","[-106,-106]",up,1,1.2694,,,,,,001,2025-03-10_17h02.04.066,SL_sali,2021.2.3,Win32,59.52380952,,,38,0,38,0,1,,,,,,,,
,,"[""circle"",""no_dis"",""vert"",""up"",[99999,99999],[0,150]]",circle,no_dis,vert,up,"[99999,99999]","[0,150]",up,1,1.0812,,,,,,001,2025-03-10_17h02.04.066,SL_sali,2021.2.3,Win32,59.52380952,,,39,0,39,0,1,,,,,,,,
,,"[""circle"",""green"",""vert"",""up"",[106,106],[0,150]]",circle,green,vert,up,"[106,106]","[0,150]",up,1,1.1718,,,,,,001,2025-03-10_17h02.04.066,SL_sali,2021.2.3,Win32,59.52380952,,,40,0,40,0,1,,,,,,,,
,,"[""circle"",""no_dis"",""vert"",""up"",[99999,99999],[-106,106]]",circle,no_dis,vert,up,"[99999,99999]","[-106,106]",up,1,0.9669,,,,,,001,2025-03-10_17h02.04.066,SL_sali,2021.2.3,Win32,59.52380952,,,41,0,41,0,1,,,,,,,,
,,"[""diamond"",""no_dis"",""hori"",""left"",[99999,99999],[150,0]]",diamond,no_dis,hori,left,"[99999,99999]","[150,0]",up,0,1.7133,,,,,,001,2025-03-10_17h02.04.066,SL_sali,2021.2.3,Win32,59.52380952,,,42,0,42,0,1,,,,,,,,
,,"[""circle"",""green"",""hori"",""left"",[150,0],[-106,106]]",circle,green,hori,left,"[150,0]","[-106,106]",left,1,1.1671,,,,,,001,2025-03-10_17h02.04.066,SL_sali,2021.2.3,Win32,59.52380952,,,43,0,43,0,1,,,,,,,,
,,"[""diamond"",""green"",""vert"",""up"",[-106,106],[106,-106]]",diamond,green,vert,up,"[-106,106]","[106,-106]",up,1,1.2178,,,,,,001,2025-03-10_17h02.04.066,SL_sali,2021.2.3,Win32,59.52380952,,,44,0,44,0,1,,,,,,,,
,,"[""circle"",""green"",""vert"",""up"",[0,-150],[106,-106]]",circle,green,vert,up,"[0,-150]","[106,-106]",up,1,1.8655,,,,,,001,2025-03-10_17h02.04.066,SL_sali,2021.2.3,Win32,59.52380952,,,45,0,45,0,1,,,,,,,,
,,"[""circle"",""no_dis"",""hori"",""left"",[99999,99999],[106,-106]]",circle,no_dis,hori,left,"[99999,99999]","[106,-106]",left,1,1.1981,,,,,,001,2025-03-10_17h02.04.066,SL_sali,2021.2.3,Win32,59.52380952,,,46,0,46,0,1,,,,,,,,
,,"[""diamond"",""no_dis"",""hori"",""left"",[99999,99999],[0,150]]",diamond,no_dis,hori,left,"[99999,99999]","[0,150]",left,1,1.5344,,,,,,001,2025-03-10_17h02.04.066,SL_sali,2021.2.3,Win32,59.52380952,,,47,0,47,0,1,,,,,,,,
,,"[""circle"",""green"",""vert"",""up"",[150,0],[0,-150]]",circle,green,vert,up,"[150,0]","[0,-150]",up,1,1.124,,,,,,001,2025-03-10_17h02.04.066,SL_sali,2021.2.3,Win32,59.52380952,,,48,0,48,0,1,,,,,,,,
,,"[""circle"",""red"",""vert"",""up"",[150,0],[0,150]]",circle,red,vert,up,"[150,0]","[0,150]",left,0,0.9916,,,,,,001,2025-03-10_17h02.04.066,SL_sali,2021.2.3,Win32,59.52380952,,,49,0,49,0,1,,,,,,,,
,,"[""diamond"",""green"",""vert"",""up"",[106,-106],[106,106]]",diamond,green,vert,up,"[106,-106]","[106,106]",up,1,1.3149,,,,,,001,2025-03-10_17h02.04.066,SL_sali,2021.2.3,Win32,59.52380952,,,50,0,50,0,1,,,,,,,,
,,"[""circle"",""no_dis"",""vert"",""up"",[99999,99999],[106,-106]]",circle,no_dis,vert,up,"[99999,99999]","[106,-106]",up,1,1.0161,,,,,,001,2025-03-10_17h02.04.066,SL_sali,2021.2.3,Win32,59.52380952,,,51,0,51,0,1,,,,,,,,
,,"[""diamond"",""red"",""vert"",""up"",[-106,106],[0,150]]",diamond,red,vert,up,"[-106,106]","[0,150]",left,0,1.3851,,,,,,001,2025-03-10_17h02.04.066,SL_sali,2021.2.3,Win32,59.52380952,,,52,0,52,0,1,,,,,,,,
,,"[""diamond"",""red"",""vert"",""up"",[-106,106],[106,-106]]",diamond,red,vert,up,"[-106,106]","[106,-106]",up,1,1.1861,,,,,,001,2025-03-10_17h02.04.066,SL_sali,2021.2.3,Win32,59.52380952,,,53,0,53,0,1,,,,,,,,
,,"[""circle"",""no_dis"",""vert"",""up"",[99999,99999],[106,106]]",circle,no_dis,vert,up,"[99999,99999]","[106,106]",up,1,1.1176,,,,,,001,2025-03-10_17h02.04.066,SL_sali,2021.2.3,Win32,59.52380952,,,54,0,54,0,1,,,,,,,,
,,"[""diamond"",""no_dis"",""vert"",""up"",[99999,99999],[106,-106]]",diamond,no_dis,vert,up,"[99999,99999]","[106,-106]",up,1,1.57,,,,,,001,2025-03-10_17h02.04.066,SL_sali,2021.2.3,Win32,59.52380952,,,55,0,55,0,1,,,,,,,,
,,"[""diamond"",""green"",""vert"",""up"",[-106,106],[-106,-106]]",diamond,green,vert,up,"[-106,106]","[-106,-106]",up,1,1.3414,,,,,,001,2025-03-10_17h02.04.066,SL_sali,2021.2.3,Win32,59.52380952,,,56,0,56,0,1,,,,,,,,
,,"[""diamond"",""green"",""vert"",""up"",[150,0],[-106,-106]]",diamond,green,vert,up,"[150,0]","[-106,-106]",left,0,1.3706,,,,,,001,2025-03-10_17h02.04.066,SL_sali,2021.2.3,Win32,59.52380952,,,57,0,57,0,1,,,,,,,,
,,"[""diamond"",""green"",""vert"",""up"",[-150,0],[0,-150]]",diamond,green,vert,up,"[-150,0]","[0,-150]",up,1,1.2343,,,,,,001,2025-03-10_17h02.04.066,SL_sali,2021.2.3,Win32,59.52380952,,,58,0,58,0,1,,,,,,,,
,,"[""diamond"",""red"",""vert"",""up"",[-106,106],[106,106]]",diamond,red,vert,up,"[-106,106]","[106,106]",up,1,1.7228,,,,,,001,2025-03-10_17h02.04.066,SL_sali,2021.2.3,Win32,59.52380952,,,59,0,59,0,1,,,,,,,,
,,"[""diamond"",""no_dis"",""hori"",""left"",[99999,99999],[0,-150]]",diamond,no_dis,hori,left,"[99999,99999]","[0,-150]",left,1,1.2354,,,,,,001,2025-03-10_17h02.04.066,SL_sali,2021.2.3,Win32,59.52380952,,,60,0,60,0,1,,,,,,,,
,,"[""diamond"",""no_dis"",""hori"",""left"",[99999,99999],[-106,106]]",diamond,no_dis,hori,left,"[99999,99999]","[-106,106]",left,1,1.1593,,,,,,001,2025-03-10_17h02.04.066,SL_sali,2021.2.3,Win32,59.52380952,,,61,0,61,0,1,,,,,,,,
,,"[""circle"",""no_dis"",""hori"",""left"",[99999,99999],[106,106]]",circle,no_dis,hori,left,"[99999,99999]","[106,106]",left,1,2.0238,,,,,,001,2025-03-10_17h02.04.066,SL_sali,2021.2.3,Win32,59.52380952,,,62,0,62,0,1,,,,,,,,
,,"[""circle"",""red"",""vert"",""up"",[-150,0],[0,-150]]",circle,red,vert,up,"[-150,0]","[0,-150]",up,1,1.7443,,,,,,001,2025-03-10_17h02.04.066,SL_sali,2021.2.3,Win32,59.52380952,,,63,0,63,0,1,,,,,,,,
,,"[""circle"",""no_dis"",""hori"",""left"",[99999,99999],[0,-150]]",circle,no_dis,hori,left,"[99999,99999]","[0,-150]",left,1,0.8854,,,,,,001,2025-03-10_17h02.04.066,SL_sali,2021.2.3,Win32,59.52380952,,,64,0,64,0,1,,,,,,,,
,,"[""diamond"",""red"",""vert"",""up"",[150,0],[106,106]]",diamond,red,vert,up,"[150,0]","[106,106]",up,1,1.0305,,,,,,001,2025-03-10_17h02.04.066,SL_sali,2021.2.3,Win32,59.52380952,,,65,0,65,0,1,,,,,,,,
,,"[""circle"",""green"",""vert"",""up"",[0,150],[0,-150]]",circle,green,vert,up,"[0,150]","[0,-150]",up,1,1.5804,,,,,,001,2025-03-10_17h02.04.066,SL_sali,2021.2.3,Win32,59.52380952,,,66,0,66,0,1,,,,,,,,
,,"[""circle"",""no_dis"",""vert"",""up"",[99999,99999],[150,0]]",circle,no_dis,vert,up,"[99999,99999]","[150,0]",up,1,1.0738,,,,,,001,2025-03-10_17h02.04.066,SL_sali,2021.2.3,Win32,59.52380952,,,67,0,67,0,1,,,,,,,,
,,"[""diamond"",""green"",""hori"",""left"",[150,0],[106,-106]]",diamond,green,hori,left,"[150,0]","[106,-106]",left,1,1.339,,,,,,001,2025-03-10_17h02.04.066,SL_sali,2021.2.3,Win32,59.52380952,,,68,0,68,0,1,,,,,,,,
,,"[""diamond"",""green"",""hori"",""left"",[106,106],[-150,0]]",diamond,green,hori,left,"[106,106]","[-150,0]",left,1,0.94,,,,,,001,2025-03-10_17h02.04.066,SL_sali,2021.2.3,Win32,59.52380952,,,69,0,69,0,1,,,,,,,,
,,"[""diamond"",""no_dis"",""vert"",""up"",[99999,99999],[0,150]]",diamond,no_dis,vert,up,"[99999,99999]","[0,150]",up,1,0.8899,,,,,,001,2025-03-10_17h02.04.066,SL_sali,2021.2.3,Win32,59.52380952,,,70,0,70,0,1,,,,,,,,
,,"[""circle"",""green"",""vert"",""up"",[-106,106],[-106,-106]]",circle,green,vert,up,"[-106,106]","[-106,-106]",up,1,1.3552,,,,,,001,2025-03-10_17h02.04.066,SL_sali,2021.2.3,Win32,59.52380952,,,71,0,71,0,1,,,,,,,,
,,"[""circle"",""red"",""hori"",""left"",[-106,-106],[106,106]]",circle,red,hori,left,"[-106,-106]","[106,106]",left,1,1.5156,,,,,,001,2025-03-10_17h02.04.066,SL_sali,2021.2.3,Win32,59.52380952,,,72,0,72,0,1,,,,,,,,
,,"[""circle"",""red"",""vert"",""up"",[106,106],[150,0]]",circle,red,vert,up,"[106,106]","[150,0]",up,1,1.4163,,,,,,001,2025-03-10_17h02.04.066,SL_sali,2021.2.3,Win32,59.52380952,,,73,0,73,0,1,,,,,,,,
,,"[""circle"",""red"",""hori"",""left"",[-106,-106],[106,-106]]",circle,red,hori,left,"[-106,-106]","[106,-106]",left,1,1.0916,,,,,,001,2025-03-10_17h02.04.066,SL_sali,2021.2.3,Win32,59.52380952,,,74,0,74,0,1,,,,,,,,
,,"[""circle"",""no_dis"",""vert"",""up"",[99999,99999],[-106,-106]]",circle,no_dis,vert,up,"[99999,99999]","[-106,-106]",up,1,1.3471,,,,,,001,2025-03-10_17h02.04.066,SL_sali,2021.2.3,Win32,59.52380952,,,75,0,75,0,1,,,,,,,,
,,"[""circle"",""no_dis"",""hori"",""left"",[99999,99999],[150,0]]",circle,no_dis,hori,left,"[99999,99999]","[150,0]",left,1,1.2197,,,,,,001,2025-03-10_17h02.04.066,SL_sali,2021.2.3,Win32,59.52380952,,,76,0,76,0,1,,,,,,,,
,,"[""circle"",""no_dis"",""vert"",""up"",[99999,99999],[-150,0]]",circle,no_dis,vert,up,"[99999,99999]","[-150,0]",up,1,0.8771,,,,,,001,2025-03-10_17h02.04.066,SL_sali,2021.2.3,Win32,59.52380952,,,77,0,77,0,1,,,,,,,,
,,"[""diamond"",""red"",""hori"",""left"",[0,-150],[106,-106]]",diamond,red,hori,left,"[0,-150]","[106,-106]",left,1,0.9519,,,,,,001,2025-03-10_17h02.04.066,SL_sali,2021.2.3,Win32,59.52380952,,,78,0,78,0,1,,,,,,,,
,,"[""diamond"",""green"",""vert"",""up"",[-150,0],[0,-150]]",diamond,green,vert,up,"[-150,0]","[0,-150]",up,1,0.9996,,,,,,001,2025-03-10_17h02.04.066,SL_sali,2021.2.3,Win32,59.52380952,,,79,0,79,0,1,,,,,,,,
,,"[""diamond"",""no_dis"",""hori"",""left"",[99999,99999],[106,106]]",diamond,no_dis,hori,left,"[99999,99999]","[106,106]",left,1,1.2476,,,,,,001,2025-03-10_17h02.04.066,SL_sali,2021.2.3,Win32,59.52380952,,,80,0,80,0,1,,,,,,,,
,,"[""circle"",""no_dis"",""vert"",""up"",[99999,99999],[0,-150]]",circle,no_dis,vert,up,"[99999,99999]","[0,-150]",up,1,1.1242,,,,,,001,2025-03-10_17h02.04.066,SL_sali,2021.2.3,Win32,59.52380952,,,81,0,81,0,1,,,,,,,,
,,"[""diamond"",""red"",""hori"",""left"",[150,0],[0,150]]",diamond,red,hori,left,"[150,0]","[0,150]",left,1,1.3125,,,,,,001,2025-03-10_17h02.04.066,SL_sali,2021.2.3,Win32,59.52380952,,,82,0,82,0,1,,,,,,,,
,,"[""circle"",""green"",""vert"",""up"",[-106,106],[0,-150]]",circle,green,vert,up,"[-106,106]","[0,-150]",left,0,0.7697,,,,,,001,2025-03-10_17h02.04.066,SL_sali,2021.2.3,Win32,59.52380952,,,83,0,83,0,1,,,,,,,,
,,"[""diamond"",""no_dis"",""hori"",""left"",[99999,99999],[150,0]]",diamond,no_dis,hori,left,"[99999,99999]","[150,0]",left,1,1.3205,,,,,,001,2025-03-10_17h02.04.066,SL_sali,2021.2.3,Win32,59.52380952,,,84,0,84,0,1,,,,,,,,
,,"[""diamond"",""green"",""vert"",""up"",[106,106],[106,-106]]",diamond,green,vert,up,"[106,106]","[106,-106]",up,1,1.5632,,,,,,001,2025-03-10_17h02.04.066,SL_sali,2021.2.3,Win32,59.52380952,,,85,0,85,0,1,,,,,,,,
,,"[""diamond"",""red"",""vert"",""up"",[-106,106],[106,106]]",diamond,red,vert,up,"[-106,106]","[106,106]",up,1,0.9577,,,,,,001,2025-03-10_17h02.04.066,SL_sali,2021.2.3,Win32,59.52380952,,,86,0,86,0,1,,,,,,,,
,,"[""diamond"",""green"",""hori"",""left"",[0,-150],[106,-106]]",diamond,green,hori,left,"[0,-150]","[106,-106]",left,1,0.9121,,,,,,001,2025-03-10_17h02.04.066,SL_sali,2021.2.3,Win32,59.52380952,,,87,0,87,0,1,,,,,,,,
,,"[""circle"",""no_dis"",""hori"",""left"",[99999,99999],[-106,-106]]",circle,no_dis,hori,left,"[99999,99999]","[-106,-106]",left,1,0.9814,,,,,,001,2025-03-10_17h02.04.066,SL_sali,2021.2.3,Win32,59.52380952,,,88,0,88,0,1,,,,,,,,
,,"[""diamond"",""green"",""vert"",""up"",[-106,106],[-150,0]]",diamond,green,vert,up,"[-106,106]","[-150,0]",up,1,0.9816,,,,,,001,2025-03-10_17h02.04.066,SL_sali,2021.2.3,Win32,59.52380952,,,89,0,89,0,1,,,,,,,,
,,"[""diamond"",""no_dis"",""hori"",""left"",[99999,99999],[-106,-106]]",diamond,no_dis,hori,left,"[99999,99999]","[-106,-106]",left,1,0.9156,,,,,,001,2025-03-10_17h02.04.066,SL_sali,2021.2.3,Win32,59.52380952,,,90,0,90,0,1,,,,,,,,
,,"[""diamond"",""green"",""hori"",""left"",[0,150],[-150,0]]",diamond,green,hori,left,"[0,150]","[-150,0]",left,1,1.1477,,,,,,001,2025-03-10_17h02.04.066,SL_sali,2021.2.3,Win32,59.52380952,,,91,0,91,0,1,,,,,,,,
,,"[""circle"",""no_dis"",""hori"",""left"",[99999,99999],[106,106]]",circle,no_dis,hori,left,"[99999,99999]","[106,106]",left,1,1.1176,,,,,,001,2025-03-10_17h02.04.066,SL_sali,2021.2.3,Win32,59.52380952,,,92,0,92,0,1,,,,,,,,
,,"[""diamond"",""red"",""hori"",""left"",[0,-150],[-150,0]]",diamond,red,hori,left,"[0,-150]","[-150,0]",up,0,0.9332,,,,,,001,2025-03-10_17h02.04.066,SL_sali,2021.2.3,Win32,59.52380952,,,93,0,93,0,1,,,,,,,,
,,"[""diamond"",""no_dis"",""vert"",""up"",[99999,99999],[106,-106]]",diamond,no_dis,vert,up,"[99999,99999]","[106,-106]",up,1,1.532,,,,,,001,2025-03-10_17h02.04.066,SL_sali,2021.2.3,Win32,59.52380952,,,94,0,94,0,1,,,,,,,,
,,"[""circle"",""green"",""hori"",""left"",[0,150],[150,0]]",circle,green,hori,left,"[0,150]","[150,0]",left,1,1.2397,,,,,,001,2025-03-10_17h02.04.066,SL_sali,2021.2.3,Win32,59.52380952,,,95,0,95,0,1,,,,,,,,
,,"[""diamond"",""green"",""hori"",""left"",[0,-150],[0,150]]",diamond,green,hori,left,"[0,-150]","[0,150]",left,1,1.1217,,,,,,001,2025-03-10_17h02.04.066,SL_sali,2021.2.3,Win32,59.52380952,,,96,0,96,0,1,,,,,,,,
,,"[""diamond"",""red"",""hori"",""left"",[106,-106],[0,150]]",diamond,red,hori,left,"[106,-106]","[0,150]",left,1,1.0904,,,,,,001,2025-03-10_17h02.04.066,SL_sali,2021.2.3,Win32,59.52380952,,,97,0,97,0,1,,,,,,,,
,,"[""circle"",""red"",""vert"",""up"",[-106,106],[-106,-106]]",circle,red,vert,up,"[-106,106]","[-106,-106]",up,1,1.9699,,,,,,001,2025-03-10_17h02.04.066,SL_sali,2021.2.3,Win32,59.52380952,,,98,0,98,0,1,,,,,,,,
,,"[""diamond"",""no_dis"",""vert"",""up"",[99999,99999],[-106,-106]]",diamond,no_dis,vert,up,"[99999,99999]","[-106,-106]",up,1,1.0812,,,,,,001,2025-03-10_17h02.04.066,SL_sali,2021.2.3,Win32,59.52380952,,,99,0,99,0,1,,,,,,,,
,,"[""circle"",""red"",""hori"",""left"",[-106,106],[106,-106]]",circle,red,hori,left,"[-106,106]","[106,-106]",left,1,1.0724,,,,,,001,2025-03-10_17h02.04.066,SL_sali,2021.2.3,Win32,59.52380952,,,100,0,100,0,1,,,,,,,,
,,"[""diamond"",""green"",""vert"",""up"",[-106,106],[0,-150]]",diamond,green,vert,up,"[-106,106]","[0,-150]",up,1,0.9875,,,,,,001,2025-03-10_17h02.04.066,SL_sali,2021.2.3,Win32,59.52380952,,,101,0,101,0,1,,,,,,,,
,,"[""circle"",""no_dis"",""hori"",""left"",[99999,99999],[106,-106]]",circle,no_dis,hori,left,"[99999,99999]","[106,-106]",left,1,0.6291,,,,,,001,2025-03-10_17h02.04.066,SL_sali,2021.2.3,Win32,59.52380952,,,102,0,102,0,1,,,,,,,,
,,"[""circle"",""red"",""vert"",""up"",[106,-106],[0,150]]",circle,red,vert,up,"[106,-106]","[0,150]",up,1,0.9529,,,,,,001,2025-03-10_17h02.04.066,SL_sali,2021.2.3,Win32,59.52380952,,,103,0,103,0,1,,,,,,,,
,,"[""diamond"",""green"",""hori"",""left"",[-106,-106],[0,-150]]",diamond,green,hori,left,"[-106,-106]","[0,-150]",left,1,1.057,,,,,,001,2025-03-10_17h02.04.066,SL_sali,2021.2.3,Win32,59.52380952,,,104,0,104,0,1,,,,,,,,
,,"[""circle"",""red"",""hori"",""left"",[0,-150],[106,-106]]",circle,red,hori,left,"[0,-150]","[106,-106]",left,1,1.6295,,,,,,001,2025-03-10_17h02.04.066,SL_sali,2021.2.3,Win32,59.52380952,,,105,0,105,0,1,,,,,,,,
,,"[""circle"",""green"",""vert"",""up"",[106,106],[-106,-106]]",circle,green,vert,up,"[106,106]","[-106,-106]",up,1,1.5171,,,,,,001,2025-03-10_17h02.04.066,SL_sali,2021.2.3,Win32,59.52380952,,,106,0,106,0,1,,,,,,,,
,,"[""circle"",""red"",""hori"",""left"",[-106,106],[-150,0]]",circle,red,hori,left,"[-106,106]","[-150,0]",left,1,1.4923,,,,,,001,2025-03-10_17h02.04.066,SL_sali,2021.2.3,Win32,59.52380952,,,107,0,107,0,1,,,,,,,,
,,"[""circle"",""green"",""vert"",""up"",[106,-106],[150,0]]",circle,green,vert,up,"[106,-106]","[150,0]",up,1,1.587,,,,,,001,2025-03-10_17h02.04.066,SL_sali,2021.2.3,Win32,59.52380952,,,108,0,108,0,1,,,,,,,,
,,"[""diamond"",""no_dis"",""hori"",""left"",[99999,99999],[-106,106]]",diamond,no_dis,hori,left,"[99999,99999]","[-106,106]",left,1,0.9207,,,,,,001,2025-03-10_17h02.04.066,SL_sali,2021.2.3,Win32,59.52380952,,,109,0,109,0,1,,,,,,,,
,,"[""diamond"",""green"",""hori"",""left"",[-106,106],[106,-106]]",diamond,green,hori,left,"[-106,106]","[106,-106]",left,1,0.6902,,,,,,001,2025-03-10_17h02.04.066,SL_sali,2021.2.3,Win32,59.52380952,,,110,0,110,0,1,,,,,,,,
,,"[""diamond"",""red"",""hori"",""left"",[0,-150],[-150,0]]",diamond,red,hori,left,"[0,-150]","[-150,0]",up,0,1.1838,,,,,,001,2025-03-10_17h02.04.066,SL_sali,2021.2.3,Win32,59.52380952,,,111,0,111,0,1,,,,,,,,
,,"[""diamond"",""red"",""hori"",""left"",[-106,106],[0,-150]]",diamond,red,hori,left,"[-106,106]","[0,-150]",left,1,1.0496,,,,,,001,2025-03-10_17h02.04.066,SL_sali,2021.2.3,Win32,59.52380952,,,112,0,112,0,1,,,,,,,,
,,"[""circle"",""red"",""vert"",""up"",[-106,-106],[150,0]]",circle,red,vert,up,"[-106,-106]","[150,0]",up,1,1.7162,,,,,,001,2025-03-10_17h02.04.066,SL_sali,2021.2.3,Win32,59.52380952,,,113,0,113,0,1,,,,,,,,
,,"[""diamond"",""no_dis"",""vert"",""up"",[99999,99999],[0,-150]]",diamond,no_dis,vert,up,"[99999,99999]","[0,-150]",up,1,1.5212,,,,,,001,2025-03-10_17h02.04.066,SL_sali,2021.2.3,Win32,59.52380952,,,114,0,114,0,1,,,,,,,,
,,"[""diamond"",""no_dis"",""hori"",""left"",[99999,99999],[-150,0]]",diamond,no_dis,hori,left,"[99999,99999]","[-150,0]",left,1,1.3725,,,,,,001,2025-03-10_17h02.04.066,SL_sali,2021.2.3,Win32,59.52380952,,,115,0,115,0,1,,,,,,,,
,,"[""circle"",""green"",""hori"",""left"",[-106,106],[-106,-106]]",circle,green,hori,left,"[-106,106]","[-106,-106]",left,1,0.956,,,,,,001,2025-03-10_17h02.04.066,SL_sali,2021.2.3,Win32,59.52380952,,,116,0,116,0,1,,,,,,,,
,,"[""circle"",""red"",""hori"",""left"",[-150,0],[106,-106]]",circle,red,hori,left,"[-150,0]","[106,-106]",left,1,1.2607,,,,,,001,2025-03-10_17h02.04.066,SL_sali,2021.2.3,Win32,59.52380952,,,117,0,117,0,1,,,,,,,,
,,"[""circle"",""red"",""vert"",""up"",[0,150],[-150,0]]",circle,red,vert,up,"[0,150]","[-150,0]",up,1,1.1023,,,,,,001,2025-03-10_17h02.04.066,SL_sali,2021.2.3,Win32,59.52380952,,,118,0,118,0,1,,,,,,,,
,,"[""diamond"",""green"",""hori"",""left"",[-150,0],[0,150]]",diamond,green,hori,left,"[-150,0]","[0,150]",left,1,1.1256,,,,,,001,2025-03-10_17h02.04.066,SL_sali,2021.2.3,Win32,59.52380952,,,119,0,119,0,1,,,,,,,,
,,,,,,,,,,,,,,,,,001,2025-03-10_17h02.04.066,SL_sali,2021.2.3,Win32,59.52380952,,,,,,,,1,space,2.0056,0,0,0,0,1
,,"[""diamond"",""no_dis"",""hori"",""left"",[99999,99999],[0,150]]",diamond,no_dis,hori,left,"[99999,99999]","[0,150]",left,1,0.8542,,,,,,001,2025-03-10_17h02.04.066,SL_sali,2021.2.3,Win32,59.52380952,,,0,0,0,0,1,,,,,,,,
,,"[""diamond"",""no_dis"",""vert"",""up"",[99999,99999],[106,-106]]",diamond,no_dis,vert,up,"[99999,99999]","[106,-106]",up,1,0.7742,,,,,,001,2025-03-10_17h02.04.066,SL_sali,2021.2.3,Win32,59.52380952,,,1,0,1,0,1,,,,,,,,
,,"[""diamond"",""red"",""hori"",""left"",[150,0],[0,150]]",diamond,red,hori,left,"[150,0]","[0,150]",left,1,1.2386,,,,,,001,2025-03-10_17h02.04.066,SL_sali,2021.2.3,Win32,59.52380952,,,2,0,2,0,1,,,,,,,,
,,"[""circle"",""green"",""hori"",""left"",[0,150],[150,0]]",circle,green,hori,left,"[0,150]","[150,0]",left,1,1.346,,,,,,001,2025-03-10_17h02.04.066,SL_sali,2021.2.3,Win32,59.52380952,,,3,0,3,0,1,,,,,,,,
,,"[""diamond"",""no_dis"",""hori"",""left"",[99999,99999],[150,0]]",diamond,no_dis,hori,left,"[99999,99999]","[150,0]",left,1,1.1481,,,,,,001,2025-03-10_17h02.04.066,SL_sali,2021.2.3,Win32,59.52380952,,,4,0,4,0,1,,,,,,,,
,,"[""circle"",""green"",""vert"",""up"",[106,106],[-106,-106]]",circle,green,vert,up,"[106,106]","[-106,-106]",up,1,0.9006,,,,,,001,2025-03-10_17h02.04.066,SL_sali,2021.2.3,Win32,59.52380952,,,5,0,5,0,1,,,,,,,,
,,"[""circle"",""green"",""vert"",""up"",[106,-106],[150,0]]",circle,green,vert,up,"[106,-106]","[150,0]",up,1,1.5518,,,,,,001,2025-03-10_17h02.04.066,SL_sali,2021.2.3,Win32,59.52380952,,,6,0,6,0,1,,,,,,,,
,,"[""diamond"",""red"",""vert"",""up"",[-106,106],[106,106]]",diamond,red,vert,up,"[-106,106]","[106,106]",up,1,1.2525,,,,,,001,2025-03-10_17h02.04.066,SL_sali,2021.2.3,Win32,59.52380952,,,7,0,7,0,1,,,,,,,,
,,"[""diamond"",""no_dis"",""vert"",""up"",[99999,99999],[106,106]]",diamond,no_dis,vert,up,"[99999,99999]","[106,106]",up,1,1.2214,,,,,,001,2025-03-10_17h02.04.066,SL_sali,2021.2.3,Win32,59.52380952,,,8,0,8,0,1,,,,,,,,
,,"[""diamond"",""green"",""vert"",""up"",[-106,106],[-106,-106]]",diamond,green,vert,up,"[-106,106]","[-106,-106]",up,1,1.6953,,,,,,001,2025-03-10_17h02.04.066,SL_sali,2021.2.3,Win32,59.52380952,,,9,0,9,0,1,,,,,,,,
,,"[""diamond"",""no_dis"",""vert"",""up"",[99999,99999],[0,150]]",diamond,no_dis,vert,up,"[99999,99999]","[0,150]",up,1,0.8834,,,,,,001,2025-03-10_17h02.04.066,SL_sali,2021.2.3,Win32,59.52380952,,,10,0,10,0,1,,,,,,,,
,,"[""diamond"",""green"",""vert"",""up"",[150,0],[-106,-106]]",diamond,green,vert,up,"[150,0]","[-106,-106]",up,1,1.1609,,,,,,001,2025-03-10_17h02.04.066,SL_sali,2021.2.3,Win32,59.52380952,,,11,0,11,0,1,,,,,,,,
,,"[""circle"",""no_dis"",""hori"",""left"",[99999,99999],[106,-106]]",circle,no_dis,hori,left,"[99999,99999]","[106,-106]",left,1,0.9159,,,,,,001,2025-03-10_17h02.04.066,SL_sali,2021.2.3,Win32,59.52380952,,,12,0,12,0,1,,,,,,,,
,,"[""circle"",""green"",""vert"",""up"",[-106,106],[0,-150]]",circle,green,vert,up,"[-106,106]","[0,-150]",up,1,0.9408,,,,,,001,2025-03-10_17h02.04.066,SL_sali,2021.2.3,Win32,59.52380952,,,13,0,13,0,1,,,,,,,,
,,"[""diamond"",""red"",""hori"",""left"",[-106,106],[0,-150]]",diamond,red,hori,left,"[-106,106]","[0,-150]",left,1,0.7663,,,,,,001,2025-03-10_17h02.04.066,SL_sali,2021.2.3,Win32,59.52380952,,,14,0,14,0,1,,,,,,,,
,,"[""diamond"",""green"",""vert"",""up"",[106,106],[106,-106]]",diamond,green,vert,up,"[106,106]","[106,-106]",up,1,1.3016,,,,,,001,2025-03-10_17h02.04.066,SL_sali,2021.2.3,Win32,59.52380952,,,15,0,15,0,1,,,,,,,,
,,"[""diamond"",""no_dis"",""hori"",""left"",[99999,99999],[-106,106]]",diamond,no_dis,hori,left,"[99999,99999]","[-106,106]",left,1,1.1566,,,,,,001,2025-03-10_17h02.04.066,SL_sali,2021.2.3,Win32,59.52380952,,,16,0,16,0,1,,,,,,,,
,,"[""diamond"",""green"",""hori"",""left"",[150,0],[106,-106]]",diamond,green,hori,left,"[150,0]","[106,-106]",left,1,1.0231,,,,,,001,2025-03-10_17h02.04.066,SL_sali,2021.2.3,Win32,59.52380952,,,17,0,17,0,1,,,,,,,,
,,"[""diamond"",""red"",""vert"",""up"",[-106,106],[106,-106]]",diamond,red,vert,up,"[-106,106]","[106,-106]",up,1,1.5504,,,,,,001,2025-03-10_17h02.04.066,SL_sali,2021.2.3,Win32,59.52380952,,,18,0,18,0,1,,,,,,,,
,,"[""diamond"",""no_dis"",""vert"",""up"",[99999,99999],[0,-150]]",diamond,no_dis,vert,up,"[99999,99999]","[0,-150]",up,1,0.741,,,,,,001,2025-03-10_17h02.04.066,SL_sali,2021.2.3,Win32,59.52380952,,,19,0,19,0,1,,,,,,,,
,,"[""circle"",""red"",""hori"",""left"",[-106,106],[106,-106]]",circle,red,hori,left,"[-106,106]","[106,-106]",left,1,0.8808,,,,,,001,2025-03-10_17h02.04.066,SL_sali,2021.2.3,Win32,59.52380952,,,20,0,20,0,1,,,,,,,,
,,"[""circle"",""no_dis"",""vert"",""up"",[99999,99999],[106,106]]",circle,no_dis,vert,up,"[99999,99999]","[106,106]",up,1,0.9973,,,,,,001,2025-03-10_17h02.04.066,SL_sali,2021.2.3,Win32,59.52380952,,,21,0,21,0,1,,,,,,,,
,,"[""diamond"",""green"",""vert"",""up"",[-150,0],[0,-150]]",diamond,green,vert,up,"[-150,0]","[0,-150]",up,1,0.8985,,,,,,001,2025-03-10_17h02.04.066,SL_sali,2021.2.3,Win32,59.52380952,,,22,0,22,0,1,,,,,,,,
,,"[""circle"",""red"",""vert"",""up"",[0,150],[-150,0]]",circle,red,vert,up,"[0,150]","[-150,0]",left,0,0.9027,,,,,,001,2025-03-10_17h02.04.066,SL_sali,2021.2.3,Win32,59.52380952,,,23,0,23,0,1,,,,,,,,
,,"[""diamond"",""no_dis"",""hori"",""left"",[99999,99999],[150,0]]",diamond,no_dis,hori,left,"[99999,99999]","[150,0]",left,1,0.6731,,,,,,001,2025-03-10_17h02.04.066,SL_sali,2021.2.3,Win32,59.52380952,,,24,0,24,0,1,,,,,,,,
,,"[""diamond"",""red"",""hori"",""left"",[150,0],[0,-150]]",diamond,red,hori,left,"[150,0]","[0,-150]",left,1,0.5802,,,,,,001,2025-03-10_17h02.04.066,SL_sali,2021.2.3,Win32,59.52380952,,,25,0,25,0,1,,,,,,,,
,,"[""circle"",""green"",""vert"",""up"",[106,106],[0,150]]",circle,green,vert,up,"[106,106]","[0,150]",up,1,0.8498,,,,,,001,2025-03-10_17h02.04.066,SL_sali,2021.2.3,Win32,59.52380952,,,26,0,26,0,1,,,,,,,,
,,"[""circle"",""green"",""hori"",""left"",[0,150],[106,-106]]",circle,green,hori,left,"[0,150]","[106,-106]",left,1,0.7985,,,,,,001,2025-03-10_17h02.04.066,SL_sali,2021.2.3,Win32,59.52380952,,,27,0,27,0,1,,,,,,,,
,,"[""circle"",""red"",""vert"",""up"",[0,150],[-106,-106]]",circle,red,vert,up,"[0,150]","[-106,-106]",up,1,0.9665,,,,,,001,2025-03-10_17h02.04.066,SL_sali,2021.2.3,Win32,59.52380952,,,28,0,28,0,1,,,,,,,,
,,"[""circle"",""red"",""hori"",""left"",[-106,-106],[-150,0]]",circle,red,hori,left,"[-106,-106]","[-150,0]",left,1,0.9679,,,,,,001,2025-03-10_17h02.04.066,SL_sali,2021.2.3,Win32,59.52380952,,,29,0,29,0,1,,,,,,,,
,,"[""circle"",""green"",""hori"",""left"",[-106,106],[-106,-106]]",circle,green,hori,left,"[-106,106]","[-106,-106]",left,1,0.7874,,,,,,001,2025-03-10_17h02.04.066,SL_sali,2021.2.3,Win32,59.52380952,,,30,0,30,0,1,,,,,,,,
,,"[""diamond"",""red"",""vert"",""up"",[-106,106],[106,106]]",diamond,red,vert,up,"[-106,106]","[106,106]",left,0,1.5041,,,,,,001,2025-03-10_17h02.04.066,SL_sali,2021.2.3,Win32,59.52380952,,,31,0,31,0,1,,,,,,,,
,,"[""circle"",""no_dis"",""hori"",""left"",[99999,99999],[0,150]]",circle,no_dis,hori,left,"[99999,99999]","[0,150]",left,1,1.2465,,,,,,001,2025-03-10_17h02.04.066,SL_sali,2021.2.3,Win32,59.52380952,,,32,0,32,0,1,,,,,,,,
,,"[""circle"",""green"",""vert"",""up"",[-106,106],[106,-106]]",circle,green,vert,up,"[-106,106]","[106,-106]",up,1,0.7978,,,,,,001,2025-03-10_17h02.04.066,SL_sali,2021.2.3,Win32,59.52380952,,,33,0,33,0,1,,,,,,,,
,,"[""diamond"",""green"",""vert"",""up"",[-106,106],[-150,0]]",diamond,green,vert,up,"[-106,106]","[-150,0]",up,1,1.5365,,,,,,001,2025-03-10_17h02.04.066,SL_sali,2021.2.3,Win32,59.52380952,,,34,0,34,0,1,,,,,,,,
,,"[""diamond"",""green"",""hori"",""left"",[0,150],[-150,0]]",diamond,green,hori,left,"[0,150]","[-150,0]",left,1,0.9707,,,,,,001,2025-03-10_17h02.04.066,SL_sali,2021.2.3,Win32,59.52380952,,,35,0,35,0,1,,,,,,,,
,,"[""circle"",""green"",""vert"",""up"",[150,0],[0,-150]]",circle,green,vert,up,"[150,0]","[0,-150]",up,1,1.066,,,,,,001,2025-03-10_17h02.04.066,SL_sali,2021.2.3,Win32,59.52380952,,,36,0,36,0,1,,,,,,,,
,,"[""circle"",""red"",""hori"",""left"",[-106,-106],[106,-106]]",circle,red,hori,left,"[-106,-106]","[106,-106]",left,1,1.0382,,,,,,001,2025-03-10_17h02.04.066,SL_sali,2021.2.3,Win32,59.52380952,,,37,0,37,0,1,,,,,,,,
,,"[""circle"",""no_dis"",""vert"",""up"",[99999,99999],[-106,106]]",circle,no_dis,vert,up,"[99999,99999]","[-106,106]",up,1,0.8012,,,,,,001,2025-03-10_17h02.04.066,SL_sali,2021.2.3,Win32,59.52380952,,,38,0,38,0,1,,,,,,,,
,,"[""circle"",""no_dis"",""hori"",""left"",[99999,99999],[-106,-106]]",circle,no_dis,hori,left,"[99999,99999]","[-106,-106]",left,1,0.917,,,,,,001,2025-03-10_17h02.04.066,SL_sali,2021.2.3,Win32,59.52380952,,,39,0,39,0,1,,,,,,,,
,,"[""circle"",""red"",""hori"",""left"",[0,-150],[106,-106]]",circle,red,hori,left,"[0,-150]","[106,-106]",left,1,0.9934,,,,,,001,2025-03-10_17h02.04.066,SL_sali,2021.2.3,Win32,59.52380952,,,40,0,40,0,1,,,,,,,,
,,"[""circle"",""no_dis"",""hori"",""left"",[99999,99999],[150,0]]",circle,no_dis,hori,left,"[99999,99999]","[150,0]",left,1,1.3844,,,,,,001,2025-03-10_17h02.04.066,SL_sali,2021.2.3,Win32,59.52380952,,,41,0,41,0,1,,,,,,,,
,,"[""circle"",""red"",""vert"",""up"",[-150,0],[0,150]]",circle,red,vert,up,"[-150,0]","[0,150]",up,1,0.9474,,,,,,001,2025-03-10_17h02.04.066,SL_sali,2021.2.3,Win32,59.52380952,,,42,0,42,0,1,,,,,,,,
,,"[""circle"",""red"",""hori"",""left"",[-106,106],[-150,0]]",circle,red,hori,left,"[-106,106]","[-150,0]",left,1,0.8434,,,,,,001,2025-03-10_17h02.04.066,SL_sali,2021.2.3,Win32,59.52380952,,,43,0,43,0,1,,,,,,,,
,,"[""circle"",""no_dis"",""vert"",""up"",[99999,99999],[-106,-106]]",circle,no_dis,vert,up,"[99999,99999]","[-106,-106]",up,1,0.6986,,,,,,001,2025-03-10_17h02.04.066,SL_sali,2021.2.3,Win32,59.52380952,,,44,0,44,0,1,,,,,,,,
,,"[""circle"",""green"",""hori"",""left"",[106,-106],[-106,106]]",circle,green,hori,left,"[106,-106]","[-106,106]",left,1,0.9863,,,,,,001,2025-03-10_17h02.04.066,SL_sali,2021.2.3,Win32,59.52380952,,,45,0,45,0,1,,,,,,,,
,,"[""diamond"",""red"",""hori"",""left"",[106,-106],[-150,0]]",diamond,red,hori,left,"[106,-106]","[-150,0]",left,1,1.0379,,,,,,001,2025-03-10_17h02.04.066,SL_sali,2021.2.3,Win32,59.52380952,,,46,0,46,0,1,,,,,,,,
,,"[""diamond"",""no_dis"",""vert"",""up"",[99999,99999],[-150,0]]",diamond,no_dis,vert,up,"[99999,99999]","[-150,0]",up,1,0.9026,,,,,,001,2025-03-10_17h02.04.066,SL_sali,2021.2.3,Win32,59.52380952,,,47,0,47,0,1,,,,,,,,
,,"[""circle"",""no_dis"",""vert"",""up"",[99999,99999],[0,150]]",circle,no_dis,vert,up,"[99999,99999]","[0,150]",up,1,0.8651,,,,,,001,2025-03-10_17h02.04.066,SL_sali,2021.2.3,Win32,59.52380952,,,48,0,48,0,1,,,,,,,,
,,"[""diamond"",""red"",""hori"",""left"",[-106,106],[0,-150]]",diamond,red,hori,left,"[-106,106]","[0,-150]",left,1,0.9276,,,,,,001,2025-03-10_17h02.04.066,SL_sali,2021.2.3,Win32,59.52380952,,,49,0,49,0,1,,,,,,,,
,,"[""diamond"",""green"",""hori"",""left"",[-106,106],[106,-106]]",diamond,green,hori,left,"[-106,106]","[106,-106]",left,1,0.9847,,,,,,001,2025-03-10_17h02.04.066,SL_sali,2021.2.3,Win32,59.52380952,,,50,0,50,0,1,,,,,,,,
,,"[""diamond"",""green"",""vert"",""up"",[106,-106],[0,-150]]",diamond,green,vert,up,"[106,-106]","[0,-150]",up,1,1.2803,,,,,,001,2025-03-10_17h02.04.066,SL_sali,2021.2.3,Win32,59.52380952,,,51,0,51,0,1,,,,,,,,
,,"[""diamond"",""red"",""vert"",""up"",[-106,-106],[106,106]]",diamond,red,vert,up,"[-106,-106]","[106,106]",up,1,1.2527,,,,,,001,2025-03-10_17h02.04.066,SL_sali,2021.2.3,Win32,59.52380952,,,52,0,52,0,1,,,,,,,,
,,"[""diamond"",""red"",""vert"",""up"",[-106,106],[0,150]]",diamond,red,vert,up,"[-106,106]","[0,150]",up,1,0.809,,,,,,001,2025-03-10_17h02.04.066,SL_sali,2021.2.3,Win32,59.52380952,,,53,0,53,0,1,,,,,,,,
,,"[""diamond"",""no_dis"",""vert"",""up"",[99999,99999],[106,-106]]",diamond,no_dis,vert,up,"[99999,99999]","[106,-106]",up,1,0.8681,,,,,,001,2025-03-10_17h02.04.066,SL_sali,2021.2.3,Win32,59.52380952,,,54,0,54,0,1,,,,,,,,
,,"[""diamond"",""red"",""vert"",""up"",[150,0],[106,106]]",diamond,red,vert,up,"[150,0]","[106,106]",up,1,0.9972,,,,,,001,2025-03-10_17h02.04.066,SL_sali,2021.2.3,Win32,59.52380952,,,55,0,55,0,1,,,,,,,,
,,"[""circle"",""no_dis"",""hori"",""left"",[99999,99999],[0,-150]]",circle,no_dis,hori,left,"[99999,99999]","[0,-150]",left,1,0.8672,,,,,,001,2025-03-10_17h02.04.066,SL_sali,2021.2.3,Win32,59.52380952,,,56,0,56,0,1,,,,,,,,
,,"[""circle"",""no_dis"",""hori"",""left"",[99999,99999],[0,150]]",circle,no_dis,hori,left,"[99999,99999]","[0,150]",left,1,0.67,,,,,,001,2025-03-10_17h02.04.066,SL_sali,2021.2.3,Win32,59.52380952,,,57,0,57,0,1,,,,,,,,
,,"[""diamond"",""green"",""hori"",""left"",[-106,106],[106,106]]",diamond,green,hori,left,"[-106,106]","[106,106]",left,1,0.8852,,,,,,001,2025-03-10_17h02.04.066,SL_sali,2021.2.3,Win32,59.52380952,,,58,0,58,0,1,,,,,,,,
,,"[""diamond"",""green"",""hori"",""left"",[0,-150],[0,150]]",diamond,green,hori,left,"[0,-150]","[0,150]",left,1,0.9499,,,,,,001,2025-03-10_17h02.04.066,SL_sali,2021.2.3,Win32,59.52380952,,,59,0,59,0,1,,,,,,,,
,,"[""diamond"",""no_dis"",""vert"",""up"",[99999,99999],[-150,0]]",diamond,no_dis,vert,up,"[99999,99999]","[-150,0]",up,1,0.7645,,,,,,001,2025-03-10_17h02.04.066,SL_sali,2021.2.3,Win32,59.52380952,,,60,0,60,0,1,,,,,,,,
,,"[""diamond"",""no_dis"",""hori"",""left"",[99999,99999],[-150,0]]",diamond,no_dis,hori,left,"[99999,99999]","[-150,0]",left,1,0.7748,,,,,,001,2025-03-10_17h02.04.066,SL_sali,2021.2.3,Win32,59.52380952,,,61,0,61,0,1,,,,,,,,
,,"[""circle"",""green"",""hori"",""left"",[106,106],[0,150]]",circle,green,hori,left,"[106,106]","[0,150]",left,1,1.2138,,,,,,001,2025-03-10_17h02.04.066,SL_sali,2021.2.3,Win32,59.52380952,,,62,0,62,0,1,,,,,,,,
,,"[""diamond"",""green"",""vert"",""up"",[-106,106],[106,-106]]",diamond,green,vert,up,"[-106,106]","[106,-106]",up,1,1.0064,,,,,,001,2025-03-10_17h02.04.066,SL_sali,2021.2.3,Win32,59.52380952,,,63,0,63,0,1,,,,,,,,
,,"[""circle"",""red"",""vert"",""up"",[106,106],[150,0]]",circle,red,vert,up,"[106,106]","[150,0]",up,1,1.0681,,,,,,001,2025-03-10_17h02.04.066,SL_sali,2021.2.3,Win32,59.52380952,,,64,0,64,0,1,,,,,,,,
,,"[""circle"",""red"",""vert"",""up"",[-106,-106],[150,0]]",circle,red,vert,up,"[-106,-106]","[150,0]",up,1,1.1642,,,,,,001,2025-03-10_17h02.04.066,SL_sali,2021.2.3,Win32,59.52380952,,,65,0,65,0,1,,,,,,,,
,,"[""circle"",""no_dis"",""vert"",""up"",[99999,99999],[-150,0]]",circle,no_dis,vert,up,"[99999,99999]","[-150,0]",up,1,1.1488,,,,,,001,2025-03-10_17h02.04.066,SL_sali,2021.2.3,Win32,59.52380952,,,66,0,66,0,1,,,,,,,,
,,"[""diamond"",""no_dis"",""hori"",""left"",[99999,99999],[106,106]]",diamond,no_dis,hori,left,"[99999,99999]","[106,106]",left,1,1.8208,,,,,,001,2025-03-10_17h02.04.066,SL_sali,2021.2.3,Win32,59.52380952,,,67,0,67,0,1,,,,,,,,
,,"[""diamond"",""no_dis"",""vert"",""up"",[99999,99999],[-106,106]]",diamond,no_dis,vert,up,"[99999,99999]","[-106,106]",up,1,1.042,,,,,,001,2025-03-10_17h02.04.066,SL_sali,2021.2.3,Win32,59.52380952,,,68,0,68,0,1,,,,,,,,
,,"[""circle"",""green"",""hori"",""left"",[-106,106],[150,0]]",circle,green,hori,left,"[-106,106]","[150,0]",left,1,0.8815,,,,,,001,2025-03-10_17h02.04.066,SL_sali,2021.2.3,Win32,59.52380952,,,69,0,69,0,1,,,,,,,,
,,"[""diamond"",""no_dis"",""vert"",""up"",[99999,99999],[-150,0]]",diamond,no_dis,vert,up,"[99999,99999]","[-150,0]",up,1,0.8416,,,,,,001,2025-03-10_17h02.04.066,SL_sali,2021.2.3,Win32,59.52380952,,,70,0,70,0,1,,,,,,,,
,,"[""circle"",""no_dis"",""vert"",""up"",[99999,99999],[-106,-106]]",circle,no_dis,vert,up,"[99999,99999]","[-106,-106]",up,1,1.13,,,,,,001,2025-03-10_17h02.04.066,SL_sali,2021.2.3,Win32,59.52380952,,,71,0,71,0,1,,,,,,,,
,,"[""circle"",""no_dis"",""vert"",""up"",[99999,99999],[150,0]]",circle,no_dis,vert,up,"[99999,99999]","[150,0]",up,1,0.7713,,,,,,001,2025-03-10_17h02.04.066,SL_sali,2021.2.3,Win32,59.52380952,,,72,0,72,0,1,,,,,,,,
,,"[""circle"",""red"",""vert"",""up"",[106,-106],[0,-150]]",circle,red,vert,up,"[106,-106]","[0,-150]",left,0,0.7909,,,,,,001,2025-03-10_17h02.04.066,SL_sali,2021.2.3,Win32,59.52380952,,,73,0,73,0,1,,,,,,,,
,,"[""diamond"",""no_dis"",""hori"",""left"",[99999,99999],[0,-150]]",diamond,no_dis,hori,left,"[99999,99999]","[0,-150]",up,0,1.2025,,,,,,001,2025-03-10_17h02.04.066,SL_sali,2021.2.3,Win32,59.52380952,,,74,0,74,0,1,,,,,,,,
,,"[""diamond"",""green"",""vert"",""up"",[-106,106],[0,-150]]",diamond,green,vert,up,"[-106,106]","[0,-150]",up,1,1.2632,,,,,,001,2025-03-10_17h02.04.066,SL_sali,2021.2.3,Win32,59.52380952,,,75,0,75,0,1,,,,,,,,
,,"[""diamond"",""red"",""hori"",""left"",[0,-150],[-150,0]]",diamond,red,hori,left,"[0,-150]","[-150,0]",left,1,1.0583,,,,,,001,2025-03-10_17h02.04.066,SL_sali,2021.2.3,Win32,59.52380952,,,76,0,76,0,1,,,,,,,,
,,"[""diamond"",""red"",""vert"",""up"",[106,106],[150,0]]",diamond,red,vert,up,"[106,106]","[150,0]",up,1,0.9726,,,,,,001,2025-03-10_17h02.04.066,SL_sali,2021.2.3,Win32,59.52380952,,,77,0,77,0,1,,,,,,,,
,,"[""circle"",""red"",""hori"",""left"",[-150,0],[106,-106]]",circle,red,hori,left,"[-150,0]","[106,-106]",left,1,0.9196,,,,,,001,2025-03-10_17h02.04.066,SL_sali,2021.2.3,Win32,59.52380952,,,78,0,78,0,1,,,,,,,,
,,"[""diamond"",""no_dis"",""hori"",""left"",[99999,99999],[-106,-106]]",diamond,no_dis,hori,left,"[99999,99999]","[-106,-106]",left,1,0.8929,,,,,,001,2025-03-10_17h02.04.066,SL_sali,2021.2.3,Win32,59.52380952,,,79,0,79,0,1,,,,,,,,
,,"[""circle"",""green"",""vert"",""up"",[-106,106],[-106,-106]]",circle,green,vert,up,"[-106,106]","[-106,-106]",up,1,1.306,,,,,,001,2025-03-10_17h02.04.066,SL_sali,2021.2.3,Win32,59.52380952,,,80,0,80,0,1,,,,,,,,
,,"[""circle"",""red"",""hori"",""left"",[-106,-106],[0,-150]]",circle,red,hori,left,"[-106,-106]","[0,-150]",left,1,1.2902,,,,,,001,2025-03-10_17h02.04.066,SL_sali,2021.2.3,Win32,59.52380952,,,81,0,81,0,1,,,,,,,,
,,"[""diamond"",""green"",""hori"",""left"",[-150,0],[0,150]]",diamond,green,hori,left,"[-150,0]","[0,150]",left,1,1.1705,,,,,,001,2025-03-10_17h02.04.066,SL_sali,2021.2.3,Win32,59.52380952,,,82,0,82,0,1,,,,,,,,
,,"[""diamond"",""red"",""hori"",""left"",[106,-106],[0,150]]",diamond,red,hori,left,"[106,-106]","[0,150]",up,0,0.8176,,,,,,001,2025-03-10_17h02.04.066,SL_sali,2021.2.3,Win32,59.52380952,,,83,0,83,0,1,,,,,,,,
,,"[""circle"",""no_dis"",""hori"",""left"",[99999,99999],[106,-106]]",circle,no_dis,hori,left,"[99999,99999]","[106,-106]",left,1,1.1667,,,,,,001,2025-03-10_17h02.04.066,SL_sali,2021.2.3,Win32,59.52380952,,,84,0,84,0,1,,,,,,,,
,,"[""diamond"",""green"",""hori"",""left"",[106,106],[-150,0]]",diamond,green,hori,left,"[106,106]","[-150,0]",left,1,0.9734,,,,,,001,2025-03-10_17h02.04.066,SL_sali,2021.2.3,Win32,59.52380952,,,85,0,85,0,1,,,,,,,,
,,"[""circle"",""no_dis"",""vert"",""up"",[99999,99999],[-106,106]]",circle,no_dis,vert,up,"[99999,99999]","[-106,106]",up,1,0.7579,,,,,,001,2025-03-10_17h02.04.066,SL_sali,2021.2.3,Win32,59.52380952,,,86,0,86,0,1,,,,,,,,
,,"[""circle"",""green"",""hori"",""left"",[-106,106],[150,0]]",circle,green,hori,left,"[-106,106]","[150,0]",left,1,0.72,,,,,,001,2025-03-10_17h02.04.066,SL_sali,2021.2.3,Win32,59.52380952,,,87,0,87,0,1,,,,,,,,
,,"[""diamond"",""green"",""vert"",""up"",[106,-106],[106,106]]",diamond,green,vert,up,"[106,-106]","[106,106]",up,1,0.9925,,,,,,001,2025-03-10_17h02.04.066,SL_sali,2021.2.3,Win32,59.52380952,,,88,0,88,0,1,,,,,,,,
,,"[""diamond"",""red"",""vert"",""up"",[0,-150],[0,150]]",diamond,red,vert,up,"[0,-150]","[0,150]",up,1,0.9339,,,,,,001,2025-03-10_17h02.04.066,SL_sali,2021.2.3,Win32,59.52380952,,,89,0,89,0,1,,,,,,,,
,,"[""diamond"",""red"",""hori"",""left"",[0,-150],[-150,0]]",diamond,red,hori,left,"[0,-150]","[-150,0]",left,1,0.9565,,,,,,001,2025-03-10_17h02.04.066,SL_sali,2021.2.3,Win32,59.52380952,,,90,0,90,0,1,,,,,,,,
,,"[""circle"",""red"",""hori"",""left"",[-106,-106],[106,106]]",circle,red,hori,left,"[-106,-106]","[106,106]",left,1,0.8973,,,,,,001,2025-03-10_17h02.04.066,SL_sali,2021.2.3,Win32,59.52380952,,,91,0,91,0,1,,,,,,,,
,,"[""circle"",""red"",""vert"",""up"",[-150,0],[0,-150]]",circle,red,vert,up,"[-150,0]","[0,-150]",up,1,0.6904,,,,,,001,2025-03-10_17h02.04.066,SL_sali,2021.2.3,Win32,59.52380952,,,92,0,92,0,1,,,,,,,,
,,"[""diamond"",""green"",""hori"",""left"",[-106,-106],[0,-150]]",diamond,green,hori,left,"[-106,-106]","[0,-150]",left,1,1.1549,,,,,,001,2025-03-10_17h02.04.066,SL_sali,2021.2.3,Win32,59.52380952,,,93,0,93,0,1,,,,,,,,
,,"[""diamond"",""red"",""hori"",""left"",[-150,0],[0,-150]]",diamond,red,hori,left,"[-150,0]","[0,-150]",left,1,0.8463,,,,,,001,2025-03-10_17h02.04.066,SL_sali,2021.2.3,Win32,59.52380952,,,94,0,94,0,1,,,,,,,,
,,"[""diamond"",""no_dis"",""hori"",""left"",[99999,99999],[0,-150]]",diamond,no_dis,hori,left,"[99999,99999]","[0,-150]",left,1,0.7694,,,,,,001,2025-03-10_17h02.04.066,SL_sali,2021.2.3,Win32,59.52380952,,,95,0,95,0,1,,,,,,,,
,,"[""diamond"",""no_dis"",""hori"",""left"",[99999,99999],[-106,106]]",diamond,no_dis,hori,left,"[99999,99999]","[-106,106]",left,1,0.8132,,,,,,001,2025-03-10_17h02.04.066,SL_sali,2021.2.3,Win32,59.52380952,,,96,0,96,0,1,,,,,,,,
,,"[""circle"",""no_dis"",""hori"",""left"",[99999,99999],[106,106]]",circle,no_dis,hori,left,"[99999,99999]","[106,106]",left,1,1.0729,,,,,,001,2025-03-10_17h02.04.066,SL_sali,2021.2.3,Win32,59.52380952,,,97,0,97,0,1,,,,,,,,
,,"[""diamond"",""no_dis"",""vert"",""up"",[99999,99999],[-106,-106]]",diamond,no_dis,vert,up,"[99999,99999]","[-106,-106]",up,1,0.8221,,,,,,001,2025-03-10_17h02.04.066,SL_sali,2021.2.3,Win32,59.52380952,,,98,0,98,0,1,,,,,,,,
,,"[""circle"",""no_dis"",""vert"",""up"",[99999,99999],[106,-106]]",circle,no_dis,vert,up,"[99999,99999]","[106,-106]",left,0,1.0438,,,,,,001,2025-03-10_17h02.04.066,SL_sali,2021.2.3,Win32,59.52380952,,,99,0,99,0,1,,,,,,,,
,,"[""diamond"",""red"",""vert"",""up"",[-106,106],[106,106]]",diamond,red,vert,up,"[-106,106]","[106,106]",up,1,0.9887,,,,,,001,2025-03-10_17h02.04.066,SL_sali,2021.2.3,Win32,59.52380952,,,100,0,100,0,1,,,,,,,,
,,"[""circle"",""green"",""hori"",""left"",[-106,106],[150,0]]",circle,green,hori,left,"[-106,106]","[150,0]",left,1,1.3667,,,,,,001,2025-03-10_17h02.04.066,SL_sali,2021.2.3,Win32,59.52380952,,,101,0,101,0,1,,,,,,,,
,,"[""circle"",""red"",""vert"",""up"",[106,-106],[0,150]]",circle,red,vert,up,"[106,-106]","[0,150]",up,1,0.9581,,,,,,001,2025-03-10_17h02.04.066,SL_sali,2021.2.3,Win32,59.52380952,,,102,0,102,0,1,,,,,,,,
,,"[""circle"",""red"",""vert"",""up"",[150,0],[0,150]]",circle,red,vert,up,"[150,0]","[0,150]",up,1,1.005,,,,,,001,2025-03-10_17h02.04.066,SL_sali,2021.2.3,Win32,59.52380952,,,103,0,103,0,1,,,,,,,,
,,"[""circle"",""red"",""vert"",""up"",[-106,106],[-106,-106]]",circle,red,vert,up,"[-106,106]","[-106,-106]",up,1,1.0404,,,,,,001,2025-03-10_17h02.04.066,SL_sali,2021.2.3,Win32,59.52380952,,,104,0,104,0,1,,,,,,,,
,,"[""circle"",""no_dis"",""vert"",""up"",[99999,99999],[0,-150]]",circle,no_dis,vert,up,"[99999,99999]","[0,-150]",up,1,0.7977,,,,,,001,2025-03-10_17h02.04.066,SL_sali,2021.2.3,Win32,59.52380952,,,105,0,105,0,1,,,,,,,,
,,"[""circle"",""red"",""hori"",""left"",[106,106],[0,-150]]",circle,red,hori,left,"[106,106]","[0,-150]",left,1,1.357,,,,,,001,2025-03-10_17h02.04.066,SL_sali,2021.2.3,Win32,59.52380952,,,106,0,106,0,1,,,,,,,,
,,"[""diamond"",""green"",""vert"",""up"",[-150,0],[0,-150]]",diamond,green,vert,up,"[-150,0]","[0,-150]",up,1,1.5431,,,,,,001,2025-03-10_17h02.04.066,SL_sali,2021.2.3,Win32,59.52380952,,,107,0,107,0,1,,,,,,,,
,,"[""circle"",""green"",""vert"",""up"",[0,150],[-106,106]]",circle,green,vert,up,"[0,150]","[-106,106]",up,1,0.9555,,,,,,001,2025-03-10_17h02.04.066,SL_sali,2021.2.3,Win32,59.52380952,,,108,0,108,0,1,,,,,,,,
,,"[""diamond"",""red"",""vert"",""up"",[-106,106],[0,-150]]",diamond,red,vert,up,"[-106,106]","[0,-150]",up,1,0.9466,,,,,,001,2025-03-10_17h02.04.066,SL_sali,2021.2.3,Win32,59.52380952,,,109,0,109,0,1,,,,,,,,
,,"[""circle"",""no_dis"",""hori"",""left"",[99999,99999],[150,0]]",circle,no_dis,hori,left,"[99999,99999]","[150,0]",left,1,0.7704,,,,,,001,2025-03-10_17h02.04.066,SL_sali,2021.2.3,Win32,59.52380952,,,110,0,110,0,1,,,,,,,,
,,"[""diamond"",""green"",""hori"",""left"",[-150,0],[0,150]]",diamond,green,hori,left,"[-150,0]","[0,150]",left,1,0.9462,,,,,,001,2025-03-10_17h02.04.066,SL_sali,2021.2.3,Win32,59.52380952,,,111,0,111,0,1,,,,,,,,
,,"[""circle"",""green"",""hori"",""left"",[150,0],[-106,106]]",circle,green,hori,left,"[150,0]","[-106,106]",up,0,1.6277,,,,,,001,2025-03-10_17h02.04.066,SL_sali,2021.2.3,Win32,59.52380952,,,112,0,112,0,1,,,,,,,,
,,"[""circle"",""red"",""hori"",""left"",[-106,-106],[106,106]]",circle,red,hori,left,"[-106,-106]","[106,106]",left,1,0.8641,,,,,,001,2025-03-10_17h02.04.066,SL_sali,2021.2.3,Win32,59.52380952,,,113,0,113,0,1,,,,,,,,
,,"[""circle"",""green"",""vert"",""up"",[0,-150],[106,-106]]",circle,green,vert,up,"[0,-150]","[106,-106]",up,1,0.8225,,,,,,001,2025-03-10_17h02.04.066,SL_sali,2021.2.3,Win32,59.52380952,,,114,0,114,0,1,,,,,,,,
,,"[""circle"",""no_dis"",""hori"",""left"",[99999,99999],[106,106]]",circle,no_dis,hori,left,"[99999,99999]","[106,106]",left,1,0.8556,,,,,,001,2025-03-10_17h02.04.066,SL_sali,2021.2.3,Win32,59.52380952,,,115,0,115,0,1,,,,,,,,
,,"[""circle"",""green"",""vert"",""up"",[0,150],[0,-150]]",circle,green,vert,up,"[0,150]","[0,-150]",up,1,0.8108,,,,,,001,2025-03-10_17h02.04.066,SL_sali,2021.2.3,Win32,59.52380952,,,116,0,116,0,1,,,,,,,,
,,"[""circle"",""green"",""hori"",""left"",[0,150],[106,-106]]",circle,green,hori,left,"[0,150]","[106,-106]",left,1,0.6434,,,,,,001,2025-03-10_17h02.04.066,SL_sali,2021.2.3,Win32,59.52380952,,,117,0,117,0,1,,,,,,,,
,,"[""diamond"",""green"",""hori"",""left"",[0,-150],[106,-106]]",diamond,green,hori,left,"[0,-150]","[106,-106]",left,1,0.9461,,,,,,001,2025-03-10_17h02.04.066,SL_sali,2021.2.3,Win32,59.52380952,,,118,0,118,0,1,,,,,,,,
,,"[""diamond"",""red"",""hori"",""left"",[0,-150],[106,-106]]",diamond,red,hori,left,"[0,-150]","[106,-106]",left,1,0.5314,,,,,,001,2025-03-10_17h02.04.066,SL_sali,2021.2.3,Win32,59.52380952,,,119,0,119,0,1,,,,,,,,
,,,,,,,,,,,,,,,,,001,2025-03-10_17h02.04.066,SL_sali,2021.2.3,Win32,59.52380952,,,,,,,,2,space,1.7592,1,0,1,0,1
,,"[""diamond"",""green"",""hori"",""left"",[-150,0],[0,150]]",diamond,green,hori,left,"[-150,0]","[0,150]",left,1,1.2338,,,,,,001,2025-03-10_17h02.04.066,SL_sali,2021.2.3,Win32,59.52380952,,,0,0,0,0,1,,,,,,,,
,,"[""diamond"",""no_dis"",""vert"",""up"",[99999,99999],[0,-150]]",diamond,no_dis,vert,up,"[99999,99999]","[0,-150]",up,1,0.6039,,,,,,001,2025-03-10_17h02.04.066,SL_sali,2021.2.3,Win32,59.52380952,,,1,0,1,0,1,,,,,,,,
,,"[""diamond"",""green"",""vert"",""up"",[-106,106],[0,-150]]",diamond,green,vert,up,"[-106,106]","[0,-150]",up,1,0.5968,,,,,,001,2025-03-10_17h02.04.066,SL_sali,2021.2.3,Win32,59.52380952,,,2,0,2,0,1,,,,,,,,
,,"[""diamond"",""red"",""hori"",""left"",[106,-106],[-150,0]]",diamond,red,hori,left,"[106,-106]","[-150,0]",up,0,0.5706,,,,,,001,2025-03-10_17h02.04.066,SL_sali,2021.2.3,Win32,59.52380952,,,3,0,3,0,1,,,,,,,,
,,"[""diamond"",""green"",""hori"",""left"",[-106,-106],[0,-150]]",diamond,green,hori,left,"[-106,-106]","[0,-150]",left,1,1.1766,,,,,,001,2025-03-10_17h02.04.066,SL_sali,2021.2.3,Win32,59.52380952,,,4,0,4,0,1,,,,,,,,
,,"[""circle"",""red"",""vert"",""up"",[0,150],[-150,0]]",circle,red,vert,up,"[0,150]","[-150,0]",left,0,0.6676,,,,,,001,2025-03-10_17h02.04.066,SL_sali,2021.2.3,Win32,59.52380952,,,5,0,5,0,1,,,,,,,,
,,"[""diamond"",""red"",""vert"",""up"",[0,-150],[0,150]]",diamond,red,vert,up,"[0,-150]","[0,150]",up,1,0.859,,,,,,001,2025-03-10_17h02.04.066,SL_sali,2021.2.3,Win32,59.52380952,,,6,0,6,0,1,,,,,,,,
,,"[""diamond"",""no_dis"",""vert"",""up"",[99999,99999],[-106,-106]]",diamond,no_dis,vert,up,"[99999,99999]","[-106,-106]",up,1,0.8,,,,,,001,2025-03-10_17h02.04.066,SL_sali,2021.2.3,Win32,59.52380952,,,7,0,7,0,1,,,,,,,,
,,"[""circle"",""red"",""hori"",""left"",[106,106],[0,-150]]",circle,red,hori,left,"[106,106]","[0,-150]",left,1,1.1065,,,,,,001,2025-03-10_17h02.04.066,SL_sali,2021.2.3,Win32,59.52380952,,,8,0,8,0,1,,,,,,,,
,,"[""diamond"",""green"",""hori"",""left"",[-106,106],[106,106]]",diamond,green,hori,left,"[-106,106]","[106,106]",left,1,0.8992,,,,,,001,2025-03-10_17h02.04.066,SL_sali,2021.2.3,Win32,59.52380952,,,9,0,9,0,1,,,,,,,,
,,"[""diamond"",""green"",""vert"",""up"",[-106,106],[-106,-106]]",diamond,green,vert,up,"[-106,106]","[-106,-106]",up,1,0.8236,,,,,,001,2025-03-10_17h02.04.066,SL_sali,2021.2.3,Win32,59.52380952,,,10,0,10,0,1,,,,,,,,
,,"[""diamond"",""red"",""vert"",""up"",[-106,106],[106,-106]]",diamond,red,vert,up,"[-106,106]","[106,-106]",up,1,1.108,,,,,,001,2025-03-10_17h02.04.066,SL_sali,2021.2.3,Win32,59.52380952,,,11,0,11,0,1,,,,,,,,
,,"[""circle"",""red"",""vert"",""up"",[150,0],[0,150]]",circle,red,vert,up,"[150,0]","[0,150]",left,0,0.9311,,,,,,001,2025-03-10_17h02.04.066,SL_sali,2021.2.3,Win32,59.52380952,,,12,0,12,0,1,,,,,,,,
,,"[""diamond"",""red"",""hori"",""left"",[150,0],[0,-150]]",diamond,red,hori,left,"[150,0]","[0,-150]",left,1,1.3357,,,,,,001,2025-03-10_17h02.04.066,SL_sali,2021.2.3,Win32,59.52380952,,,13,0,13,0,1,,,,,,,,
,,"[""diamond"",""no_dis"",""vert"",""up"",[99999,99999],[-150,0]]",diamond,no_dis,vert,up,"[99999,99999]","[-150,0]",up,1,0.7805,,,,,,001,2025-03-10_17h02.04.066,SL_sali,2021.2.3,Win32,59.52380952,,,14,0,14,0,1,,,,,,,,
,,"[""circle"",""no_dis"",""vert"",""up"",[99999,99999],[-106,106]]",circle,no_dis,vert,up,"[99999,99999]","[-106,106]",up,1,1.5479,,,,,,001,2025-03-10_17h02.04.066,SL_sali,2021.2.3,Win32,59.52380952,,,15,0,15,0,1,,,,,,,,
,,"[""diamond"",""green"",""hori"",""left"",[106,106],[-150,0]]",diamond,green,hori,left,"[106,106]","[-150,0]",left,1,1.3021,,,,,,001,2025-03-10_17h02.04.066,SL_sali,2021.2.3,Win32,59.52380952,,,16,0,16,0,1,,,,,,,,
,,"[""diamond"",""red"",""hori"",""left"",[-150,0],[0,-150]]",diamond,red,hori,left,"[-150,0]","[0,-150]",left,1,1.5033,,,,,,001,2025-03-10_17h02.04.066,SL_sali,2021.2.3,Win32,59.52380952,,,17,0,17,0,1,,,,,,,,
,,"[""circle"",""green"",""hori"",""left"",[-106,106],[150,0]]",circle,green,hori,left,"[-106,106]","[150,0]",left,1,1.9637,,,,,,001,2025-03-10_17h02.04.066,SL_sali,2021.2.3,Win32,59.52380952,,,18,0,18,0,1,,,,,,,,
,,"[""diamond"",""green"",""hori"",""left"",[0,-150],[106,-106]]",diamond,green,hori,left,"[0,-150]","[106,-106]",left,1,1.4036,,,,,,001,2025-03-10_17h02.04.066,SL_sali,2021.2.3,Win32,59.52380952,,,19,0,19,0,1,,,,,,,,
,,"[""circle"",""green"",""vert"",""up"",[150,0],[0,-150]]",circle,green,vert,up,"[150,0]","[0,-150]",up,1,1.3589,,,,,,001,2025-03-10_17h02.04.066,SL_sali,2021.2.3,Win32,59.52380952,,,20,0,20,0,1,,,,,,,,
,,"[""circle"",""no_dis"",""vert"",""up"",[99999,99999],[-106,-106]]",circle,no_dis,vert,up,"[99999,99999]","[-106,-106]",up,1,0.9013,,,,,,001,2025-03-10_17h02.04.066,SL_sali,2021.2.3,Win32,59.52380952,,,21,0,21,0,1,,,,,,,,
,,"[""diamond"",""no_dis"",""hori"",""left"",[99999,99999],[-106,106]]",diamond,no_dis,hori,left,"[99999,99999]","[-106,106]",left,1,1.0096,,,,,,001,2025-03-10_17h02.04.066,SL_sali,2021.2.3,Win32,59.52380952,,,22,0,22,0,1,,,,,,,,
,,"[""circle"",""red"",""vert"",""up"",[106,106],[150,0]]",circle,red,vert,up,"[106,106]","[150,0]",up,1,1.0941,,,,,,001,2025-03-10_17h02.04.066,SL_sali,2021.2.3,Win32,59.52380952,,,23,0,23,0,1,,,,,,,,
,,"[""diamond"",""red"",""vert"",""up"",[-106,106],[0,-150]]",diamond,red,vert,up,"[-106,106]","[0,-150]",up,1,1.0044,,,,,,001,2025-03-10_17h02.04.066,SL_sali,2021.2.3,Win32,59.52380952,,,24,0,24,0,1,,,,,,,,
,,"[""circle"",""no_dis"",""vert"",""up"",[99999,99999],[-106,106]]",circle,no_dis,vert,up,"[99999,99999]","[-106,106]",up,1,0.8415,,,,,,001,2025-03-10_17h02.04.066,SL_sali,2021.2.3,Win32,59.52380952,,,25,0,25,0,1,,,,,,,,
,,"[""circle"",""red"",""vert"",""up"",[106,-106],[0,150]]",circle,red,vert,up,"[106,-106]","[0,150]",up,1,1.4144,,,,,,001,2025-03-10_17h02.04.066,SL_sali,2021.2.3,Win32,59.52380952,,,26,0,26,0,1,,,,,,,,
,,"[""diamond"",""red"",""hori"",""left"",[-106,106],[0,-150]]",diamond,red,hori,left,"[-106,106]","[0,-150]",left,1,1.2169,,,,,,001,2025-03-10_17h02.04.066,SL_sali,2021.2.3,Win32,59.52380952,,,27,0,27,0,1,,,,,,,,
,,"[""circle"",""no_dis"",""hori"",""left"",[99999,99999],[150,0]]",circle,no_dis,hori,left,"[99999,99999]","[150,0]",left,1,0.7307,,,,,,001,2025-03-10_17h02.04.066,SL_sali,2021.2.3,Win32,59.52380952,,,28,0,28,0,1,,,,,,,,
,,"[""circle"",""red"",""hori"",""left"",[0,-150],[106,-106]]",circle,red,hori,left,"[0,-150]","[106,-106]",left,1,0.9763,,,,,,001,2025-03-10_17h02.04.066,SL_sali,2021.2.3,Win32,59.52380952,,,29,0,29,0,1,,,,,,,,
,,"[""diamond"",""no_dis"",""vert"",""up"",[99999,99999],[106,-106]]",diamond,no_dis,vert,up,"[99999,99999]","[106,-106]",up,1,1.032,,,,,,001,2025-03-10_17h02.04.066,SL_sali,2021.2.3,Win32,59.52380952,,,30,0,30,0,1,,,,,,,,
,,"[""diamond"",""no_dis"",""vert"",""up"",[99999,99999],[106,106]]",diamond,no_dis,vert,up,"[99999,99999]","[106,106]",up,1,0.7352,,,,,,001,2025-03-10_17h02.04.066,SL_sali,2021.2.3,Win32,59.52380952,,,31,0,31,0,1,,,,,,,,
,,"[""circle"",""no_dis"",""vert"",""up"",[99999,99999],[-150,0]]",circle,no_dis,vert,up,"[99999,99999]","[-150,0]",up,1,0.9815,,,,,,001,2025-03-10_17h02.04.066,SL_sali,2021.2.3,Win32,59.52380952,,,32,0,32,0,1,,,,,,,,
,,"[""diamond"",""no_dis"",""vert"",""up"",[99999,99999],[106,-106]]",diamond,no_dis,vert,up,"[99999,99999]","[106,-106]",up,1,0.7371,,,,,,001,2025-03-10_17h02.04.066,SL_sali,2021.2.3,Win32,59.52380952,,,33,0,33,0,1,,,,,,,,
,,"[""diamond"",""no_dis"",""vert"",""up"",[99999,99999],[-150,0]]",diamond,no_dis,vert,up,"[99999,99999]","[-150,0]",up,1,0.7497,,,,,,001,2025-03-10_17h02.04.066,SL_sali,2021.2.3,Win32,59.52380952,,,34,0,34,0,1,,,,,,,,
,,"[""diamond"",""red"",""hori"",""left"",[106,-106],[0,150]]",diamond,red,hori,left,"[106,-106]","[0,150]",left,1,0.9676,,,,,,001,2025-03-10_17h02.04.066,SL_sali,2021.2.3,Win32,59.52380952,,,35,0,35,0,1,,,,,,,,
,,"[""circle"",""no_dis"",""hori"",""left"",[99999,99999],[106,106]]",circle,no_dis,hori,left,"[99999,99999]","[106,106]",left,1,0.6757,,,,,,001,2025-03-10_17h02.04.066,SL_sali,2021.2.3,Win32,59.52380952,,,36,0,36,0,1,,,,,,,,
,,"[""diamond"",""red"",""vert"",""up"",[-106,-106],[106,106]]",diamond,red,vert,up,"[-106,-106]","[106,106]",up,1,0.9327,,,,,,001,2025-03-10_17h02.04.066,SL_sali,2021.2.3,Win32,59.52380952,,,37,0,37,0,1,,,,,,,,
,,"[""circle"",""no_dis"",""vert"",""up"",[99999,99999],[106,106]]",circle,no_dis,vert,up,"[99999,99999]","[106,106]",up,1,0.5335,,,,,,001,2025-03-10_17h02.04.066,SL_sali,2021.2.3,Win32,59.52380952,,,38,0,38,0,1,,,,,,,,
,,"[""circle"",""no_dis"",""hori"",""left"",[99999,99999],[150,0]]",circle,no_dis,hori,left,"[99999,99999]","[150,0]",left,1,0.7388,,,,,,001,2025-03-10_17h02.04.066,SL_sali,2021.2.3,Win32,59.52380952,,,39,0,39,0,1,,,,,,,,
,,"[""diamond"",""red"",""vert"",""up"",[-106,106],[106,106]]",diamond,red,vert,up,"[-106,106]","[106,106]",up,1,1.1203,,,,,,001,2025-03-10_17h02.04.066,SL_sali,2021.2.3,Win32,59.52380952,,,40,0,40,0,1,,,,,,,,
,,"[""circle"",""green"",""vert"",""up"",[106,106],[-106,-106]]",circle,green,vert,up,"[106,106]","[-106,-106]",up,1,1.3955,,,,,,001,2025-03-10_17h02.04.066,SL_sali,2021.2.3,Win32,59.52380952,,,41,0,41,0,1,,,,,,,,
,,"[""diamond"",""red"",""vert"",""up"",[106,106],[150,0]]",diamond,red,vert,up,"[106,106]","[150,0]",up,1,0.7971,,,,,,001,2025-03-10_17h02.04.066,SL_sali,2021.2.3,Win32,59.52380952,,,42,0,42,0,1,,,,,,,,
,,"[""diamond"",""no_dis"",""vert"",""up"",[99999,99999],[-150,0]]",diamond,no_dis,vert,up,"[99999,99999]","[-150,0]",up,1,0.5899,,,,,,001,2025-03-10_17h02.04.066,SL_sali,2021.2.3,Win32,59.52380952,,,43,0,43,0,1,,,,,,,,
,,"[""circle"",""no_dis"",""vert"",""up"",[99999,99999],[0,-150]]",circle,no_dis,vert,up,"[99999,99999]","[0,-150]",up,1,0.624,,,,,,001,2025-03-10_17h02.04.066,SL_sali,2021.2.3,Win32,59.52380952,,,44,0,44,0,1,,,,,,,,
,,"[""circle"",""red"",""vert"",""up"",[0,150],[-106,-106]]",circle,red,vert,up,"[0,150]","[-106,-106]",up,1,1.0147,,,,,,001,2025-03-10_17h02.04.066,SL_sali,2021.2.3,Win32,59.52380952,,,45,0,45,0,1,,,,,,,,
,,"[""circle"",""red"",""hori"",""left"",[-106,-106],[106,106]]",circle,red,hori,left,"[-106,-106]","[106,106]",left,1,0.8338,,,,,,001,2025-03-10_17h02.04.066,SL_sali,2021.2.3,Win32,59.52380952,,,46,0,46,0,1,,,,,,,,
,,"[""diamond"",""no_dis"",""hori"",""left"",[99999,99999],[0,-150]]",diamond,no_dis,hori,left,"[99999,99999]","[0,-150]",left,1,0.6316,,,,,,001,2025-03-10_17h02.04.066,SL_sali,2021.2.3,Win32,59.52380952,,,47,0,47,0,1,,,,,,,,
,,"[""circle"",""no_dis"",""hori"",""left"",[99999,99999],[0,-150]]",circle,no_dis,hori,left,"[99999,99999]","[0,-150]",left,1,0.6423,,,,,,001,2025-03-10_17h02.04.066,SL_sali,2021.2.3,Win32,59.52380952,,,48,0,48,0,1,,,,,,,,
,,"[""diamond"",""no_dis"",""vert"",""up"",[99999,99999],[-106,106]]",diamond,no_dis,vert,up,"[99999,99999]","[-106,106]",up,1,0.9371,,,,,,001,2025-03-10_17h02.04.066,SL_sali,2021.2.3,Win32,59.52380952,,,49,0,49,0,1,,,,,,,,
,,"[""circle"",""green"",""vert"",""up"",[0,-150],[106,-106]]",circle,green,vert,up,"[0,-150]","[106,-106]",up,1,0.8142,,,,,,001,2025-03-10_17h02.04.066,SL_sali,2021.2.3,Win32,59.52380952,,,50,0,50,0,1,,,,,,,,
,,"[""diamond"",""red"",""vert"",""up"",[-106,106],[106,106]]",diamond,red,vert,up,"[-106,106]","[106,106]",up,1,1.2413,,,,,,001,2025-03-10_17h02.04.066,SL_sali,2021.2.3,Win32,59.52380952,,,51,0,51,0,1,,,,,,,,
,,"[""diamond"",""green"",""hori"",""left"",[-106,106],[106,-106]]",diamond,green,hori,left,"[-106,106]","[106,-106]",left,1,1.2652,,,,,,001,2025-03-10_17h02.04.066,SL_sali,2021.2.3,Win32,59.52380952,,,52,0,52,0,1,,,,,,,,
,,"[""circle"",""green"",""hori"",""left"",[-106,106],[-106,-106]]",circle,green,hori,left,"[-106,106]","[-106,-106]",left,1,1.157,,,,,,001,2025-03-10_17h02.04.066,SL_sali,2021.2.3,Win32,59.52380952,,,53,0,53,0,1,,,,,,,,
,,"[""diamond"",""red"",""vert"",""up"",[-106,106],[0,150]]",diamond,red,vert,up,"[-106,106]","[0,150]",up,1,0.9663,,,,,,001,2025-03-10_17h02.04.066,SL_sali,2021.2.3,Win32,59.52380952,,,54,0,54,0,1,,,,,,,,
,,"[""circle"",""green"",""vert"",""up"",[-106,106],[-106,-106]]",circle,green,vert,up,"[-106,106]","[-106,-106]",up,1,1.6746,,,,,,001,2025-03-10_17h02.04.066,SL_sali,2021.2.3,Win32,59.52380952,,,55,0,55,0,1,,,,,,,,
,,"[""diamond"",""green"",""hori"",""left"",[0,-150],[0,150]]",diamond,green,hori,left,"[0,-150]","[0,150]",left,1,1.0216,,,,,,001,2025-03-10_17h02.04.066,SL_sali,2021.2.3,Win32,59.52380952,,,56,0,56,0,1,,,,,,,,
,,"[""circle"",""red"",""hori"",""left"",[-106,106],[-150,0]]",circle,red,hori,left,"[-106,106]","[-150,0]",up,0,1.1683,,,,,,001,2025-03-10_17h02.04.066,SL_sali,2021.2.3,Win32,59.52380952,,,57,0,57,0,1,,,,,,,,
,,"[""circle"",""no_dis"",""vert"",""up"",[99999,99999],[-106,-106]]",circle,no_dis,vert,up,"[99999,99999]","[-106,-106]",up,1,0.749,,,,,,001,2025-03-10_17h02.04.066,SL_sali,2021.2.3,Win32,59.52380952,,,58,0,58,0,1,,,,,,,,
,,"[""circle"",""red"",""hori"",""left"",[-106,106],[106,-106]]",circle,red,hori,left,"[-106,106]","[106,-106]",left,1,0.6976,,,,,,001,2025-03-10_17h02.04.066,SL_sali,2021.2.3,Win32,59.52380952,,,59,0,59,0,1,,,,,,,,
,,"[""circle"",""green"",""vert"",""up"",[106,106],[0,150]]",circle,green,vert,up,"[106,106]","[0,150]",up,1,1.1217,,,,,,001,2025-03-10_17h02.04.066,SL_sali,2021.2.3,Win32,59.52380952,,,60,0,60,0,1,,,,,,,,
,,"[""circle"",""no_dis"",""vert"",""up"",[99999,99999],[106,-106]]",circle,no_dis,vert,up,"[99999,99999]","[106,-106]",up,1,0.6504,,,,,,001,2025-03-10_17h02.04.066,SL_sali,2021.2.3,Win32,59.52380952,,,61,0,61,0,1,,,,,,,,
,,"[""circle"",""red"",""hori"",""left"",[-106,-106],[106,-106]]",circle,red,hori,left,"[-106,-106]","[106,-106]",left,1,1.0869,,,,,,001,2025-03-10_17h02.04.066,SL_sali,2021.2.3,Win32,59.52380952,,,62,0,62,0,1,,,,,,,,
,,"[""diamond"",""green"",""hori"",""left"",[0,150],[-150,0]]",diamond,green,hori,left,"[0,150]","[-150,0]",left,1,1.2308,,,,,,001,2025-03-10_17h02.04.066,SL_sali,2021.2.3,Win32,59.52380952,,,63,0,63,0,1,,,,,,,,
,,"[""circle"",""green"",""vert"",""up"",[106,-106],[150,0]]",circle,green,vert,up,"[106,-106]","[150,0]",up,1,0.8407,,,,,,001,2025-03-10_17h02.04.066,SL_sali,2021.2.3,Win32,59.52380952,,,64,0,64,0,1,,,,,,,,
,,"[""circle"",""red"",""vert"",""up"",[-150,0],[0,-150]]",circle,red,vert,up,"[-150,0]","[0,-150]",up,1,0.6668,,,,,,001,2025-03-10_17h02.04.066,SL_sali,2021.2.3,Win32,59.52380952,,,65,0,65,0,1,,,,,,,,
,,"[""diamond"",""red"",""vert"",""up"",[-106,106],[106,106]]",diamond,red,vert,up,"[-106,106]","[106,106]",up,1,1.1882,,,,,,001,2025-03-10_17h02.04.066,SL_sali,2021.2.3,Win32,59.52380952,,,66,0,66,0,1,,,,,,,,
,,"[""diamond"",""green"",""vert"",""up"",[106,-106],[0,-150]]",diamond,green,vert,up,"[106,-106]","[0,-150]",up,1,0.9298,,,,,,001,2025-03-10_17h02.04.066,SL_sali,2021.2.3,Win32,59.52380952,,,67,0,67,0,1,,,,,,,,
,,"[""circle"",""green"",""vert"",""up"",[-106,106],[0,-150]]",circle,green,vert,up,"[-106,106]","[0,-150]",up,1,0.6333,,,,,,001,2025-03-10_17h02.04.066,SL_sali,2021.2.3,Win32,59.52380952,,,68,0,68,0,1,,,,,,,,
,,"[""circle"",""no_dis"",""hori"",""left"",[99999,99999],[0,150]]",circle,no_dis,hori,left,"[99999,99999]","[0,150]",up,0,0.6805,,,,,,001,2025-03-10_17h02.04.066,SL_sali,2021.2.3,Win32,59.52380952,,,69,0,69,0,1,,,,,,,,
,,"[""diamond"",""red"",""vert"",""up"",[150,0],[106,106]]",diamond,red,vert,up,"[150,0]","[106,106]",left,0,1.007,,,,,,001,2025-03-10_17h02.04.066,SL_sali,2021.2.3,Win32,59.52380952,,,70,0,70,0,1,,,,,,,,
,,"[""diamond"",""green"",""vert"",""up"",[106,106],[106,-106]]",diamond,green,vert,up,"[106,106]","[106,-106]",up,1,1.164,,,,,,001,2025-03-10_17h02.04.066,SL_sali,2021.2.3,Win32,59.52380952,,,71,0,71,0,1,,,,,,,,
,,"[""circle"",""no_dis"",""hori"",""left"",[99999,99999],[-106,-106]]",circle,no_dis,hori,left,"[99999,99999]","[-106,-106]",left,1,0.8523,,,,,,001,2025-03-10_17h02.04.066,SL_sali,2021.2.3,Win32,59.52380952,,,72,0,72,0,1,,,,,,,,
,,"[""circle"",""red"",""vert"",""up"",[106,-106],[0,-150]]",circle,red,vert,up,"[106,-106]","[0,-150]",up,1,1.3154,,,,,,001,2025-03-10_17h02.04.066,SL_sali,2021.2.3,Win32,59.52380952,,,73,0,73,0,1,,,,,,,,
,,"[""circle"",""green"",""hori"",""left"",[-106,106],[150,0]]",circle,green,hori,left,"[-106,106]","[150,0]",left,1,1.5473,,,,,,001,2025-03-10_17h02.04.066,SL_sali,2021.2.3,Win32,59.52380952,,,74,0,74,0,1,,,,,,,,
,,"[""circle"",""no_dis"",""hori"",""left"",[99999,99999],[106,106]]",circle,no_dis,hori,left,"[99999,99999]","[106,106]",left,1,1.3766,,,,,,001,2025-03-10_17h02.04.066,SL_sali,2021.2.3,Win32,59.52380952,,,75,0,75,0,1,,,,,,,,
,,"[""diamond"",""no_dis"",""hori"",""left"",[99999,99999],[150,0]]",diamond,no_dis,hori,left,"[99999,99999]","[150,0]",left,1,1.1214,,,,,,001,2025-03-10_17h02.04.066,SL_sali,2021.2.3,Win32,59.52380952,,,76,0,76,0,1,,,,,,,,
,,"[""circle"",""red"",""hori"",""left"",[-150,0],[106,-106]]",circle,red,hori,left,"[-150,0]","[106,-106]",left,1,0.8925,,,,,,001,2025-03-10_17h02.04.066,SL_sali,2021.2.3,Win32,59.52380952,,,77,0,77,0,1,,,,,,,,
,,"[""diamond"",""no_dis"",""hori"",""left"",[99999,99999],[0,150]]",diamond,no_dis,hori,left,"[99999,99999]","[0,150]",left,1,1.2308,,,,,,001,2025-03-10_17h02.04.066,SL_sali,2021.2.3,Win32,59.52380952,,,78,0,78,0,1,,,,,,,,
,,"[""circle"",""no_dis"",""vert"",""up"",[99999,99999],[0,150]]",circle,no_dis,vert,up,"[99999,99999]","[0,150]",up,1,1.471,,,,,,001,2025-03-10_17h02.04.066,SL_sali,2021.2.3,Win32,59.52380952,,,79,0,79,0,1,,,,,,,,
,,"[""circle"",""green"",""hori"",""left"",[0,150],[106,-106]]",circle,green,hori,left,"[0,150]","[106,-106]",left,1,1.076,,,,,,001,2025-03-10_17h02.04.066,SL_sali,2021.2.3,Win32,59.52380952,,,80,0,80,0,1,,,,,,,,
,,"[""circle"",""green"",""vert"",""up"",[0,150],[-106,106]]",circle,green,vert,up,"[0,150]","[-106,106]",up,1,0.8584,,,,,,001,2025-03-10_17h02.04.066,SL_sali,2021.2.3,Win32,59.52380952,,,81,0,81,0,1,,,,,,,,
,,"[""diamond"",""green"",""vert"",""up"",[-150,0],[0,-150]]",diamond,green,vert,up,"[-150,0]","[0,-150]",up,1,0.7185,,,,,,001,2025-03-10_17h02.04.066,SL_sali,2021.2.3,Win32,59.52380952,,,82,0,82,0,1,,,,,,,,
,,"[""diamond"",""no_dis"",""hori"",""left"",[99999,99999],[-106,106]]",diamond,no_dis,hori,left,"[99999,99999]","[-106,106]",left,1,0.8828,,,,,,001,2025-03-10_17h02.04.066,SL_sali,2021.2.3,Win32,59.52380952,,,83,0,83,0,1,,,,,,,,
,,"[""diamond"",""red"",""hori"",""left"",[150,0],[0,150]]",diamond,red,hori,left,"[150,0]","[0,150]",left,1,0.5578,,,,,,001,2025-03-10_17h02.04.066,SL_sali,2021.2.3,Win32,59.52380952,,,84,0,84,0,1,,,,,,,,
,,"[""circle"",""green"",""hori"",""left"",[0,150],[150,0]]",circle,green,hori,left,"[0,150]","[150,0]",left,1,0.8996,,,,,,001,2025-03-10_17h02.04.066,SL_sali,2021.2.3,Win32,59.52380952,,,85,0,85,0,1,,,,,,,,
,,"[""circle"",""green"",""hori"",""left"",[106,106],[0,150]]",circle,green,hori,left,"[106,106]","[0,150]",left,1,0.8457,,,,,,001,2025-03-10_17h02.04.066,SL_sali,2021.2.3,Win32,59.52380952,,,86,0,86,0,1,,,,,,,,
,,"[""diamond"",""no_dis"",""hori"",""left"",[99999,99999],[106,106]]",diamond,no_dis,hori,left,"[99999,99999]","[106,106]",left,1,1.6456,,,,,,001,2025-03-10_17h02.04.066,SL_sali,2021.2.3,Win32,59.52380952,,,87,0,87,0,1,,,,,,,,
,,"[""circle"",""no_dis"",""hori"",""left"",[99999,99999],[106,-106]]",circle,no_dis,hori,left,"[99999,99999]","[106,-106]",left,1,0.8152,,,,,,001,2025-03-10_17h02.04.066,SL_sali,2021.2.3,Win32,59.52380952,,,88,0,88,0,1,,,,,,,,
,,"[""diamond"",""red"",""hori"",""left"",[-106,106],[0,-150]]",diamond,red,hori,left,"[-106,106]","[0,-150]",up,0,0.8871,,,,,,001,2025-03-10_17h02.04.066,SL_sali,2021.2.3,Win32,59.52380952,,,89,0,89,0,1,,,,,,,,
,,"[""diamond"",""no_dis"",""hori"",""left"",[99999,99999],[-150,0]]",diamond,no_dis,hori,left,"[99999,99999]","[-150,0]",left,1,1.2662,,,,,,001,2025-03-10_17h02.04.066,SL_sali,2021.2.3,Win32,59.52380952,,,90,0,90,0,1,,,,,,,,
,,"[""diamond"",""green"",""hori"",""left"",[-150,0],[0,150]]",diamond,green,hori,left,"[-150,0]","[0,150]",left,1,1.2977,,,,,,001,2025-03-10_17h02.04.066,SL_sali,2021.2.3,Win32,59.52380952,,,91,0,91,0,1,,,,,,,,
,,"[""circle"",""green"",""vert"",""up"",[-106,106],[106,-106]]",circle,green,vert,up,"[-106,106]","[106,-106]",up,1,0.766,,,,,,001,2025-03-10_17h02.04.066,SL_sali,2021.2.3,Win32,59.52380952,,,92,0,92,0,1,,,,,,,,
,,"[""circle"",""green"",""hori"",""left"",[106,-106],[-106,106]]",circle,green,hori,left,"[106,-106]","[-106,106]",left,1,1.0335,,,,,,001,2025-03-10_17h02.04.066,SL_sali,2021.2.3,Win32,59.52380952,,,93,0,93,0,1,,,,,,,,
,,"[""diamond"",""green"",""vert"",""up"",[150,0],[-106,-106]]",diamond,green,vert,up,"[150,0]","[-106,-106]",left,0,1.314,,,,,,001,2025-03-10_17h02.04.066,SL_sali,2021.2.3,Win32,59.52380952,,,94,0,94,0,1,,,,,,,,
,,"[""circle"",""no_dis"",""hori"",""left"",[99999,99999],[0,150]]",circle,no_dis,hori,left,"[99999,99999]","[0,150]",left,1,1.4169,,,,,,001,2025-03-10_17h02.04.066,SL_sali,2021.2.3,Win32,59.52380952,,,95,0,95,0,1,,,,,,,,
,,"[""diamond"",""no_dis"",""hori"",""left"",[99999,99999],[-106,-106]]",diamond,no_dis,hori,left,"[99999,99999]","[-106,-106]",left,1,1.0124,,,,,,001,2025-03-10_17h02.04.066,SL_sali,2021.2.3,Win32,59.52380952,,,96,0,96,0,1,,,,,,,,
,,"[""circle"",""red"",""vert"",""up"",[-106,106],[-106,-106]]",circle,red,vert,up,"[-106,106]","[-106,-106]",up,1,1.2229,,,,,,001,2025-03-10_17h02.04.066,SL_sali,2021.2.3,Win32,59.52380952,,,97,0,97,0,1,,,,,,,,
,,"[""circle"",""green"",""hori"",""left"",[0,150],[106,-106]]",circle,green,hori,left,"[0,150]","[106,-106]",left,1,0.8396,,,,,,001,2025-03-10_17h02.04.066,SL_sali,2021.2.3,Win32,59.52380952,,,98,0,98,0,1,,,,,,,,
,,"[""diamond"",""no_dis"",""hori"",""left"",[99999,99999],[0,-150]]",diamond,no_dis,hori,left,"[99999,99999]","[0,-150]",left,1,1.1479,,,,,,001,2025-03-10_17h02.04.066,SL_sali,2021.2.3,Win32,59.52380952,,,99,0,99,0,1,,,,,,,,
,,"[""circle"",""red"",""hori"",""left"",[-106,-106],[106,106]]",circle,red,hori,left,"[-106,-106]","[106,106]",left,1,0.9685,,,,,,001,2025-03-10_17h02.04.066,SL_sali,2021.2.3,Win32,59.52380952,,,100,0,100,0,1,,,,,,,,
,,"[""diamond"",""red"",""hori"",""left"",[0,-150],[106,-106]]",diamond,red,hori,left,"[0,-150]","[106,-106]",up,0,1.4731,,,,,,001,2025-03-10_17h02.04.066,SL_sali,2021.2.3,Win32,59.52380952,,,101,0,101,0,1,,,,,,,,
,,"[""diamond"",""green"",""vert"",""up"",[106,-106],[106,106]]",diamond,green,vert,up,"[106,-106]","[106,106]",up,1,0.9625,,,,,,001,2025-03-10_17h02.04.066,SL_sali,2021.2.3,Win32,59.52380952,,,102,0,102,0,1,,,,,,,,
,,"[""circle"",""green"",""vert"",""up"",[0,150],[0,-150]]",circle,green,vert,up,"[0,150]","[0,-150]",up,1,0.9459,,,,,,001,2025-03-10_17h02.04.066,SL_sali,2021.2.3,Win32,59.52380952,,,103,0,103,0,1,,,,,,,,
,,"[""diamond"",""green"",""hori"",""left"",[150,0],[106,-106]]",diamond,green,hori,left,"[150,0]","[106,-106]",left,1,1.1675,,,,,,001,2025-03-10_17h02.04.066,SL_sali,2021.2.3,Win32,59.52380952,,,104,0,104,0,1,,,,,,,,
,,"[""diamond"",""no_dis"",""vert"",""up"",[99999,99999],[0,150]]",diamond,no_dis,vert,up,"[99999,99999]","[0,150]",up,1,0.9095,,,,,,001,2025-03-10_17h02.04.066,SL_sali,2021.2.3,Win32,59.52380952,,,105,0,105,0,1,,,,,,,,
,,"[""circle"",""red"",""vert"",""up"",[-150,0],[0,150]]",circle,red,vert,up,"[-150,0]","[0,150]",up,1,0.9775,,,,,,001,2025-03-10_17h02.04.066,SL_sali,2021.2.3,Win32,59.52380952,,,106,0,106,0,1,,,,,,,,
,,"[""diamond"",""red"",""hori"",""left"",[0,-150],[-150,0]]",diamond,red,hori,left,"[0,-150]","[-150,0]",left,1,1.1901,,,,,,001,2025-03-10_17h02.04.066,SL_sali,2021.2.3,Win32,59.52380952,,,107,0,107,0,1,,,,,,,,
,,"[""diamond"",""no_dis"",""hori"",""left"",[99999,99999],[150,0]]",diamond,no_dis,hori,left,"[99999,99999]","[150,0]",left,1,0.9651,,,,,,001,2025-03-10_17h02.04.066,SL_sali,2021.2.3,Win32,59.52380952,,,108,0,108,0,1,,,,,,,,
,,"[""diamond"",""red"",""hori"",""left"",[0,-150],[-150,0]]",diamond,red,hori,left,"[0,-150]","[-150,0]",left,1,0.7764,,,,,,001,2025-03-10_17h02.04.066,SL_sali,2021.2.3,Win32,59.52380952,,,109,0,109,0,1,,,,,,,,
,,"[""diamond"",""green"",""vert"",""up"",[-106,106],[-150,0]]",diamond,green,vert,up,"[-106,106]","[-150,0]",up,1,0.9001,,,,,,001,2025-03-10_17h02.04.066,SL_sali,2021.2.3,Win32,59.52380952,,,110,0,110,0,1,,,,,,,,
,,"[""diamond"",""green"",""vert"",""up"",[-106,106],[106,-106]]",diamond,green,vert,up,"[-106,106]","[106,-106]",up,1,0.6558,,,,,,001,2025-03-10_17h02.04.066,SL_sali,2021.2.3,Win32,59.52380952,,,111,0,111,0,1,,,,,,,,
,,"[""circle"",""red"",""hori"",""left"",[-106,-106],[0,-150]]",circle,red,hori,left,"[-106,-106]","[0,-150]",left,1,0.9383,,,,,,001,2025-03-10_17h02.04.066,SL_sali,2021.2.3,Win32,59.52380952,,,112,0,112,0,1,,,,,,,,
,,"[""circle"",""no_dis"",""hori"",""left"",[99999,99999],[106,-106]]",circle,no_dis,hori,left,"[99999,99999]","[106,-106]",left,1,0.6262,,,,,,001,2025-03-10_17h02.04.066,SL_sali,2021.2.3,Win32,59.52380952,,,113,0,113,0,1,,,,,,,,
,,"[""circle"",""green"",""hori"",""left"",[-106,106],[150,0]]",circle,green,hori,left,"[-106,106]","[150,0]",left,1,0.5978,,,,,,001,2025-03-10_17h02.04.066,SL_sali,2021.2.3,Win32,59.52380952,,,114,0,114,0,1,,,,,,,,
,,"[""circle"",""no_dis"",""vert"",""up"",[99999,99999],[150,0]]",circle,no_dis,vert,up,"[99999,99999]","[150,0]",up,1,0.7662,,,,,,001,2025-03-10_17h02.04.066,SL_sali,2021.2.3,Win32,59.52380952,,,115,0,115,0,1,,,,,,,,
,,"[""circle"",""red"",""hori"",""left"",[-106,-106],[-150,0]]",circle,red,hori,left,"[-106,-106]","[-150,0]",left,1,0.8837,,,,,,001,2025-03-10_17h02.04.066,SL_sali,2021.2.3,Win32,59.52380952,,,116,0,116,0,1,,,,,,,,
,,"[""diamond"",""green"",""vert"",""up"",[-150,0],[0,-150]]",diamond,green,vert,up,"[-150,0]","[0,-150]",up,1,1.3029,,,,,,001,2025-03-10_17h02.04.066,SL_sali,2021.2.3,Win32,59.52380952,,,117,0,117,0,1,,,,,,,,
,,"[""circle"",""green"",""hori"",""left"",[150,0],[-106,106]]",circle,green,hori,left,"[150,0]","[-106,106]",left,1,1.351,,,,,,001,2025-03-10_17h02.04.066,SL_sali,2021.2.3,Win32,59.52380952,,,118,0,118,0,1,,,,,,,,
,,"[""circle"",""red"",""vert"",""up"",[-106,-106],[150,0]]",circle,red,vert,up,"[-106,-106]","[150,0]",up,1,0.9941,,,,,,001,2025-03-10_17h02.04.066,SL_sali,2021.2.3,Win32,59.52380952,,,119,0,119,0,1,,,,,,,,
,,,,,,,,,,,,,,,,,001,2025-03-10_17h02.04.066,SL_sali,2021.2.3,Win32,59.52380952,,,,,,,,3,space,3.4771,2,0,2,0,1
,,"[""circle"",""red"",""vert"",""up"",[0,150],[-150,0]]",circle,red,vert,up,"[0,150]","[-150,0]",up,1,1.2284,,,,,,001,2025-03-10_17h02.04.066,SL_sali,2021.2.3,Win32,59.52380952,,,0,0,0,0,1,,,,,,,,
,,"[""circle"",""red"",""vert"",""up"",[106,106],[150,0]]",circle,red,vert,up,"[106,106]","[150,0]",up,1,0.8138,,,,,,001,2025-03-10_17h02.04.066,SL_sali,2021.2.3,Win32,59.52380952,,,1,0,1,0,1,,,,,,,,
,,"[""circle"",""red"",""hori"",""left"",[-106,-106],[106,106]]",circle,red,hori,left,"[-106,-106]","[106,106]",left,1,0.7471,,,,,,001,2025-03-10_17h02.04.066,SL_sali,2021.2.3,Win32,59.52380952,,,2,0,2,0,1,,,,,,,,
,,"[""circle"",""green"",""hori"",""left"",[150,0],[-106,106]]",circle,green,hori,left,"[150,0]","[-106,106]",left,1,0.7528,,,,,,001,2025-03-10_17h02.04.066,SL_sali,2021.2.3,Win32,59.52380952,,,3,0,3,0,1,,,,,,,,
,,"[""diamond"",""no_dis"",""vert"",""up"",[99999,99999],[0,150]]",diamond,no_dis,vert,up,"[99999,99999]","[0,150]",up,1,1.776,,,,,,001,2025-03-10_17h02.04.066,SL_sali,2021.2.3,Win32,59.52380952,,,4,0,4,0,1,,,,,,,,
,,"[""circle"",""no_dis"",""vert"",""up"",[99999,99999],[-150,0]]",circle,no_dis,vert,up,"[99999,99999]","[-150,0]",up,1,1.0889,,,,,,001,2025-03-10_17h02.04.066,SL_sali,2021.2.3,Win32,59.52380952,,,5,0,5,0,1,,,,,,,,
,,"[""circle"",""red"",""vert"",""up"",[150,0],[0,150]]",circle,red,vert,up,"[150,0]","[0,150]",up,1,1.8163,,,,,,001,2025-03-10_17h02.04.066,SL_sali,2021.2.3,Win32,59.52380952,,,6,0,6,0,1,,,,,,,,
,,"[""circle"",""no_dis"",""hori"",""left"",[99999,99999],[106,106]]",circle,no_dis,hori,left,"[99999,99999]","[106,106]",left,1,0.6867,,,,,,001,2025-03-10_17h02.04.066,SL_sali,2021.2.3,Win32,59.52380952,,,7,0,7,0,1,,,,,,,,
,,"[""diamond"",""red"",""hori"",""left"",[0,-150],[-150,0]]",diamond,red,hori,left,"[0,-150]","[-150,0]",left,1,1.2647,,,,,,001,2025-03-10_17h02.04.066,SL_sali,2021.2.3,Win32,59.52380952,,,8,0,8,0,1,,,,,,,,
,,"[""diamond"",""green"",""vert"",""up"",[106,106],[106,-106]]",diamond,green,vert,up,"[106,106]","[106,-106]",up,1,1.1199,,,,,,001,2025-03-10_17h02.04.066,SL_sali,2021.2.3,Win32,59.52380952,,,9,0,9,0,1,,,,,,,,
,,"[""diamond"",""red"",""hori"",""left"",[106,-106],[0,150]]",diamond,red,hori,left,"[106,-106]","[0,150]",left,1,0.9562,,,,,,001,2025-03-10_17h02.04.066,SL_sali,2021.2.3,Win32,59.52380952,,,10,0,10,0,1,,,,,,,,
,,"[""circle"",""green"",""hori"",""left"",[-106,106],[150,0]]",circle,green,hori,left,"[-106,106]","[150,0]",left,1,0.6302,,,,,,001,2025-03-10_17h02.04.066,SL_sali,2021.2.3,Win32,59.52380952,,,11,0,11,0,1,,,,,,,,
,,"[""circle"",""red"",""vert"",""up"",[-150,0],[0,-150]]",circle,red,vert,up,"[-150,0]","[0,-150]",up,1,0.9807,,,,,,001,2025-03-10_17h02.04.066,SL_sali,2021.2.3,Win32,59.52380952,,,12,0,12,0,1,,,,,,,,
,,"[""circle"",""no_dis"",""vert"",""up"",[99999,99999],[150,0]]",circle,no_dis,vert,up,"[99999,99999]","[150,0]",up,1,0.6007,,,,,,001,2025-03-10_17h02.04.066,SL_sali,2021.2.3,Win32,59.52380952,,,13,0,13,0,1,,,,,,,,
,,"[""circle"",""green"",""hori"",""left"",[-106,106],[150,0]]",circle,green,hori,left,"[-106,106]","[150,0]",left,1,0.8236,,,,,,001,2025-03-10_17h02.04.066,SL_sali,2021.2.3,Win32,59.52380952,,,14,0,14,0,1,,,,,,,,
,,"[""diamond"",""green"",""hori"",""left"",[0,-150],[106,-106]]",diamond,green,hori,left,"[0,-150]","[106,-106]",up,0,1.4071,,,,,,001,2025-03-10_17h02.04.066,SL_sali,2021.2.3,Win32,59.52380952,,,15,0,15,0,1,,,,,,,,
,,"[""circle"",""red"",""hori"",""left"",[0,-150],[106,-106]]",circle,red,hori,left,"[0,-150]","[106,-106]",left,1,1.7374,,,,,,001,2025-03-10_17h02.04.066,SL_sali,2021.2.3,Win32,59.52380952,,,16,0,16,0,1,,,,,,,,
,,"[""diamond"",""red"",""vert"",""up"",[150,0],[106,106]]",diamond,red,vert,up,"[150,0]","[106,106]",up,1,1.1041,,,,,,001,2025-03-10_17h02.04.066,SL_sali,2021.2.3,Win32,59.52380952,,,17,0,17,0,1,,,,,,,,
,,"[""circle"",""green"",""hori"",""left"",[0,150],[106,-106]]",circle,green,hori,left,"[0,150]","[106,-106]",left,1,0.834,,,,,,001,2025-03-10_17h02.04.066,SL_sali,2021.2.3,Win32,59.52380952,,,18,0,18,0,1,,,,,,,,
,,"[""diamond"",""no_dis"",""hori"",""left"",[99999,99999],[0,150]]",diamond,no_dis,hori,left,"[99999,99999]","[0,150]",left,1,1.1742,,,,,,001,2025-03-10_17h02.04.066,SL_sali,2021.2.3,Win32,59.52380952,,,19,0,19,0,1,,,,,,,,
,,"[""diamond"",""red"",""vert"",""up"",[-106,106],[106,-106]]",diamond,red,vert,up,"[-106,106]","[106,-106]",up,1,1.2776,,,,,,001,2025-03-10_17h02.04.066,SL_sali,2021.2.3,Win32,59.52380952,,,20,0,20,0,1,,,,,,,,
,,"[""diamond"",""no_dis"",""hori"",""left"",[99999,99999],[-106,106]]",diamond,no_dis,hori,left,"[99999,99999]","[-106,106]",left,1,0.8858,,,,,,001,2025-03-10_17h02.04.066,SL_sali,2021.2.3,Win32,59.52380952,,,21,0,21,0,1,,,,,,,,
,,"[""diamond"",""red"",""vert"",""up"",[-106,106],[0,-150]]",diamond,red,vert,up,"[-106,106]","[0,-150]",up,1,0.8868,,,,,,001,2025-03-10_17h02.04.066,SL_sali,2021.2.3,Win32,59.52380952,,,22,0,22,0,1,,,,,,,,
,,"[""circle"",""no_dis"",""hori"",""left"",[99999,99999],[-106,-106]]",circle,no_dis,hori,left,"[99999,99999]","[-106,-106]",left,1,0.7873,,,,,,001,2025-03-10_17h02.04.066,SL_sali,2021.2.3,Win32,59.52380952,,,23,0,23,0,1,,,,,,,,
,,"[""diamond"",""no_dis"",""vert"",""up"",[99999,99999],[-106,-106]]",diamond,no_dis,vert,up,"[99999,99999]","[-106,-106]",up,1,0.7548,,,,,,001,2025-03-10_17h02.04.066,SL_sali,2021.2.3,Win32,59.52380952,,,24,0,24,0,1,,,,,,,,
,,"[""circle"",""no_dis"",""hori"",""left"",[99999,99999],[0,150]]",circle,no_dis,hori,left,"[99999,99999]","[0,150]",left,1,0.664,,,,,,001,2025-03-10_17h02.04.066,SL_sali,2021.2.3,Win32,59.52380952,,,25,0,25,0,1,,,,,,,,
,,"[""diamond"",""red"",""hori"",""left"",[150,0],[0,-150]]",diamond,red,hori,left,"[150,0]","[0,-150]",up,0,1.1206,,,,,,001,2025-03-10_17h02.04.066,SL_sali,2021.2.3,Win32,59.52380952,,,26,0,26,0,1,,,,,,,,
,,"[""circle"",""green"",""hori"",""left"",[-106,106],[-106,-106]]",circle,green,hori,left,"[-106,106]","[-106,-106]",left,1,0.8044,,,,,,001,2025-03-10_17h02.04.066,SL_sali,2021.2.3,Win32,59.52380952,,,27,0,27,0,1,,,,,,,,
,,"[""diamond"",""green"",""hori"",""left"",[-150,0],[0,150]]",diamond,green,hori,left,"[-150,0]","[0,150]",left,1,0.7524,,,,,,001,2025-03-10_17h02.04.066,SL_sali,2021.2.3,Win32,59.52380952,,,28,0,28,0,1,,,,,,,,
,,"[""diamond"",""no_dis"",""hori"",""left"",[99999,99999],[0,-150]]",diamond,no_dis,hori,left,"[99999,99999]","[0,-150]",left,1,0.8305,,,,,,001,2025-03-10_17h02.04.066,SL_sali,2021.2.3,Win32,59.52380952,,,29,0,29,0,1,,,,,,,,
,,"[""circle"",""red"",""hori"",""left"",[-106,106],[106,-106]]",circle,red,hori,left,"[-106,106]","[106,-106]",left,1,0.5693,,,,,,001,2025-03-10_17h02.04.066,SL_sali,2021.2.3,Win32,59.52380952,,,30,0,30,0,1,,,,,,,,
,,"[""diamond"",""green"",""vert"",""up"",[-106,106],[106,-106]]",diamond,green,vert,up,"[-106,106]","[106,-106]",up,1,1.0158,,,,,,001,2025-03-10_17h02.04.066,SL_sali,2021.2.3,Win32,59.52380952,,,31,0,31,0,1,,,,,,,,
,,"[""diamond"",""red"",""hori"",""left"",[-106,106],[0,-150]]",diamond,red,hori,left,"[-106,106]","[0,-150]",left,1,1.4882,,,,,,001,2025-03-10_17h02.04.066,SL_sali,2021.2.3,Win32,59.52380952,,,32,0,32,0,1,,,,,,,,
,,"[""diamond"",""green"",""hori"",""left"",[0,150],[-150,0]]",diamond,green,hori,left,"[0,150]","[-150,0]",left,1,0.9005,,,,,,001,2025-03-10_17h02.04.066,SL_sali,2021.2.3,Win32,59.52380952,,,33,0,33,0,1,,,,,,,,
,,"[""circle"",""red"",""vert"",""up"",[-106,106],[-106,-106]]",circle,red,vert,up,"[-106,106]","[-106,-106]",up,1,1.2226,,,,,,001,2025-03-10_17h02.04.066,SL_sali,2021.2.3,Win32,59.52380952,,,34,0,34,0,1,,,,,,,,
,,"[""diamond"",""no_dis"",""vert"",""up"",[99999,99999],[-150,0]]",diamond,no_dis,vert,up,"[99999,99999]","[-150,0]",up,1,0.6635,,,,,,001,2025-03-10_17h02.04.066,SL_sali,2021.2.3,Win32,59.52380952,,,35,0,35,0,1,,,,,,,,
,,"[""diamond"",""no_dis"",""hori"",""left"",[99999,99999],[150,0]]",diamond,no_dis,hori,left,"[99999,99999]","[150,0]",left,1,0.6704,,,,,,001,2025-03-10_17h02.04.066,SL_sali,2021.2.3,Win32,59.52380952,,,36,0,36,0,1,,,,,,,,
,,"[""diamond"",""no_dis"",""vert"",""up"",[99999,99999],[-150,0]]",diamond,no_dis,vert,up,"[99999,99999]","[-150,0]",up,1,0.7295,,,,,,001,2025-03-10_17h02.04.066,SL_sali,2021.2.3,Win32,59.52380952,,,37,0,37,0,1,,,,,,,,
,,"[""diamond"",""red"",""vert"",""up"",[-106,106],[0,150]]",diamond,red,vert,up,"[-106,106]","[0,150]",up,1,1.0493,,,,,,001,2025-03-10_17h02.04.066,SL_sali,2021.2.3,Win32,59.52380952,,,38,0,38,0,1,,,,,,,,
,,"[""diamond"",""red"",""vert"",""up"",[-106,106],[106,106]]",diamond,red,vert,up,"[-106,106]","[106,106]",up,1,0.8493,,,,,,001,2025-03-10_17h02.04.066,SL_sali,2021.2.3,Win32,59.52380952,,,39,0,39,0,1,,,,,,,,
,,"[""diamond"",""red"",""hori"",""left"",[106,-106],[-150,0]]",diamond,red,hori,left,"[106,-106]","[-150,0]",left,1,0.8854,,,,,,001,2025-03-10_17h02.04.066,SL_sali,2021.2.3,Win32,59.52380952,,,40,0,40,0,1,,,,,,,,
,,"[""circle"",""no_dis"",""hori"",""left"",[99999,99999],[0,-150]]",circle,no_dis,hori,left,"[99999,99999]","[0,-150]",left,1,1.2596,,,,,,001,2025-03-10_17h02.04.066,SL_sali,2021.2.3,Win32,59.52380952,,,41,0,41,0,1,,,,,,,,
,,"[""diamond"",""green"",""vert"",""up"",[106,-106],[0,-150]]",diamond,green,vert,up,"[106,-106]","[0,-150]",up,1,1.429,,,,,,001,2025-03-10_17h02.04.066,SL_sali,2021.2.3,Win32,59.52380952,,,42,0,42,0,1,,,,,,,,
,,"[""diamond"",""no_dis"",""vert"",""up"",[99999,99999],[-106,106]]",diamond,no_dis,vert,up,"[99999,99999]","[-106,106]",up,1,0.8352,,,,,,001,2025-03-10_17h02.04.066,SL_sali,2021.2.3,Win32,59.52380952,,,43,0,43,0,1,,,,,,,,
,,"[""circle"",""red"",""vert"",""up"",[0,150],[-106,-106]]",circle,red,vert,up,"[0,150]","[-106,-106]",up,1,1.0654,,,,,,001,2025-03-10_17h02.04.066,SL_sali,2021.2.3,Win32,59.52380952,,,44,0,44,0,1,,,,,,,,
,,"[""diamond"",""red"",""hori"",""left"",[0,-150],[-150,0]]",diamond,red,hori,left,"[0,-150]","[-150,0]",left,1,1.0555,,,,,,001,2025-03-10_17h02.04.066,SL_sali,2021.2.3,Win32,59.52380952,,,45,0,45,0,1,,,,,,,,
,,"[""diamond"",""red"",""hori"",""left"",[-150,0],[0,-150]]",diamond,red,hori,left,"[-150,0]","[0,-150]",up,0,1.0144,,,,,,001,2025-03-10_17h02.04.066,SL_sali,2021.2.3,Win32,59.52380952,,,46,0,46,0,1,,,,,,,,
,,"[""diamond"",""green"",""hori"",""left"",[150,0],[106,-106]]",diamond,green,hori,left,"[150,0]","[106,-106]",left,1,0.9163,,,,,,001,2025-03-10_17h02.04.066,SL_sali,2021.2.3,Win32,59.52380952,,,47,0,47,0,1,,,,,,,,
,,"[""circle"",""no_dis"",""vert"",""up"",[99999,99999],[-106,106]]",circle,no_dis,vert,up,"[99999,99999]","[-106,106]",up,1,1.2526,,,,,,001,2025-03-10_17h02.04.066,SL_sali,2021.2.3,Win32,59.52380952,,,48,0,48,0,1,,,,,,,,
,,"[""diamond"",""green"",""vert"",""up"",[-150,0],[0,-150]]",diamond,green,vert,up,"[-150,0]","[0,-150]",up,1,1.2995,,,,,,001,2025-03-10_17h02.04.066,SL_sali,2021.2.3,Win32,59.52380952,,,49,0,49,0,1,,,,,,,,
,,"[""diamond"",""green"",""hori"",""left"",[106,106],[-150,0]]",diamond,green,hori,left,"[106,106]","[-150,0]",left,1,0.9973,,,,,,001,2025-03-10_17h02.04.066,SL_sali,2021.2.3,Win32,59.52380952,,,50,0,50,0,1,,,,,,,,
,,"[""diamond"",""no_dis"",""hori"",""left"",[99999,99999],[150,0]]",diamond,no_dis,hori,left,"[99999,99999]","[150,0]",left,1,0.7863,,,,,,001,2025-03-10_17h02.04.066,SL_sali,2021.2.3,Win32,59.52380952,,,51,0,51,0,1,,,,,,,,
,,"[""circle"",""no_dis"",""hori"",""left"",[99999,99999],[150,0]]",circle,no_dis,hori,left,"[99999,99999]","[150,0]",left,1,1.1644,,,,,,001,2025-03-10_17h02.04.066,SL_sali,2021.2.3,Win32,59.52380952,,,52,0,52,0,1,,,,,,,,
,,"[""diamond"",""no_dis"",""hori"",""left"",[99999,99999],[-150,0]]",diamond,no_dis,hori,left,"[99999,99999]","[-150,0]",left,1,0.7315,,,,,,001,2025-03-10_17h02.04.066,SL_sali,2021.2.3,Win32,59.52380952,,,53,0,53,0,1,,,,,,,,
,,"[""circle"",""no_dis"",""vert"",""up"",[99999,99999],[-106,106]]",circle,no_dis,vert,up,"[99999,99999]","[-106,106]",up,1,0.7877,,,,,,001,2025-03-10_17h02.04.066,SL_sali,2021.2.3,Win32,59.52380952,,,54,0,54,0,1,,,,,,,,
,,"[""diamond"",""no_dis"",""vert"",""up"",[99999,99999],[106,106]]",diamond,no_dis,vert,up,"[99999,99999]","[106,106]",up,1,0.6326,,,,,,001,2025-03-10_17h02.04.066,SL_sali,2021.2.3,Win32,59.52380952,,,55,0,55,0,1,,,,,,,,
,,"[""diamond"",""green"",""hori"",""left"",[-106,106],[106,106]]",diamond,green,hori,left,"[-106,106]","[106,106]",left,1,0.9077,,,,,,001,2025-03-10_17h02.04.066,SL_sali,2021.2.3,Win32,59.52380952,,,56,0,56,0,1,,,,,,,,
,,"[""circle"",""no_dis"",""hori"",""left"",[99999,99999],[0,150]]",circle,no_dis,hori,left,"[99999,99999]","[0,150]",left,1,0.9473,,,,,,001,2025-03-10_17h02.04.066,SL_sali,2021.2.3,Win32,59.52380952,,,57,0,57,0,1,,,,,,,,
,,"[""circle"",""no_dis"",""hori"",""left"",[99999,99999],[150,0]]",circle,no_dis,hori,left,"[99999,99999]","[150,0]",left,1,0.5843,,,,,,001,2025-03-10_17h02.04.066,SL_sali,2021.2.3,Win32,59.52380952,,,58,0,58,0,1,,,,,,,,
,,"[""circle"",""red"",""hori"",""left"",[-106,-106],[0,-150]]",circle,red,hori,left,"[-106,-106]","[0,-150]",left,1,1.8418,,,,,,001,2025-03-10_17h02.04.066,SL_sali,2021.2.3,Win32,59.52380952,,,59,0,59,0,1,,,,,,,,
,,"[""diamond"",""no_dis"",""vert"",""up"",[99999,99999],[0,-150]]",diamond,no_dis,vert,up,"[99999,99999]","[0,-150]",up,1,0.7767,,,,,,001,2025-03-10_17h02.04.066,SL_sali,2021.2.3,Win32,59.52380952,,,60,0,60,0,1,,,,,,,,
,,"[""diamond"",""green"",""hori"",""left"",[-106,-106],[0,-150]]",diamond,green,hori,left,"[-106,-106]","[0,-150]",left,1,1.2515,,,,,,001,2025-03-10_17h02.04.066,SL_sali,2021.2.3,Win32,59.52380952,,,61,0,61,0,1,,,,,,,,
,,"[""circle"",""green"",""vert"",""up"",[-106,106],[-106,-106]]",circle,green,vert,up,"[-106,106]","[-106,-106]",up,1,0.9968,,,,,,001,2025-03-10_17h02.04.066,SL_sali,2021.2.3,Win32,59.52380952,,,62,0,62,0,1,,,,,,,,
,,"[""circle"",""green"",""vert"",""up"",[106,106],[0,150]]",circle,green,vert,up,"[106,106]","[0,150]",up,1,0.8264,,,,,,001,2025-03-10_17h02.04.066,SL_sali,2021.2.3,Win32,59.52380952,,,63,0,63,0,1,,,,,,,,
,,"[""diamond"",""green"",""hori"",""left"",[0,-150],[0,150]]",diamond,green,hori,left,"[0,-150]","[0,150]",left,1,0.7684,,,,,,001,2025-03-10_17h02.04.066,SL_sali,2021.2.3,Win32,59.52380952,,,64,0,64,0,1,,,,,,,,
,,"[""diamond"",""no_dis"",""hori"",""left"",[99999,99999],[-106,-106]]",diamond,no_dis,hori,left,"[99999,99999]","[-106,-106]",up,0,0.7388,,,,,,001,2025-03-10_17h02.04.066,SL_sali,2021.2.3,Win32,59.52380952,,,65,0,65,0,1,,,,,,,,
,,"[""diamond"",""red"",""hori"",""left"",[150,0],[0,150]]",diamond,red,hori,left,"[150,0]","[0,150]",left,1,1.0991,,,,,,001,2025-03-10_17h02.04.066,SL_sali,2021.2.3,Win32,59.52380952,,,66,0,66,0,1,,,,,,,,
,,"[""circle"",""no_dis"",""hori"",""left"",[99999,99999],[106,106]]",circle,no_dis,hori,left,"[99999,99999]","[106,106]",left,1,0.7825,,,,,,001,2025-03-10_17h02.04.066,SL_sali,2021.2.3,Win32,59.52380952,,,67,0,67,0,1,,,,,,,,
,,"[""diamond"",""green"",""vert"",""up"",[106,-106],[106,106]]",diamond,green,vert,up,"[106,-106]","[106,106]",up,1,1.1988,,,,,,001,2025-03-10_17h02.04.066,SL_sali,2021.2.3,Win32,59.52380952,,,68,0,68,0,1,,,,,,,,
,,"[""circle"",""green"",""hori"",""left"",[106,-106],[-106,106]]",circle,green,hori,left,"[106,-106]","[-106,106]",left,1,1.1859,,,,,,001,2025-03-10_17h02.04.066,SL_sali,2021.2.3,Win32,59.52380952,,,69,0,69,0,1,,,,,,,,
,,"[""diamond"",""red"",""vert"",""up"",[0,-150],[0,150]]",diamond,red,vert,up,"[0,-150]","[0,150]",up,1,0.7588,,,,,,001,2025-03-10_17h02.04.066,SL_sali,2021.2.3,Win32,59.52380952,,,70,0,70,0,1,,,,,,,,
,,"[""circle"",""green"",""hori"",""left"",[0,150],[106,-106]]",circle,green,hori,left,"[0,150]","[106,-106]",left,1,0.8433,,,,,,001,2025-03-10_17h02.04.066,SL_sali,2021.2.3,Win32,59.52380952,,,71,0,71,0,1,,,,,,,,
,,"[""diamond"",""red"",""hori"",""left"",[0,-150],[106,-106]]",diamond,red,hori,left,"[0,-150]","[106,-106]",left,1,0.9358,,,,,,001,2025-03-10_17h02.04.066,SL_sali,2021.2.3,Win32,59.52380952,,,72,0,72,0,1,,,,,,,,
,,"[""circle"",""no_dis"",""hori"",""left"",[99999,99999],[106,-106]]",circle,no_dis,hori,left,"[99999,99999]","[106,-106]",left,1,1.3138,,,,,,001,2025-03-10_17h02.04.066,SL_sali,2021.2.3,Win32,59.52380952,,,73,0,73,0,1,,,,,,,,
,,"[""circle"",""green"",""vert"",""up"",[150,0],[0,-150]]",circle,green,vert,up,"[150,0]","[0,-150]",up,1,0.9671,,,,,,001,2025-03-10_17h02.04.066,SL_sali,2021.2.3,Win32,59.52380952,,,74,0,74,0,1,,,,,,,,
,,"[""diamond"",""green"",""vert"",""up"",[-150,0],[0,-150]]",diamond,green,vert,up,"[-150,0]","[0,-150]",up,1,0.9642,,,,,,001,2025-03-10_17h02.04.066,SL_sali,2021.2.3,Win32,59.52380952,,,75,0,75,0,1,,,,,,,,
,,"[""circle"",""green"",""vert"",""up"",[106,106],[-106,-106]]",circle,green,vert,up,"[106,106]","[-106,-106]",up,1,0.8554,,,,,,001,2025-03-10_17h02.04.066,SL_sali,2021.2.3,Win32,59.52380952,,,76,0,76,0,1,,,,,,,,
,,"[""circle"",""green"",""vert"",""up"",[0,150],[-106,106]]",circle,green,vert,up,"[0,150]","[-106,106]",up,1,0.8472,,,,,,001,2025-03-10_17h02.04.066,SL_sali,2021.2.3,Win32,59.52380952,,,77,0,77,0,1,,,,,,,,
,,"[""circle"",""green"",""hori"",""left"",[106,106],[0,150]]",circle,green,hori,left,"[106,106]","[0,150]",left,1,1.2126,,,,,,001,2025-03-10_17h02.04.066,SL_sali,2021.2.3,Win32,59.52380952,,,78,0,78,0,1,,,,,,,,
,,"[""diamond"",""green"",""hori"",""left"",[-106,106],[106,-106]]",diamond,green,hori,left,"[-106,106]","[106,-106]",left,1,1.2006,,,,,,001,2025-03-10_17h02.04.066,SL_sali,2021.2.3,Win32,59.52380952,,,79,0,79,0,1,,,,,,,,
,,"[""circle"",""no_dis"",""vert"",""up"",[99999,99999],[-106,-106]]",circle,no_dis,vert,up,"[99999,99999]","[-106,-106]",up,1,0.8303,,,,,,001,2025-03-10_17h02.04.066,SL_sali,2021.2.3,Win32,59.52380952,,,80,0,80,0,1,,,,,,,,
,,"[""diamond"",""no_dis"",""hori"",""left"",[99999,99999],[0,-150]]",diamond,no_dis,hori,left,"[99999,99999]","[0,-150]",left,1,1.0001,,,,,,001,2025-03-10_17h02.04.066,SL_sali,2021.2.3,Win32,59.52380952,,,81,0,81,0,1,,,,,,,,
,,"[""circle"",""no_dis"",""vert"",""up"",[99999,99999],[0,-150]]",circle,no_dis,vert,up,"[99999,99999]","[0,-150]",up,1,1.0977,,,,,,001,2025-03-10_17h02.04.066,SL_sali,2021.2.3,Win32,59.52380952,,,82,0,82,0,1,,,,,,,,
,,"[""diamond"",""no_dis"",""hori"",""left"",[99999,99999],[-106,106]]",diamond,no_dis,hori,left,"[99999,99999]","[-106,106]",left,1,0.7511,,,,,,001,2025-03-10_17h02.04.066,SL_sali,2021.2.3,Win32,59.52380952,,,83,0,83,0,1,,,,,,,,
,,"[""diamond"",""green"",""vert"",""up"",[-106,106],[0,-150]]",diamond,green,vert,up,"[-106,106]","[0,-150]",up,1,0.7656,,,,,,001,2025-03-10_17h02.04.066,SL_sali,2021.2.3,Win32,59.52380952,,,84,0,84,0,1,,,,,,,,
,,"[""circle"",""red"",""hori"",""left"",[-150,0],[106,-106]]",circle,red,hori,left,"[-150,0]","[106,-106]",left,1,0.7092,,,,,,001,2025-03-10_17h02.04.066,SL_sali,2021.2.3,Win32,59.52380952,,,85,0,85,0,1,,,,,,,,
,,"[""circle"",""red"",""hori"",""left"",[-106,-106],[106,106]]",circle,red,hori,left,"[-106,-106]","[106,106]",left,1,0.8144,,,,,,001,2025-03-10_17h02.04.066,SL_sali,2021.2.3,Win32,59.52380952,,,86,0,86,0,1,,,,,,,,
,,"[""circle"",""no_dis"",""vert"",""up"",[99999,99999],[106,106]]",circle,no_dis,vert,up,"[99999,99999]","[106,106]",up,1,0.8619,,,,,,001,2025-03-10_17h02.04.066,SL_sali,2021.2.3,Win32,59.52380952,,,87,0,87,0,1,,,,,,,,
,,"[""circle"",""red"",""hori"",""left"",[-106,106],[-150,0]]",circle,red,hori,left,"[-106,106]","[-150,0]",left,1,0.8417,,,,,,001,2025-03-10_17h02.04.066,SL_sali,2021.2.3,Win32,59.52380952,,,88,0,88,0,1,,,,,,,,
,,"[""circle"",""red"",""hori"",""left"",[106,106],[0,-150]]",circle,red,hori,left,"[106,106]","[0,-150]",left,1,0.6751,,,,,,001,2025-03-10_17h02.04.066,SL_sali,2021.2.3,Win32,59.52380952,,,89,0,89,0,1,,,,,,,,
