﻿key_resp.keys,key_resp.rt,trial_para,tar_shape,dis_color_condi,tar_line,cor_resp,dis_loc,tar_loc,resp.keys,resp.corr,trials.thisRepN,trials.thisTrialN,trials.thisN,trials.thisIndex,trials.ran,participant,date,expName,psychopyVersion,OS,frameRate,resp.rt,key_resp_2.keys,key_resp_2.rt,trials_2.thisRepN,trials_2.thisTrialN,trials_2.thisN,trials_2.thisIndex,trials_2.ran,block_num,key_resp_3.keys,key_resp_3.rt,trials_3.thisRepN,trials_3.thisTrialN,trials_3.thisN,trials_3.thisIndex,trials_3.ran
space,23.7894,"[""circle"",""green"",""vert"",""up"",[106,-106],[0,150]]",circle,green,vert,up,"[106,-106]","[0,150]",,0,0,0,0,0,1,001,2025-03-11_12h18.42.489,SL_sali,2021.2.3,Win32,59.52380952,,,,,,,,,,,,,,,,
,,"[""diamond"",""red"",""vert"",""up"",[-106,-106],[0,150]]",diamond,red,vert,up,"[-106,-106]","[0,150]",,0,1,0,1,0,1,001,2025-03-11_12h18.42.489,SL_sali,2021.2.3,Win32,59.52380952,,,,,,,,,,,,,,,,
,,"[""circle"",""no_dis"",""vert"",""up"",[99999,99999],[0,-150]]",circle,no_dis,vert,up,"[99999,99999]","[0,-150]",up,1,2,0,2,0,1,001,2025-03-11_12h18.42.489,SL_sali,2021.2.3,Win32,59.52380952,2.0005,,,,,,,,,,,,,,,
,,"[""diamond"",""green"",""vert"",""up"",[106,106],[106,-106]]",diamond,green,vert,up,"[106,106]","[106,-106]",up,1,3,0,3,0,1,001,2025-03-11_12h18.42.489,SL_sali,2021.2.3,Win32,59.52380952,2.3591,,,,,,,,,,,,,,,
,,"[""diamond"",""red"",""hori"",""left"",[-106,106],[106,-106]]",diamond,red,hori,left,"[-106,106]","[106,-106]",,0,4,0,4,0,1,001,2025-03-11_12h18.42.489,SL_sali,2021.2.3,Win32,59.52380952,,,,,,,,,,,,,,,,
,,"[""diamond"",""red"",""hori"",""left"",[-106,-106],[-106,106]]",diamond,red,hori,left,"[-106,-106]","[-106,106]",up,0,5,0,5,0,1,001,2025-03-11_12h18.42.489,SL_sali,2021.2.3,Win32,59.52380952,1.9681,,,,,,,,,,,,,,,
,,"[""circle"",""red"",""hori"",""left"",[106,-106],[-106,106]]",circle,red,hori,left,"[106,-106]","[-106,106]",,0,6,0,6,0,1,001,2025-03-11_12h18.42.489,SL_sali,2021.2.3,Win32,59.52380952,,,,,,,,,,,,,,,,
,,"[""circle"",""red"",""hori"",""left"",[-106,-106],[0,150]]",circle,red,hori,left,"[-106,-106]","[0,150]",,0,7,0,7,0,1,001,2025-03-11_12h18.42.489,SL_sali,2021.2.3,Win32,59.52380952,,,,,,,,,,,,,,,,
,,"[""diamond"",""no_dis"",""hori"",""left"",[99999,99999],[0,-150]]",diamond,no_dis,hori,left,"[99999,99999]","[0,-150]",,0,8,0,8,0,1,001,2025-03-11_12h18.42.489,SL_sali,2021.2.3,Win32,59.52380952,,,,,,,,,,,,,,,,
,,"[""circle"",""green"",""vert"",""up"",[106,106],[-106,-106]]",circle,green,vert,up,"[106,106]","[-106,-106]",up,1,9,0,9,0,1,001,2025-03-11_12h18.42.489,SL_sali,2021.2.3,Win32,59.52380952,1.5834,,,,,,,,,,,,,,,
,,"[""circle"",""green"",""vert"",""up"",[106,-106],[0,150]]",circle,green,vert,up,"[106,-106]","[0,150]",,0,,,,,,001,2025-03-11_12h18.42.489,SL_sali,2021.2.3,Win32,59.52380952,,space,16.5345,0,0,0,0,1,,,,,,,,
,,"[""diamond"",""red"",""vert"",""up"",[-106,-106],[0,150]]",diamond,red,vert,up,"[-106,-106]","[0,150]",up,1,,,,,,001,2025-03-11_12h18.42.489,SL_sali,2021.2.3,Win32,59.52380952,1.0183,,,1,0,1,0,1,,,,,,,,
,,"[""circle"",""no_dis"",""vert"",""up"",[99999,99999],[0,-150]]",circle,no_dis,vert,up,"[99999,99999]","[0,-150]",,0,,,,,,001,2025-03-11_12h18.42.489,SL_sali,2021.2.3,Win32,59.52380952,,,,2,0,2,0,1,,,,,,,,
,,"[""diamond"",""green"",""vert"",""up"",[106,106],[106,-106]]",diamond,green,vert,up,"[106,106]","[106,-106]",left,0,,,,,,001,2025-03-11_12h18.42.489,SL_sali,2021.2.3,Win32,59.52380952,1.9291,,,3,0,3,0,1,,,,,,,,
,,"[""diamond"",""red"",""hori"",""left"",[-106,106],[106,-106]]",diamond,red,hori,left,"[-106,106]","[106,-106]",left,1,,,,,,001,2025-03-11_12h18.42.489,SL_sali,2021.2.3,Win32,59.52380952,1.4274,,,4,0,4,0,1,,,,,,,,
,,"[""diamond"",""red"",""hori"",""left"",[-106,-106],[-106,106]]",diamond,red,hori,left,"[-106,-106]","[-106,106]",up,0,,,,,,001,2025-03-11_12h18.42.489,SL_sali,2021.2.3,Win32,59.52380952,0.9222,,,5,0,5,0,1,,,,,,,,
,,"[""circle"",""red"",""hori"",""left"",[106,-106],[-106,106]]",circle,red,hori,left,"[106,-106]","[-106,106]",up,0,,,,,,001,2025-03-11_12h18.42.489,SL_sali,2021.2.3,Win32,59.52380952,1.2221,,,6,0,6,0,1,,,,,,,,
,,"[""circle"",""red"",""hori"",""left"",[-106,-106],[0,150]]",circle,red,hori,left,"[-106,-106]","[0,150]",up,0,,,,,,001,2025-03-11_12h18.42.489,SL_sali,2021.2.3,Win32,59.52380952,2.6865,,,7,0,7,0,1,,,,,,,,
,,"[""diamond"",""no_dis"",""hori"",""left"",[99999,99999],[0,-150]]",diamond,no_dis,hori,left,"[99999,99999]","[0,-150]",up,0,,,,,,001,2025-03-11_12h18.42.489,SL_sali,2021.2.3,Win32,59.52380952,2.2828,,,8,0,8,0,1,,,,,,,,
,,"[""circle"",""green"",""vert"",""up"",[106,106],[-106,-106]]",circle,green,vert,up,"[106,106]","[-106,-106]",left,0,,,,,,001,2025-03-11_12h18.42.489,SL_sali,2021.2.3,Win32,59.52380952,0.9834,,,9,0,9,0,1,,,,,,,,
,,"[""diamond"",""green"",""vert"",""up"",[106,106],[-106,106]]",diamond,green,vert,up,"[106,106]","[-106,106]",up,1,,,,,,001,2025-03-11_12h18.42.489,SL_sali,2021.2.3,Win32,59.52380952,1.9928,,,10,0,10,0,1,,,,,,,,
,,"[""circle"",""no_dis"",""vert"",""up"",[99999,99999],[-106,106]]",circle,no_dis,vert,up,"[99999,99999]","[-106,106]",up,1,,,,,,001,2025-03-11_12h18.42.489,SL_sali,2021.2.3,Win32,59.52380952,2.4855,,,11,0,11,0,1,,,,,,,,
,,"[""circle"",""no_dis"",""hori"",""left"",[99999,99999],[-150,0]]",circle,no_dis,hori,left,"[99999,99999]","[-150,0]",left,1,,,,,,001,2025-03-11_12h18.42.489,SL_sali,2021.2.3,Win32,59.52380952,1.8854,,,12,0,12,0,1,,,,,,,,
,,"[""circle"",""red"",""vert"",""up"",[106,106],[-150,0]]",circle,red,vert,up,"[106,106]","[-150,0]",up,1,,,,,,001,2025-03-11_12h18.42.489,SL_sali,2021.2.3,Win32,59.52380952,1.6521,,,13,0,13,0,1,,,,,,,,
,,"[""diamond"",""green"",""hori"",""left"",[106,106],[150,0]]",diamond,green,hori,left,"[106,106]","[150,0]",left,1,,,,,,001,2025-03-11_12h18.42.489,SL_sali,2021.2.3,Win32,59.52380952,2.0891,,,14,0,14,0,1,,,,,,,,
,,"[""diamond"",""red"",""hori"",""left"",[-106,-106],[106,106]]",diamond,red,hori,left,"[-106,-106]","[106,106]",,0,,,,,,001,2025-03-11_12h18.42.489,SL_sali,2021.2.3,Win32,59.52380952,,,,15,0,15,0,1,,,,,,,,
,,"[""diamond"",""green"",""vert"",""up"",[-106,-106],[150,0]]",diamond,green,vert,up,"[-106,-106]","[150,0]",up,1,,,,,,001,2025-03-11_12h18.42.489,SL_sali,2021.2.3,Win32,59.52380952,2.2353,,,16,0,16,0,1,,,,,,,,
,,"[""circle"",""no_dis"",""hori"",""left"",[99999,99999],[-150,0]]",circle,no_dis,hori,left,"[99999,99999]","[-150,0]",left,1,,,,,,001,2025-03-11_12h18.42.489,SL_sali,2021.2.3,Win32,59.52380952,1.5703,,,17,0,17,0,1,,,,,,,,
,,"[""circle"",""red"",""vert"",""up"",[-106,-106],[106,-106]]",circle,red,vert,up,"[-106,-106]","[106,-106]",up,1,,,,,,001,2025-03-11_12h18.42.489,SL_sali,2021.2.3,Win32,59.52380952,2.0073,,,18,0,18,0,1,,,,,,,,
,,"[""diamond"",""no_dis"",""hori"",""left"",[99999,99999],[106,-106]]",diamond,no_dis,hori,left,"[99999,99999]","[106,-106]",left,1,,,,,,001,2025-03-11_12h18.42.489,SL_sali,2021.2.3,Win32,59.52380952,1.6868,,,19,0,19,0,1,,,,,,,,
,,"[""circle"",""red"",""hori"",""left"",[-150,0],[106,106]]",circle,red,hori,left,"[-150,0]","[106,106]",left,1,,,,,,001,2025-03-11_12h18.42.489,SL_sali,2021.2.3,Win32,59.52380952,1.6233,,,20,0,20,0,1,,,,,,,,
,,"[""diamond"",""no_dis"",""vert"",""up"",[99999,99999],[-106,-106]]",diamond,no_dis,vert,up,"[99999,99999]","[-106,-106]",up,1,,,,,,001,2025-03-11_12h18.42.489,SL_sali,2021.2.3,Win32,59.52380952,1.4639,,,21,0,21,0,1,,,,,,,,
,,"[""circle"",""no_dis"",""vert"",""up"",[99999,99999],[106,-106]]",circle,no_dis,vert,up,"[99999,99999]","[106,-106]",,0,,,,,,001,2025-03-11_12h18.42.489,SL_sali,2021.2.3,Win32,59.52380952,,,,22,0,22,0,1,,,,,,,,
,,"[""circle"",""red"",""hori"",""left"",[-106,-106],[106,-106]]",circle,red,hori,left,"[-106,-106]","[106,-106]",up,0,,,,,,001,2025-03-11_12h18.42.489,SL_sali,2021.2.3,Win32,59.52380952,2.5504,,,23,0,23,0,1,,,,,,,,
,,"[""diamond"",""green"",""hori"",""left"",[-106,-106],[0,150]]",diamond,green,hori,left,"[-106,-106]","[0,150]",left,1,,,,,,001,2025-03-11_12h18.42.489,SL_sali,2021.2.3,Win32,59.52380952,2.1931,,,24,0,24,0,1,,,,,,,,
,,"[""circle"",""red"",""hori"",""left"",[0,-150],[-106,106]]",circle,red,hori,left,"[0,-150]","[-106,106]",left,1,,,,,,001,2025-03-11_12h18.42.489,SL_sali,2021.2.3,Win32,59.52380952,1.625,,,25,0,25,0,1,,,,,,,,
,,"[""circle"",""red"",""vert"",""up"",[-106,-106],[-150,0]]",circle,red,vert,up,"[-106,-106]","[-150,0]",up,1,,,,,,001,2025-03-11_12h18.42.489,SL_sali,2021.2.3,Win32,59.52380952,2.3384,,,26,0,26,0,1,,,,,,,,
,,"[""circle"",""green"",""vert"",""up"",[0,-150],[106,-106]]",circle,green,vert,up,"[0,-150]","[106,-106]",left,0,,,,,,001,2025-03-11_12h18.42.489,SL_sali,2021.2.3,Win32,59.52380952,2.1191,,,27,0,27,0,1,,,,,,,,
,,"[""diamond"",""no_dis"",""hori"",""left"",[99999,99999],[-106,-106]]",diamond,no_dis,hori,left,"[99999,99999]","[-106,-106]",,0,,,,,,001,2025-03-11_12h18.42.489,SL_sali,2021.2.3,Win32,59.52380952,,,,28,0,28,0,1,,,,,,,,
,,"[""circle"",""no_dis"",""hori"",""left"",[99999,99999],[-150,0]]",circle,no_dis,hori,left,"[99999,99999]","[-150,0]",left,1,,,,,,001,2025-03-11_12h18.42.489,SL_sali,2021.2.3,Win32,59.52380952,1.0531,,,29,0,29,0,1,,,,,,,,
,,"[""diamond"",""green"",""hori"",""left"",[106,-106],[0,150]]",diamond,green,hori,left,"[106,-106]","[0,150]",left,1,,,,,,001,2025-03-11_12h18.42.489,SL_sali,2021.2.3,Win32,59.52380952,1.8895,,,30,0,30,0,1,,,,,,,,
,,"[""diamond"",""green"",""vert"",""up"",[-106,-106],[-106,106]]",diamond,green,vert,up,"[-106,-106]","[-106,106]",up,1,,,,,,001,2025-03-11_12h18.42.489,SL_sali,2021.2.3,Win32,59.52380952,1.2953,,,31,0,31,0,1,,,,,,,,
,,"[""diamond"",""red"",""hori"",""left"",[-106,-106],[106,-106]]",diamond,red,hori,left,"[-106,-106]","[106,-106]",left,1,,,,,,001,2025-03-11_12h18.42.489,SL_sali,2021.2.3,Win32,59.52380952,0.6714,,,32,0,32,0,1,,,,,,,,
,,"[""circle"",""red"",""vert"",""up"",[-106,-106],[150,0]]",circle,red,vert,up,"[-106,-106]","[150,0]",up,1,,,,,,001,2025-03-11_12h18.42.489,SL_sali,2021.2.3,Win32,59.52380952,1.3557,,,33,0,33,0,1,,,,,,,,
,,"[""circle"",""no_dis"",""hori"",""left"",[99999,99999],[106,106]]",circle,no_dis,hori,left,"[99999,99999]","[106,106]",left,1,,,,,,001,2025-03-11_12h18.42.489,SL_sali,2021.2.3,Win32,59.52380952,0.7207,,,34,0,34,0,1,,,,,,,,
,,"[""diamond"",""green"",""vert"",""up"",[-106,106],[0,-150]]",diamond,green,vert,up,"[-106,106]","[0,-150]",up,1,,,,,,001,2025-03-11_12h18.42.489,SL_sali,2021.2.3,Win32,59.52380952,0.7274,,,35,0,35,0,1,,,,,,,,
,,"[""diamond"",""green"",""hori"",""left"",[0,-150],[106,-106]]",diamond,green,hori,left,"[0,-150]","[106,-106]",left,1,,,,,,001,2025-03-11_12h18.42.489,SL_sali,2021.2.3,Win32,59.52380952,1.0696,,,36,0,36,0,1,,,,,,,,
,,"[""diamond"",""green"",""vert"",""up"",[-106,-106],[-150,0]]",diamond,green,vert,up,"[-106,-106]","[-150,0]",,0,,,,,,001,2025-03-11_12h18.42.489,SL_sali,2021.2.3,Win32,59.52380952,,,,37,0,37,0,1,,,,,,,,
,,"[""circle"",""no_dis"",""hori"",""left"",[99999,99999],[150,0]]",circle,no_dis,hori,left,"[99999,99999]","[150,0]",left,1,,,,,,001,2025-03-11_12h18.42.489,SL_sali,2021.2.3,Win32,59.52380952,0.806,,,38,0,38,0,1,,,,,,,,
,,"[""circle"",""no_dis"",""hori"",""left"",[99999,99999],[106,106]]",circle,no_dis,hori,left,"[99999,99999]","[106,106]",up,0,,,,,,001,2025-03-11_12h18.42.489,SL_sali,2021.2.3,Win32,59.52380952,0.6403,,,39,0,39,0,1,,,,,,,,
,,"[""circle"",""red"",""vert"",""up"",[-106,-106],[106,-106]]",circle,red,vert,up,"[-106,-106]","[106,-106]",left,0,,,,,,001,2025-03-11_12h18.42.489,SL_sali,2021.2.3,Win32,59.52380952,2.3433,,,40,0,40,0,1,,,,,,,,
,,"[""diamond"",""no_dis"",""vert"",""up"",[99999,99999],[-106,106]]",diamond,no_dis,vert,up,"[99999,99999]","[-106,106]",up,1,,,,,,001,2025-03-11_12h18.42.489,SL_sali,2021.2.3,Win32,59.52380952,0.7021,,,41,0,41,0,1,,,,,,,,
,,"[""diamond"",""green"",""vert"",""up"",[150,0],[0,150]]",diamond,green,vert,up,"[150,0]","[0,150]",up,1,,,,,,001,2025-03-11_12h18.42.489,SL_sali,2021.2.3,Win32,59.52380952,1.5012,,,42,0,42,0,1,,,,,,,,
,,"[""diamond"",""green"",""vert"",""up"",[-106,106],[0,150]]",diamond,green,vert,up,"[-106,106]","[0,150]",up,1,,,,,,001,2025-03-11_12h18.42.489,SL_sali,2021.2.3,Win32,59.52380952,2.1541,,,43,0,43,0,1,,,,,,,,
,,"[""circle"",""no_dis"",""hori"",""left"",[99999,99999],[0,-150]]",circle,no_dis,hori,left,"[99999,99999]","[0,-150]",left,1,,,,,,001,2025-03-11_12h18.42.489,SL_sali,2021.2.3,Win32,59.52380952,1.487,,,44,0,44,0,1,,,,,,,,
,,"[""diamond"",""no_dis"",""hori"",""left"",[99999,99999],[150,0]]",diamond,no_dis,hori,left,"[99999,99999]","[150,0]",left,1,,,,,,001,2025-03-11_12h18.42.489,SL_sali,2021.2.3,Win32,59.52380952,1.8159,,,45,0,45,0,1,,,,,,,,
,,"[""circle"",""no_dis"",""vert"",""up"",[99999,99999],[106,-106]]",circle,no_dis,vert,up,"[99999,99999]","[106,-106]",up,1,,,,,,001,2025-03-11_12h18.42.489,SL_sali,2021.2.3,Win32,59.52380952,1.7904,,,46,0,46,0,1,,,,,,,,
,,"[""circle"",""green"",""hori"",""left"",[-150,0],[106,106]]",circle,green,hori,left,"[-150,0]","[106,106]",left,1,,,,,,001,2025-03-11_12h18.42.489,SL_sali,2021.2.3,Win32,59.52380952,2.8545,,,47,0,47,0,1,,,,,,,,
,,"[""circle"",""green"",""vert"",""up"",[-106,-106],[-150,0]]",circle,green,vert,up,"[-106,-106]","[-150,0]",up,1,,,,,,001,2025-03-11_12h18.42.489,SL_sali,2021.2.3,Win32,59.52380952,1.5131,,,48,0,48,0,1,,,,,,,,
,,"[""circle"",""red"",""hori"",""left"",[-106,-106],[0,-150]]",circle,red,hori,left,"[-106,-106]","[0,-150]",left,1,,,,,,001,2025-03-11_12h18.42.489,SL_sali,2021.2.3,Win32,59.52380952,1.9826,,,49,0,49,0,1,,,,,,,,
,,"[""diamond"",""no_dis"",""vert"",""up"",[99999,99999],[106,106]]",diamond,no_dis,vert,up,"[99999,99999]","[106,106]",,0,,,,,,001,2025-03-11_12h18.42.489,SL_sali,2021.2.3,Win32,59.52380952,,,,50,0,50,0,1,,,,,,,,
,,"[""circle"",""green"",""vert"",""up"",[-106,106],[106,-106]]",circle,green,vert,up,"[-106,106]","[106,-106]",up,1,,,,,,001,2025-03-11_12h18.42.489,SL_sali,2021.2.3,Win32,59.52380952,1.8181,,,51,0,51,0,1,,,,,,,,
,,"[""diamond"",""green"",""hori"",""left"",[150,0],[0,150]]",diamond,green,hori,left,"[150,0]","[0,150]",left,1,,,,,,001,2025-03-11_12h18.42.489,SL_sali,2021.2.3,Win32,59.52380952,1.7144,,,52,0,52,0,1,,,,,,,,
,,"[""diamond"",""no_dis"",""vert"",""up"",[99999,99999],[0,150]]",diamond,no_dis,vert,up,"[99999,99999]","[0,150]",up,1,,,,,,001,2025-03-11_12h18.42.489,SL_sali,2021.2.3,Win32,59.52380952,1.1001,,,53,0,53,0,1,,,,,,,,
,,"[""diamond"",""red"",""vert"",""up"",[-150,0],[150,0]]",diamond,red,vert,up,"[-150,0]","[150,0]",up,1,,,,,,001,2025-03-11_12h18.42.489,SL_sali,2021.2.3,Win32,59.52380952,1.3831,,,54,0,54,0,1,,,,,,,,
,,"[""circle"",""green"",""vert"",""up"",[-106,-106],[-106,106]]",circle,green,vert,up,"[-106,-106]","[-106,106]",,0,,,,,,001,2025-03-11_12h18.42.489,SL_sali,2021.2.3,Win32,59.52380952,,,,55,0,55,0,1,,,,,,,,
,,"[""circle"",""no_dis"",""hori"",""left"",[99999,99999],[0,150]]",circle,no_dis,hori,left,"[99999,99999]","[0,150]",left,1,,,,,,001,2025-03-11_12h18.42.489,SL_sali,2021.2.3,Win32,59.52380952,2.1016,,,56,0,56,0,1,,,,,,,,
,,"[""circle"",""red"",""hori"",""left"",[0,150],[-106,106]]",circle,red,hori,left,"[0,150]","[-106,106]",left,1,,,,,,001,2025-03-11_12h18.42.489,SL_sali,2021.2.3,Win32,59.52380952,1.6266,,,57,0,57,0,1,,,,,,,,
,,"[""circle"",""green"",""vert"",""up"",[-106,-106],[-150,0]]",circle,green,vert,up,"[-106,-106]","[-150,0]",up,1,,,,,,001,2025-03-11_12h18.42.489,SL_sali,2021.2.3,Win32,59.52380952,1.6486,,,58,0,58,0,1,,,,,,,,
,,"[""circle"",""no_dis"",""vert"",""up"",[99999,99999],[-106,-106]]",circle,no_dis,vert,up,"[99999,99999]","[-106,-106]",up,1,,,,,,001,2025-03-11_12h18.42.489,SL_sali,2021.2.3,Win32,59.52380952,2.7044,,,59,0,59,0,1,,,,,,,,
,,"[""circle"",""green"",""hori"",""left"",[0,150],[-106,-106]]",circle,green,hori,left,"[0,150]","[-106,-106]",left,1,,,,,,001,2025-03-11_12h18.42.489,SL_sali,2021.2.3,Win32,59.52380952,1.2847,,,60,0,60,0,1,,,,,,,,
,,"[""diamond"",""green"",""hori"",""left"",[106,-106],[106,106]]",diamond,green,hori,left,"[106,-106]","[106,106]",,0,,,,,,001,2025-03-11_12h18.42.489,SL_sali,2021.2.3,Win32,59.52380952,,,,61,0,61,0,1,,,,,,,,
,,"[""diamond"",""green"",""hori"",""left"",[0,150],[106,-106]]",diamond,green,hori,left,"[0,150]","[106,-106]",left,1,,,,,,001,2025-03-11_12h18.42.489,SL_sali,2021.2.3,Win32,59.52380952,1.7658,,,62,0,62,0,1,,,,,,,,
,,"[""circle"",""green"",""hori"",""left"",[150,0],[0,150]]",circle,green,hori,left,"[150,0]","[0,150]",left,1,,,,,,001,2025-03-11_12h18.42.489,SL_sali,2021.2.3,Win32,59.52380952,1.1884,,,63,0,63,0,1,,,,,,,,
,,"[""diamond"",""red"",""vert"",""up"",[106,106],[0,150]]",diamond,red,vert,up,"[106,106]","[0,150]",up,1,,,,,,001,2025-03-11_12h18.42.489,SL_sali,2021.2.3,Win32,59.52380952,1.4623,,,64,0,64,0,1,,,,,,,,
,,"[""diamond"",""green"",""vert"",""up"",[0,150],[106,106]]",diamond,green,vert,up,"[0,150]","[106,106]",up,1,,,,,,001,2025-03-11_12h18.42.489,SL_sali,2021.2.3,Win32,59.52380952,1.8382,,,65,0,65,0,1,,,,,,,,
,,"[""circle"",""no_dis"",""vert"",""up"",[99999,99999],[150,0]]",circle,no_dis,vert,up,"[99999,99999]","[150,0]",left,0,,,,,,001,2025-03-11_12h18.42.489,SL_sali,2021.2.3,Win32,59.52380952,1.962,,,66,0,66,0,1,,,,,,,,
,,"[""diamond"",""green"",""hori"",""left"",[106,-106],[-150,0]]",diamond,green,hori,left,"[106,-106]","[-150,0]",left,1,,,,,,001,2025-03-11_12h18.42.489,SL_sali,2021.2.3,Win32,59.52380952,1.5664,,,67,0,67,0,1,,,,,,,,
,,"[""diamond"",""red"",""hori"",""left"",[0,-150],[150,0]]",diamond,red,hori,left,"[0,-150]","[150,0]",,0,,,,,,001,2025-03-11_12h18.42.489,SL_sali,2021.2.3,Win32,59.52380952,,,,68,0,68,0,1,,,,,,,,
,,"[""circle"",""green"",""vert"",""up"",[0,150],[-106,106]]",circle,green,vert,up,"[0,150]","[-106,106]",up,1,,,,,,001,2025-03-11_12h18.42.489,SL_sali,2021.2.3,Win32,59.52380952,2.9308,,,69,0,69,0,1,,,,,,,,
,,"[""diamond"",""no_dis"",""hori"",""left"",[99999,99999],[0,-150]]",diamond,no_dis,hori,left,"[99999,99999]","[0,-150]",left,1,,,,,,001,2025-03-11_12h18.42.489,SL_sali,2021.2.3,Win32,59.52380952,0.9828,,,70,0,70,0,1,,,,,,,,
,,"[""diamond"",""red"",""vert"",""up"",[-106,-106],[-150,0]]",diamond,red,vert,up,"[-106,-106]","[-150,0]",up,1,,,,,,001,2025-03-11_12h18.42.489,SL_sali,2021.2.3,Win32,59.52380952,2.4679,,,71,0,71,0,1,,,,,,,,
,,"[""circle"",""red"",""vert"",""up"",[106,-106],[0,-150]]",circle,red,vert,up,"[106,-106]","[0,-150]",,0,,,,,,001,2025-03-11_12h18.42.489,SL_sali,2021.2.3,Win32,59.52380952,,,,72,0,72,0,1,,,,,,,,
,,"[""diamond"",""no_dis"",""vert"",""up"",[99999,99999],[-150,0]]",diamond,no_dis,vert,up,"[99999,99999]","[-150,0]",up,1,,,,,,001,2025-03-11_12h18.42.489,SL_sali,2021.2.3,Win32,59.52380952,1.3066,,,73,0,73,0,1,,,,,,,,
,,"[""diamond"",""no_dis"",""vert"",""up"",[99999,99999],[150,0]]",diamond,no_dis,vert,up,"[99999,99999]","[150,0]",up,1,,,,,,001,2025-03-11_12h18.42.489,SL_sali,2021.2.3,Win32,59.52380952,1.9797,,,74,0,74,0,1,,,,,,,,
,,"[""circle"",""red"",""hori"",""left"",[-150,0],[-106,-106]]",circle,red,hori,left,"[-150,0]","[-106,-106]",left,1,,,,,,001,2025-03-11_12h18.42.489,SL_sali,2021.2.3,Win32,59.52380952,2.0996,,,75,0,75,0,1,,,,,,,,
,,"[""circle"",""red"",""vert"",""up"",[-106,106],[-150,0]]",circle,red,vert,up,"[-106,106]","[-150,0]",left,0,,,,,,001,2025-03-11_12h18.42.489,SL_sali,2021.2.3,Win32,59.52380952,2.38,,,76,0,76,0,1,,,,,,,,
,,"[""circle"",""red"",""hori"",""left"",[0,-150],[0,150]]",circle,red,hori,left,"[0,-150]","[0,150]",up,0,,,,,,001,2025-03-11_12h18.42.489,SL_sali,2021.2.3,Win32,59.52380952,2.3176,,,77,0,77,0,1,,,,,,,,
,,"[""circle"",""no_dis"",""vert"",""up"",[99999,99999],[-106,-106]]",circle,no_dis,vert,up,"[99999,99999]","[-106,-106]",,0,,,,,,001,2025-03-11_12h18.42.489,SL_sali,2021.2.3,Win32,59.52380952,,,,78,0,78,0,1,,,,,,,,
,,"[""circle"",""red"",""vert"",""up"",[0,150],[-106,-106]]",circle,red,vert,up,"[0,150]","[-106,-106]",up,1,,,,,,001,2025-03-11_12h18.42.489,SL_sali,2021.2.3,Win32,59.52380952,2.0888,,,79,0,79,0,1,,,,,,,,
,,"[""circle"",""green"",""hori"",""left"",[-150,0],[0,150]]",circle,green,hori,left,"[-150,0]","[0,150]",up,0,,,,,,001,2025-03-11_12h18.42.489,SL_sali,2021.2.3,Win32,59.52380952,2.4718,,,80,0,80,0,1,,,,,,,,
,,"[""diamond"",""green"",""vert"",""up"",[-106,106],[106,106]]",diamond,green,vert,up,"[-106,106]","[106,106]",up,1,,,,,,001,2025-03-11_12h18.42.489,SL_sali,2021.2.3,Win32,59.52380952,2.2249,,,81,0,81,0,1,,,,,,,,
,,"[""diamond"",""red"",""hori"",""left"",[106,106],[-106,106]]",diamond,red,hori,left,"[106,106]","[-106,106]",left,1,,,,,,001,2025-03-11_12h18.42.489,SL_sali,2021.2.3,Win32,59.52380952,2.1255,,,82,0,82,0,1,,,,,,,,
,,"[""circle"",""green"",""hori"",""left"",[106,-106],[0,-150]]",circle,green,hori,left,"[106,-106]","[0,-150]",left,1,,,,,,001,2025-03-11_12h18.42.489,SL_sali,2021.2.3,Win32,59.52380952,1.6184,,,83,0,83,0,1,,,,,,,,
,,"[""circle"",""no_dis"",""vert"",""up"",[99999,99999],[-106,106]]",circle,no_dis,vert,up,"[99999,99999]","[-106,106]",up,1,,,,,,001,2025-03-11_12h18.42.489,SL_sali,2021.2.3,Win32,59.52380952,1.5023,,,84,0,84,0,1,,,,,,,,
,,"[""circle"",""green"",""hori"",""left"",[150,0],[106,106]]",circle,green,hori,left,"[150,0]","[106,106]",left,1,,,,,,001,2025-03-11_12h18.42.489,SL_sali,2021.2.3,Win32,59.52380952,1.3329,,,85,0,85,0,1,,,,,,,,
,,"[""circle"",""red"",""vert"",""up"",[0,-150],[0,150]]",circle,red,vert,up,"[0,-150]","[0,150]",up,1,,,,,,001,2025-03-11_12h18.42.489,SL_sali,2021.2.3,Win32,59.52380952,1.4757,,,86,0,86,0,1,,,,,,,,
,,"[""diamond"",""green"",""hori"",""left"",[-106,106],[-150,0]]",diamond,green,hori,left,"[-106,106]","[-150,0]",left,1,,,,,,001,2025-03-11_12h18.42.489,SL_sali,2021.2.3,Win32,59.52380952,2.5882,,,87,0,87,0,1,,,,,,,,
,,"[""circle"",""no_dis"",""hori"",""left"",[99999,99999],[-150,0]]",circle,no_dis,hori,left,"[99999,99999]","[-150,0]",left,1,,,,,,001,2025-03-11_12h18.42.489,SL_sali,2021.2.3,Win32,59.52380952,1.6523,,,88,0,88,0,1,,,,,,,,
,,"[""diamond"",""green"",""hori"",""left"",[0,-150],[106,106]]",diamond,green,hori,left,"[0,-150]","[106,106]",left,1,,,,,,001,2025-03-11_12h18.42.489,SL_sali,2021.2.3,Win32,59.52380952,1.8544,,,89,0,89,0,1,,,,,,,,
,,"[""diamond"",""red"",""vert"",""up"",[150,0],[-106,106]]",diamond,red,vert,up,"[150,0]","[-106,106]",up,1,,,,,,001,2025-03-11_12h18.42.489,SL_sali,2021.2.3,Win32,59.52380952,2.033,,,90,0,90,0,1,,,,,,,,
,,"[""diamond"",""red"",""vert"",""up"",[-106,-106],[106,106]]",diamond,red,vert,up,"[-106,-106]","[106,106]",up,1,,,,,,001,2025-03-11_12h18.42.489,SL_sali,2021.2.3,Win32,59.52380952,2.126,,,91,0,91,0,1,,,,,,,,
,,"[""circle"",""no_dis"",""hori"",""left"",[99999,99999],[-106,106]]",circle,no_dis,hori,left,"[99999,99999]","[-106,106]",left,1,,,,,,001,2025-03-11_12h18.42.489,SL_sali,2021.2.3,Win32,59.52380952,2.072,,,92,0,92,0,1,,,,,,,,
,,"[""circle"",""green"",""hori"",""left"",[150,0],[-106,-106]]",circle,green,hori,left,"[150,0]","[-106,-106]",left,1,,,,,,001,2025-03-11_12h18.42.489,SL_sali,2021.2.3,Win32,59.52380952,1.6836,,,93,0,93,0,1,,,,,,,,
,,"[""circle"",""green"",""hori"",""left"",[-106,106],[106,-106]]",circle,green,hori,left,"[-106,106]","[106,-106]",left,1,,,,,,001,2025-03-11_12h18.42.489,SL_sali,2021.2.3,Win32,59.52380952,1.7555,,,94,0,94,0,1,,,,,,,,
,,"[""diamond"",""red"",""hori"",""left"",[150,0],[106,-106]]",diamond,red,hori,left,"[150,0]","[106,-106]",left,1,,,,,,001,2025-03-11_12h18.42.489,SL_sali,2021.2.3,Win32,59.52380952,1.4156,,,95,0,95,0,1,,,,,,,,
,,"[""diamond"",""no_dis"",""hori"",""left"",[99999,99999],[-106,-106]]",diamond,no_dis,hori,left,"[99999,99999]","[-106,-106]",left,1,,,,,,001,2025-03-11_12h18.42.489,SL_sali,2021.2.3,Win32,59.52380952,2.829,,,96,0,96,0,1,,,,,,,,
,,"[""diamond"",""no_dis"",""vert"",""up"",[99999,99999],[106,-106]]",diamond,no_dis,vert,up,"[99999,99999]","[106,-106]",up,1,,,,,,001,2025-03-11_12h18.42.489,SL_sali,2021.2.3,Win32,59.52380952,1.6151,,,97,0,97,0,1,,,,,,,,
,,"[""diamond"",""red"",""vert"",""up"",[-106,-106],[0,150]]",diamond,red,vert,up,"[-106,-106]","[0,150]",up,1,,,,,,001,2025-03-11_12h18.42.489,SL_sali,2021.2.3,Win32,59.52380952,2.4538,,,98,0,98,0,1,,,,,,,,
,,"[""diamond"",""red"",""hori"",""left"",[106,106],[-106,106]]",diamond,red,hori,left,"[106,106]","[-106,106]",left,1,,,,,,001,2025-03-11_12h18.42.489,SL_sali,2021.2.3,Win32,59.52380952,2.1504,,,99,0,99,0,1,,,,,,,,
,,"[""circle"",""red"",""hori"",""left"",[-150,0],[106,106]]",circle,red,hori,left,"[-150,0]","[106,106]",up,0,,,,,,001,2025-03-11_12h18.42.489,SL_sali,2021.2.3,Win32,59.52380952,1.4391,,,100,0,100,0,1,,,,,,,,
,,"[""diamond"",""no_dis"",""hori"",""left"",[99999,99999],[0,-150]]",diamond,no_dis,hori,left,"[99999,99999]","[0,-150]",left,1,,,,,,001,2025-03-11_12h18.42.489,SL_sali,2021.2.3,Win32,59.52380952,1.4266,,,101,0,101,0,1,,,,,,,,
,,"[""circle"",""green"",""hori"",""left"",[-150,0],[-106,-106]]",circle,green,hori,left,"[-150,0]","[-106,-106]",left,1,,,,,,001,2025-03-11_12h18.42.489,SL_sali,2021.2.3,Win32,59.52380952,1.6984,,,102,0,102,0,1,,,,,,,,
,,"[""diamond"",""no_dis"",""hori"",""left"",[99999,99999],[106,-106]]",diamond,no_dis,hori,left,"[99999,99999]","[106,-106]",left,1,,,,,,001,2025-03-11_12h18.42.489,SL_sali,2021.2.3,Win32,59.52380952,2.2148,,,103,0,103,0,1,,,,,,,,
,,"[""circle"",""red"",""vert"",""up"",[-150,0],[-106,-106]]",circle,red,vert,up,"[-150,0]","[-106,-106]",,0,,,,,,001,2025-03-11_12h18.42.489,SL_sali,2021.2.3,Win32,59.52380952,,,,104,0,104,0,1,,,,,,,,
,,"[""diamond"",""no_dis"",""vert"",""up"",[99999,99999],[0,150]]",diamond,no_dis,vert,up,"[99999,99999]","[0,150]",up,1,,,,,,001,2025-03-11_12h18.42.489,SL_sali,2021.2.3,Win32,59.52380952,2.611,,,105,0,105,0,1,,,,,,,,
,,"[""diamond"",""red"",""vert"",""up"",[0,-150],[0,150]]",diamond,red,vert,up,"[0,-150]","[0,150]",up,1,,,,,,001,2025-03-11_12h18.42.489,SL_sali,2021.2.3,Win32,59.52380952,1.4491,,,106,0,106,0,1,,,,,,,,
,,"[""diamond"",""no_dis"",""hori"",""left"",[99999,99999],[106,106]]",diamond,no_dis,hori,left,"[99999,99999]","[106,106]",left,1,,,,,,001,2025-03-11_12h18.42.489,SL_sali,2021.2.3,Win32,59.52380952,1.3835,,,107,0,107,0,1,,,,,,,,
,,"[""diamond"",""no_dis"",""vert"",""up"",[99999,99999],[-106,106]]",diamond,no_dis,vert,up,"[99999,99999]","[-106,106]",up,1,,,,,,001,2025-03-11_12h18.42.489,SL_sali,2021.2.3,Win32,59.52380952,1.7304,,,108,0,108,0,1,,,,,,,,
,,"[""diamond"",""red"",""vert"",""up"",[-106,-106],[150,0]]",diamond,red,vert,up,"[-106,-106]","[150,0]",up,1,,,,,,001,2025-03-11_12h18.42.489,SL_sali,2021.2.3,Win32,59.52380952,1.8685,,,109,0,109,0,1,,,,,,,,
,,"[""diamond"",""red"",""hori"",""left"",[150,0],[0,150]]",diamond,red,hori,left,"[150,0]","[0,150]",left,1,,,,,,001,2025-03-11_12h18.42.489,SL_sali,2021.2.3,Win32,59.52380952,2.8971,,,110,0,110,0,1,,,,,,,,
,,"[""diamond"",""red"",""vert"",""up"",[-106,-106],[150,0]]",diamond,red,vert,up,"[-106,-106]","[150,0]",up,1,,,,,,001,2025-03-11_12h18.42.489,SL_sali,2021.2.3,Win32,59.52380952,2.7641,,,111,0,111,0,1,,,,,,,,
,,"[""diamond"",""no_dis"",""vert"",""up"",[99999,99999],[0,150]]",diamond,no_dis,vert,up,"[99999,99999]","[0,150]",up,1,,,,,,001,2025-03-11_12h18.42.489,SL_sali,2021.2.3,Win32,59.52380952,1.0828,,,112,0,112,0,1,,,,,,,,
,,"[""diamond"",""no_dis"",""hori"",""left"",[99999,99999],[0,150]]",diamond,no_dis,hori,left,"[99999,99999]","[0,150]",left,1,,,,,,001,2025-03-11_12h18.42.489,SL_sali,2021.2.3,Win32,59.52380952,2.4335,,,113,0,113,0,1,,,,,,,,
,,"[""diamond"",""red"",""hori"",""left"",[0,150],[150,0]]",diamond,red,hori,left,"[0,150]","[150,0]",left,1,,,,,,001,2025-03-11_12h18.42.489,SL_sali,2021.2.3,Win32,59.52380952,2.3168,,,114,0,114,0,1,,,,,,,,
,,"[""circle"",""green"",""vert"",""up"",[-106,-106],[-106,106]]",circle,green,vert,up,"[-106,-106]","[-106,106]",,0,,,,,,001,2025-03-11_12h18.42.489,SL_sali,2021.2.3,Win32,59.52380952,,,,115,0,115,0,1,,,,,,,,
,,"[""circle"",""no_dis"",""vert"",""up"",[99999,99999],[106,106]]",circle,no_dis,vert,up,"[99999,99999]","[106,106]",up,1,,,,,,001,2025-03-11_12h18.42.489,SL_sali,2021.2.3,Win32,59.52380952,1.7852,,,116,0,116,0,1,,,,,,,,
,,"[""circle"",""no_dis"",""vert"",""up"",[99999,99999],[150,0]]",circle,no_dis,vert,up,"[99999,99999]","[150,0]",up,1,,,,,,001,2025-03-11_12h18.42.489,SL_sali,2021.2.3,Win32,59.52380952,1.9885,,,117,0,117,0,1,,,,,,,,
,,"[""circle"",""green"",""hori"",""left"",[0,150],[106,-106]]",circle,green,hori,left,"[0,150]","[106,-106]",left,1,,,,,,001,2025-03-11_12h18.42.489,SL_sali,2021.2.3,Win32,59.52380952,1.6169,,,118,0,118,0,1,,,,,,,,
,,"[""circle"",""green"",""vert"",""up"",[106,-106],[0,-150]]",circle,green,vert,up,"[106,-106]","[0,-150]",up,1,,,,,,001,2025-03-11_12h18.42.489,SL_sali,2021.2.3,Win32,59.52380952,1.7597,,,119,0,119,0,1,,,,,,,,
,,,,,,,,,,,,,,,,001,2025-03-11_12h18.42.489,SL_sali,2021.2.3,Win32,59.52380952,,,,,,,,,1,space,2.3151,0,0,0,0,1
,,"[""circle"",""no_dis"",""vert"",""up"",[99999,99999],[106,-106]]",circle,no_dis,vert,up,"[99999,99999]","[106,-106]",up,1,,,,,,001,2025-03-11_12h18.42.489,SL_sali,2021.2.3,Win32,59.52380952,2.8663,,,0,0,0,0,1,,,,,,,,
,,"[""circle"",""no_dis"",""hori"",""left"",[99999,99999],[-150,0]]",circle,no_dis,hori,left,"[99999,99999]","[-150,0]",left,1,,,,,,001,2025-03-11_12h18.42.489,SL_sali,2021.2.3,Win32,59.52380952,1.3351,,,1,0,1,0,1,,,,,,,,
,,"[""circle"",""red"",""hori"",""left"",[-106,-106],[0,150]]",circle,red,hori,left,"[-106,-106]","[0,150]",up,0,,,,,,001,2025-03-11_12h18.42.489,SL_sali,2021.2.3,Win32,59.52380952,1.2383,,,2,0,2,0,1,,,,,,,,
,,"[""circle"",""no_dis"",""hori"",""left"",[99999,99999],[-150,0]]",circle,no_dis,hori,left,"[99999,99999]","[-150,0]",left,1,,,,,,001,2025-03-11_12h18.42.489,SL_sali,2021.2.3,Win32,59.52380952,0.8504,,,3,0,3,0,1,,,,,,,,
,,"[""diamond"",""green"",""hori"",""left"",[106,-106],[106,106]]",diamond,green,hori,left,"[106,-106]","[106,106]",up,0,,,,,,001,2025-03-11_12h18.42.489,SL_sali,2021.2.3,Win32,59.52380952,2.4062,,,4,0,4,0,1,,,,,,,,
,,"[""diamond"",""green"",""vert"",""up"",[0,150],[106,106]]",diamond,green,vert,up,"[0,150]","[106,106]",up,1,,,,,,001,2025-03-11_12h18.42.489,SL_sali,2021.2.3,Win32,59.52380952,2.4169,,,5,0,5,0,1,,,,,,,,
,,"[""circle"",""green"",""vert"",""up"",[106,-106],[0,-150]]",circle,green,vert,up,"[106,-106]","[0,-150]",up,1,,,,,,001,2025-03-11_12h18.42.489,SL_sali,2021.2.3,Win32,59.52380952,2.2344,,,6,0,6,0,1,,,,,,,,
,,"[""diamond"",""green"",""vert"",""up"",[106,106],[106,-106]]",diamond,green,vert,up,"[106,106]","[106,-106]",up,1,,,,,,001,2025-03-11_12h18.42.489,SL_sali,2021.2.3,Win32,59.52380952,2.1667,,,7,0,7,0,1,,,,,,,,
,,"[""circle"",""no_dis"",""vert"",""up"",[99999,99999],[106,-106]]",circle,no_dis,vert,up,"[99999,99999]","[106,-106]",up,1,,,,,,001,2025-03-11_12h18.42.489,SL_sali,2021.2.3,Win32,59.52380952,2.2345,,,8,0,8,0,1,,,,,,,,
,,"[""circle"",""green"",""hori"",""left"",[150,0],[106,106]]",circle,green,hori,left,"[150,0]","[106,106]",left,1,,,,,,001,2025-03-11_12h18.42.489,SL_sali,2021.2.3,Win32,59.52380952,2.5001,,,9,0,9,0,1,,,,,,,,
,,"[""circle"",""red"",""vert"",""up"",[-150,0],[-106,-106]]",circle,red,vert,up,"[-150,0]","[-106,-106]",up,1,,,,,,001,2025-03-11_12h18.42.489,SL_sali,2021.2.3,Win32,59.52380952,1.7681,,,10,0,10,0,1,,,,,,,,
,,"[""circle"",""green"",""vert"",""up"",[-106,106],[106,-106]]",circle,green,vert,up,"[-106,106]","[106,-106]",up,1,,,,,,001,2025-03-11_12h18.42.489,SL_sali,2021.2.3,Win32,59.52380952,1.5369,,,11,0,11,0,1,,,,,,,,
,,"[""diamond"",""green"",""hori"",""left"",[106,-106],[0,150]]",diamond,green,hori,left,"[106,-106]","[0,150]",left,1,,,,,,001,2025-03-11_12h18.42.489,SL_sali,2021.2.3,Win32,59.52380952,2.322,,,12,0,12,0,1,,,,,,,,
,,"[""circle"",""red"",""vert"",""up"",[106,-106],[0,-150]]",circle,red,vert,up,"[106,-106]","[0,-150]",up,1,,,,,,001,2025-03-11_12h18.42.489,SL_sali,2021.2.3,Win32,59.52380952,2.657,,,13,0,13,0,1,,,,,,,,
,,"[""diamond"",""red"",""hori"",""left"",[0,-150],[150,0]]",diamond,red,hori,left,"[0,-150]","[150,0]",left,1,,,,,,001,2025-03-11_12h18.42.489,SL_sali,2021.2.3,Win32,59.52380952,2.6517,,,14,0,14,0,1,,,,,,,,
,,"[""circle"",""no_dis"",""hori"",""left"",[99999,99999],[106,106]]",circle,no_dis,hori,left,"[99999,99999]","[106,106]",,0,,,,,,001,2025-03-11_12h18.42.489,SL_sali,2021.2.3,Win32,59.52380952,,,,15,0,15,0,1,,,,,,,,
,,"[""diamond"",""no_dis"",""vert"",""up"",[99999,99999],[106,-106]]",diamond,no_dis,vert,up,"[99999,99999]","[106,-106]",up,1,,,,,,001,2025-03-11_12h18.42.489,SL_sali,2021.2.3,Win32,59.52380952,2.7335,,,16,0,16,0,1,,,,,,,,
,,"[""circle"",""red"",""vert"",""up"",[-106,-106],[150,0]]",circle,red,vert,up,"[-106,-106]","[150,0]",up,1,,,,,,001,2025-03-11_12h18.42.489,SL_sali,2021.2.3,Win32,59.52380952,2.6002,,,17,0,17,0,1,,,,,,,,
,,"[""circle"",""red"",""vert"",""up"",[106,106],[-150,0]]",circle,red,vert,up,"[106,106]","[-150,0]",up,1,,,,,,001,2025-03-11_12h18.42.489,SL_sali,2021.2.3,Win32,59.52380952,1.977,,,18,0,18,0,1,,,,,,,,
,,"[""diamond"",""no_dis"",""vert"",""up"",[99999,99999],[-106,-106]]",diamond,no_dis,vert,up,"[99999,99999]","[-106,-106]",,0,,,,,,001,2025-03-11_12h18.42.489,SL_sali,2021.2.3,Win32,59.52380952,,,,19,0,19,0,1,,,,,,,,
,,"[""diamond"",""red"",""hori"",""left"",[-106,106],[106,-106]]",diamond,red,hori,left,"[-106,106]","[106,-106]",left,1,,,,,,001,2025-03-11_12h18.42.489,SL_sali,2021.2.3,Win32,59.52380952,1.9285,,,20,0,20,0,1,,,,,,,,
,,"[""diamond"",""no_dis"",""vert"",""up"",[99999,99999],[150,0]]",diamond,no_dis,vert,up,"[99999,99999]","[150,0]",up,1,,,,,,001,2025-03-11_12h18.42.489,SL_sali,2021.2.3,Win32,59.52380952,1.2839,,,21,0,21,0,1,,,,,,,,
,,"[""circle"",""no_dis"",""hori"",""left"",[99999,99999],[-106,106]]",circle,no_dis,hori,left,"[99999,99999]","[-106,106]",left,1,,,,,,001,2025-03-11_12h18.42.489,SL_sali,2021.2.3,Win32,59.52380952,1.7594,,,22,0,22,0,1,,,,,,,,
,,"[""diamond"",""no_dis"",""vert"",""up"",[99999,99999],[0,150]]",diamond,no_dis,vert,up,"[99999,99999]","[0,150]",up,1,,,,,,001,2025-03-11_12h18.42.489,SL_sali,2021.2.3,Win32,59.52380952,1.6005,,,23,0,23,0,1,,,,,,,,
,,"[""diamond"",""red"",""vert"",""up"",[-106,-106],[106,106]]",diamond,red,vert,up,"[-106,-106]","[106,106]",,0,,,,,,001,2025-03-11_12h18.42.489,SL_sali,2021.2.3,Win32,59.52380952,,,,24,0,24,0,1,,,,,,,,
,,"[""diamond"",""green"",""hori"",""left"",[0,-150],[106,106]]",diamond,green,hori,left,"[0,-150]","[106,106]",left,1,,,,,,001,2025-03-11_12h18.42.489,SL_sali,2021.2.3,Win32,59.52380952,1.8687,,,25,0,25,0,1,,,,,,,,
,,"[""diamond"",""green"",""vert"",""up"",[-106,106],[0,150]]",diamond,green,vert,up,"[-106,106]","[0,150]",up,1,,,,,,001,2025-03-11_12h18.42.489,SL_sali,2021.2.3,Win32,59.52380952,2.6364,,,26,0,26,0,1,,,,,,,,
,,"[""circle"",""green"",""hori"",""left"",[0,150],[-106,-106]]",circle,green,hori,left,"[0,150]","[-106,-106]",left,1,,,,,,001,2025-03-11_12h18.42.489,SL_sali,2021.2.3,Win32,59.52380952,1.3861,,,27,0,27,0,1,,,,,,,,
,,"[""circle"",""red"",""vert"",""up"",[0,-150],[0,150]]",circle,red,vert,up,"[0,-150]","[0,150]",up,1,,,,,,001,2025-03-11_12h18.42.489,SL_sali,2021.2.3,Win32,59.52380952,1.6865,,,28,0,28,0,1,,,,,,,,
,,"[""circle"",""green"",""vert"",""up"",[0,150],[-106,106]]",circle,green,vert,up,"[0,150]","[-106,106]",up,1,,,,,,001,2025-03-11_12h18.42.489,SL_sali,2021.2.3,Win32,59.52380952,1.9742,,,29,0,29,0,1,,,,,,,,
,,"[""diamond"",""green"",""vert"",""up"",[-106,-106],[150,0]]",diamond,green,vert,up,"[-106,-106]","[150,0]",up,1,,,,,,001,2025-03-11_12h18.42.489,SL_sali,2021.2.3,Win32,59.52380952,2.1179,,,30,0,30,0,1,,,,,,,,
,,"[""diamond"",""no_dis"",""vert"",""up"",[99999,99999],[0,150]]",diamond,no_dis,vert,up,"[99999,99999]","[0,150]",up,1,,,,,,001,2025-03-11_12h18.42.489,SL_sali,2021.2.3,Win32,59.52380952,1.5338,,,31,0,31,0,1,,,,,,,,
,,"[""circle"",""green"",""hori"",""left"",[150,0],[-106,-106]]",circle,green,hori,left,"[150,0]","[-106,-106]",left,1,,,,,,001,2025-03-11_12h18.42.489,SL_sali,2021.2.3,Win32,59.52380952,1.5859,,,32,0,32,0,1,,,,,,,,
,,"[""diamond"",""red"",""vert"",""up"",[-150,0],[150,0]]",diamond,red,vert,up,"[-150,0]","[150,0]",up,1,,,,,,001,2025-03-11_12h18.42.489,SL_sali,2021.2.3,Win32,59.52380952,1.0368,,,33,0,33,0,1,,,,,,,,
,,"[""diamond"",""red"",""hori"",""left"",[106,106],[-106,106]]",diamond,red,hori,left,"[106,106]","[-106,106]",left,1,,,,,,001,2025-03-11_12h18.42.489,SL_sali,2021.2.3,Win32,59.52380952,2.2058,,,34,0,34,0,1,,,,,,,,
,,"[""diamond"",""green"",""hori"",""left"",[0,-150],[106,-106]]",diamond,green,hori,left,"[0,-150]","[106,-106]",left,1,,,,,,001,2025-03-11_12h18.42.489,SL_sali,2021.2.3,Win32,59.52380952,1.8718,,,35,0,35,0,1,,,,,,,,
,,"[""circle"",""no_dis"",""hori"",""left"",[99999,99999],[-150,0]]",circle,no_dis,hori,left,"[99999,99999]","[-150,0]",,0,,,,,,001,2025-03-11_12h18.42.489,SL_sali,2021.2.3,Win32,59.52380952,,,,36,0,36,0,1,,,,,,,,
,,"[""circle"",""red"",""hori"",""left"",[-106,-106],[106,-106]]",circle,red,hori,left,"[-106,-106]","[106,-106]",left,1,,,,,,001,2025-03-11_12h18.42.489,SL_sali,2021.2.3,Win32,59.52380952,2.1841,,,37,0,37,0,1,,,,,,,,
,,"[""diamond"",""red"",""vert"",""up"",[-106,-106],[0,150]]",diamond,red,vert,up,"[-106,-106]","[0,150]",up,1,,,,,,001,2025-03-11_12h18.42.489,SL_sali,2021.2.3,Win32,59.52380952,1.8168,,,38,0,38,0,1,,,,,,,,
,,"[""diamond"",""red"",""vert"",""up"",[-106,-106],[150,0]]",diamond,red,vert,up,"[-106,-106]","[150,0]",,0,,,,,,001,2025-03-11_12h18.42.489,SL_sali,2021.2.3,Win32,59.52380952,,,,39,0,39,0,1,,,,,,,,
,,"[""diamond"",""no_dis"",""hori"",""left"",[99999,99999],[0,-150]]",diamond,no_dis,hori,left,"[99999,99999]","[0,-150]",left,1,,,,,,001,2025-03-11_12h18.42.489,SL_sali,2021.2.3,Win32,59.52380952,2.5599,,,40,0,40,0,1,,,,,,,,
,,"[""diamond"",""no_dis"",""hori"",""left"",[99999,99999],[106,-106]]",diamond,no_dis,hori,left,"[99999,99999]","[106,-106]",left,1,,,,,,001,2025-03-11_12h18.42.489,SL_sali,2021.2.3,Win32,59.52380952,1.4354,,,41,0,41,0,1,,,,,,,,
,,"[""circle"",""green"",""vert"",""up"",[106,-106],[0,150]]",circle,green,vert,up,"[106,-106]","[0,150]",up,1,,,,,,001,2025-03-11_12h18.42.489,SL_sali,2021.2.3,Win32,59.52380952,1.4032,,,42,0,42,0,1,,,,,,,,
,,"[""circle"",""green"",""hori"",""left"",[0,150],[106,-106]]",circle,green,hori,left,"[0,150]","[106,-106]",left,1,,,,,,001,2025-03-11_12h18.42.489,SL_sali,2021.2.3,Win32,59.52380952,1.6369,,,43,0,43,0,1,,,,,,,,
,,"[""diamond"",""green"",""vert"",""up"",[106,106],[-106,106]]",diamond,green,vert,up,"[106,106]","[-106,106]",up,1,,,,,,001,2025-03-11_12h18.42.489,SL_sali,2021.2.3,Win32,59.52380952,1.6556,,,44,0,44,0,1,,,,,,,,
,,"[""diamond"",""green"",""hori"",""left"",[106,-106],[-150,0]]",diamond,green,hori,left,"[106,-106]","[-150,0]",left,1,,,,,,001,2025-03-11_12h18.42.489,SL_sali,2021.2.3,Win32,59.52380952,1.288,,,45,0,45,0,1,,,,,,,,
,,"[""circle"",""no_dis"",""hori"",""left"",[99999,99999],[-150,0]]",circle,no_dis,hori,left,"[99999,99999]","[-150,0]",left,1,,,,,,001,2025-03-11_12h18.42.489,SL_sali,2021.2.3,Win32,59.52380952,1.8367,,,46,0,46,0,1,,,,,,,,
,,"[""diamond"",""green"",""vert"",""up"",[-106,106],[106,106]]",diamond,green,vert,up,"[-106,106]","[106,106]",up,1,,,,,,001,2025-03-11_12h18.42.489,SL_sali,2021.2.3,Win32,59.52380952,1.5657,,,47,0,47,0,1,,,,,,,,
,,"[""diamond"",""no_dis"",""hori"",""left"",[99999,99999],[106,-106]]",diamond,no_dis,hori,left,"[99999,99999]","[106,-106]",left,1,,,,,,001,2025-03-11_12h18.42.489,SL_sali,2021.2.3,Win32,59.52380952,1.5005,,,48,0,48,0,1,,,,,,,,
,,"[""diamond"",""red"",""hori"",""left"",[0,150],[150,0]]",diamond,red,hori,left,"[0,150]","[150,0]",left,1,,,,,,001,2025-03-11_12h18.42.489,SL_sali,2021.2.3,Win32,59.52380952,0.9853,,,49,0,49,0,1,,,,,,,,
,,"[""diamond"",""red"",""hori"",""left"",[150,0],[0,150]]",diamond,red,hori,left,"[150,0]","[0,150]",left,1,,,,,,001,2025-03-11_12h18.42.489,SL_sali,2021.2.3,Win32,59.52380952,1.1861,,,50,0,50,0,1,,,,,,,,
,,"[""circle"",""no_dis"",""hori"",""left"",[99999,99999],[150,0]]",circle,no_dis,hori,left,"[99999,99999]","[150,0]",up,0,,,,,,001,2025-03-11_12h18.42.489,SL_sali,2021.2.3,Win32,59.52380952,1.3058,,,51,0,51,0,1,,,,,,,,
,,"[""circle"",""red"",""vert"",""up"",[-106,106],[-150,0]]",circle,red,vert,up,"[-106,106]","[-150,0]",left,0,,,,,,001,2025-03-11_12h18.42.489,SL_sali,2021.2.3,Win32,59.52380952,1.4847,,,52,0,52,0,1,,,,,,,,
,,"[""circle"",""red"",""vert"",""up"",[-106,-106],[-150,0]]",circle,red,vert,up,"[-106,-106]","[-150,0]",,0,,,,,,001,2025-03-11_12h18.42.489,SL_sali,2021.2.3,Win32,59.52380952,,,,53,0,53,0,1,,,,,,,,
,,"[""diamond"",""red"",""hori"",""left"",[106,106],[-106,106]]",diamond,red,hori,left,"[106,106]","[-106,106]",left,1,,,,,,001,2025-03-11_12h18.42.489,SL_sali,2021.2.3,Win32,59.52380952,1.2237,,,54,0,54,0,1,,,,,,,,
,,"[""diamond"",""green"",""hori"",""left"",[-106,106],[-150,0]]",diamond,green,hori,left,"[-106,106]","[-150,0]",,0,,,,,,001,2025-03-11_12h18.42.489,SL_sali,2021.2.3,Win32,59.52380952,,,,55,0,55,0,1,,,,,,,,
,,"[""circle"",""no_dis"",""hori"",""left"",[99999,99999],[0,150]]",circle,no_dis,hori,left,"[99999,99999]","[0,150]",left,1,,,,,,001,2025-03-11_12h18.42.489,SL_sali,2021.2.3,Win32,59.52380952,1.5163,,,56,0,56,0,1,,,,,,,,
,,"[""diamond"",""red"",""hori"",""left"",[-106,-106],[-106,106]]",diamond,red,hori,left,"[-106,-106]","[-106,106]",left,1,,,,,,001,2025-03-11_12h18.42.489,SL_sali,2021.2.3,Win32,59.52380952,2.1543,,,57,0,57,0,1,,,,,,,,
,,"[""circle"",""red"",""hori"",""left"",[106,-106],[-106,106]]",circle,red,hori,left,"[106,-106]","[-106,106]",,0,,,,,,001,2025-03-11_12h18.42.489,SL_sali,2021.2.3,Win32,59.52380952,,,,58,0,58,0,1,,,,,,,,
,,"[""diamond"",""red"",""hori"",""left"",[-106,-106],[106,-106]]",diamond,red,hori,left,"[-106,-106]","[106,-106]",left,1,,,,,,001,2025-03-11_12h18.42.489,SL_sali,2021.2.3,Win32,59.52380952,1.9404,,,59,0,59,0,1,,,,,,,,
,,"[""circle"",""red"",""hori"",""left"",[0,-150],[-106,106]]",circle,red,hori,left,"[0,-150]","[-106,106]",left,1,,,,,,001,2025-03-11_12h18.42.489,SL_sali,2021.2.3,Win32,59.52380952,2.2282,,,60,0,60,0,1,,,,,,,,
,,"[""diamond"",""no_dis"",""vert"",""up"",[99999,99999],[-150,0]]",diamond,no_dis,vert,up,"[99999,99999]","[-150,0]",up,1,,,,,,001,2025-03-11_12h18.42.489,SL_sali,2021.2.3,Win32,59.52380952,2.7183,,,61,0,61,0,1,,,,,,,,
,,"[""diamond"",""no_dis"",""vert"",""up"",[99999,99999],[0,150]]",diamond,no_dis,vert,up,"[99999,99999]","[0,150]",up,1,,,,,,001,2025-03-11_12h18.42.489,SL_sali,2021.2.3,Win32,59.52380952,1.6393,,,62,0,62,0,1,,,,,,,,
,,"[""circle"",""green"",""hori"",""left"",[106,-106],[0,-150]]",circle,green,hori,left,"[106,-106]","[0,-150]",left,1,,,,,,001,2025-03-11_12h18.42.489,SL_sali,2021.2.3,Win32,59.52380952,2.2015,,,63,0,63,0,1,,,,,,,,
,,"[""circle"",""red"",""vert"",""up"",[-106,-106],[106,-106]]",circle,red,vert,up,"[-106,-106]","[106,-106]",up,1,,,,,,001,2025-03-11_12h18.42.489,SL_sali,2021.2.3,Win32,59.52380952,1.5883,,,64,0,64,0,1,,,,,,,,
,,"[""diamond"",""green"",""vert"",""up"",[-106,-106],[-150,0]]",diamond,green,vert,up,"[-106,-106]","[-150,0]",up,1,,,,,,001,2025-03-11_12h18.42.489,SL_sali,2021.2.3,Win32,59.52380952,1.7275,,,65,0,65,0,1,,,,,,,,
,,"[""circle"",""red"",""vert"",""up"",[-106,-106],[106,-106]]",circle,red,vert,up,"[-106,-106]","[106,-106]",up,1,,,,,,001,2025-03-11_12h18.42.489,SL_sali,2021.2.3,Win32,59.52380952,1.7848,,,66,0,66,0,1,,,,,,,,
,,"[""diamond"",""no_dis"",""vert"",""up"",[99999,99999],[-106,106]]",diamond,no_dis,vert,up,"[99999,99999]","[-106,106]",up,1,,,,,,001,2025-03-11_12h18.42.489,SL_sali,2021.2.3,Win32,59.52380952,2.0507,,,67,0,67,0,1,,,,,,,,
,,"[""diamond"",""red"",""vert"",""up"",[0,-150],[0,150]]",diamond,red,vert,up,"[0,-150]","[0,150]",up,1,,,,,,001,2025-03-11_12h18.42.489,SL_sali,2021.2.3,Win32,59.52380952,1.8702,,,68,0,68,0,1,,,,,,,,
,,"[""circle"",""red"",""hori"",""left"",[-150,0],[106,106]]",circle,red,hori,left,"[-150,0]","[106,106]",left,1,,,,,,001,2025-03-11_12h18.42.489,SL_sali,2021.2.3,Win32,59.52380952,1.5367,,,69,0,69,0,1,,,,,,,,
,,"[""circle"",""green"",""vert"",""up"",[106,106],[-106,-106]]",circle,green,vert,up,"[106,106]","[-106,-106]",up,1,,,,,,001,2025-03-11_12h18.42.489,SL_sali,2021.2.3,Win32,59.52380952,2.6233,,,70,0,70,0,1,,,,,,,,
,,"[""diamond"",""red"",""vert"",""up"",[106,106],[0,150]]",diamond,red,vert,up,"[106,106]","[0,150]",up,1,,,,,,001,2025-03-11_12h18.42.489,SL_sali,2021.2.3,Win32,59.52380952,2.9496,,,71,0,71,0,1,,,,,,,,
,,"[""circle"",""green"",""vert"",""up"",[-106,-106],[-106,106]]",circle,green,vert,up,"[-106,-106]","[-106,106]",up,1,,,,,,001,2025-03-11_12h18.42.489,SL_sali,2021.2.3,Win32,59.52380952,2.0669,,,72,0,72,0,1,,,,,,,,
,,"[""circle"",""no_dis"",""vert"",""up"",[99999,99999],[-106,106]]",circle,no_dis,vert,up,"[99999,99999]","[-106,106]",up,1,,,,,,001,2025-03-11_12h18.42.489,SL_sali,2021.2.3,Win32,59.52380952,2.5204,,,73,0,73,0,1,,,,,,,,
,,"[""circle"",""green"",""hori"",""left"",[-150,0],[0,150]]",circle,green,hori,left,"[-150,0]","[0,150]",left,1,,,,,,001,2025-03-11_12h18.42.489,SL_sali,2021.2.3,Win32,59.52380952,2.1399,,,74,0,74,0,1,,,,,,,,
,,"[""diamond"",""green"",""hori"",""left"",[0,150],[106,-106]]",diamond,green,hori,left,"[0,150]","[106,-106]",left,1,,,,,,001,2025-03-11_12h18.42.489,SL_sali,2021.2.3,Win32,59.52380952,1.4981,,,75,0,75,0,1,,,,,,,,
,,"[""diamond"",""red"",""vert"",""up"",[-106,-106],[-150,0]]",diamond,red,vert,up,"[-106,-106]","[-150,0]",up,1,,,,,,001,2025-03-11_12h18.42.489,SL_sali,2021.2.3,Win32,59.52380952,1.3501,,,76,0,76,0,1,,,,,,,,
,,"[""circle"",""no_dis"",""hori"",""left"",[99999,99999],[0,-150]]",circle,no_dis,hori,left,"[99999,99999]","[0,-150]",left,1,,,,,,001,2025-03-11_12h18.42.489,SL_sali,2021.2.3,Win32,59.52380952,1.5392,,,77,0,77,0,1,,,,,,,,
,,"[""diamond"",""red"",""vert"",""up"",[-106,-106],[150,0]]",diamond,red,vert,up,"[-106,-106]","[150,0]",up,1,,,,,,001,2025-03-11_12h18.42.489,SL_sali,2021.2.3,Win32,59.52380952,2.6164,,,78,0,78,0,1,,,,,,,,
,,"[""diamond"",""red"",""hori"",""left"",[150,0],[106,-106]]",diamond,red,hori,left,"[150,0]","[106,-106]",left,1,,,,,,001,2025-03-11_12h18.42.489,SL_sali,2021.2.3,Win32,59.52380952,1.4878,,,79,0,79,0,1,,,,,,,,
,,"[""diamond"",""green"",""vert"",""up"",[-106,-106],[-106,106]]",diamond,green,vert,up,"[-106,-106]","[-106,106]",up,1,,,,,,001,2025-03-11_12h18.42.489,SL_sali,2021.2.3,Win32,59.52380952,1.7062,,,80,0,80,0,1,,,,,,,,
,,"[""circle"",""no_dis"",""hori"",""left"",[99999,99999],[106,106]]",circle,no_dis,hori,left,"[99999,99999]","[106,106]",left,1,,,,,,001,2025-03-11_12h18.42.489,SL_sali,2021.2.3,Win32,59.52380952,1.5358,,,81,0,81,0,1,,,,,,,,
,,"[""circle"",""no_dis"",""vert"",""up"",[99999,99999],[-106,-106]]",circle,no_dis,vert,up,"[99999,99999]","[-106,-106]",up,1,,,,,,001,2025-03-11_12h18.42.489,SL_sali,2021.2.3,Win32,59.52380952,1.7357,,,82,0,82,0,1,,,,,,,,
,,"[""circle"",""red"",""hori"",""left"",[0,-150],[0,150]]",circle,red,hori,left,"[0,-150]","[0,150]",left,1,,,,,,001,2025-03-11_12h18.42.489,SL_sali,2021.2.3,Win32,59.52380952,1.8009,,,83,0,83,0,1,,,,,,,,
,,"[""diamond"",""no_dis"",""vert"",""up"",[99999,99999],[106,106]]",diamond,no_dis,vert,up,"[99999,99999]","[106,106]",up,1,,,,,,001,2025-03-11_12h18.42.489,SL_sali,2021.2.3,Win32,59.52380952,1.4833,,,84,0,84,0,1,,,,,,,,
,,"[""diamond"",""no_dis"",""hori"",""left"",[99999,99999],[150,0]]",diamond,no_dis,hori,left,"[99999,99999]","[150,0]",left,1,,,,,,001,2025-03-11_12h18.42.489,SL_sali,2021.2.3,Win32,59.52380952,2.1199,,,85,0,85,0,1,,,,,,,,
,,"[""diamond"",""red"",""vert"",""up"",[150,0],[-106,106]]",diamond,red,vert,up,"[150,0]","[-106,106]",up,1,,,,,,001,2025-03-11_12h18.42.489,SL_sali,2021.2.3,Win32,59.52380952,1.4043,,,86,0,86,0,1,,,,,,,,
,,"[""circle"",""green"",""vert"",""up"",[-106,-106],[-150,0]]",circle,green,vert,up,"[-106,-106]","[-150,0]",,0,,,,,,001,2025-03-11_12h18.42.489,SL_sali,2021.2.3,Win32,59.52380952,,,,87,0,87,0,1,,,,,,,,
,,"[""diamond"",""green"",""hori"",""left"",[150,0],[0,150]]",diamond,green,hori,left,"[150,0]","[0,150]",left,1,,,,,,001,2025-03-11_12h18.42.489,SL_sali,2021.2.3,Win32,59.52380952,2.5396,,,88,0,88,0,1,,,,,,,,
,,"[""diamond"",""no_dis"",""vert"",""up"",[99999,99999],[-106,106]]",diamond,no_dis,vert,up,"[99999,99999]","[-106,106]",up,1,,,,,,001,2025-03-11_12h18.42.489,SL_sali,2021.2.3,Win32,59.52380952,2.3718,,,89,0,89,0,1,,,,,,,,
,,"[""circle"",""red"",""hori"",""left"",[0,150],[-106,106]]",circle,red,hori,left,"[0,150]","[-106,106]",up,0,,,,,,001,2025-03-11_12h18.42.489,SL_sali,2021.2.3,Win32,59.52380952,2.6104,,,90,0,90,0,1,,,,,,,,
,,"[""circle"",""red"",""hori"",""left"",[-150,0],[-106,-106]]",circle,red,hori,left,"[-150,0]","[-106,-106]",left,1,,,,,,001,2025-03-11_12h18.42.489,SL_sali,2021.2.3,Win32,59.52380952,1.9547,,,91,0,91,0,1,,,,,,,,
,,"[""circle"",""green"",""vert"",""up"",[-106,-106],[-150,0]]",circle,green,vert,up,"[-106,-106]","[-150,0]",up,1,,,,,,001,2025-03-11_12h18.42.489,SL_sali,2021.2.3,Win32,59.52380952,1.5892,,,92,0,92,0,1,,,,,,,,
,,"[""diamond"",""red"",""vert"",""up"",[-106,-106],[0,150]]",diamond,red,vert,up,"[-106,-106]","[0,150]",up,1,,,,,,001,2025-03-11_12h18.42.489,SL_sali,2021.2.3,Win32,59.52380952,2.1548,,,93,0,93,0,1,,,,,,,,
,,"[""diamond"",""no_dis"",""hori"",""left"",[99999,99999],[-106,-106]]",diamond,no_dis,hori,left,"[99999,99999]","[-106,-106]",left,1,,,,,,001,2025-03-11_12h18.42.489,SL_sali,2021.2.3,Win32,59.52380952,2.5182,,,94,0,94,0,1,,,,,,,,
,,"[""diamond"",""green"",""vert"",""up"",[150,0],[0,150]]",diamond,green,vert,up,"[150,0]","[0,150]",up,1,,,,,,001,2025-03-11_12h18.42.489,SL_sali,2021.2.3,Win32,59.52380952,1.4006,,,95,0,95,0,1,,,,,,,,
,,"[""circle"",""green"",""hori"",""left"",[-150,0],[106,106]]",circle,green,hori,left,"[-150,0]","[106,106]",left,1,,,,,,001,2025-03-11_12h18.42.489,SL_sali,2021.2.3,Win32,59.52380952,2.0841,,,96,0,96,0,1,,,,,,,,
,,"[""diamond"",""green"",""hori"",""left"",[106,106],[150,0]]",diamond,green,hori,left,"[106,106]","[150,0]",left,1,,,,,,001,2025-03-11_12h18.42.489,SL_sali,2021.2.3,Win32,59.52380952,1.3885,,,97,0,97,0,1,,,,,,,,
,,"[""circle"",""green"",""hori"",""left"",[150,0],[0,150]]",circle,green,hori,left,"[150,0]","[0,150]",left,1,,,,,,001,2025-03-11_12h18.42.489,SL_sali,2021.2.3,Win32,59.52380952,1.9511,,,98,0,98,0,1,,,,,,,,
,,"[""diamond"",""no_dis"",""hori"",""left"",[99999,99999],[-106,-106]]",diamond,no_dis,hori,left,"[99999,99999]","[-106,-106]",left,1,,,,,,001,2025-03-11_12h18.42.489,SL_sali,2021.2.3,Win32,59.52380952,2.4023,,,99,0,99,0,1,,,,,,,,
,,"[""circle"",""green"",""hori"",""left"",[-106,106],[106,-106]]",circle,green,hori,left,"[-106,106]","[106,-106]",left,1,,,,,,001,2025-03-11_12h18.42.489,SL_sali,2021.2.3,Win32,59.52380952,1.9859,,,100,0,100,0,1,,,,,,,,
,,"[""circle"",""green"",""hori"",""left"",[-150,0],[-106,-106]]",circle,green,hori,left,"[-150,0]","[-106,-106]",left,1,,,,,,001,2025-03-11_12h18.42.489,SL_sali,2021.2.3,Win32,59.52380952,2.1442,,,101,0,101,0,1,,,,,,,,
,,"[""circle"",""no_dis"",""vert"",""up"",[99999,99999],[-106,-106]]",circle,no_dis,vert,up,"[99999,99999]","[-106,-106]",up,1,,,,,,001,2025-03-11_12h18.42.489,SL_sali,2021.2.3,Win32,59.52380952,1.9852,,,102,0,102,0,1,,,,,,,,
,,"[""circle"",""no_dis"",""vert"",""up"",[99999,99999],[0,-150]]",circle,no_dis,vert,up,"[99999,99999]","[0,-150]",up,1,,,,,,001,2025-03-11_12h18.42.489,SL_sali,2021.2.3,Win32,59.52380952,1.8173,,,103,0,103,0,1,,,,,,,,
,,"[""circle"",""red"",""hori"",""left"",[-150,0],[106,106]]",circle,red,hori,left,"[-150,0]","[106,106]",up,0,,,,,,001,2025-03-11_12h18.42.489,SL_sali,2021.2.3,Win32,59.52380952,1.6675,,,104,0,104,0,1,,,,,,,,
,,"[""diamond"",""no_dis"",""hori"",""left"",[99999,99999],[0,150]]",diamond,no_dis,hori,left,"[99999,99999]","[0,150]",left,1,,,,,,001,2025-03-11_12h18.42.489,SL_sali,2021.2.3,Win32,59.52380952,1.5169,,,105,0,105,0,1,,,,,,,,
,,"[""diamond"",""red"",""hori"",""left"",[-106,-106],[106,106]]",diamond,red,hori,left,"[-106,-106]","[106,106]",left,1,,,,,,001,2025-03-11_12h18.42.489,SL_sali,2021.2.3,Win32,59.52380952,2.0324,,,106,0,106,0,1,,,,,,,,
,,"[""circle"",""no_dis"",""vert"",""up"",[99999,99999],[150,0]]",circle,no_dis,vert,up,"[99999,99999]","[150,0]",up,1,,,,,,001,2025-03-11_12h18.42.489,SL_sali,2021.2.3,Win32,59.52380952,1.3837,,,107,0,107,0,1,,,,,,,,
,,"[""circle"",""no_dis"",""vert"",""up"",[99999,99999],[150,0]]",circle,no_dis,vert,up,"[99999,99999]","[150,0]",up,1,,,,,,001,2025-03-11_12h18.42.489,SL_sali,2021.2.3,Win32,59.52380952,1.8088,,,108,0,108,0,1,,,,,,,,
,,"[""circle"",""green"",""vert"",""up"",[-106,-106],[-106,106]]",circle,green,vert,up,"[-106,-106]","[-106,106]",up,1,,,,,,001,2025-03-11_12h18.42.489,SL_sali,2021.2.3,Win32,59.52380952,1.1227,,,109,0,109,0,1,,,,,,,,
,,"[""circle"",""green"",""vert"",""up"",[0,-150],[106,-106]]",circle,green,vert,up,"[0,-150]","[106,-106]",up,1,,,,,,001,2025-03-11_12h18.42.489,SL_sali,2021.2.3,Win32,59.52380952,1.8829,,,110,0,110,0,1,,,,,,,,
,,"[""circle"",""red"",""hori"",""left"",[-106,-106],[0,-150]]",circle,red,hori,left,"[-106,-106]","[0,-150]",left,1,,,,,,001,2025-03-11_12h18.42.489,SL_sali,2021.2.3,Win32,59.52380952,1.8061,,,111,0,111,0,1,,,,,,,,
,,"[""circle"",""no_dis"",""vert"",""up"",[99999,99999],[106,106]]",circle,no_dis,vert,up,"[99999,99999]","[106,106]",up,1,,,,,,001,2025-03-11_12h18.42.489,SL_sali,2021.2.3,Win32,59.52380952,1.6194,,,112,0,112,0,1,,,,,,,,
,,"[""circle"",""no_dis"",""vert"",""up"",[99999,99999],[-106,106]]",circle,no_dis,vert,up,"[99999,99999]","[-106,106]",up,1,,,,,,001,2025-03-11_12h18.42.489,SL_sali,2021.2.3,Win32,59.52380952,1.0352,,,113,0,113,0,1,,,,,,,,
,,"[""diamond"",""green"",""vert"",""up"",[-106,106],[0,-150]]",diamond,green,vert,up,"[-106,106]","[0,-150]",up,1,,,,,,001,2025-03-11_12h18.42.489,SL_sali,2021.2.3,Win32,59.52380952,2.3355,,,114,0,114,0,1,,,,,,,,
,,"[""diamond"",""no_dis"",""hori"",""left"",[99999,99999],[0,-150]]",diamond,no_dis,hori,left,"[99999,99999]","[0,-150]",left,1,,,,,,001,2025-03-11_12h18.42.489,SL_sali,2021.2.3,Win32,59.52380952,1.1999,,,115,0,115,0,1,,,,,,,,
,,"[""diamond"",""no_dis"",""hori"",""left"",[99999,99999],[0,-150]]",diamond,no_dis,hori,left,"[99999,99999]","[0,-150]",left,1,,,,,,001,2025-03-11_12h18.42.489,SL_sali,2021.2.3,Win32,59.52380952,1.388,,,116,0,116,0,1,,,,,,,,
,,"[""diamond"",""no_dis"",""hori"",""left"",[99999,99999],[106,106]]",diamond,no_dis,hori,left,"[99999,99999]","[106,106]",left,1,,,,,,001,2025-03-11_12h18.42.489,SL_sali,2021.2.3,Win32,59.52380952,1.6662,,,117,0,117,0,1,,,,,,,,
,,"[""diamond"",""green"",""hori"",""left"",[-106,-106],[0,150]]",diamond,green,hori,left,"[-106,-106]","[0,150]",left,1,,,,,,001,2025-03-11_12h18.42.489,SL_sali,2021.2.3,Win32,59.52380952,0.8004,,,118,0,118,0,1,,,,,,,,
,,"[""circle"",""red"",""vert"",""up"",[0,150],[-106,-106]]",circle,red,vert,up,"[0,150]","[-106,-106]",up,1,,,,,,001,2025-03-11_12h18.42.489,SL_sali,2021.2.3,Win32,59.52380952,1.5329,,,119,0,119,0,1,,,,,,,,
,,,,,,,,,,,,,,,,001,2025-03-11_12h18.42.489,SL_sali,2021.2.3,Win32,59.52380952,,,,,,,,,2,space,7.5533,1,0,1,0,1
,,"[""diamond"",""red"",""hori"",""left"",[-106,-106],[-106,106]]",diamond,red,hori,left,"[-106,-106]","[-106,106]",left,1,,,,,,001,2025-03-11_12h18.42.489,SL_sali,2021.2.3,Win32,59.52380952,2.8035,,,0,0,0,0,1,,,,,,,,
,,"[""diamond"",""no_dis"",""vert"",""up"",[99999,99999],[0,150]]",diamond,no_dis,vert,up,"[99999,99999]","[0,150]",up,1,,,,,,001,2025-03-11_12h18.42.489,SL_sali,2021.2.3,Win32,59.52380952,2.3062,,,1,0,1,0,1,,,,,,,,
,,"[""circle"",""red"",""vert"",""up"",[106,-106],[0,-150]]",circle,red,vert,up,"[106,-106]","[0,-150]",up,1,,,,,,001,2025-03-11_12h18.42.489,SL_sali,2021.2.3,Win32,59.52380952,1.8362,,,2,0,2,0,1,,,,,,,,
,,"[""diamond"",""no_dis"",""vert"",""up"",[99999,99999],[0,150]]",diamond,no_dis,vert,up,"[99999,99999]","[0,150]",up,1,,,,,,001,2025-03-11_12h18.42.489,SL_sali,2021.2.3,Win32,59.52380952,1.6662,,,3,0,3,0,1,,,,,,,,
,,"[""diamond"",""red"",""hori"",""left"",[0,150],[150,0]]",diamond,red,hori,left,"[0,150]","[150,0]",left,1,,,,,,001,2025-03-11_12h18.42.489,SL_sali,2021.2.3,Win32,59.52380952,1.7683,,,4,0,4,0,1,,,,,,,,
,,"[""circle"",""green"",""hori"",""left"",[-150,0],[0,150]]",circle,green,hori,left,"[-150,0]","[0,150]",left,1,,,,,,001,2025-03-11_12h18.42.489,SL_sali,2021.2.3,Win32,59.52380952,1.7584,,,5,0,5,0,1,,,,,,,,
,,"[""diamond"",""red"",""vert"",""up"",[-106,-106],[0,150]]",diamond,red,vert,up,"[-106,-106]","[0,150]",up,1,,,,,,001,2025-03-11_12h18.42.489,SL_sali,2021.2.3,Win32,59.52380952,2.4167,,,6,0,6,0,1,,,,,,,,
,,"[""circle"",""green"",""vert"",""up"",[-106,-106],[-150,0]]",circle,green,vert,up,"[-106,-106]","[-150,0]",up,1,,,,,,001,2025-03-11_12h18.42.489,SL_sali,2021.2.3,Win32,59.52380952,2.2899,,,7,0,7,0,1,,,,,,,,
,,"[""circle"",""no_dis"",""vert"",""up"",[99999,99999],[150,0]]",circle,no_dis,vert,up,"[99999,99999]","[150,0]",up,1,,,,,,001,2025-03-11_12h18.42.489,SL_sali,2021.2.3,Win32,59.52380952,1.2669,,,8,0,8,0,1,,,,,,,,
,,"[""diamond"",""green"",""hori"",""left"",[106,106],[150,0]]",diamond,green,hori,left,"[106,106]","[150,0]",left,1,,,,,,001,2025-03-11_12h18.42.489,SL_sali,2021.2.3,Win32,59.52380952,1.5368,,,9,0,9,0,1,,,,,,,,
,,"[""circle"",""no_dis"",""hori"",""left"",[99999,99999],[-150,0]]",circle,no_dis,hori,left,"[99999,99999]","[-150,0]",left,1,,,,,,001,2025-03-11_12h18.42.489,SL_sali,2021.2.3,Win32,59.52380952,1.6506,,,10,0,10,0,1,,,,,,,,
,,"[""diamond"",""red"",""hori"",""left"",[150,0],[106,-106]]",diamond,red,hori,left,"[150,0]","[106,-106]",left,1,,,,,,001,2025-03-11_12h18.42.489,SL_sali,2021.2.3,Win32,59.52380952,1.8069,,,11,0,11,0,1,,,,,,,,
,,"[""diamond"",""no_dis"",""vert"",""up"",[99999,99999],[-106,106]]",diamond,no_dis,vert,up,"[99999,99999]","[-106,106]",up,1,,,,,,001,2025-03-11_12h18.42.489,SL_sali,2021.2.3,Win32,59.52380952,1.639,,,12,0,12,0,1,,,,,,,,
,,"[""circle"",""red"",""vert"",""up"",[-106,-106],[106,-106]]",circle,red,vert,up,"[-106,-106]","[106,-106]",up,1,,,,,,001,2025-03-11_12h18.42.489,SL_sali,2021.2.3,Win32,59.52380952,1.9957,,,13,0,13,0,1,,,,,,,,
,,"[""circle"",""green"",""hori"",""left"",[-106,106],[106,-106]]",circle,green,hori,left,"[-106,106]","[106,-106]",left,1,,,,,,001,2025-03-11_12h18.42.489,SL_sali,2021.2.3,Win32,59.52380952,1.829,,,14,0,14,0,1,,,,,,,,
,,"[""circle"",""green"",""vert"",""up"",[-106,-106],[-106,106]]",circle,green,vert,up,"[-106,-106]","[-106,106]",up,1,,,,,,001,2025-03-11_12h18.42.489,SL_sali,2021.2.3,Win32,59.52380952,1.1911,,,15,0,15,0,1,,,,,,,,
,,"[""diamond"",""green"",""vert"",""up"",[-106,-106],[-106,106]]",diamond,green,vert,up,"[-106,-106]","[-106,106]",up,1,,,,,,001,2025-03-11_12h18.42.489,SL_sali,2021.2.3,Win32,59.52380952,2.0512,,,16,0,16,0,1,,,,,,,,
,,"[""circle"",""no_dis"",""hori"",""left"",[99999,99999],[106,106]]",circle,no_dis,hori,left,"[99999,99999]","[106,106]",left,1,,,,,,001,2025-03-11_12h18.42.489,SL_sali,2021.2.3,Win32,59.52380952,2.3027,,,17,0,17,0,1,,,,,,,,
,,"[""circle"",""green"",""vert"",""up"",[106,-106],[0,-150]]",circle,green,vert,up,"[106,-106]","[0,-150]",up,1,,,,,,001,2025-03-11_12h18.42.489,SL_sali,2021.2.3,Win32,59.52380952,1.7838,,,18,0,18,0,1,,,,,,,,
,,"[""diamond"",""no_dis"",""vert"",""up"",[99999,99999],[106,-106]]",diamond,no_dis,vert,up,"[99999,99999]","[106,-106]",up,1,,,,,,001,2025-03-11_12h18.42.489,SL_sali,2021.2.3,Win32,59.52380952,2.2837,,,19,0,19,0,1,,,,,,,,
,,"[""diamond"",""red"",""vert"",""up"",[0,-150],[0,150]]",diamond,red,vert,up,"[0,-150]","[0,150]",up,1,,,,,,001,2025-03-11_12h18.42.489,SL_sali,2021.2.3,Win32,59.52380952,2.1561,,,20,0,20,0,1,,,,,,,,
,,"[""diamond"",""no_dis"",""hori"",""left"",[99999,99999],[106,-106]]",diamond,no_dis,hori,left,"[99999,99999]","[106,-106]",left,1,,,,,,001,2025-03-11_12h18.42.489,SL_sali,2021.2.3,Win32,59.52380952,1.6509,,,21,0,21,0,1,,,,,,,,
,,"[""circle"",""no_dis"",""vert"",""up"",[99999,99999],[0,-150]]",circle,no_dis,vert,up,"[99999,99999]","[0,-150]",up,1,,,,,,001,2025-03-11_12h18.42.489,SL_sali,2021.2.3,Win32,59.52380952,1.7009,,,22,0,22,0,1,,,,,,,,
,,"[""diamond"",""no_dis"",""hori"",""left"",[99999,99999],[106,106]]",diamond,no_dis,hori,left,"[99999,99999]","[106,106]",left,1,,,,,,001,2025-03-11_12h18.42.489,SL_sali,2021.2.3,Win32,59.52380952,1.0829,,,23,0,23,0,1,,,,,,,,
,,"[""diamond"",""red"",""vert"",""up"",[-106,-106],[150,0]]",diamond,red,vert,up,"[-106,-106]","[150,0]",up,1,,,,,,001,2025-03-11_12h18.42.489,SL_sali,2021.2.3,Win32,59.52380952,1.5266,,,24,0,24,0,1,,,,,,,,
,,"[""diamond"",""red"",""hori"",""left"",[106,106],[-106,106]]",diamond,red,hori,left,"[106,106]","[-106,106]",left,1,,,,,,001,2025-03-11_12h18.42.489,SL_sali,2021.2.3,Win32,59.52380952,1.101,,,25,0,25,0,1,,,,,,,,
,,"[""circle"",""no_dis"",""vert"",""up"",[99999,99999],[106,-106]]",circle,no_dis,vert,up,"[99999,99999]","[106,-106]",up,1,,,,,,001,2025-03-11_12h18.42.489,SL_sali,2021.2.3,Win32,59.52380952,1.4439,,,26,0,26,0,1,,,,,,,,
,,"[""circle"",""green"",""hori"",""left"",[106,-106],[0,-150]]",circle,green,hori,left,"[106,-106]","[0,-150]",left,1,,,,,,001,2025-03-11_12h18.42.489,SL_sali,2021.2.3,Win32,59.52380952,2.4598,,,27,0,27,0,1,,,,,,,,
,,"[""diamond"",""no_dis"",""vert"",""up"",[99999,99999],[-106,-106]]",diamond,no_dis,vert,up,"[99999,99999]","[-106,-106]",,0,,,,,,001,2025-03-11_12h18.42.489,SL_sali,2021.2.3,Win32,59.52380952,,,,28,0,28,0,1,,,,,,,,
,,"[""diamond"",""green"",""hori"",""left"",[0,-150],[106,-106]]",diamond,green,hori,left,"[0,-150]","[106,-106]",left,1,,,,,,001,2025-03-11_12h18.42.489,SL_sali,2021.2.3,Win32,59.52380952,1.7189,,,29,0,29,0,1,,,,,,,,
,,"[""circle"",""red"",""vert"",""up"",[-106,106],[-150,0]]",circle,red,vert,up,"[-106,106]","[-150,0]",left,0,,,,,,001,2025-03-11_12h18.42.489,SL_sali,2021.2.3,Win32,59.52380952,1.7674,,,30,0,30,0,1,,,,,,,,
,,"[""circle"",""red"",""vert"",""up"",[-106,-106],[106,-106]]",circle,red,vert,up,"[-106,-106]","[106,-106]",up,1,,,,,,001,2025-03-11_12h18.42.489,SL_sali,2021.2.3,Win32,59.52380952,2.1893,,,31,0,31,0,1,,,,,,,,
,,"[""circle"",""red"",""hori"",""left"",[-106,-106],[106,-106]]",circle,red,hori,left,"[-106,-106]","[106,-106]",left,1,,,,,,001,2025-03-11_12h18.42.489,SL_sali,2021.2.3,Win32,59.52380952,1.5751,,,32,0,32,0,1,,,,,,,,
,,"[""circle"",""red"",""hori"",""left"",[0,-150],[-106,106]]",circle,red,hori,left,"[0,-150]","[-106,106]",left,1,,,,,,001,2025-03-11_12h18.42.489,SL_sali,2021.2.3,Win32,59.52380952,1.4563,,,33,0,33,0,1,,,,,,,,
,,"[""circle"",""green"",""hori"",""left"",[150,0],[0,150]]",circle,green,hori,left,"[150,0]","[0,150]",left,1,,,,,,001,2025-03-11_12h18.42.489,SL_sali,2021.2.3,Win32,59.52380952,1.3571,,,34,0,34,0,1,,,,,,,,
,,"[""diamond"",""red"",""vert"",""up"",[106,106],[0,150]]",diamond,red,vert,up,"[106,106]","[0,150]",up,1,,,,,,001,2025-03-11_12h18.42.489,SL_sali,2021.2.3,Win32,59.52380952,1.4869,,,35,0,35,0,1,,,,,,,,
,,"[""diamond"",""no_dis"",""vert"",""up"",[99999,99999],[106,106]]",diamond,no_dis,vert,up,"[99999,99999]","[106,106]",up,1,,,,,,001,2025-03-11_12h18.42.489,SL_sali,2021.2.3,Win32,59.52380952,1.2611,,,36,0,36,0,1,,,,,,,,
,,"[""diamond"",""no_dis"",""hori"",""left"",[99999,99999],[150,0]]",diamond,no_dis,hori,left,"[99999,99999]","[150,0]",left,1,,,,,,001,2025-03-11_12h18.42.489,SL_sali,2021.2.3,Win32,59.52380952,1.6704,,,37,0,37,0,1,,,,,,,,
,,"[""circle"",""red"",""hori"",""left"",[-106,-106],[0,150]]",circle,red,hori,left,"[-106,-106]","[0,150]",left,1,,,,,,001,2025-03-11_12h18.42.489,SL_sali,2021.2.3,Win32,59.52380952,1.6843,,,38,0,38,0,1,,,,,,,,
,,"[""circle"",""no_dis"",""hori"",""left"",[99999,99999],[0,-150]]",circle,no_dis,hori,left,"[99999,99999]","[0,-150]",left,1,,,,,,001,2025-03-11_12h18.42.489,SL_sali,2021.2.3,Win32,59.52380952,1.7016,,,39,0,39,0,1,,,,,,,,
,,"[""circle"",""red"",""hori"",""left"",[-106,-106],[0,-150]]",circle,red,hori,left,"[-106,-106]","[0,-150]",left,1,,,,,,001,2025-03-11_12h18.42.489,SL_sali,2021.2.3,Win32,59.52380952,1.3367,,,40,0,40,0,1,,,,,,,,
,,"[""circle"",""green"",""vert"",""up"",[106,-106],[0,150]]",circle,green,vert,up,"[106,-106]","[0,150]",up,1,,,,,,001,2025-03-11_12h18.42.489,SL_sali,2021.2.3,Win32,59.52380952,0.9885,,,41,0,41,0,1,,,,,,,,
,,"[""circle"",""no_dis"",""hori"",""left"",[99999,99999],[-150,0]]",circle,no_dis,hori,left,"[99999,99999]","[-150,0]",left,1,,,,,,001,2025-03-11_12h18.42.489,SL_sali,2021.2.3,Win32,59.52380952,1.1848,,,42,0,42,0,1,,,,,,,,
,,"[""diamond"",""red"",""hori"",""left"",[106,106],[-106,106]]",diamond,red,hori,left,"[106,106]","[-106,106]",left,1,,,,,,001,2025-03-11_12h18.42.489,SL_sali,2021.2.3,Win32,59.52380952,2.8544,,,43,0,43,0,1,,,,,,,,
,,"[""diamond"",""no_dis"",""hori"",""left"",[99999,99999],[-106,-106]]",diamond,no_dis,hori,left,"[99999,99999]","[-106,-106]",left,1,,,,,,001,2025-03-11_12h18.42.489,SL_sali,2021.2.3,Win32,59.52380952,1.291,,,44,0,44,0,1,,,,,,,,
,,"[""diamond"",""no_dis"",""hori"",""left"",[99999,99999],[0,150]]",diamond,no_dis,hori,left,"[99999,99999]","[0,150]",left,1,,,,,,001,2025-03-11_12h18.42.489,SL_sali,2021.2.3,Win32,59.52380952,1.7003,,,45,0,45,0,1,,,,,,,,
,,"[""diamond"",""green"",""hori"",""left"",[0,-150],[106,106]]",diamond,green,hori,left,"[0,-150]","[106,106]",left,1,,,,,,001,2025-03-11_12h18.42.489,SL_sali,2021.2.3,Win32,59.52380952,1.9592,,,46,0,46,0,1,,,,,,,,
,,"[""diamond"",""green"",""hori"",""left"",[106,-106],[-150,0]]",diamond,green,hori,left,"[106,-106]","[-150,0]",left,1,,,,,,001,2025-03-11_12h18.42.489,SL_sali,2021.2.3,Win32,59.52380952,1.4705,,,47,0,47,0,1,,,,,,,,
,,"[""diamond"",""green"",""vert"",""up"",[-106,106],[106,106]]",diamond,green,vert,up,"[-106,106]","[106,106]",up,1,,,,,,001,2025-03-11_12h18.42.489,SL_sali,2021.2.3,Win32,59.52380952,2.3371,,,48,0,48,0,1,,,,,,,,
,,"[""circle"",""red"",""vert"",""up"",[106,106],[-150,0]]",circle,red,vert,up,"[106,106]","[-150,0]",,0,,,,,,001,2025-03-11_12h18.42.489,SL_sali,2021.2.3,Win32,59.52380952,,,,49,0,49,0,1,,,,,,,,
,,"[""diamond"",""green"",""hori"",""left"",[0,150],[106,-106]]",diamond,green,hori,left,"[0,150]","[106,-106]",left,1,,,,,,001,2025-03-11_12h18.42.489,SL_sali,2021.2.3,Win32,59.52380952,1.5097,,,50,0,50,0,1,,,,,,,,
,,"[""diamond"",""green"",""hori"",""left"",[-106,106],[-150,0]]",diamond,green,hori,left,"[-106,106]","[-150,0]",left,1,,,,,,001,2025-03-11_12h18.42.489,SL_sali,2021.2.3,Win32,59.52380952,1.69,,,51,0,51,0,1,,,,,,,,
,,"[""diamond"",""green"",""vert"",""up"",[-106,106],[0,-150]]",diamond,green,vert,up,"[-106,106]","[0,-150]",,0,,,,,,001,2025-03-11_12h18.42.489,SL_sali,2021.2.3,Win32,59.52380952,,,,52,0,52,0,1,,,,,,,,
,,"[""circle"",""green"",""vert"",""up"",[-106,-106],[-106,106]]",circle,green,vert,up,"[-106,-106]","[-106,106]",up,1,,,,,,001,2025-03-11_12h18.42.489,SL_sali,2021.2.3,Win32,59.52380952,2.5338,,,53,0,53,0,1,,,,,,,,
,,"[""diamond"",""red"",""vert"",""up"",[-150,0],[150,0]]",diamond,red,vert,up,"[-150,0]","[150,0]",up,1,,,,,,001,2025-03-11_12h18.42.489,SL_sali,2021.2.3,Win32,59.52380952,1.9237,,,54,0,54,0,1,,,,,,,,
,,"[""diamond"",""green"",""vert"",""up"",[-106,-106],[-150,0]]",diamond,green,vert,up,"[-106,-106]","[-150,0]",up,1,,,,,,001,2025-03-11_12h18.42.489,SL_sali,2021.2.3,Win32,59.52380952,1.3002,,,55,0,55,0,1,,,,,,,,
,,"[""diamond"",""green"",""hori"",""left"",[106,-106],[0,150]]",diamond,green,hori,left,"[106,-106]","[0,150]",left,1,,,,,,001,2025-03-11_12h18.42.489,SL_sali,2021.2.3,Win32,59.52380952,1.3389,,,56,0,56,0,1,,,,,,,,
,,"[""diamond"",""red"",""hori"",""left"",[0,-150],[150,0]]",diamond,red,hori,left,"[0,-150]","[150,0]",left,1,,,,,,001,2025-03-11_12h18.42.489,SL_sali,2021.2.3,Win32,59.52380952,1.6724,,,57,0,57,0,1,,,,,,,,
,,"[""circle"",""red"",""vert"",""up"",[-106,-106],[150,0]]",circle,red,vert,up,"[-106,-106]","[150,0]",up,1,,,,,,001,2025-03-11_12h18.42.489,SL_sali,2021.2.3,Win32,59.52380952,2.3189,,,58,0,58,0,1,,,,,,,,
,,"[""circle"",""no_dis"",""vert"",""up"",[99999,99999],[-106,-106]]",circle,no_dis,vert,up,"[99999,99999]","[-106,-106]",up,1,,,,,,001,2025-03-11_12h18.42.489,SL_sali,2021.2.3,Win32,59.52380952,1.1357,,,59,0,59,0,1,,,,,,,,
,,"[""circle"",""red"",""vert"",""up"",[-150,0],[-106,-106]]",circle,red,vert,up,"[-150,0]","[-106,-106]",up,1,,,,,,001,2025-03-11_12h18.42.489,SL_sali,2021.2.3,Win32,59.52380952,2.3864,,,60,0,60,0,1,,,,,,,,
,,"[""diamond"",""green"",""vert"",""up"",[-106,-106],[150,0]]",diamond,green,vert,up,"[-106,-106]","[150,0]",up,1,,,,,,001,2025-03-11_12h18.42.489,SL_sali,2021.2.3,Win32,59.52380952,1.4337,,,61,0,61,0,1,,,,,,,,
,,"[""circle"",""green"",""vert"",""up"",[-106,106],[106,-106]]",circle,green,vert,up,"[-106,106]","[106,-106]",up,1,,,,,,001,2025-03-11_12h18.42.489,SL_sali,2021.2.3,Win32,59.52380952,1.5913,,,62,0,62,0,1,,,,,,,,
,,"[""circle"",""no_dis"",""vert"",""up"",[99999,99999],[150,0]]",circle,no_dis,vert,up,"[99999,99999]","[150,0]",up,1,,,,,,001,2025-03-11_12h18.42.489,SL_sali,2021.2.3,Win32,59.52380952,0.8998,,,63,0,63,0,1,,,,,,,,
,,"[""circle"",""green"",""vert"",""up"",[-106,-106],[-150,0]]",circle,green,vert,up,"[-106,-106]","[-150,0]",up,1,,,,,,001,2025-03-11_12h18.42.489,SL_sali,2021.2.3,Win32,59.52380952,1.3232,,,64,0,64,0,1,,,,,,,,
,,"[""circle"",""red"",""hori"",""left"",[-150,0],[106,106]]",circle,red,hori,left,"[-150,0]","[106,106]",left,1,,,,,,001,2025-03-11_12h18.42.489,SL_sali,2021.2.3,Win32,59.52380952,1.0541,,,65,0,65,0,1,,,,,,,,
,,"[""diamond"",""no_dis"",""hori"",""left"",[99999,99999],[0,-150]]",diamond,no_dis,hori,left,"[99999,99999]","[0,-150]",up,0,,,,,,001,2025-03-11_12h18.42.489,SL_sali,2021.2.3,Win32,59.52380952,1.5551,,,66,0,66,0,1,,,,,,,,
,,"[""diamond"",""green"",""vert"",""up"",[106,106],[106,-106]]",diamond,green,vert,up,"[106,106]","[106,-106]",up,1,,,,,,001,2025-03-11_12h18.42.489,SL_sali,2021.2.3,Win32,59.52380952,1.3183,,,67,0,67,0,1,,,,,,,,
,,"[""circle"",""red"",""hori"",""left"",[-150,0],[-106,-106]]",circle,red,hori,left,"[-150,0]","[-106,-106]",left,1,,,,,,001,2025-03-11_12h18.42.489,SL_sali,2021.2.3,Win32,59.52380952,1.4873,,,68,0,68,0,1,,,,,,,,
,,"[""circle"",""green"",""hori"",""left"",[-150,0],[106,106]]",circle,green,hori,left,"[-150,0]","[106,106]",left,1,,,,,,001,2025-03-11_12h18.42.489,SL_sali,2021.2.3,Win32,59.52380952,0.8191,,,69,0,69,0,1,,,,,,,,
,,"[""diamond"",""green"",""vert"",""up"",[150,0],[0,150]]",diamond,green,vert,up,"[150,0]","[0,150]",up,1,,,,,,001,2025-03-11_12h18.42.489,SL_sali,2021.2.3,Win32,59.52380952,1.4437,,,70,0,70,0,1,,,,,,,,
,,"[""circle"",""red"",""hori"",""left"",[-150,0],[106,106]]",circle,red,hori,left,"[-150,0]","[106,106]",left,1,,,,,,001,2025-03-11_12h18.42.489,SL_sali,2021.2.3,Win32,59.52380952,1.6668,,,71,0,71,0,1,,,,,,,,
,,"[""diamond"",""green"",""vert"",""up"",[0,150],[106,106]]",diamond,green,vert,up,"[0,150]","[106,106]",up,1,,,,,,001,2025-03-11_12h18.42.489,SL_sali,2021.2.3,Win32,59.52380952,1.6344,,,72,0,72,0,1,,,,,,,,
,,"[""circle"",""green"",""hori"",""left"",[0,150],[106,-106]]",circle,green,hori,left,"[0,150]","[106,-106]",left,1,,,,,,001,2025-03-11_12h18.42.489,SL_sali,2021.2.3,Win32,59.52380952,2.02,,,73,0,73,0,1,,,,,,,,
,,"[""diamond"",""green"",""hori"",""left"",[150,0],[0,150]]",diamond,green,hori,left,"[150,0]","[0,150]",left,1,,,,,,001,2025-03-11_12h18.42.489,SL_sali,2021.2.3,Win32,59.52380952,1.9234,,,74,0,74,0,1,,,,,,,,
,,"[""diamond"",""red"",""vert"",""up"",[-106,-106],[0,150]]",diamond,red,vert,up,"[-106,-106]","[0,150]",up,1,,,,,,001,2025-03-11_12h18.42.489,SL_sali,2021.2.3,Win32,59.52380952,1.4684,,,75,0,75,0,1,,,,,,,,
,,"[""diamond"",""green"",""hori"",""left"",[106,-106],[106,106]]",diamond,green,hori,left,"[106,-106]","[106,106]",left,1,,,,,,001,2025-03-11_12h18.42.489,SL_sali,2021.2.3,Win32,59.52380952,1.1591,,,76,0,76,0,1,,,,,,,,
,,"[""diamond"",""red"",""hori"",""left"",[-106,106],[106,-106]]",diamond,red,hori,left,"[-106,106]","[106,-106]",left,1,,,,,,001,2025-03-11_12h18.42.489,SL_sali,2021.2.3,Win32,59.52380952,1.4484,,,77,0,77,0,1,,,,,,,,
,,"[""diamond"",""red"",""hori"",""left"",[-106,-106],[106,-106]]",diamond,red,hori,left,"[-106,-106]","[106,-106]",left,1,,,,,,001,2025-03-11_12h18.42.489,SL_sali,2021.2.3,Win32,59.52380952,1.3397,,,78,0,78,0,1,,,,,,,,
,,"[""circle"",""red"",""vert"",""up"",[0,150],[-106,-106]]",circle,red,vert,up,"[0,150]","[-106,-106]",up,1,,,,,,001,2025-03-11_12h18.42.489,SL_sali,2021.2.3,Win32,59.52380952,1.6603,,,79,0,79,0,1,,,,,,,,
,,"[""circle"",""red"",""hori"",""left"",[0,150],[-106,106]]",circle,red,hori,left,"[0,150]","[-106,106]",left,1,,,,,,001,2025-03-11_12h18.42.489,SL_sali,2021.2.3,Win32,59.52380952,2.168,,,80,0,80,0,1,,,,,,,,
,,"[""circle"",""red"",""hori"",""left"",[0,-150],[0,150]]",circle,red,hori,left,"[0,-150]","[0,150]",left,1,,,,,,001,2025-03-11_12h18.42.489,SL_sali,2021.2.3,Win32,59.52380952,2.3529,,,81,0,81,0,1,,,,,,,,
,,"[""circle"",""no_dis"",""hori"",""left"",[99999,99999],[106,106]]",circle,no_dis,hori,left,"[99999,99999]","[106,106]",left,1,,,,,,001,2025-03-11_12h18.42.489,SL_sali,2021.2.3,Win32,59.52380952,1.3827,,,82,0,82,0,1,,,,,,,,
,,"[""diamond"",""green"",""vert"",""up"",[106,106],[-106,106]]",diamond,green,vert,up,"[106,106]","[-106,106]",up,1,,,,,,001,2025-03-11_12h18.42.489,SL_sali,2021.2.3,Win32,59.52380952,1.872,,,83,0,83,0,1,,,,,,,,
,,"[""diamond"",""red"",""vert"",""up"",[-106,-106],[150,0]]",diamond,red,vert,up,"[-106,-106]","[150,0]",up,1,,,,,,001,2025-03-11_12h18.42.489,SL_sali,2021.2.3,Win32,59.52380952,1.925,,,84,0,84,0,1,,,,,,,,
,,"[""circle"",""no_dis"",""vert"",""up"",[99999,99999],[106,106]]",circle,no_dis,vert,up,"[99999,99999]","[106,106]",up,1,,,,,,001,2025-03-11_12h18.42.489,SL_sali,2021.2.3,Win32,59.52380952,2.336,,,85,0,85,0,1,,,,,,,,
,,"[""diamond"",""green"",""hori"",""left"",[-106,-106],[0,150]]",diamond,green,hori,left,"[-106,-106]","[0,150]",left,1,,,,,,001,2025-03-11_12h18.42.489,SL_sali,2021.2.3,Win32,59.52380952,1.9169,,,86,0,86,0,1,,,,,,,,
,,"[""circle"",""no_dis"",""vert"",""up"",[99999,99999],[-106,106]]",circle,no_dis,vert,up,"[99999,99999]","[-106,106]",up,1,,,,,,001,2025-03-11_12h18.42.489,SL_sali,2021.2.3,Win32,59.52380952,2.1196,,,87,0,87,0,1,,,,,,,,
,,"[""circle"",""green"",""hori"",""left"",[0,150],[-106,-106]]",circle,green,hori,left,"[0,150]","[-106,-106]",left,1,,,,,,001,2025-03-11_12h18.42.489,SL_sali,2021.2.3,Win32,59.52380952,1.8882,,,88,0,88,0,1,,,,,,,,
,,"[""circle"",""no_dis"",""hori"",""left"",[99999,99999],[-150,0]]",circle,no_dis,hori,left,"[99999,99999]","[-150,0]",left,1,,,,,,001,2025-03-11_12h18.42.489,SL_sali,2021.2.3,Win32,59.52380952,1.001,,,89,0,89,0,1,,,,,,,,
,,"[""diamond"",""no_dis"",""hori"",""left"",[99999,99999],[0,-150]]",diamond,no_dis,hori,left,"[99999,99999]","[0,-150]",left,1,,,,,,001,2025-03-11_12h18.42.489,SL_sali,2021.2.3,Win32,59.52380952,1.4666,,,90,0,90,0,1,,,,,,,,
,,"[""circle"",""no_dis"",""vert"",""up"",[99999,99999],[-106,106]]",circle,no_dis,vert,up,"[99999,99999]","[-106,106]",up,1,,,,,,001,2025-03-11_12h18.42.489,SL_sali,2021.2.3,Win32,59.52380952,1.7598,,,91,0,91,0,1,,,,,,,,
,,"[""circle"",""green"",""vert"",""up"",[0,150],[-106,106]]",circle,green,vert,up,"[0,150]","[-106,106]",up,1,,,,,,001,2025-03-11_12h18.42.489,SL_sali,2021.2.3,Win32,59.52380952,1.721,,,92,0,92,0,1,,,,,,,,
,,"[""diamond"",""red"",""vert"",""up"",[-106,-106],[-150,0]]",diamond,red,vert,up,"[-106,-106]","[-150,0]",up,1,,,,,,001,2025-03-11_12h18.42.489,SL_sali,2021.2.3,Win32,59.52380952,1.6173,,,93,0,93,0,1,,,,,,,,
,,"[""diamond"",""no_dis"",""vert"",""up"",[99999,99999],[0,150]]",diamond,no_dis,vert,up,"[99999,99999]","[0,150]",up,1,,,,,,001,2025-03-11_12h18.42.489,SL_sali,2021.2.3,Win32,59.52380952,1.5204,,,94,0,94,0,1,,,,,,,,
,,"[""diamond"",""no_dis"",""hori"",""left"",[99999,99999],[106,-106]]",diamond,no_dis,hori,left,"[99999,99999]","[106,-106]",left,1,,,,,,001,2025-03-11_12h18.42.489,SL_sali,2021.2.3,Win32,59.52380952,1.1582,,,95,0,95,0,1,,,,,,,,
,,"[""circle"",""no_dis"",""hori"",""left"",[99999,99999],[-150,0]]",circle,no_dis,hori,left,"[99999,99999]","[-150,0]",left,1,,,,,,001,2025-03-11_12h18.42.489,SL_sali,2021.2.3,Win32,59.52380952,1.0127,,,96,0,96,0,1,,,,,,,,
,,"[""circle"",""no_dis"",""hori"",""left"",[99999,99999],[0,150]]",circle,no_dis,hori,left,"[99999,99999]","[0,150]",left,1,,,,,,001,2025-03-11_12h18.42.489,SL_sali,2021.2.3,Win32,59.52380952,1.8731,,,97,0,97,0,1,,,,,,,,
,,"[""circle"",""green"",""hori"",""left"",[150,0],[106,106]]",circle,green,hori,left,"[150,0]","[106,106]",left,1,,,,,,001,2025-03-11_12h18.42.489,SL_sali,2021.2.3,Win32,59.52380952,1.9393,,,98,0,98,0,1,,,,,,,,
,,"[""diamond"",""green"",""vert"",""up"",[-106,106],[0,150]]",diamond,green,vert,up,"[-106,106]","[0,150]",up,1,,,,,,001,2025-03-11_12h18.42.489,SL_sali,2021.2.3,Win32,59.52380952,1.5701,,,99,0,99,0,1,,,,,,,,
,,"[""circle"",""green"",""hori"",""left"",[-150,0],[-106,-106]]",circle,green,hori,left,"[-150,0]","[-106,-106]",left,1,,,,,,001,2025-03-11_12h18.42.489,SL_sali,2021.2.3,Win32,59.52380952,1.3172,,,100,0,100,0,1,,,,,,,,
,,"[""diamond"",""no_dis"",""vert"",""up"",[99999,99999],[-106,106]]",diamond,no_dis,vert,up,"[99999,99999]","[-106,106]",up,1,,,,,,001,2025-03-11_12h18.42.489,SL_sali,2021.2.3,Win32,59.52380952,1.9337,,,101,0,101,0,1,,,,,,,,
,,"[""circle"",""green"",""vert"",""up"",[0,-150],[106,-106]]",circle,green,vert,up,"[0,-150]","[106,-106]",up,1,,,,,,001,2025-03-11_12h18.42.489,SL_sali,2021.2.3,Win32,59.52380952,1.7339,,,102,0,102,0,1,,,,,,,,
,,"[""diamond"",""red"",""hori"",""left"",[-106,-106],[106,106]]",diamond,red,hori,left,"[-106,-106]","[106,106]",left,1,,,,,,001,2025-03-11_12h18.42.489,SL_sali,2021.2.3,Win32,59.52380952,1.1733,,,103,0,103,0,1,,,,,,,,
,,"[""circle"",""no_dis"",""hori"",""left"",[99999,99999],[150,0]]",circle,no_dis,hori,left,"[99999,99999]","[150,0]",left,1,,,,,,001,2025-03-11_12h18.42.489,SL_sali,2021.2.3,Win32,59.52380952,1.5835,,,104,0,104,0,1,,,,,,,,
,,"[""circle"",""no_dis"",""vert"",""up"",[99999,99999],[106,-106]]",circle,no_dis,vert,up,"[99999,99999]","[106,-106]",up,1,,,,,,001,2025-03-11_12h18.42.489,SL_sali,2021.2.3,Win32,59.52380952,1.7615,,,105,0,105,0,1,,,,,,,,
,,"[""circle"",""no_dis"",""hori"",""left"",[99999,99999],[-106,106]]",circle,no_dis,hori,left,"[99999,99999]","[-106,106]",left,1,,,,,,001,2025-03-11_12h18.42.489,SL_sali,2021.2.3,Win32,59.52380952,1.3525,,,106,0,106,0,1,,,,,,,,
,,"[""circle"",""red"",""hori"",""left"",[106,-106],[-106,106]]",circle,red,hori,left,"[106,-106]","[-106,106]",left,1,,,,,,001,2025-03-11_12h18.42.489,SL_sali,2021.2.3,Win32,59.52380952,1.1413,,,107,0,107,0,1,,,,,,,,
,,"[""diamond"",""no_dis"",""vert"",""up"",[99999,99999],[150,0]]",diamond,no_dis,vert,up,"[99999,99999]","[150,0]",up,1,,,,,,001,2025-03-11_12h18.42.489,SL_sali,2021.2.3,Win32,59.52380952,1.0836,,,108,0,108,0,1,,,,,,,,
,,"[""circle"",""red"",""vert"",""up"",[-106,-106],[-150,0]]",circle,red,vert,up,"[-106,-106]","[-150,0]",up,1,,,,,,001,2025-03-11_12h18.42.489,SL_sali,2021.2.3,Win32,59.52380952,1.3177,,,109,0,109,0,1,,,,,,,,
,,"[""circle"",""no_dis"",""vert"",""up"",[99999,99999],[-106,-106]]",circle,no_dis,vert,up,"[99999,99999]","[-106,-106]",up,1,,,,,,001,2025-03-11_12h18.42.489,SL_sali,2021.2.3,Win32,59.52380952,1.8037,,,110,0,110,0,1,,,,,,,,
,,"[""diamond"",""red"",""vert"",""up"",[-106,-106],[106,106]]",diamond,red,vert,up,"[-106,-106]","[106,106]",up,1,,,,,,001,2025-03-11_12h18.42.489,SL_sali,2021.2.3,Win32,59.52380952,1.3948,,,111,0,111,0,1,,,,,,,,
,,"[""circle"",""green"",""hori"",""left"",[150,0],[-106,-106]]",circle,green,hori,left,"[150,0]","[-106,-106]",left,1,,,,,,001,2025-03-11_12h18.42.489,SL_sali,2021.2.3,Win32,59.52380952,1.4,,,112,0,112,0,1,,,,,,,,
,,"[""diamond"",""no_dis"",""hori"",""left"",[99999,99999],[0,-150]]",diamond,no_dis,hori,left,"[99999,99999]","[0,-150]",,0,,,,,,001,2025-03-11_12h18.42.489,SL_sali,2021.2.3,Win32,59.52380952,,,,113,0,113,0,1,,,,,,,,
,,"[""diamond"",""no_dis"",""hori"",""left"",[99999,99999],[-106,-106]]",diamond,no_dis,hori,left,"[99999,99999]","[-106,-106]",left,1,,,,,,001,2025-03-11_12h18.42.489,SL_sali,2021.2.3,Win32,59.52380952,1.5334,,,114,0,114,0,1,,,,,,,,
,,"[""diamond"",""red"",""vert"",""up"",[150,0],[-106,106]]",diamond,red,vert,up,"[150,0]","[-106,106]",up,1,,,,,,001,2025-03-11_12h18.42.489,SL_sali,2021.2.3,Win32,59.52380952,1.4537,,,115,0,115,0,1,,,,,,,,
,,"[""circle"",""green"",""vert"",""up"",[106,106],[-106,-106]]",circle,green,vert,up,"[106,106]","[-106,-106]",up,1,,,,,,001,2025-03-11_12h18.42.489,SL_sali,2021.2.3,Win32,59.52380952,1.3199,,,116,0,116,0,1,,,,,,,,
,,"[""diamond"",""red"",""hori"",""left"",[150,0],[0,150]]",diamond,red,hori,left,"[150,0]","[0,150]",left,1,,,,,,001,2025-03-11_12h18.42.489,SL_sali,2021.2.3,Win32,59.52380952,2.3186,,,117,0,117,0,1,,,,,,,,
,,"[""diamond"",""no_dis"",""vert"",""up"",[99999,99999],[-150,0]]",diamond,no_dis,vert,up,"[99999,99999]","[-150,0]",up,1,,,,,,001,2025-03-11_12h18.42.489,SL_sali,2021.2.3,Win32,59.52380952,1.7268,,,118,0,118,0,1,,,,,,,,
,,"[""circle"",""red"",""vert"",""up"",[0,-150],[0,150]]",circle,red,vert,up,"[0,-150]","[0,150]",up,1,,,,,,001,2025-03-11_12h18.42.489,SL_sali,2021.2.3,Win32,59.52380952,1.268,,,119,0,119,0,1,,,,,,,,
,,,,,,,,,,,,,,,,001,2025-03-11_12h18.42.489,SL_sali,2021.2.3,Win32,59.52380952,,,,,,,,,3,space,5.5198,2,0,2,0,1
,,"[""diamond"",""green"",""vert"",""up"",[106,106],[106,-106]]",diamond,green,vert,up,"[106,106]","[106,-106]",up,1,,,,,,001,2025-03-11_12h18.42.489,SL_sali,2021.2.3,Win32,59.52380952,1.9674,,,0,0,0,0,1,,,,,,,,
,,"[""circle"",""no_dis"",""hori"",""left"",[99999,99999],[-150,0]]",circle,no_dis,hori,left,"[99999,99999]","[-150,0]",left,1,,,,,,001,2025-03-11_12h18.42.489,SL_sali,2021.2.3,Win32,59.52380952,1.1211,,,1,0,1,0,1,,,,,,,,
,,"[""circle"",""green"",""vert"",""up"",[-106,-106],[-150,0]]",circle,green,vert,up,"[-106,-106]","[-150,0]",up,1,,,,,,001,2025-03-11_12h18.42.489,SL_sali,2021.2.3,Win32,59.52380952,1.3577,,,2,0,2,0,1,,,,,,,,
,,"[""diamond"",""no_dis"",""vert"",""up"",[99999,99999],[-106,-106]]",diamond,no_dis,vert,up,"[99999,99999]","[-106,-106]",up,1,,,,,,001,2025-03-11_12h18.42.489,SL_sali,2021.2.3,Win32,59.52380952,1.2038,,,3,0,3,0,1,,,,,,,,
,,"[""diamond"",""green"",""vert"",""up"",[-106,-106],[-150,0]]",diamond,green,vert,up,"[-106,-106]","[-150,0]",up,1,,,,,,001,2025-03-11_12h18.42.489,SL_sali,2021.2.3,Win32,59.52380952,2.0502,,,4,0,4,0,1,,,,,,,,
,,"[""diamond"",""red"",""vert"",""up"",[-106,-106],[106,106]]",diamond,red,vert,up,"[-106,-106]","[106,106]",up,1,,,,,,001,2025-03-11_12h18.42.489,SL_sali,2021.2.3,Win32,59.52380952,1.1672,,,5,0,5,0,1,,,,,,,,
,,"[""diamond"",""no_dis"",""vert"",""up"",[99999,99999],[106,-106]]",diamond,no_dis,vert,up,"[99999,99999]","[106,-106]",up,1,,,,,,001,2025-03-11_12h18.42.489,SL_sali,2021.2.3,Win32,59.52380952,1.2352,,,6,0,6,0,1,,,,,,,,
,,"[""circle"",""red"",""hori"",""left"",[0,150],[-106,106]]",circle,red,hori,left,"[0,150]","[-106,106]",left,1,,,,,,001,2025-03-11_12h18.42.489,SL_sali,2021.2.3,Win32,59.52380952,1.3347,,,7,0,7,0,1,,,,,,,,
,,"[""diamond"",""green"",""hori"",""left"",[106,-106],[0,150]]",diamond,green,hori,left,"[106,-106]","[0,150]",up,0,,,,,,001,2025-03-11_12h18.42.489,SL_sali,2021.2.3,Win32,59.52380952,1.6348,,,8,0,8,0,1,,,,,,,,
,,"[""diamond"",""no_dis"",""vert"",""up"",[99999,99999],[-150,0]]",diamond,no_dis,vert,up,"[99999,99999]","[-150,0]",up,1,,,,,,001,2025-03-11_12h18.42.489,SL_sali,2021.2.3,Win32,59.52380952,0.9037,,,9,0,9,0,1,,,,,,,,
,,"[""diamond"",""green"",""vert"",""up"",[0,150],[106,106]]",diamond,green,vert,up,"[0,150]","[106,106]",up,1,,,,,,001,2025-03-11_12h18.42.489,SL_sali,2021.2.3,Win32,59.52380952,1.6946,,,10,0,10,0,1,,,,,,,,
,,"[""circle"",""no_dis"",""vert"",""up"",[99999,99999],[106,-106]]",circle,no_dis,vert,up,"[99999,99999]","[106,-106]",up,1,,,,,,001,2025-03-11_12h18.42.489,SL_sali,2021.2.3,Win32,59.52380952,1.7369,,,11,0,11,0,1,,,,,,,,
,,"[""diamond"",""no_dis"",""vert"",""up"",[99999,99999],[0,150]]",diamond,no_dis,vert,up,"[99999,99999]","[0,150]",up,1,,,,,,001,2025-03-11_12h18.42.489,SL_sali,2021.2.3,Win32,59.52380952,0.9173,,,12,0,12,0,1,,,,,,,,
,,"[""diamond"",""no_dis"",""hori"",""left"",[99999,99999],[0,-150]]",diamond,no_dis,hori,left,"[99999,99999]","[0,-150]",left,1,,,,,,001,2025-03-11_12h18.42.489,SL_sali,2021.2.3,Win32,59.52380952,1.3937,,,13,0,13,0,1,,,,,,,,
,,"[""circle"",""green"",""vert"",""up"",[-106,-106],[-106,106]]",circle,green,vert,up,"[-106,-106]","[-106,106]",up,1,,,,,,001,2025-03-11_12h18.42.489,SL_sali,2021.2.3,Win32,59.52380952,1.7906,,,14,0,14,0,1,,,,,,,,
,,"[""diamond"",""red"",""hori"",""left"",[106,106],[-106,106]]",diamond,red,hori,left,"[106,106]","[-106,106]",left,1,,,,,,001,2025-03-11_12h18.42.489,SL_sali,2021.2.3,Win32,59.52380952,0.8911,,,15,0,15,0,1,,,,,,,,
,,"[""diamond"",""red"",""vert"",""up"",[-106,-106],[-150,0]]",diamond,red,vert,up,"[-106,-106]","[-150,0]",up,1,,,,,,001,2025-03-11_12h18.42.489,SL_sali,2021.2.3,Win32,59.52380952,2.2832,,,16,0,16,0,1,,,,,,,,
,,"[""diamond"",""no_dis"",""hori"",""left"",[99999,99999],[106,106]]",diamond,no_dis,hori,left,"[99999,99999]","[106,106]",left,1,,,,,,001,2025-03-11_12h18.42.489,SL_sali,2021.2.3,Win32,59.52380952,1.2256,,,17,0,17,0,1,,,,,,,,
,,"[""diamond"",""green"",""hori"",""left"",[106,106],[150,0]]",diamond,green,hori,left,"[106,106]","[150,0]",left,1,,,,,,001,2025-03-11_12h18.42.489,SL_sali,2021.2.3,Win32,59.52380952,2.7028,,,18,0,18,0,1,,,,,,,,
,,"[""circle"",""no_dis"",""hori"",""left"",[99999,99999],[-150,0]]",circle,no_dis,hori,left,"[99999,99999]","[-150,0]",left,1,,,,,,001,2025-03-11_12h18.42.489,SL_sali,2021.2.3,Win32,59.52380952,1.3676,,,19,0,19,0,1,,,,,,,,
,,"[""diamond"",""red"",""hori"",""left"",[0,-150],[150,0]]",diamond,red,hori,left,"[0,-150]","[150,0]",left,1,,,,,,001,2025-03-11_12h18.42.489,SL_sali,2021.2.3,Win32,59.52380952,1.668,,,20,0,20,0,1,,,,,,,,
,,"[""diamond"",""red"",""vert"",""up"",[-106,-106],[0,150]]",diamond,red,vert,up,"[-106,-106]","[0,150]",up,1,,,,,,001,2025-03-11_12h18.42.489,SL_sali,2021.2.3,Win32,59.52380952,1.5421,,,21,0,21,0,1,,,,,,,,
,,"[""circle"",""red"",""vert"",""up"",[0,150],[-106,-106]]",circle,red,vert,up,"[0,150]","[-106,-106]",up,1,,,,,,001,2025-03-11_12h18.42.489,SL_sali,2021.2.3,Win32,59.52380952,2.5173,,,22,0,22,0,1,,,,,,,,
,,"[""diamond"",""no_dis"",""hori"",""left"",[99999,99999],[-106,-106]]",diamond,no_dis,hori,left,"[99999,99999]","[-106,-106]",left,1,,,,,,001,2025-03-11_12h18.42.489,SL_sali,2021.2.3,Win32,59.52380952,1.6676,,,23,0,23,0,1,,,,,,,,
,,"[""diamond"",""red"",""hori"",""left"",[-106,106],[106,-106]]",diamond,red,hori,left,"[-106,106]","[106,-106]",left,1,,,,,,001,2025-03-11_12h18.42.489,SL_sali,2021.2.3,Win32,59.52380952,1.7009,,,24,0,24,0,1,,,,,,,,
,,"[""diamond"",""green"",""hori"",""left"",[150,0],[0,150]]",diamond,green,hori,left,"[150,0]","[0,150]",left,1,,,,,,001,2025-03-11_12h18.42.489,SL_sali,2021.2.3,Win32,59.52380952,1.5397,,,25,0,25,0,1,,,,,,,,
,,"[""diamond"",""red"",""hori"",""left"",[150,0],[106,-106]]",diamond,red,hori,left,"[150,0]","[106,-106]",left,1,,,,,,001,2025-03-11_12h18.42.489,SL_sali,2021.2.3,Win32,59.52380952,1.7722,,,26,0,26,0,1,,,,,,,,
,,"[""circle"",""red"",""hori"",""left"",[106,-106],[-106,106]]",circle,red,hori,left,"[106,-106]","[-106,106]",left,1,,,,,,001,2025-03-11_12h18.42.489,SL_sali,2021.2.3,Win32,59.52380952,2.2891,,,27,0,27,0,1,,,,,,,,
,,"[""diamond"",""no_dis"",""hori"",""left"",[99999,99999],[-106,-106]]",diamond,no_dis,hori,left,"[99999,99999]","[-106,-106]",left,1,,,,,,001,2025-03-11_12h18.42.489,SL_sali,2021.2.3,Win32,59.52380952,1.3661,,,28,0,28,0,1,,,,,,,,
,,"[""diamond"",""green"",""hori"",""left"",[0,150],[106,-106]]",diamond,green,hori,left,"[0,150]","[106,-106]",left,1,,,,,,001,2025-03-11_12h18.42.489,SL_sali,2021.2.3,Win32,59.52380952,1.4515,,,29,0,29,0,1,,,,,,,,
,,"[""diamond"",""red"",""vert"",""up"",[150,0],[-106,106]]",diamond,red,vert,up,"[150,0]","[-106,106]",up,1,,,,,,001,2025-03-11_12h18.42.489,SL_sali,2021.2.3,Win32,59.52380952,1.216,,,30,0,30,0,1,,,,,,,,
,,"[""diamond"",""red"",""hori"",""left"",[-106,-106],[106,106]]",diamond,red,hori,left,"[-106,-106]","[106,106]",left,1,,,,,,001,2025-03-11_12h18.42.489,SL_sali,2021.2.3,Win32,59.52380952,1.2945,,,31,0,31,0,1,,,,,,,,
,,"[""circle"",""green"",""hori"",""left"",[-150,0],[-106,-106]]",circle,green,hori,left,"[-150,0]","[-106,-106]",left,1,,,,,,001,2025-03-11_12h18.42.489,SL_sali,2021.2.3,Win32,59.52380952,1.9846,,,32,0,32,0,1,,,,,,,,
,,"[""circle"",""no_dis"",""vert"",""up"",[99999,99999],[-106,-106]]",circle,no_dis,vert,up,"[99999,99999]","[-106,-106]",up,1,,,,,,001,2025-03-11_12h18.42.489,SL_sali,2021.2.3,Win32,59.52380952,1.7343,,,33,0,33,0,1,,,,,,,,
,,"[""diamond"",""green"",""vert"",""up"",[-106,-106],[150,0]]",diamond,green,vert,up,"[-106,-106]","[150,0]",up,1,,,,,,001,2025-03-11_12h18.42.489,SL_sali,2021.2.3,Win32,59.52380952,1.9514,,,34,0,34,0,1,,,,,,,,
,,"[""diamond"",""green"",""vert"",""up"",[-106,106],[106,106]]",diamond,green,vert,up,"[-106,106]","[106,106]",up,1,,,,,,001,2025-03-11_12h18.42.489,SL_sali,2021.2.3,Win32,59.52380952,2.584,,,35,0,35,0,1,,,,,,,,
,,"[""diamond"",""green"",""vert"",""up"",[-106,-106],[-106,106]]",diamond,green,vert,up,"[-106,-106]","[-106,106]",up,1,,,,,,001,2025-03-11_12h18.42.489,SL_sali,2021.2.3,Win32,59.52380952,2.1866,,,36,0,36,0,1,,,,,,,,
,,"[""circle"",""green"",""vert"",""up"",[0,-150],[106,-106]]",circle,green,vert,up,"[0,-150]","[106,-106]",up,1,,,,,,001,2025-03-11_12h18.42.489,SL_sali,2021.2.3,Win32,59.52380952,2.1176,,,37,0,37,0,1,,,,,,,,
,,"[""diamond"",""green"",""hori"",""left"",[-106,106],[-150,0]]",diamond,green,hori,left,"[-106,106]","[-150,0]",left,1,,,,,,001,2025-03-11_12h18.42.489,SL_sali,2021.2.3,Win32,59.52380952,1.8498,,,38,0,38,0,1,,,,,,,,
,,"[""diamond"",""no_dis"",""vert"",""up"",[99999,99999],[-106,106]]",diamond,no_dis,vert,up,"[99999,99999]","[-106,106]",up,1,,,,,,001,2025-03-11_12h18.42.489,SL_sali,2021.2.3,Win32,59.52380952,2.0908,,,39,0,39,0,1,,,,,,,,
,,"[""diamond"",""red"",""hori"",""left"",[106,106],[-106,106]]",diamond,red,hori,left,"[106,106]","[-106,106]",up,0,,,,,,001,2025-03-11_12h18.42.489,SL_sali,2021.2.3,Win32,59.52380952,1.0932,,,40,0,40,0,1,,,,,,,,
,,"[""circle"",""red"",""hori"",""left"",[-106,-106],[106,-106]]",circle,red,hori,left,"[-106,-106]","[106,-106]",,0,,,,,,001,2025-03-11_12h18.42.489,SL_sali,2021.2.3,Win32,59.52380952,,,,41,0,41,0,1,,,,,,,,
,,"[""circle"",""green"",""hori"",""left"",[0,150],[106,-106]]",circle,green,hori,left,"[0,150]","[106,-106]",left,1,,,,,,001,2025-03-11_12h18.42.489,SL_sali,2021.2.3,Win32,59.52380952,1.8288,,,42,0,42,0,1,,,,,,,,
,,"[""circle"",""no_dis"",""vert"",""up"",[99999,99999],[150,0]]",circle,no_dis,vert,up,"[99999,99999]","[150,0]",up,1,,,,,,001,2025-03-11_12h18.42.489,SL_sali,2021.2.3,Win32,59.52380952,1.5952,,,43,0,43,0,1,,,,,,,,
,,"[""circle"",""green"",""hori"",""left"",[150,0],[0,150]]",circle,green,hori,left,"[150,0]","[0,150]",left,1,,,,,,001,2025-03-11_12h18.42.489,SL_sali,2021.2.3,Win32,59.52380952,2.1557,,,44,0,44,0,1,,,,,,,,
,,"[""diamond"",""no_dis"",""hori"",""left"",[99999,99999],[0,-150]]",diamond,no_dis,hori,left,"[99999,99999]","[0,-150]",left,1,,,,,,001,2025-03-11_12h18.42.489,SL_sali,2021.2.3,Win32,59.52380952,2.7946,,,45,0,45,0,1,,,,,,,,
,,"[""diamond"",""red"",""hori"",""left"",[150,0],[0,150]]",diamond,red,hori,left,"[150,0]","[0,150]",left,1,,,,,,001,2025-03-11_12h18.42.489,SL_sali,2021.2.3,Win32,59.52380952,2.4033,,,46,0,46,0,1,,,,,,,,
,,"[""circle"",""green"",""hori"",""left"",[-150,0],[0,150]]",circle,green,hori,left,"[-150,0]","[0,150]",left,1,,,,,,001,2025-03-11_12h18.42.489,SL_sali,2021.2.3,Win32,59.52380952,1.4336,,,47,0,47,0,1,,,,,,,,
,,"[""circle"",""red"",""vert"",""up"",[-106,-106],[150,0]]",circle,red,vert,up,"[-106,-106]","[150,0]",up,1,,,,,,001,2025-03-11_12h18.42.489,SL_sali,2021.2.3,Win32,59.52380952,2.8706,,,48,0,48,0,1,,,,,,,,
,,"[""diamond"",""red"",""vert"",""up"",[106,106],[0,150]]",diamond,red,vert,up,"[106,106]","[0,150]",up,1,,,,,,001,2025-03-11_12h18.42.489,SL_sali,2021.2.3,Win32,59.52380952,2.5673,,,49,0,49,0,1,,,,,,,,
,,"[""circle"",""red"",""vert"",""up"",[106,-106],[0,-150]]",circle,red,vert,up,"[106,-106]","[0,-150]",up,1,,,,,,001,2025-03-11_12h18.42.489,SL_sali,2021.2.3,Win32,59.52380952,2.3511,,,50,0,50,0,1,,,,,,,,
,,"[""circle"",""green"",""hori"",""left"",[-150,0],[106,106]]",circle,green,hori,left,"[-150,0]","[106,106]",left,1,,,,,,001,2025-03-11_12h18.42.489,SL_sali,2021.2.3,Win32,59.52380952,1.9235,,,51,0,51,0,1,,,,,,,,
,,"[""diamond"",""no_dis"",""hori"",""left"",[99999,99999],[106,-106]]",diamond,no_dis,hori,left,"[99999,99999]","[106,-106]",left,1,,,,,,001,2025-03-11_12h18.42.489,SL_sali,2021.2.3,Win32,59.52380952,1.3848,,,52,0,52,0,1,,,,,,,,
,,"[""diamond"",""green"",""vert"",""up"",[106,106],[-106,106]]",diamond,green,vert,up,"[106,106]","[-106,106]",up,1,,,,,,001,2025-03-11_12h18.42.489,SL_sali,2021.2.3,Win32,59.52380952,1.4423,,,53,0,53,0,1,,,,,,,,
,,"[""diamond"",""green"",""hori"",""left"",[106,-106],[106,106]]",diamond,green,hori,left,"[106,-106]","[106,106]",left,1,,,,,,001,2025-03-11_12h18.42.489,SL_sali,2021.2.3,Win32,59.52380952,1.4392,,,54,0,54,0,1,,,,,,,,
,,"[""diamond"",""no_dis"",""hori"",""left"",[99999,99999],[0,-150]]",diamond,no_dis,hori,left,"[99999,99999]","[0,-150]",left,1,,,,,,001,2025-03-11_12h18.42.489,SL_sali,2021.2.3,Win32,59.52380952,0.9173,,,55,0,55,0,1,,,,,,,,
,,"[""diamond"",""red"",""hori"",""left"",[-106,-106],[-106,106]]",diamond,red,hori,left,"[-106,-106]","[-106,106]",left,1,,,,,,001,2025-03-11_12h18.42.489,SL_sali,2021.2.3,Win32,59.52380952,1.6667,,,56,0,56,0,1,,,,,,,,
,,"[""circle"",""no_dis"",""hori"",""left"",[99999,99999],[-150,0]]",circle,no_dis,hori,left,"[99999,99999]","[-150,0]",left,1,,,,,,001,2025-03-11_12h18.42.489,SL_sali,2021.2.3,Win32,59.52380952,1.6047,,,57,0,57,0,1,,,,,,,,
,,"[""circle"",""green"",""vert"",""up"",[-106,-106],[-106,106]]",circle,green,vert,up,"[-106,-106]","[-106,106]",up,1,,,,,,001,2025-03-11_12h18.42.489,SL_sali,2021.2.3,Win32,59.52380952,2.1724,,,58,0,58,0,1,,,,,,,,
,,"[""circle"",""green"",""vert"",""up"",[0,150],[-106,106]]",circle,green,vert,up,"[0,150]","[-106,106]",up,1,,,,,,001,2025-03-11_12h18.42.489,SL_sali,2021.2.3,Win32,59.52380952,2.0437,,,59,0,59,0,1,,,,,,,,
,,"[""diamond"",""green"",""hori"",""left"",[-106,-106],[0,150]]",diamond,green,hori,left,"[-106,-106]","[0,150]",left,1,,,,,,001,2025-03-11_12h18.42.489,SL_sali,2021.2.3,Win32,59.52380952,2.7216,,,60,0,60,0,1,,,,,,,,
,,"[""circle"",""no_dis"",""vert"",""up"",[99999,99999],[106,106]]",circle,no_dis,vert,up,"[99999,99999]","[106,106]",up,1,,,,,,001,2025-03-11_12h18.42.489,SL_sali,2021.2.3,Win32,59.52380952,2.6237,,,61,0,61,0,1,,,,,,,,
,,"[""circle"",""green"",""vert"",""up"",[106,-106],[0,-150]]",circle,green,vert,up,"[106,-106]","[0,-150]",up,1,,,,,,001,2025-03-11_12h18.42.489,SL_sali,2021.2.3,Win32,59.52380952,1.3838,,,62,0,62,0,1,,,,,,,,
,,"[""circle"",""no_dis"",""hori"",""left"",[99999,99999],[106,106]]",circle,no_dis,hori,left,"[99999,99999]","[106,106]",left,1,,,,,,001,2025-03-11_12h18.42.489,SL_sali,2021.2.3,Win32,59.52380952,1.035,,,63,0,63,0,1,,,,,,,,
,,"[""circle"",""green"",""hori"",""left"",[0,150],[-106,-106]]",circle,green,hori,left,"[0,150]","[-106,-106]",left,1,,,,,,001,2025-03-11_12h18.42.489,SL_sali,2021.2.3,Win32,59.52380952,1.702,,,64,0,64,0,1,,,,,,,,
,,"[""circle"",""green"",""vert"",""up"",[106,-106],[0,150]]",circle,green,vert,up,"[106,-106]","[0,150]",up,1,,,,,,001,2025-03-11_12h18.42.489,SL_sali,2021.2.3,Win32,59.52380952,0.9058,,,65,0,65,0,1,,,,,,,,
,,"[""circle"",""green"",""hori"",""left"",[-106,106],[106,-106]]",circle,green,hori,left,"[-106,106]","[106,-106]",up,0,,,,,,001,2025-03-11_12h18.42.489,SL_sali,2021.2.3,Win32,59.52380952,1.3079,,,66,0,66,0,1,,,,,,,,
,,"[""diamond"",""green"",""vert"",""up"",[-106,106],[0,-150]]",diamond,green,vert,up,"[-106,106]","[0,-150]",up,1,,,,,,001,2025-03-11_12h18.42.489,SL_sali,2021.2.3,Win32,59.52380952,1.6676,,,67,0,67,0,1,,,,,,,,
,,"[""circle"",""green"",""hori"",""left"",[106,-106],[0,-150]]",circle,green,hori,left,"[106,-106]","[0,-150]",left,1,,,,,,001,2025-03-11_12h18.42.489,SL_sali,2021.2.3,Win32,59.52380952,2.404,,,68,0,68,0,1,,,,,,,,
,,"[""circle"",""red"",""hori"",""left"",[0,-150],[0,150]]",circle,red,hori,left,"[0,-150]","[0,150]",left,1,,,,,,001,2025-03-11_12h18.42.489,SL_sali,2021.2.3,Win32,59.52380952,1.0685,,,69,0,69,0,1,,,,,,,,
,,"[""diamond"",""no_dis"",""vert"",""up"",[99999,99999],[106,106]]",diamond,no_dis,vert,up,"[99999,99999]","[106,106]",up,1,,,,,,001,2025-03-11_12h18.42.489,SL_sali,2021.2.3,Win32,59.52380952,1.522,,,70,0,70,0,1,,,,,,,,
,,"[""circle"",""red"",""hori"",""left"",[-150,0],[106,106]]",circle,red,hori,left,"[-150,0]","[106,106]",left,1,,,,,,001,2025-03-11_12h18.42.489,SL_sali,2021.2.3,Win32,59.52380952,1.3174,,,71,0,71,0,1,,,,,,,,
,,"[""circle"",""green"",""hori"",""left"",[150,0],[106,106]]",circle,green,hori,left,"[150,0]","[106,106]",left,1,,,,,,001,2025-03-11_12h18.42.489,SL_sali,2021.2.3,Win32,59.52380952,1.6947,,,72,0,72,0,1,,,,,,,,
,,"[""circle"",""no_dis"",""hori"",""left"",[99999,99999],[-106,106]]",circle,no_dis,hori,left,"[99999,99999]","[-106,106]",left,1,,,,,,001,2025-03-11_12h18.42.489,SL_sali,2021.2.3,Win32,59.52380952,1.4366,,,73,0,73,0,1,,,,,,,,
,,"[""circle"",""green"",""hori"",""left"",[150,0],[-106,-106]]",circle,green,hori,left,"[150,0]","[-106,-106]",left,1,,,,,,001,2025-03-11_12h18.42.489,SL_sali,2021.2.3,Win32,59.52380952,2.5113,,,74,0,74,0,1,,,,,,,,
,,"[""circle"",""no_dis"",""vert"",""up"",[99999,99999],[150,0]]",circle,no_dis,vert,up,"[99999,99999]","[150,0]",up,1,,,,,,001,2025-03-11_12h18.42.489,SL_sali,2021.2.3,Win32,59.52380952,1.5092,,,75,0,75,0,1,,,,,,,,
,,"[""circle"",""no_dis"",""vert"",""up"",[99999,99999],[-106,106]]",circle,no_dis,vert,up,"[99999,99999]","[-106,106]",up,1,,,,,,001,2025-03-11_12h18.42.489,SL_sali,2021.2.3,Win32,59.52380952,2.354,,,76,0,76,0,1,,,,,,,,
,,"[""circle"",""no_dis"",""hori"",""left"",[99999,99999],[150,0]]",circle,no_dis,hori,left,"[99999,99999]","[150,0]",left,1,,,,,,001,2025-03-11_12h18.42.489,SL_sali,2021.2.3,Win32,59.52380952,1.0752,,,77,0,77,0,1,,,,,,,,
,,"[""circle"",""red"",""vert"",""up"",[-106,-106],[106,-106]]",circle,red,vert,up,"[-106,-106]","[106,-106]",up,1,,,,,,001,2025-03-11_12h18.42.489,SL_sali,2021.2.3,Win32,59.52380952,1.7886,,,78,0,78,0,1,,,,,,,,
,,"[""diamond"",""green"",""hori"",""left"",[0,-150],[106,-106]]",diamond,green,hori,left,"[0,-150]","[106,-106]",left,1,,,,,,001,2025-03-11_12h18.42.489,SL_sali,2021.2.3,Win32,59.52380952,2.2897,,,79,0,79,0,1,,,,,,,,
,,"[""diamond"",""red"",""vert"",""up"",[-106,-106],[150,0]]",diamond,red,vert,up,"[-106,-106]","[150,0]",up,1,,,,,,001,2025-03-11_12h18.42.489,SL_sali,2021.2.3,Win32,59.52380952,2.69,,,80,0,80,0,1,,,,,,,,
,,"[""circle"",""red"",""hori"",""left"",[-106,-106],[0,150]]",circle,red,hori,left,"[-106,-106]","[0,150]",left,1,,,,,,001,2025-03-11_12h18.42.489,SL_sali,2021.2.3,Win32,59.52380952,1.9572,,,81,0,81,0,1,,,,,,,,
,,"[""circle"",""red"",""hori"",""left"",[0,-150],[-106,106]]",circle,red,hori,left,"[0,-150]","[-106,106]",left,1,,,,,,001,2025-03-11_12h18.42.489,SL_sali,2021.2.3,Win32,59.52380952,1.4175,,,82,0,82,0,1,,,,,,,,
,,"[""diamond"",""no_dis"",""vert"",""up"",[99999,99999],[150,0]]",diamond,no_dis,vert,up,"[99999,99999]","[150,0]",up,1,,,,,,001,2025-03-11_12h18.42.489,SL_sali,2021.2.3,Win32,59.52380952,1.5162,,,83,0,83,0,1,,,,,,,,
,,"[""diamond"",""green"",""hori"",""left"",[106,-106],[-150,0]]",diamond,green,hori,left,"[106,-106]","[-150,0]",left,1,,,,,,001,2025-03-11_12h18.42.489,SL_sali,2021.2.3,Win32,59.52380952,1.242,,,84,0,84,0,1,,,,,,,,
,,"[""diamond"",""no_dis"",""hori"",""left"",[99999,99999],[106,-106]]",diamond,no_dis,hori,left,"[99999,99999]","[106,-106]",left,1,,,,,,001,2025-03-11_12h18.42.489,SL_sali,2021.2.3,Win32,59.52380952,1.0211,,,85,0,85,0,1,,,,,,,,
,,"[""diamond"",""red"",""vert"",""up"",[-106,-106],[150,0]]",diamond,red,vert,up,"[-106,-106]","[150,0]",up,1,,,,,,001,2025-03-11_12h18.42.489,SL_sali,2021.2.3,Win32,59.52380952,1.165,,,86,0,86,0,1,,,,,,,,
,,"[""diamond"",""red"",""hori"",""left"",[-106,-106],[106,-106]]",diamond,red,hori,left,"[-106,-106]","[106,-106]",left,1,,,,,,001,2025-03-11_12h18.42.489,SL_sali,2021.2.3,Win32,59.52380952,1.2487,,,87,0,87,0,1,,,,,,,,
,,"[""circle"",""no_dis"",""vert"",""up"",[99999,99999],[-106,-106]]",circle,no_dis,vert,up,"[99999,99999]","[-106,-106]",up,1,,,,,,001,2025-03-11_12h18.42.489,SL_sali,2021.2.3,Win32,59.52380952,1.6865,,,88,0,88,0,1,,,,,,,,
,,"[""circle"",""green"",""vert"",""up"",[-106,106],[106,-106]]",circle,green,vert,up,"[-106,106]","[106,-106]",up,1,,,,,,001,2025-03-11_12h18.42.489,SL_sali,2021.2.3,Win32,59.52380952,2.8835,,,89,0,89,0,1,,,,,,,,
