﻿key_resp.keys,key_resp.rt,trial_para,tar_shape,dis_color_condi,tar_line,cor_resp,dis_loc,tar_loc,resp.keys,resp.corr,resp.rt,trials.thisRepN,trials.thisTrialN,trials.thisN,trials.thisIndex,trials.ran,participant,date,expName,psychopyVersion,OS,frameRate,key_resp_2.keys,key_resp_2.rt,trials_2.thisRepN,trials_2.thisTrialN,trials_2.thisN,trials_2.thisIndex,trials_2.ran,block_num,key_resp_3.keys,key_resp_3.rt,trials_3.thisRepN,trials_3.thisTrialN,trials_3.thisN,trials_3.thisIndex,trials_3.ran
space,53.0519,"[""diamond"",""green"",""vert"",""up"",[150,0],[106,-106]]",diamond,green,vert,up,"[150,0]","[106,-106]",up,1,1.3193,0,0,0,0,1,001,2025-03-10_16h59.06.178,SL_sali,2021.2.3,Win32,119.047619,,,,,,,,,,,,,,,
,,"[""diamond"",""no_dis"",""vert"",""up"",[99999,99999],[-106,106]]",diamond,no_dis,vert,up,"[99999,99999]","[-106,106]",,0,,1,0,1,0,1,001,2025-03-10_16h59.06.178,SL_sali,2021.2.3,Win32,119.047619,,,,,,,,,,,,,,,
,,"[""circle"",""red"",""vert"",""up"",[150,0],[106,-106]]",circle,red,vert,up,"[150,0]","[106,-106]",left,0,0.9788,2,0,2,0,1,001,2025-03-10_16h59.06.178,SL_sali,2021.2.3,Win32,119.047619,,,,,,,,,,,,,,,
,,"[""circle"",""no_dis"",""hori"",""left"",[99999,99999],[-106,106]]",circle,no_dis,hori,left,"[99999,99999]","[-106,106]",up,0,2.1016,3,0,3,0,1,001,2025-03-10_16h59.06.178,SL_sali,2021.2.3,Win32,119.047619,,,,,,,,,,,,,,,
,,"[""circle"",""red"",""hori"",""left"",[0,-150],[106,-106]]",circle,red,hori,left,"[0,-150]","[106,-106]",up,0,1.5186,4,0,4,0,1,001,2025-03-10_16h59.06.178,SL_sali,2021.2.3,Win32,119.047619,,,,,,,,,,,,,,,
,,"[""circle"",""no_dis"",""hori"",""left"",[99999,99999],[106,-106]]",circle,no_dis,hori,left,"[99999,99999]","[106,-106]",,0,,5,0,5,0,1,001,2025-03-10_16h59.06.178,SL_sali,2021.2.3,Win32,119.047619,,,,,,,,,,,,,,,
,,"[""diamond"",""red"",""vert"",""up"",[106,106],[-106,-106]]",diamond,red,vert,up,"[106,106]","[-106,-106]",left,0,1.9569,6,0,6,0,1,001,2025-03-10_16h59.06.178,SL_sali,2021.2.3,Win32,119.047619,,,,,,,,,,,,,,,
,,"[""circle"",""red"",""vert"",""up"",[-106,-106],[0,-150]]",circle,red,vert,up,"[-106,-106]","[0,-150]",left,0,1.4095,7,0,7,0,1,001,2025-03-10_16h59.06.178,SL_sali,2021.2.3,Win32,119.047619,,,,,,,,,,,,,,,
,,"[""diamond"",""green"",""vert"",""up"",[0,-150],[-106,-106]]",diamond,green,vert,up,"[0,-150]","[-106,-106]",left,0,1.5802,8,0,8,0,1,001,2025-03-10_16h59.06.178,SL_sali,2021.2.3,Win32,119.047619,,,,,,,,,,,,,,,
,,"[""diamond"",""no_dis"",""vert"",""up"",[99999,99999],[-106,106]]",diamond,no_dis,vert,up,"[99999,99999]","[-106,106]",up,1,1.5686,9,0,9,0,1,001,2025-03-10_16h59.06.178,SL_sali,2021.2.3,Win32,119.047619,,,,,,,,,,,,,,,
,,"[""diamond"",""green"",""vert"",""up"",[150,0],[106,-106]]",diamond,green,vert,up,"[150,0]","[106,-106]",,0,,,,,,,001,2025-03-10_16h59.06.178,SL_sali,2021.2.3,Win32,119.047619,space,42.8782,0,0,0,0,1,,,,,,,,
,,"[""diamond"",""no_dis"",""vert"",""up"",[99999,99999],[-106,106]]",diamond,no_dis,vert,up,"[99999,99999]","[-106,106]",up,1,2.209,,,,,,001,2025-03-10_16h59.06.178,SL_sali,2021.2.3,Win32,119.047619,,,1,0,1,0,1,,,,,,,,
,,"[""circle"",""red"",""vert"",""up"",[150,0],[106,-106]]",circle,red,vert,up,"[150,0]","[106,-106]",up,1,1.6444,,,,,,001,2025-03-10_16h59.06.178,SL_sali,2021.2.3,Win32,119.047619,,,2,0,2,0,1,,,,,,,,
,,"[""circle"",""no_dis"",""hori"",""left"",[99999,99999],[-106,106]]",circle,no_dis,hori,left,"[99999,99999]","[-106,106]",left,1,1.2666,,,,,,001,2025-03-10_16h59.06.178,SL_sali,2021.2.3,Win32,119.047619,,,3,0,3,0,1,,,,,,,,
,,"[""circle"",""red"",""hori"",""left"",[0,-150],[106,-106]]",circle,red,hori,left,"[0,-150]","[106,-106]",left,1,2.4928,,,,,,001,2025-03-10_16h59.06.178,SL_sali,2021.2.3,Win32,119.047619,,,4,0,4,0,1,,,,,,,,
,,"[""circle"",""no_dis"",""hori"",""left"",[99999,99999],[106,-106]]",circle,no_dis,hori,left,"[99999,99999]","[106,-106]",up,0,2.4898,,,,,,001,2025-03-10_16h59.06.178,SL_sali,2021.2.3,Win32,119.047619,,,5,0,5,0,1,,,,,,,,
,,"[""diamond"",""red"",""vert"",""up"",[106,106],[-106,-106]]",diamond,red,vert,up,"[106,106]","[-106,-106]",up,1,1.6568,,,,,,001,2025-03-10_16h59.06.178,SL_sali,2021.2.3,Win32,119.047619,,,6,0,6,0,1,,,,,,,,
,,"[""circle"",""red"",""vert"",""up"",[-106,-106],[0,-150]]",circle,red,vert,up,"[-106,-106]","[0,-150]",up,1,1.769,,,,,,001,2025-03-10_16h59.06.178,SL_sali,2021.2.3,Win32,119.047619,,,7,0,7,0,1,,,,,,,,
,,"[""diamond"",""green"",""vert"",""up"",[0,-150],[-106,-106]]",diamond,green,vert,up,"[0,-150]","[-106,-106]",up,1,1.8995,,,,,,001,2025-03-10_16h59.06.178,SL_sali,2021.2.3,Win32,119.047619,,,8,0,8,0,1,,,,,,,,
,,"[""diamond"",""no_dis"",""vert"",""up"",[99999,99999],[-106,106]]",diamond,no_dis,vert,up,"[99999,99999]","[-106,106]",up,1,0.9251,,,,,,001,2025-03-10_16h59.06.178,SL_sali,2021.2.3,Win32,119.047619,,,9,0,9,0,1,,,,,,,,
,,"[""diamond"",""green"",""hori"",""left"",[0,150],[-106,106]]",diamond,green,hori,left,"[0,150]","[-106,106]",left,1,1.5256,,,,,,001,2025-03-10_16h59.06.178,SL_sali,2021.2.3,Win32,119.047619,,,10,0,10,0,1,,,,,,,,
,,"[""circle"",""green"",""vert"",""up"",[150,0],[-106,106]]",circle,green,vert,up,"[150,0]","[-106,106]",up,1,1.7044,,,,,,001,2025-03-10_16h59.06.178,SL_sali,2021.2.3,Win32,119.047619,,,11,0,11,0,1,,,,,,,,
,,"[""circle"",""red"",""vert"",""up"",[-150,0],[106,106]]",circle,red,vert,up,"[-150,0]","[106,106]",up,1,1.2761,,,,,,001,2025-03-10_16h59.06.178,SL_sali,2021.2.3,Win32,119.047619,,,12,0,12,0,1,,,,,,,,
,,"[""diamond"",""no_dis"",""vert"",""up"",[99999,99999],[-150,0]]",diamond,no_dis,vert,up,"[99999,99999]","[-150,0]",up,1,2.0712,,,,,,001,2025-03-10_16h59.06.178,SL_sali,2021.2.3,Win32,119.047619,,,13,0,13,0,1,,,,,,,,
,,"[""diamond"",""no_dis"",""hori"",""left"",[99999,99999],[106,106]]",diamond,no_dis,hori,left,"[99999,99999]","[106,106]",left,1,1.0514,,,,,,001,2025-03-10_16h59.06.178,SL_sali,2021.2.3,Win32,119.047619,,,14,0,14,0,1,,,,,,,,
,,"[""diamond"",""no_dis"",""vert"",""up"",[99999,99999],[-106,-106]]",diamond,no_dis,vert,up,"[99999,99999]","[-106,-106]",up,1,1.582,,,,,,001,2025-03-10_16h59.06.178,SL_sali,2021.2.3,Win32,119.047619,,,15,0,15,0,1,,,,,,,,
,,"[""diamond"",""no_dis"",""vert"",""up"",[99999,99999],[106,106]]",diamond,no_dis,vert,up,"[99999,99999]","[106,106]",up,1,1.0521,,,,,,001,2025-03-10_16h59.06.178,SL_sali,2021.2.3,Win32,119.047619,,,16,0,16,0,1,,,,,,,,
,,"[""diamond"",""no_dis"",""hori"",""left"",[99999,99999],[150,0]]",diamond,no_dis,hori,left,"[99999,99999]","[150,0]",left,1,1.6834,,,,,,001,2025-03-10_16h59.06.178,SL_sali,2021.2.3,Win32,119.047619,,,17,0,17,0,1,,,,,,,,
,,"[""circle"",""red"",""vert"",""up"",[106,-106],[-150,0]]",circle,red,vert,up,"[106,-106]","[-150,0]",up,1,1.5252,,,,,,001,2025-03-10_16h59.06.178,SL_sali,2021.2.3,Win32,119.047619,,,18,0,18,0,1,,,,,,,,
,,"[""diamond"",""red"",""hori"",""left"",[0,-150],[0,150]]",diamond,red,hori,left,"[0,-150]","[0,150]",left,1,1.846,,,,,,001,2025-03-10_16h59.06.178,SL_sali,2021.2.3,Win32,119.047619,,,19,0,19,0,1,,,,,,,,
,,"[""circle"",""red"",""vert"",""up"",[150,0],[0,-150]]",circle,red,vert,up,"[150,0]","[0,-150]",up,1,1.9504,,,,,,001,2025-03-10_16h59.06.178,SL_sali,2021.2.3,Win32,119.047619,,,20,0,20,0,1,,,,,,,,
,,"[""circle"",""green"",""vert"",""up"",[-150,0],[106,-106]]",circle,green,vert,up,"[-150,0]","[106,-106]",up,1,1.9039,,,,,,001,2025-03-10_16h59.06.178,SL_sali,2021.2.3,Win32,119.047619,,,21,0,21,0,1,,,,,,,,
,,"[""circle"",""green"",""vert"",""up"",[-106,-106],[106,106]]",circle,green,vert,up,"[-106,-106]","[106,106]",up,1,1.4644,,,,,,001,2025-03-10_16h59.06.178,SL_sali,2021.2.3,Win32,119.047619,,,22,0,22,0,1,,,,,,,,
,,"[""circle"",""green"",""vert"",""up"",[0,150],[150,0]]",circle,green,vert,up,"[0,150]","[150,0]",left,0,1.6057,,,,,,001,2025-03-10_16h59.06.178,SL_sali,2021.2.3,Win32,119.047619,,,23,0,23,0,1,,,,,,,,
,,"[""circle"",""no_dis"",""hori"",""left"",[99999,99999],[106,106]]",circle,no_dis,hori,left,"[99999,99999]","[106,106]",left,1,2.0854,,,,,,001,2025-03-10_16h59.06.178,SL_sali,2021.2.3,Win32,119.047619,,,24,0,24,0,1,,,,,,,,
,,"[""diamond"",""red"",""vert"",""up"",[-106,-106],[0,150]]",diamond,red,vert,up,"[-106,-106]","[0,150]",up,1,1.9189,,,,,,001,2025-03-10_16h59.06.178,SL_sali,2021.2.3,Win32,119.047619,,,25,0,25,0,1,,,,,,,,
,,"[""diamond"",""no_dis"",""hori"",""left"",[99999,99999],[106,-106]]",diamond,no_dis,hori,left,"[99999,99999]","[106,-106]",left,1,1.1126,,,,,,001,2025-03-10_16h59.06.178,SL_sali,2021.2.3,Win32,119.047619,,,26,0,26,0,1,,,,,,,,
,,"[""diamond"",""green"",""vert"",""up"",[0,-150],[106,106]]",diamond,green,vert,up,"[0,-150]","[106,106]",up,1,1.0776,,,,,,001,2025-03-10_16h59.06.178,SL_sali,2021.2.3,Win32,119.047619,,,27,0,27,0,1,,,,,,,,
,,"[""diamond"",""no_dis"",""hori"",""left"",[99999,99999],[-106,-106]]",diamond,no_dis,hori,left,"[99999,99999]","[-106,-106]",left,1,0.9151,,,,,,001,2025-03-10_16h59.06.178,SL_sali,2021.2.3,Win32,119.047619,,,28,0,28,0,1,,,,,,,,
,,"[""diamond"",""red"",""vert"",""up"",[0,-150],[-150,0]]",diamond,red,vert,up,"[0,-150]","[-150,0]",up,1,1.2818,,,,,,001,2025-03-10_16h59.06.178,SL_sali,2021.2.3,Win32,119.047619,,,29,0,29,0,1,,,,,,,,
,,"[""diamond"",""no_dis"",""vert"",""up"",[99999,99999],[-106,-106]]",diamond,no_dis,vert,up,"[99999,99999]","[-106,-106]",up,1,0.8397,,,,,,001,2025-03-10_16h59.06.178,SL_sali,2021.2.3,Win32,119.047619,,,30,0,30,0,1,,,,,,,,
,,"[""diamond"",""no_dis"",""vert"",""up"",[99999,99999],[106,-106]]",diamond,no_dis,vert,up,"[99999,99999]","[106,-106]",up,1,1.076,,,,,,001,2025-03-10_16h59.06.178,SL_sali,2021.2.3,Win32,119.047619,,,31,0,31,0,1,,,,,,,,
,,"[""diamond"",""green"",""hori"",""left"",[-106,-106],[-106,106]]",diamond,green,hori,left,"[-106,-106]","[-106,106]",left,1,0.7731,,,,,,001,2025-03-10_16h59.06.178,SL_sali,2021.2.3,Win32,119.047619,,,32,0,32,0,1,,,,,,,,
,,"[""diamond"",""green"",""vert"",""up"",[150,0],[0,150]]",diamond,green,vert,up,"[150,0]","[0,150]",up,1,0.5436,,,,,,001,2025-03-10_16h59.06.178,SL_sali,2021.2.3,Win32,119.047619,,,33,0,33,0,1,,,,,,,,
,,"[""circle"",""green"",""hori"",""left"",[150,0],[-106,-106]]",circle,green,hori,left,"[150,0]","[-106,-106]",up,0,0.4774,,,,,,001,2025-03-10_16h59.06.178,SL_sali,2021.2.3,Win32,119.047619,,,34,0,34,0,1,,,,,,,,
,,"[""circle"",""green"",""vert"",""up"",[106,-106],[150,0]]",circle,green,vert,up,"[106,-106]","[150,0]",up,1,1.1475,,,,,,001,2025-03-10_16h59.06.178,SL_sali,2021.2.3,Win32,119.047619,,,35,0,35,0,1,,,,,,,,
,,"[""circle"",""no_dis"",""vert"",""up"",[99999,99999],[0,-150]]",circle,no_dis,vert,up,"[99999,99999]","[0,-150]",up,1,1.4941,,,,,,001,2025-03-10_16h59.06.178,SL_sali,2021.2.3,Win32,119.047619,,,36,0,36,0,1,,,,,,,,
,,"[""circle"",""no_dis"",""vert"",""up"",[99999,99999],[0,-150]]",circle,no_dis,vert,up,"[99999,99999]","[0,-150]",up,1,1.4273,,,,,,001,2025-03-10_16h59.06.178,SL_sali,2021.2.3,Win32,119.047619,,,37,0,37,0,1,,,,,,,,
,,"[""diamond"",""red"",""hori"",""left"",[0,-150],[150,0]]",diamond,red,hori,left,"[0,-150]","[150,0]",left,1,1.4997,,,,,,001,2025-03-10_16h59.06.178,SL_sali,2021.2.3,Win32,119.047619,,,38,0,38,0,1,,,,,,,,
,,"[""circle"",""green"",""hori"",""left"",[-106,106],[0,150]]",circle,green,hori,left,"[-106,106]","[0,150]",left,1,1.1735,,,,,,001,2025-03-10_16h59.06.178,SL_sali,2021.2.3,Win32,119.047619,,,39,0,39,0,1,,,,,,,,
,,"[""diamond"",""red"",""vert"",""up"",[106,106],[-106,-106]]",diamond,red,vert,up,"[106,106]","[-106,-106]",up,1,1.1508,,,,,,001,2025-03-10_16h59.06.178,SL_sali,2021.2.3,Win32,119.047619,,,40,0,40,0,1,,,,,,,,
,,"[""diamond"",""red"",""hori"",""left"",[106,106],[0,150]]",diamond,red,hori,left,"[106,106]","[0,150]",up,0,1.2441,,,,,,001,2025-03-10_16h59.06.178,SL_sali,2021.2.3,Win32,119.047619,,,41,0,41,0,1,,,,,,,,
,,"[""diamond"",""no_dis"",""hori"",""left"",[99999,99999],[0,150]]",diamond,no_dis,hori,left,"[99999,99999]","[0,150]",left,1,1.5088,,,,,,001,2025-03-10_16h59.06.178,SL_sali,2021.2.3,Win32,119.047619,,,42,0,42,0,1,,,,,,,,
,,"[""circle"",""red"",""vert"",""up"",[0,150],[-150,0]]",circle,red,vert,up,"[0,150]","[-150,0]",up,1,1.6113,,,,,,001,2025-03-10_16h59.06.178,SL_sali,2021.2.3,Win32,119.047619,,,43,0,43,0,1,,,,,,,,
,,"[""circle"",""red"",""hori"",""left"",[0,150],[-150,0]]",circle,red,hori,left,"[0,150]","[-150,0]",left,1,1.3607,,,,,,001,2025-03-10_16h59.06.178,SL_sali,2021.2.3,Win32,119.047619,,,44,0,44,0,1,,,,,,,,
,,"[""diamond"",""green"",""hori"",""left"",[150,0],[0,-150]]",diamond,green,hori,left,"[150,0]","[0,-150]",left,1,2.3467,,,,,,001,2025-03-10_16h59.06.178,SL_sali,2021.2.3,Win32,119.047619,,,45,0,45,0,1,,,,,,,,
,,"[""circle"",""no_dis"",""vert"",""up"",[99999,99999],[150,0]]",circle,no_dis,vert,up,"[99999,99999]","[150,0]",up,1,2.1445,,,,,,001,2025-03-10_16h59.06.178,SL_sali,2021.2.3,Win32,119.047619,,,46,0,46,0,1,,,,,,,,
,,"[""circle"",""no_dis"",""hori"",""left"",[99999,99999],[106,-106]]",circle,no_dis,hori,left,"[99999,99999]","[106,-106]",left,1,1.3668,,,,,,001,2025-03-10_16h59.06.178,SL_sali,2021.2.3,Win32,119.047619,,,47,0,47,0,1,,,,,,,,
,,"[""circle"",""green"",""hori"",""left"",[150,0],[-150,0]]",circle,green,hori,left,"[150,0]","[-150,0]",left,1,0.6825,,,,,,001,2025-03-10_16h59.06.178,SL_sali,2021.2.3,Win32,119.047619,,,48,0,48,0,1,,,,,,,,
,,"[""circle"",""green"",""vert"",""up"",[0,150],[106,106]]",circle,green,vert,up,"[0,150]","[106,106]",up,1,0.6689,,,,,,001,2025-03-10_16h59.06.178,SL_sali,2021.2.3,Win32,119.047619,,,49,0,49,0,1,,,,,,,,
,,"[""circle"",""no_dis"",""vert"",""up"",[99999,99999],[-150,0]]",circle,no_dis,vert,up,"[99999,99999]","[-150,0]",up,1,0.956,,,,,,001,2025-03-10_16h59.06.178,SL_sali,2021.2.3,Win32,119.047619,,,50,0,50,0,1,,,,,,,,
,,"[""circle"",""green"",""hori"",""left"",[150,0],[106,-106]]",circle,green,hori,left,"[150,0]","[106,-106]",left,1,0.8843,,,,,,001,2025-03-10_16h59.06.178,SL_sali,2021.2.3,Win32,119.047619,,,51,0,51,0,1,,,,,,,,
,,"[""circle"",""no_dis"",""hori"",""left"",[99999,99999],[0,150]]",circle,no_dis,hori,left,"[99999,99999]","[0,150]",left,1,0.6368,,,,,,001,2025-03-10_16h59.06.178,SL_sali,2021.2.3,Win32,119.047619,,,52,0,52,0,1,,,,,,,,
,,"[""circle"",""green"",""vert"",""up"",[150,0],[106,-106]]",circle,green,vert,up,"[150,0]","[106,-106]",up,1,0.8638,,,,,,001,2025-03-10_16h59.06.178,SL_sali,2021.2.3,Win32,119.047619,,,53,0,53,0,1,,,,,,,,
,,"[""circle"",""green"",""hori"",""left"",[150,0],[-150,0]]",circle,green,hori,left,"[150,0]","[-150,0]",left,1,0.707,,,,,,001,2025-03-10_16h59.06.178,SL_sali,2021.2.3,Win32,119.047619,,,54,0,54,0,1,,,,,,,,
,,"[""diamond"",""no_dis"",""hori"",""left"",[99999,99999],[106,106]]",diamond,no_dis,hori,left,"[99999,99999]","[106,106]",left,1,1.1546,,,,,,001,2025-03-10_16h59.06.178,SL_sali,2021.2.3,Win32,119.047619,,,55,0,55,0,1,,,,,,,,
,,"[""diamond"",""red"",""hori"",""left"",[106,-106],[-106,106]]",diamond,red,hori,left,"[106,-106]","[-106,106]",left,1,2.5336,,,,,,001,2025-03-10_16h59.06.178,SL_sali,2021.2.3,Win32,119.047619,,,56,0,56,0,1,,,,,,,,
,,"[""diamond"",""no_dis"",""hori"",""left"",[99999,99999],[0,-150]]",diamond,no_dis,hori,left,"[99999,99999]","[0,-150]",left,1,2.3193,,,,,,001,2025-03-10_16h59.06.178,SL_sali,2021.2.3,Win32,119.047619,,,57,0,57,0,1,,,,,,,,
,,"[""diamond"",""green"",""hori"",""left"",[-106,-106],[0,150]]",diamond,green,hori,left,"[-106,-106]","[0,150]",left,1,1.4619,,,,,,001,2025-03-10_16h59.06.178,SL_sali,2021.2.3,Win32,119.047619,,,58,0,58,0,1,,,,,,,,
,,"[""circle"",""green"",""vert"",""up"",[-150,0],[106,106]]",circle,green,vert,up,"[-150,0]","[106,106]",up,1,1.0377,,,,,,001,2025-03-10_16h59.06.178,SL_sali,2021.2.3,Win32,119.047619,,,59,0,59,0,1,,,,,,,,
,,"[""circle"",""no_dis"",""vert"",""up"",[99999,99999],[150,0]]",circle,no_dis,vert,up,"[99999,99999]","[150,0]",up,1,1.0051,,,,,,001,2025-03-10_16h59.06.178,SL_sali,2021.2.3,Win32,119.047619,,,60,0,60,0,1,,,,,,,,
,,"[""diamond"",""green"",""hori"",""left"",[0,150],[-106,106]]",diamond,green,hori,left,"[0,150]","[-106,106]",left,1,1.9809,,,,,,001,2025-03-10_16h59.06.178,SL_sali,2021.2.3,Win32,119.047619,,,61,0,61,0,1,,,,,,,,
,,"[""diamond"",""green"",""hori"",""left"",[-150,0],[-106,106]]",diamond,green,hori,left,"[-150,0]","[-106,106]",left,1,0.8912,,,,,,001,2025-03-10_16h59.06.178,SL_sali,2021.2.3,Win32,119.047619,,,62,0,62,0,1,,,,,,,,
,,"[""circle"",""green"",""hori"",""left"",[150,0],[0,150]]",circle,green,hori,left,"[150,0]","[0,150]",up,0,1.5072,,,,,,001,2025-03-10_16h59.06.178,SL_sali,2021.2.3,Win32,119.047619,,,63,0,63,0,1,,,,,,,,
,,"[""diamond"",""green"",""vert"",""up"",[-150,0],[150,0]]",diamond,green,vert,up,"[-150,0]","[150,0]",up,1,1.7324,,,,,,001,2025-03-10_16h59.06.178,SL_sali,2021.2.3,Win32,119.047619,,,64,0,64,0,1,,,,,,,,
,,"[""diamond"",""no_dis"",""vert"",""up"",[99999,99999],[-150,0]]",diamond,no_dis,vert,up,"[99999,99999]","[-150,0]",up,1,1.2151,,,,,,001,2025-03-10_16h59.06.178,SL_sali,2021.2.3,Win32,119.047619,,,65,0,65,0,1,,,,,,,,
,,"[""circle"",""green"",""vert"",""up"",[-150,0],[-106,106]]",circle,green,vert,up,"[-150,0]","[-106,106]",up,1,2.4435,,,,,,001,2025-03-10_16h59.06.178,SL_sali,2021.2.3,Win32,119.047619,,,66,0,66,0,1,,,,,,,,
,,"[""diamond"",""no_dis"",""vert"",""up"",[99999,99999],[106,-106]]",diamond,no_dis,vert,up,"[99999,99999]","[106,-106]",up,1,1.2401,,,,,,001,2025-03-10_16h59.06.178,SL_sali,2021.2.3,Win32,119.047619,,,67,0,67,0,1,,,,,,,,
,,"[""circle"",""red"",""vert"",""up"",[-106,-106],[150,0]]",circle,red,vert,up,"[-106,-106]","[150,0]",up,1,1.078,,,,,,001,2025-03-10_16h59.06.178,SL_sali,2021.2.3,Win32,119.047619,,,68,0,68,0,1,,,,,,,,
,,"[""diamond"",""red"",""hori"",""left"",[-106,106],[106,106]]",diamond,red,hori,left,"[-106,106]","[106,106]",left,1,1.9434,,,,,,001,2025-03-10_16h59.06.178,SL_sali,2021.2.3,Win32,119.047619,,,69,0,69,0,1,,,,,,,,
,,"[""diamond"",""green"",""vert"",""up"",[0,150],[-150,0]]",diamond,green,vert,up,"[0,150]","[-150,0]",up,1,1.7719,,,,,,001,2025-03-10_16h59.06.178,SL_sali,2021.2.3,Win32,119.047619,,,70,0,70,0,1,,,,,,,,
,,"[""circle"",""red"",""hori"",""left"",[106,106],[-106,-106]]",circle,red,hori,left,"[106,106]","[-106,-106]",left,1,1.1974,,,,,,001,2025-03-10_16h59.06.178,SL_sali,2021.2.3,Win32,119.047619,,,71,0,71,0,1,,,,,,,,
,,"[""circle"",""green"",""hori"",""left"",[-106,106],[106,-106]]",circle,green,hori,left,"[-106,106]","[106,-106]",left,1,1.3876,,,,,,001,2025-03-10_16h59.06.178,SL_sali,2021.2.3,Win32,119.047619,,,72,0,72,0,1,,,,,,,,
,,"[""diamond"",""red"",""vert"",""up"",[106,106],[-150,0]]",diamond,red,vert,up,"[106,106]","[-150,0]",up,1,1.3252,,,,,,001,2025-03-10_16h59.06.178,SL_sali,2021.2.3,Win32,119.047619,,,73,0,73,0,1,,,,,,,,
,,"[""diamond"",""green"",""hori"",""left"",[150,0],[0,-150]]",diamond,green,hori,left,"[150,0]","[0,-150]",left,1,1.2251,,,,,,001,2025-03-10_16h59.06.178,SL_sali,2021.2.3,Win32,119.047619,,,74,0,74,0,1,,,,,,,,
,,"[""diamond"",""no_dis"",""hori"",""left"",[99999,99999],[150,0]]",diamond,no_dis,hori,left,"[99999,99999]","[150,0]",left,1,1.6797,,,,,,001,2025-03-10_16h59.06.178,SL_sali,2021.2.3,Win32,119.047619,,,75,0,75,0,1,,,,,,,,
,,"[""circle"",""green"",""hori"",""left"",[0,150],[-106,106]]",circle,green,hori,left,"[0,150]","[-106,106]",left,1,1.45,,,,,,001,2025-03-10_16h59.06.178,SL_sali,2021.2.3,Win32,119.047619,,,76,0,76,0,1,,,,,,,,
,,"[""diamond"",""green"",""vert"",""up"",[-106,106],[-106,-106]]",diamond,green,vert,up,"[-106,106]","[-106,-106]",up,1,0.8609,,,,,,001,2025-03-10_16h59.06.178,SL_sali,2021.2.3,Win32,119.047619,,,77,0,77,0,1,,,,,,,,
,,"[""diamond"",""red"",""vert"",""up"",[150,0],[106,-106]]",diamond,red,vert,up,"[150,0]","[106,-106]",left,0,1.3465,,,,,,001,2025-03-10_16h59.06.178,SL_sali,2021.2.3,Win32,119.047619,,,78,0,78,0,1,,,,,,,,
,,"[""circle"",""green"",""hori"",""left"",[150,0],[0,150]]",circle,green,hori,left,"[150,0]","[0,150]",left,1,1.4218,,,,,,001,2025-03-10_16h59.06.178,SL_sali,2021.2.3,Win32,119.047619,,,79,0,79,0,1,,,,,,,,
,,"[""diamond"",""red"",""hori"",""left"",[-150,0],[-106,106]]",diamond,red,hori,left,"[-150,0]","[-106,106]",left,1,0.8954,,,,,,001,2025-03-10_16h59.06.178,SL_sali,2021.2.3,Win32,119.047619,,,80,0,80,0,1,,,,,,,,
,,"[""circle"",""red"",""hori"",""left"",[106,106],[106,-106]]",circle,red,hori,left,"[106,106]","[106,-106]",left,1,1.4748,,,,,,001,2025-03-10_16h59.06.178,SL_sali,2021.2.3,Win32,119.047619,,,81,0,81,0,1,,,,,,,,
,,"[""diamond"",""no_dis"",""vert"",""up"",[99999,99999],[0,150]]",diamond,no_dis,vert,up,"[99999,99999]","[0,150]",up,1,1.355,,,,,,001,2025-03-10_16h59.06.178,SL_sali,2021.2.3,Win32,119.047619,,,82,0,82,0,1,,,,,,,,
,,"[""diamond"",""green"",""hori"",""left"",[150,0],[106,-106]]",diamond,green,hori,left,"[150,0]","[106,-106]",left,1,0.9854,,,,,,001,2025-03-10_16h59.06.178,SL_sali,2021.2.3,Win32,119.047619,,,83,0,83,0,1,,,,,,,,
,,"[""circle"",""no_dis"",""hori"",""left"",[99999,99999],[-106,106]]",circle,no_dis,hori,left,"[99999,99999]","[-106,106]",up,0,1.2149,,,,,,001,2025-03-10_16h59.06.178,SL_sali,2021.2.3,Win32,119.047619,,,84,0,84,0,1,,,,,,,,
,,"[""circle"",""red"",""hori"",""left"",[150,0],[-106,106]]",circle,red,hori,left,"[150,0]","[-106,106]",left,1,1.2259,,,,,,001,2025-03-10_16h59.06.178,SL_sali,2021.2.3,Win32,119.047619,,,85,0,85,0,1,,,,,,,,
,,"[""circle"",""no_dis"",""hori"",""left"",[99999,99999],[0,-150]]",circle,no_dis,hori,left,"[99999,99999]","[0,-150]",left,1,1.1095,,,,,,001,2025-03-10_16h59.06.178,SL_sali,2021.2.3,Win32,119.047619,,,86,0,86,0,1,,,,,,,,
,,"[""diamond"",""no_dis"",""hori"",""left"",[99999,99999],[0,150]]",diamond,no_dis,hori,left,"[99999,99999]","[0,150]",left,1,1.0598,,,,,,001,2025-03-10_16h59.06.178,SL_sali,2021.2.3,Win32,119.047619,,,87,0,87,0,1,,,,,,,,
,,"[""circle"",""no_dis"",""vert"",""up"",[99999,99999],[-106,-106]]",circle,no_dis,vert,up,"[99999,99999]","[-106,-106]",left,0,1.439,,,,,,001,2025-03-10_16h59.06.178,SL_sali,2021.2.3,Win32,119.047619,,,88,0,88,0,1,,,,,,,,
,,"[""circle"",""red"",""vert"",""up"",[106,-106],[-106,106]]",circle,red,vert,up,"[106,-106]","[-106,106]",left,0,0.9268,,,,,,001,2025-03-10_16h59.06.178,SL_sali,2021.2.3,Win32,119.047619,,,89,0,89,0,1,,,,,,,,
,,"[""circle"",""green"",""vert"",""up"",[-106,106],[-150,0]]",circle,green,vert,up,"[-106,106]","[-150,0]",up,1,1.6868,,,,,,001,2025-03-10_16h59.06.178,SL_sali,2021.2.3,Win32,119.047619,,,90,0,90,0,1,,,,,,,,
,,"[""diamond"",""red"",""hori"",""left"",[150,0],[-106,-106]]",diamond,red,hori,left,"[150,0]","[-106,-106]",left,1,1.7354,,,,,,001,2025-03-10_16h59.06.178,SL_sali,2021.2.3,Win32,119.047619,,,91,0,91,0,1,,,,,,,,
,,"[""circle"",""no_dis"",""vert"",""up"",[99999,99999],[0,150]]",circle,no_dis,vert,up,"[99999,99999]","[0,150]",up,1,1.4273,,,,,,001,2025-03-10_16h59.06.178,SL_sali,2021.2.3,Win32,119.047619,,,92,0,92,0,1,,,,,,,,
,,"[""diamond"",""green"",""hori"",""left"",[-106,-106],[106,106]]",diamond,green,hori,left,"[-106,-106]","[106,106]",left,1,1.0351,,,,,,001,2025-03-10_16h59.06.178,SL_sali,2021.2.3,Win32,119.047619,,,93,0,93,0,1,,,,,,,,
,,"[""circle"",""no_dis"",""hori"",""left"",[99999,99999],[-150,0]]",circle,no_dis,hori,left,"[99999,99999]","[-150,0]",left,1,1.1349,,,,,,001,2025-03-10_16h59.06.178,SL_sali,2021.2.3,Win32,119.047619,,,94,0,94,0,1,,,,,,,,
,,"[""diamond"",""green"",""vert"",""up"",[106,106],[0,-150]]",diamond,green,vert,up,"[106,106]","[0,-150]",up,1,1.5713,,,,,,001,2025-03-10_16h59.06.178,SL_sali,2021.2.3,Win32,119.047619,,,95,0,95,0,1,,,,,,,,
,,"[""circle"",""no_dis"",""vert"",""up"",[99999,99999],[-150,0]]",circle,no_dis,vert,up,"[99999,99999]","[-150,0]",up,1,1.3235,,,,,,001,2025-03-10_16h59.06.178,SL_sali,2021.2.3,Win32,119.047619,,,96,0,96,0,1,,,,,,,,
,,"[""circle"",""green"",""hori"",""left"",[0,-150],[106,106]]",circle,green,hori,left,"[0,-150]","[106,106]",left,1,0.96,,,,,,001,2025-03-10_16h59.06.178,SL_sali,2021.2.3,Win32,119.047619,,,97,0,97,0,1,,,,,,,,
,,"[""circle"",""no_dis"",""hori"",""left"",[99999,99999],[-106,-106]]",circle,no_dis,hori,left,"[99999,99999]","[-106,-106]",left,1,1.0173,,,,,,001,2025-03-10_16h59.06.178,SL_sali,2021.2.3,Win32,119.047619,,,98,0,98,0,1,,,,,,,,
,,"[""diamond"",""green"",""vert"",""up"",[150,0],[106,-106]]",diamond,green,vert,up,"[150,0]","[106,-106]",up,1,1.625,,,,,,001,2025-03-10_16h59.06.178,SL_sali,2021.2.3,Win32,119.047619,,,99,0,99,0,1,,,,,,,,
,,"[""diamond"",""red"",""vert"",""up"",[106,-106],[-150,0]]",diamond,red,vert,up,"[106,-106]","[-150,0]",up,1,0.8706,,,,,,001,2025-03-10_16h59.06.178,SL_sali,2021.2.3,Win32,119.047619,,,100,0,100,0,1,,,,,,,,
,,"[""circle"",""red"",""hori"",""left"",[-106,-106],[106,106]]",circle,red,hori,left,"[-106,-106]","[106,106]",left,1,1.3208,,,,,,001,2025-03-10_16h59.06.178,SL_sali,2021.2.3,Win32,119.047619,,,101,0,101,0,1,,,,,,,,
,,"[""diamond"",""red"",""vert"",""up"",[-106,106],[-106,-106]]",diamond,red,vert,up,"[-106,106]","[-106,-106]",up,1,1.6603,,,,,,001,2025-03-10_16h59.06.178,SL_sali,2021.2.3,Win32,119.047619,,,102,0,102,0,1,,,,,,,,
,,"[""circle"",""no_dis"",""vert"",""up"",[99999,99999],[-106,106]]",circle,no_dis,vert,up,"[99999,99999]","[-106,106]",up,1,1.1012,,,,,,001,2025-03-10_16h59.06.178,SL_sali,2021.2.3,Win32,119.047619,,,103,0,103,0,1,,,,,,,,
,,"[""circle"",""red"",""vert"",""up"",[-106,106],[0,-150]]",circle,red,vert,up,"[-106,106]","[0,-150]",up,1,1.0703,,,,,,001,2025-03-10_16h59.06.178,SL_sali,2021.2.3,Win32,119.047619,,,104,0,104,0,1,,,,,,,,
,,"[""diamond"",""red"",""vert"",""up"",[106,-106],[0,-150]]",diamond,red,vert,up,"[106,-106]","[0,-150]",up,1,1.4176,,,,,,001,2025-03-10_16h59.06.178,SL_sali,2021.2.3,Win32,119.047619,,,105,0,105,0,1,,,,,,,,
,,"[""diamond"",""red"",""hori"",""left"",[-150,0],[0,150]]",diamond,red,hori,left,"[-150,0]","[0,150]",left,1,0.9878,,,,,,001,2025-03-10_16h59.06.178,SL_sali,2021.2.3,Win32,119.047619,,,106,0,106,0,1,,,,,,,,
,,"[""diamond"",""red"",""vert"",""up"",[150,0],[-150,0]]",diamond,red,vert,up,"[150,0]","[-150,0]",up,1,1.1363,,,,,,001,2025-03-10_16h59.06.178,SL_sali,2021.2.3,Win32,119.047619,,,107,0,107,0,1,,,,,,,,
,,"[""circle"",""no_dis"",""vert"",""up"",[99999,99999],[0,-150]]",circle,no_dis,vert,up,"[99999,99999]","[0,-150]",up,1,0.9809,,,,,,001,2025-03-10_16h59.06.178,SL_sali,2021.2.3,Win32,119.047619,,,108,0,108,0,1,,,,,,,,
,,"[""circle"",""no_dis"",""hori"",""left"",[99999,99999],[150,0]]",circle,no_dis,hori,left,"[99999,99999]","[150,0]",left,1,1.6043,,,,,,001,2025-03-10_16h59.06.178,SL_sali,2021.2.3,Win32,119.047619,,,109,0,109,0,1,,,,,,,,
,,"[""diamond"",""red"",""hori"",""left"",[150,0],[106,106]]",diamond,red,hori,left,"[150,0]","[106,106]",up,0,1.7423,,,,,,001,2025-03-10_16h59.06.178,SL_sali,2021.2.3,Win32,119.047619,,,110,0,110,0,1,,,,,,,,
,,"[""diamond"",""green"",""hori"",""left"",[106,-106],[-150,0]]",diamond,green,hori,left,"[106,-106]","[-150,0]",left,1,1.0029,,,,,,001,2025-03-10_16h59.06.178,SL_sali,2021.2.3,Win32,119.047619,,,111,0,111,0,1,,,,,,,,
,,"[""diamond"",""green"",""vert"",""up"",[150,0],[0,-150]]",diamond,green,vert,up,"[150,0]","[0,-150]",up,1,1.1858,,,,,,001,2025-03-10_16h59.06.178,SL_sali,2021.2.3,Win32,119.047619,,,112,0,112,0,1,,,,,,,,
,,"[""circle"",""red"",""vert"",""up"",[106,-106],[150,0]]",circle,red,vert,up,"[106,-106]","[150,0]",up,1,2.1072,,,,,,001,2025-03-10_16h59.06.178,SL_sali,2021.2.3,Win32,119.047619,,,113,0,113,0,1,,,,,,,,
,,"[""diamond"",""red"",""hori"",""left"",[-106,106],[106,-106]]",diamond,red,hori,left,"[-106,106]","[106,-106]",left,1,2.4968,,,,,,001,2025-03-10_16h59.06.178,SL_sali,2021.2.3,Win32,119.047619,,,114,0,114,0,1,,,,,,,,
,,"[""circle"",""red"",""hori"",""left"",[150,0],[0,-150]]",circle,red,hori,left,"[150,0]","[0,-150]",left,1,1.2371,,,,,,001,2025-03-10_16h59.06.178,SL_sali,2021.2.3,Win32,119.047619,,,115,0,115,0,1,,,,,,,,
,,"[""circle"",""red"",""hori"",""left"",[106,106],[-150,0]]",circle,red,hori,left,"[106,106]","[-150,0]",up,0,1.8915,,,,,,001,2025-03-10_16h59.06.178,SL_sali,2021.2.3,Win32,119.047619,,,116,0,116,0,1,,,,,,,,
,,"[""circle"",""red"",""hori"",""left"",[0,-150],[150,0]]",circle,red,hori,left,"[0,-150]","[150,0]",left,1,1.9052,,,,,,001,2025-03-10_16h59.06.178,SL_sali,2021.2.3,Win32,119.047619,,,117,0,117,0,1,,,,,,,,
,,"[""diamond"",""no_dis"",""hori"",""left"",[99999,99999],[106,106]]",diamond,no_dis,hori,left,"[99999,99999]","[106,106]",left,1,1.7593,,,,,,001,2025-03-10_16h59.06.178,SL_sali,2021.2.3,Win32,119.047619,,,118,0,118,0,1,,,,,,,,
,,"[""circle"",""red"",""hori"",""left"",[150,0],[-106,106]]",circle,red,hori,left,"[150,0]","[-106,106]",left,1,1.7863,,,,,,001,2025-03-10_16h59.06.178,SL_sali,2021.2.3,Win32,119.047619,,,119,0,119,0,1,,,,,,,,
,,,,,,,,,,,,,,,,,001,2025-03-10_16h59.06.178,SL_sali,2021.2.3,Win32,119.047619,,,,,,,,1,space,19.1585,0,0,0,0,1
,,"[""circle"",""red"",""hori"",""left"",[106,106],[106,-106]]",circle,red,hori,left,"[106,106]","[106,-106]",up,0,1.5655,,,,,,001,2025-03-10_16h59.06.178,SL_sali,2021.2.3,Win32,119.047619,,,0,0,0,0,1,,,,,,,,
,,"[""circle"",""no_dis"",""vert"",""up"",[99999,99999],[0,150]]",circle,no_dis,vert,up,"[99999,99999]","[0,150]",up,1,1.5188,,,,,,001,2025-03-10_16h59.06.178,SL_sali,2021.2.3,Win32,119.047619,,,1,0,1,0,1,,,,,,,,
,,"[""diamond"",""no_dis"",""hori"",""left"",[99999,99999],[0,150]]",diamond,no_dis,hori,left,"[99999,99999]","[0,150]",left,1,1.926,,,,,,001,2025-03-10_16h59.06.178,SL_sali,2021.2.3,Win32,119.047619,,,2,0,2,0,1,,,,,,,,
,,"[""circle"",""red"",""hori"",""left"",[150,0],[-106,106]]",circle,red,hori,left,"[150,0]","[-106,106]",left,1,1.1476,,,,,,001,2025-03-10_16h59.06.178,SL_sali,2021.2.3,Win32,119.047619,,,3,0,3,0,1,,,,,,,,
,,"[""diamond"",""red"",""hori"",""left"",[150,0],[106,106]]",diamond,red,hori,left,"[150,0]","[106,106]",left,1,1.4998,,,,,,001,2025-03-10_16h59.06.178,SL_sali,2021.2.3,Win32,119.047619,,,4,0,4,0,1,,,,,,,,
,,"[""diamond"",""green"",""hori"",""left"",[150,0],[0,-150]]",diamond,green,hori,left,"[150,0]","[0,-150]",left,1,1.7333,,,,,,001,2025-03-10_16h59.06.178,SL_sali,2021.2.3,Win32,119.047619,,,5,0,5,0,1,,,,,,,,
,,"[""diamond"",""green"",""vert"",""up"",[0,-150],[106,106]]",diamond,green,vert,up,"[0,-150]","[106,106]",up,1,1.1281,,,,,,001,2025-03-10_16h59.06.178,SL_sali,2021.2.3,Win32,119.047619,,,6,0,6,0,1,,,,,,,,
,,"[""diamond"",""no_dis"",""hori"",""left"",[99999,99999],[-106,-106]]",diamond,no_dis,hori,left,"[99999,99999]","[-106,-106]",left,1,1.5436,,,,,,001,2025-03-10_16h59.06.178,SL_sali,2021.2.3,Win32,119.047619,,,7,0,7,0,1,,,,,,,,
,,"[""circle"",""red"",""vert"",""up"",[-106,-106],[150,0]]",circle,red,vert,up,"[-106,-106]","[150,0]",up,1,1.3576,,,,,,001,2025-03-10_16h59.06.178,SL_sali,2021.2.3,Win32,119.047619,,,8,0,8,0,1,,,,,,,,
,,"[""diamond"",""no_dis"",""vert"",""up"",[99999,99999],[-106,106]]",diamond,no_dis,vert,up,"[99999,99999]","[-106,106]",up,1,2.0352,,,,,,001,2025-03-10_16h59.06.178,SL_sali,2021.2.3,Win32,119.047619,,,9,0,9,0,1,,,,,,,,
,,"[""diamond"",""red"",""vert"",""up"",[106,106],[-150,0]]",diamond,red,vert,up,"[106,106]","[-150,0]",up,1,1.2246,,,,,,001,2025-03-10_16h59.06.178,SL_sali,2021.2.3,Win32,119.047619,,,10,0,10,0,1,,,,,,,,
,,"[""diamond"",""red"",""vert"",""up"",[106,-106],[0,-150]]",diamond,red,vert,up,"[106,-106]","[0,-150]",up,1,1.3415,,,,,,001,2025-03-10_16h59.06.178,SL_sali,2021.2.3,Win32,119.047619,,,11,0,11,0,1,,,,,,,,
,,"[""circle"",""red"",""hori"",""left"",[0,-150],[150,0]]",circle,red,hori,left,"[0,-150]","[150,0]",left,1,1.7039,,,,,,001,2025-03-10_16h59.06.178,SL_sali,2021.2.3,Win32,119.047619,,,12,0,12,0,1,,,,,,,,
,,"[""circle"",""green"",""vert"",""up"",[-150,0],[106,-106]]",circle,green,vert,up,"[-150,0]","[106,-106]",up,1,0.8976,,,,,,001,2025-03-10_16h59.06.178,SL_sali,2021.2.3,Win32,119.047619,,,13,0,13,0,1,,,,,,,,
,,"[""diamond"",""no_dis"",""vert"",""up"",[99999,99999],[0,150]]",diamond,no_dis,vert,up,"[99999,99999]","[0,150]",up,1,2.4258,,,,,,001,2025-03-10_16h59.06.178,SL_sali,2021.2.3,Win32,119.047619,,,14,0,14,0,1,,,,,,,,
,,"[""diamond"",""red"",""vert"",""up"",[106,106],[-106,-106]]",diamond,red,vert,up,"[106,106]","[-106,-106]",up,1,1.1428,,,,,,001,2025-03-10_16h59.06.178,SL_sali,2021.2.3,Win32,119.047619,,,15,0,15,0,1,,,,,,,,
,,"[""circle"",""no_dis"",""vert"",""up"",[99999,99999],[0,-150]]",circle,no_dis,vert,up,"[99999,99999]","[0,-150]",up,1,1.4974,,,,,,001,2025-03-10_16h59.06.178,SL_sali,2021.2.3,Win32,119.047619,,,16,0,16,0,1,,,,,,,,
,,"[""circle"",""green"",""hori"",""left"",[150,0],[-106,-106]]",circle,green,hori,left,"[150,0]","[-106,-106]",left,1,1.221,,,,,,001,2025-03-10_16h59.06.178,SL_sali,2021.2.3,Win32,119.047619,,,17,0,17,0,1,,,,,,,,
,,"[""circle"",""no_dis"",""hori"",""left"",[99999,99999],[-150,0]]",circle,no_dis,hori,left,"[99999,99999]","[-150,0]",left,1,0.8515,,,,,,001,2025-03-10_16h59.06.178,SL_sali,2021.2.3,Win32,119.047619,,,18,0,18,0,1,,,,,,,,
,,"[""circle"",""no_dis"",""hori"",""left"",[99999,99999],[150,0]]",circle,no_dis,hori,left,"[99999,99999]","[150,0]",left,1,1.4693,,,,,,001,2025-03-10_16h59.06.178,SL_sali,2021.2.3,Win32,119.047619,,,19,0,19,0,1,,,,,,,,
,,"[""circle"",""red"",""hori"",""left"",[150,0],[0,-150]]",circle,red,hori,left,"[150,0]","[0,-150]",left,1,1.1686,,,,,,001,2025-03-10_16h59.06.178,SL_sali,2021.2.3,Win32,119.047619,,,20,0,20,0,1,,,,,,,,
,,"[""diamond"",""no_dis"",""vert"",""up"",[99999,99999],[106,-106]]",diamond,no_dis,vert,up,"[99999,99999]","[106,-106]",up,1,1.3219,,,,,,001,2025-03-10_16h59.06.178,SL_sali,2021.2.3,Win32,119.047619,,,21,0,21,0,1,,,,,,,,
,,"[""diamond"",""green"",""hori"",""left"",[0,150],[-106,106]]",diamond,green,hori,left,"[0,150]","[-106,106]",left,1,0.9398,,,,,,001,2025-03-10_16h59.06.178,SL_sali,2021.2.3,Win32,119.047619,,,22,0,22,0,1,,,,,,,,
,,"[""circle"",""green"",""hori"",""left"",[-106,106],[0,150]]",circle,green,hori,left,"[-106,106]","[0,150]",left,1,1.6615,,,,,,001,2025-03-10_16h59.06.178,SL_sali,2021.2.3,Win32,119.047619,,,23,0,23,0,1,,,,,,,,
,,"[""circle"",""no_dis"",""hori"",""left"",[99999,99999],[106,-106]]",circle,no_dis,hori,left,"[99999,99999]","[106,-106]",left,1,0.9494,,,,,,001,2025-03-10_16h59.06.178,SL_sali,2021.2.3,Win32,119.047619,,,24,0,24,0,1,,,,,,,,
,,"[""diamond"",""green"",""hori"",""left"",[-150,0],[-106,106]]",diamond,green,hori,left,"[-150,0]","[-106,106]",left,1,1.5768,,,,,,001,2025-03-10_16h59.06.178,SL_sali,2021.2.3,Win32,119.047619,,,25,0,25,0,1,,,,,,,,
,,"[""diamond"",""green"",""vert"",""up"",[-150,0],[150,0]]",diamond,green,vert,up,"[-150,0]","[150,0]",up,1,1.2997,,,,,,001,2025-03-10_16h59.06.178,SL_sali,2021.2.3,Win32,119.047619,,,26,0,26,0,1,,,,,,,,
,,"[""diamond"",""red"",""hori"",""left"",[-106,106],[106,106]]",diamond,red,hori,left,"[-106,106]","[106,106]",left,1,1.2648,,,,,,001,2025-03-10_16h59.06.178,SL_sali,2021.2.3,Win32,119.047619,,,27,0,27,0,1,,,,,,,,
,,"[""diamond"",""red"",""hori"",""left"",[0,-150],[0,150]]",diamond,red,hori,left,"[0,-150]","[0,150]",left,1,0.9603,,,,,,001,2025-03-10_16h59.06.178,SL_sali,2021.2.3,Win32,119.047619,,,28,0,28,0,1,,,,,,,,
,,"[""diamond"",""green"",""hori"",""left"",[-106,-106],[0,150]]",diamond,green,hori,left,"[-106,-106]","[0,150]",left,1,0.7614,,,,,,001,2025-03-10_16h59.06.178,SL_sali,2021.2.3,Win32,119.047619,,,29,0,29,0,1,,,,,,,,
,,"[""diamond"",""no_dis"",""vert"",""up"",[99999,99999],[-150,0]]",diamond,no_dis,vert,up,"[99999,99999]","[-150,0]",up,1,0.7712,,,,,,001,2025-03-10_16h59.06.178,SL_sali,2021.2.3,Win32,119.047619,,,30,0,30,0,1,,,,,,,,
,,"[""circle"",""no_dis"",""vert"",""up"",[99999,99999],[150,0]]",circle,no_dis,vert,up,"[99999,99999]","[150,0]",up,1,0.9018,,,,,,001,2025-03-10_16h59.06.178,SL_sali,2021.2.3,Win32,119.047619,,,31,0,31,0,1,,,,,,,,
,,"[""diamond"",""green"",""vert"",""up"",[150,0],[106,-106]]",diamond,green,vert,up,"[150,0]","[106,-106]",left,0,0.9032,,,,,,001,2025-03-10_16h59.06.178,SL_sali,2021.2.3,Win32,119.047619,,,32,0,32,0,1,,,,,,,,
,,"[""circle"",""red"",""vert"",""up"",[-106,-106],[0,-150]]",circle,red,vert,up,"[-106,-106]","[0,-150]",up,1,1.6432,,,,,,001,2025-03-10_16h59.06.178,SL_sali,2021.2.3,Win32,119.047619,,,33,0,33,0,1,,,,,,,,
,,"[""circle"",""green"",""hori"",""left"",[0,150],[-106,106]]",circle,green,hori,left,"[0,150]","[-106,106]",left,1,0.7082,,,,,,001,2025-03-10_16h59.06.178,SL_sali,2021.2.3,Win32,119.047619,,,34,0,34,0,1,,,,,,,,
,,"[""circle"",""red"",""hori"",""left"",[0,-150],[106,-106]]",circle,red,hori,left,"[0,-150]","[106,-106]",left,1,0.8746,,,,,,001,2025-03-10_16h59.06.178,SL_sali,2021.2.3,Win32,119.047619,,,35,0,35,0,1,,,,,,,,
,,"[""diamond"",""red"",""vert"",""up"",[-106,106],[-106,-106]]",diamond,red,vert,up,"[-106,106]","[-106,-106]",up,1,0.9231,,,,,,001,2025-03-10_16h59.06.178,SL_sali,2021.2.3,Win32,119.047619,,,36,0,36,0,1,,,,,,,,
,,"[""circle"",""no_dis"",""vert"",""up"",[99999,99999],[150,0]]",circle,no_dis,vert,up,"[99999,99999]","[150,0]",left,0,0.9878,,,,,,001,2025-03-10_16h59.06.178,SL_sali,2021.2.3,Win32,119.047619,,,37,0,37,0,1,,,,,,,,
,,"[""diamond"",""red"",""hori"",""left"",[-106,106],[106,-106]]",diamond,red,hori,left,"[-106,106]","[106,-106]",left,1,1.0858,,,,,,001,2025-03-10_16h59.06.178,SL_sali,2021.2.3,Win32,119.047619,,,38,0,38,0,1,,,,,,,,
,,"[""circle"",""no_dis"",""hori"",""left"",[99999,99999],[-106,106]]",circle,no_dis,hori,left,"[99999,99999]","[-106,106]",left,1,1.3164,,,,,,001,2025-03-10_16h59.06.178,SL_sali,2021.2.3,Win32,119.047619,,,39,0,39,0,1,,,,,,,,
,,"[""diamond"",""red"",""hori"",""left"",[106,-106],[-106,106]]",diamond,red,hori,left,"[106,-106]","[-106,106]",left,1,2.5125,,,,,,001,2025-03-10_16h59.06.178,SL_sali,2021.2.3,Win32,119.047619,,,40,0,40,0,1,,,,,,,,
,,"[""circle"",""red"",""hori"",""left"",[-106,-106],[106,106]]",circle,red,hori,left,"[-106,-106]","[106,106]",left,1,1.8425,,,,,,001,2025-03-10_16h59.06.178,SL_sali,2021.2.3,Win32,119.047619,,,41,0,41,0,1,,,,,,,,
,,"[""diamond"",""green"",""hori"",""left"",[-106,-106],[-106,106]]",diamond,green,hori,left,"[-106,-106]","[-106,106]",left,1,1.0697,,,,,,001,2025-03-10_16h59.06.178,SL_sali,2021.2.3,Win32,119.047619,,,42,0,42,0,1,,,,,,,,
,,"[""diamond"",""red"",""vert"",""up"",[106,106],[-106,-106]]",diamond,red,vert,up,"[106,106]","[-106,-106]",up,1,1.0421,,,,,,001,2025-03-10_16h59.06.178,SL_sali,2021.2.3,Win32,119.047619,,,43,0,43,0,1,,,,,,,,
,,"[""circle"",""no_dis"",""hori"",""left"",[99999,99999],[0,150]]",circle,no_dis,hori,left,"[99999,99999]","[0,150]",left,1,1.907,,,,,,001,2025-03-10_16h59.06.178,SL_sali,2021.2.3,Win32,119.047619,,,44,0,44,0,1,,,,,,,,
,,"[""diamond"",""green"",""hori"",""left"",[150,0],[106,-106]]",diamond,green,hori,left,"[150,0]","[106,-106]",left,1,1.3667,,,,,,001,2025-03-10_16h59.06.178,SL_sali,2021.2.3,Win32,119.047619,,,45,0,45,0,1,,,,,,,,
,,"[""diamond"",""no_dis"",""vert"",""up"",[99999,99999],[-106,-106]]",diamond,no_dis,vert,up,"[99999,99999]","[-106,-106]",up,1,1.202,,,,,,001,2025-03-10_16h59.06.178,SL_sali,2021.2.3,Win32,119.047619,,,46,0,46,0,1,,,,,,,,
,,"[""circle"",""red"",""vert"",""up"",[106,-106],[-150,0]]",circle,red,vert,up,"[106,-106]","[-150,0]",up,1,1.2339,,,,,,001,2025-03-10_16h59.06.178,SL_sali,2021.2.3,Win32,119.047619,,,47,0,47,0,1,,,,,,,,
,,"[""circle"",""red"",""vert"",""up"",[-150,0],[106,106]]",circle,red,vert,up,"[-150,0]","[106,106]",up,1,1.5823,,,,,,001,2025-03-10_16h59.06.178,SL_sali,2021.2.3,Win32,119.047619,,,48,0,48,0,1,,,,,,,,
,,"[""circle"",""no_dis"",""vert"",""up"",[99999,99999],[0,-150]]",circle,no_dis,vert,up,"[99999,99999]","[0,-150]",up,1,0.9024,,,,,,001,2025-03-10_16h59.06.178,SL_sali,2021.2.3,Win32,119.047619,,,49,0,49,0,1,,,,,,,,
,,"[""circle"",""red"",""hori"",""left"",[0,150],[-150,0]]",circle,red,hori,left,"[0,150]","[-150,0]",left,1,1.4608,,,,,,001,2025-03-10_16h59.06.178,SL_sali,2021.2.3,Win32,119.047619,,,50,0,50,0,1,,,,,,,,
,,"[""diamond"",""green"",""vert"",""up"",[0,150],[-150,0]]",diamond,green,vert,up,"[0,150]","[-150,0]",up,1,1.1563,,,,,,001,2025-03-10_16h59.06.178,SL_sali,2021.2.3,Win32,119.047619,,,51,0,51,0,1,,,,,,,,
,,"[""diamond"",""no_dis"",""hori"",""left"",[99999,99999],[106,106]]",diamond,no_dis,hori,left,"[99999,99999]","[106,106]",left,1,1.1184,,,,,,001,2025-03-10_16h59.06.178,SL_sali,2021.2.3,Win32,119.047619,,,52,0,52,0,1,,,,,,,,
,,"[""diamond"",""green"",""hori"",""left"",[-106,-106],[106,106]]",diamond,green,hori,left,"[-106,-106]","[106,106]",left,1,0.9796,,,,,,001,2025-03-10_16h59.06.178,SL_sali,2021.2.3,Win32,119.047619,,,53,0,53,0,1,,,,,,,,
,,"[""circle"",""green"",""vert"",""up"",[-150,0],[-106,106]]",circle,green,vert,up,"[-150,0]","[-106,106]",up,1,1.5405,,,,,,001,2025-03-10_16h59.06.178,SL_sali,2021.2.3,Win32,119.047619,,,54,0,54,0,1,,,,,,,,
,,"[""diamond"",""green"",""vert"",""up"",[106,106],[0,-150]]",diamond,green,vert,up,"[106,106]","[0,-150]",up,1,0.9666,,,,,,001,2025-03-10_16h59.06.178,SL_sali,2021.2.3,Win32,119.047619,,,55,0,55,0,1,,,,,,,,
,,"[""diamond"",""no_dis"",""hori"",""left"",[99999,99999],[150,0]]",diamond,no_dis,hori,left,"[99999,99999]","[150,0]",left,1,1.7109,,,,,,001,2025-03-10_16h59.06.178,SL_sali,2021.2.3,Win32,119.047619,,,56,0,56,0,1,,,,,,,,
,,"[""circle"",""red"",""vert"",""up"",[106,-106],[150,0]]",circle,red,vert,up,"[106,-106]","[150,0]",up,1,1.0669,,,,,,001,2025-03-10_16h59.06.178,SL_sali,2021.2.3,Win32,119.047619,,,57,0,57,0,1,,,,,,,,
,,"[""circle"",""no_dis"",""hori"",""left"",[99999,99999],[-106,-106]]",circle,no_dis,hori,left,"[99999,99999]","[-106,-106]",left,1,0.9508,,,,,,001,2025-03-10_16h59.06.178,SL_sali,2021.2.3,Win32,119.047619,,,58,0,58,0,1,,,,,,,,
,,"[""diamond"",""red"",""hori"",""left"",[0,-150],[150,0]]",diamond,red,hori,left,"[0,-150]","[150,0]",left,1,2.2021,,,,,,001,2025-03-10_16h59.06.178,SL_sali,2021.2.3,Win32,119.047619,,,59,0,59,0,1,,,,,,,,
,,"[""circle"",""green"",""hori"",""left"",[0,-150],[106,106]]",circle,green,hori,left,"[0,-150]","[106,106]",left,1,1.0191,,,,,,001,2025-03-10_16h59.06.178,SL_sali,2021.2.3,Win32,119.047619,,,60,0,60,0,1,,,,,,,,
,,"[""circle"",""no_dis"",""vert"",""up"",[99999,99999],[-150,0]]",circle,no_dis,vert,up,"[99999,99999]","[-150,0]",up,1,1.8044,,,,,,001,2025-03-10_16h59.06.178,SL_sali,2021.2.3,Win32,119.047619,,,61,0,61,0,1,,,,,,,,
,,"[""diamond"",""red"",""vert"",""up"",[150,0],[106,-106]]",diamond,red,vert,up,"[150,0]","[106,-106]",up,1,2.569,,,,,,001,2025-03-10_16h59.06.178,SL_sali,2021.2.3,Win32,119.047619,,,62,0,62,0,1,,,,,,,,
,,"[""circle"",""red"",""vert"",""up"",[0,150],[-150,0]]",circle,red,vert,up,"[0,150]","[-150,0]",up,1,1.7119,,,,,,001,2025-03-10_16h59.06.178,SL_sali,2021.2.3,Win32,119.047619,,,63,0,63,0,1,,,,,,,,
,,"[""circle"",""red"",""vert"",""up"",[150,0],[106,-106]]",circle,red,vert,up,"[150,0]","[106,-106]",up,1,0.9866,,,,,,001,2025-03-10_16h59.06.178,SL_sali,2021.2.3,Win32,119.047619,,,64,0,64,0,1,,,,,,,,
,,"[""circle"",""green"",""vert"",""up"",[150,0],[-106,106]]",circle,green,vert,up,"[150,0]","[-106,106]",up,1,0.8914,,,,,,001,2025-03-10_16h59.06.178,SL_sali,2021.2.3,Win32,119.047619,,,65,0,65,0,1,,,,,,,,
,,"[""circle"",""green"",""vert"",""up"",[106,-106],[150,0]]",circle,green,vert,up,"[106,-106]","[150,0]",up,1,0.7285,,,,,,001,2025-03-10_16h59.06.178,SL_sali,2021.2.3,Win32,119.047619,,,66,0,66,0,1,,,,,,,,
,,"[""circle"",""no_dis"",""hori"",""left"",[99999,99999],[-106,106]]",circle,no_dis,hori,left,"[99999,99999]","[-106,106]",left,1,0.6428,,,,,,001,2025-03-10_16h59.06.178,SL_sali,2021.2.3,Win32,119.047619,,,67,0,67,0,1,,,,,,,,
,,"[""circle"",""red"",""vert"",""up"",[106,-106],[-106,106]]",circle,red,vert,up,"[106,-106]","[-106,106]",up,1,0.8775,,,,,,001,2025-03-10_16h59.06.178,SL_sali,2021.2.3,Win32,119.047619,,,68,0,68,0,1,,,,,,,,
,,"[""diamond"",""green"",""hori"",""left"",[0,150],[-106,106]]",diamond,green,hori,left,"[0,150]","[-106,106]",left,1,0.7038,,,,,,001,2025-03-10_16h59.06.178,SL_sali,2021.2.3,Win32,119.047619,,,69,0,69,0,1,,,,,,,,
,,"[""diamond"",""no_dis"",""hori"",""left"",[99999,99999],[106,106]]",diamond,no_dis,hori,left,"[99999,99999]","[106,106]",left,1,0.9954,,,,,,001,2025-03-10_16h59.06.178,SL_sali,2021.2.3,Win32,119.047619,,,70,0,70,0,1,,,,,,,,
,,"[""diamond"",""no_dis"",""vert"",""up"",[99999,99999],[-106,-106]]",diamond,no_dis,vert,up,"[99999,99999]","[-106,-106]",up,1,2.0967,,,,,,001,2025-03-10_16h59.06.178,SL_sali,2021.2.3,Win32,119.047619,,,71,0,71,0,1,,,,,,,,
,,"[""diamond"",""red"",""hori"",""left"",[150,0],[-106,-106]]",diamond,red,hori,left,"[150,0]","[-106,-106]",left,1,1.255,,,,,,001,2025-03-10_16h59.06.178,SL_sali,2021.2.3,Win32,119.047619,,,72,0,72,0,1,,,,,,,,
,,"[""diamond"",""green"",""hori"",""left"",[106,-106],[-150,0]]",diamond,green,hori,left,"[106,-106]","[-150,0]",left,1,0.935,,,,,,001,2025-03-10_16h59.06.178,SL_sali,2021.2.3,Win32,119.047619,,,73,0,73,0,1,,,,,,,,
,,"[""circle"",""no_dis"",""vert"",""up"",[99999,99999],[-106,-106]]",circle,no_dis,vert,up,"[99999,99999]","[-106,-106]",left,0,1.0128,,,,,,001,2025-03-10_16h59.06.178,SL_sali,2021.2.3,Win32,119.047619,,,74,0,74,0,1,,,,,,,,
,,"[""circle"",""green"",""hori"",""left"",[150,0],[-150,0]]",circle,green,hori,left,"[150,0]","[-150,0]",left,1,0.846,,,,,,001,2025-03-10_16h59.06.178,SL_sali,2021.2.3,Win32,119.047619,,,75,0,75,0,1,,,,,,,,
,,"[""circle"",""no_dis"",""vert"",""up"",[99999,99999],[0,-150]]",circle,no_dis,vert,up,"[99999,99999]","[0,-150]",up,1,0.9121,,,,,,001,2025-03-10_16h59.06.178,SL_sali,2021.2.3,Win32,119.047619,,,76,0,76,0,1,,,,,,,,
,,"[""diamond"",""green"",""vert"",""up"",[150,0],[106,-106]]",diamond,green,vert,up,"[150,0]","[106,-106]",up,1,1.7508,,,,,,001,2025-03-10_16h59.06.178,SL_sali,2021.2.3,Win32,119.047619,,,77,0,77,0,1,,,,,,,,
,,"[""diamond"",""green"",""vert"",""up"",[150,0],[0,-150]]",diamond,green,vert,up,"[150,0]","[0,-150]",up,1,0.8369,,,,,,001,2025-03-10_16h59.06.178,SL_sali,2021.2.3,Win32,119.047619,,,78,0,78,0,1,,,,,,,,
,,"[""circle"",""red"",""vert"",""up"",[150,0],[0,-150]]",circle,red,vert,up,"[150,0]","[0,-150]",up,1,1.5599,,,,,,001,2025-03-10_16h59.06.178,SL_sali,2021.2.3,Win32,119.047619,,,79,0,79,0,1,,,,,,,,
,,"[""diamond"",""no_dis"",""hori"",""left"",[99999,99999],[106,106]]",diamond,no_dis,hori,left,"[99999,99999]","[106,106]",left,1,1.3409,,,,,,001,2025-03-10_16h59.06.178,SL_sali,2021.2.3,Win32,119.047619,,,80,0,80,0,1,,,,,,,,
,,"[""circle"",""red"",""vert"",""up"",[-106,106],[0,-150]]",circle,red,vert,up,"[-106,106]","[0,-150]",up,1,1.1464,,,,,,001,2025-03-10_16h59.06.178,SL_sali,2021.2.3,Win32,119.047619,,,81,0,81,0,1,,,,,,,,
,,"[""circle"",""no_dis"",""vert"",""up"",[99999,99999],[-150,0]]",circle,no_dis,vert,up,"[99999,99999]","[-150,0]",left,0,1.482,,,,,,001,2025-03-10_16h59.06.178,SL_sali,2021.2.3,Win32,119.047619,,,82,0,82,0,1,,,,,,,,
,,"[""circle"",""no_dis"",""hori"",""left"",[99999,99999],[106,-106]]",circle,no_dis,hori,left,"[99999,99999]","[106,-106]",left,1,0.8632,,,,,,001,2025-03-10_16h59.06.178,SL_sali,2021.2.3,Win32,119.047619,,,83,0,83,0,1,,,,,,,,
,,"[""circle"",""green"",""vert"",""up"",[-150,0],[106,106]]",circle,green,vert,up,"[-150,0]","[106,106]",up,1,1.0558,,,,,,001,2025-03-10_16h59.06.178,SL_sali,2021.2.3,Win32,119.047619,,,84,0,84,0,1,,,,,,,,
,,"[""diamond"",""no_dis"",""vert"",""up"",[99999,99999],[106,106]]",diamond,no_dis,vert,up,"[99999,99999]","[106,106]",up,1,1.9881,,,,,,001,2025-03-10_16h59.06.178,SL_sali,2021.2.3,Win32,119.047619,,,85,0,85,0,1,,,,,,,,
,,"[""circle"",""green"",""vert"",""up"",[0,150],[150,0]]",circle,green,vert,up,"[0,150]","[150,0]",up,1,2.0809,,,,,,001,2025-03-10_16h59.06.178,SL_sali,2021.2.3,Win32,119.047619,,,86,0,86,0,1,,,,,,,,
,,"[""diamond"",""no_dis"",""hori"",""left"",[99999,99999],[0,-150]]",diamond,no_dis,hori,left,"[99999,99999]","[0,-150]",left,1,1.6883,,,,,,001,2025-03-10_16h59.06.178,SL_sali,2021.2.3,Win32,119.047619,,,87,0,87,0,1,,,,,,,,
,,"[""circle"",""no_dis"",""hori"",""left"",[99999,99999],[0,-150]]",circle,no_dis,hori,left,"[99999,99999]","[0,-150]",left,1,1.8825,,,,,,001,2025-03-10_16h59.06.178,SL_sali,2021.2.3,Win32,119.047619,,,88,0,88,0,1,,,,,,,,
,,"[""circle"",""green"",""vert"",""up"",[-106,-106],[106,106]]",circle,green,vert,up,"[-106,-106]","[106,106]",up,1,0.814,,,,,,001,2025-03-10_16h59.06.178,SL_sali,2021.2.3,Win32,119.047619,,,89,0,89,0,1,,,,,,,,
,,"[""diamond"",""red"",""vert"",""up"",[106,-106],[-150,0]]",diamond,red,vert,up,"[106,-106]","[-150,0]",up,1,2.4752,,,,,,001,2025-03-10_16h59.06.178,SL_sali,2021.2.3,Win32,119.047619,,,90,0,90,0,1,,,,,,,,
,,"[""circle"",""green"",""vert"",""up"",[-106,106],[-150,0]]",circle,green,vert,up,"[-106,106]","[-150,0]",up,1,1.2358,,,,,,001,2025-03-10_16h59.06.178,SL_sali,2021.2.3,Win32,119.047619,,,91,0,91,0,1,,,,,,,,
,,"[""diamond"",""green"",""vert"",""up"",[150,0],[0,150]]",diamond,green,vert,up,"[150,0]","[0,150]",up,1,0.7749,,,,,,001,2025-03-10_16h59.06.178,SL_sali,2021.2.3,Win32,119.047619,,,92,0,92,0,1,,,,,,,,
,,"[""circle"",""red"",""hori"",""left"",[106,106],[-150,0]]",circle,red,hori,left,"[106,106]","[-150,0]",left,1,1.1717,,,,,,001,2025-03-10_16h59.06.178,SL_sali,2021.2.3,Win32,119.047619,,,93,0,93,0,1,,,,,,,,
,,"[""diamond"",""green"",""hori"",""left"",[150,0],[0,-150]]",diamond,green,hori,left,"[150,0]","[0,-150]",up,0,1.1254,,,,,,001,2025-03-10_16h59.06.178,SL_sali,2021.2.3,Win32,119.047619,,,94,0,94,0,1,,,,,,,,
,,"[""diamond"",""red"",""hori"",""left"",[-150,0],[-106,106]]",diamond,red,hori,left,"[-150,0]","[-106,106]",left,1,1.968,,,,,,001,2025-03-10_16h59.06.178,SL_sali,2021.2.3,Win32,119.047619,,,95,0,95,0,1,,,,,,,,
,,"[""diamond"",""red"",""hori"",""left"",[106,106],[0,150]]",diamond,red,hori,left,"[106,106]","[0,150]",left,1,1.9687,,,,,,001,2025-03-10_16h59.06.178,SL_sali,2021.2.3,Win32,119.047619,,,96,0,96,0,1,,,,,,,,
,,"[""circle"",""green"",""vert"",""up"",[150,0],[106,-106]]",circle,green,vert,up,"[150,0]","[106,-106]",up,1,1.5343,,,,,,001,2025-03-10_16h59.06.178,SL_sali,2021.2.3,Win32,119.047619,,,97,0,97,0,1,,,,,,,,
,,"[""circle"",""green"",""hori"",""left"",[150,0],[0,150]]",circle,green,hori,left,"[150,0]","[0,150]",left,1,0.8475,,,,,,001,2025-03-10_16h59.06.178,SL_sali,2021.2.3,Win32,119.047619,,,98,0,98,0,1,,,,,,,,
,,"[""diamond"",""red"",""vert"",""up"",[150,0],[-150,0]]",diamond,red,vert,up,"[150,0]","[-150,0]",up,1,1.0683,,,,,,001,2025-03-10_16h59.06.178,SL_sali,2021.2.3,Win32,119.047619,,,99,0,99,0,1,,,,,,,,
,,"[""circle"",""green"",""hori"",""left"",[150,0],[-150,0]]",circle,green,hori,left,"[150,0]","[-150,0]",left,1,1.1509,,,,,,001,2025-03-10_16h59.06.178,SL_sali,2021.2.3,Win32,119.047619,,,100,0,100,0,1,,,,,,,,
,,"[""diamond"",""green"",""vert"",""up"",[-106,106],[-106,-106]]",diamond,green,vert,up,"[-106,106]","[-106,-106]",up,1,1.0399,,,,,,001,2025-03-10_16h59.06.178,SL_sali,2021.2.3,Win32,119.047619,,,101,0,101,0,1,,,,,,,,
,,"[""diamond"",""no_dis"",""hori"",""left"",[99999,99999],[150,0]]",diamond,no_dis,hori,left,"[99999,99999]","[150,0]",left,1,1.0191,,,,,,001,2025-03-10_16h59.06.178,SL_sali,2021.2.3,Win32,119.047619,,,102,0,102,0,1,,,,,,,,
,,"[""circle"",""green"",""hori"",""left"",[-106,106],[106,-106]]",circle,green,hori,left,"[-106,106]","[106,-106]",left,1,1.0529,,,,,,001,2025-03-10_16h59.06.178,SL_sali,2021.2.3,Win32,119.047619,,,103,0,103,0,1,,,,,,,,
,,"[""diamond"",""no_dis"",""hori"",""left"",[99999,99999],[0,150]]",diamond,no_dis,hori,left,"[99999,99999]","[0,150]",up,0,0.882,,,,,,001,2025-03-10_16h59.06.178,SL_sali,2021.2.3,Win32,119.047619,,,104,0,104,0,1,,,,,,,,
,,"[""diamond"",""green"",""vert"",""up"",[0,-150],[-106,-106]]",diamond,green,vert,up,"[0,-150]","[-106,-106]",up,1,0.6863,,,,,,001,2025-03-10_16h59.06.178,SL_sali,2021.2.3,Win32,119.047619,,,105,0,105,0,1,,,,,,,,
,,"[""diamond"",""no_dis"",""hori"",""left"",[99999,99999],[106,-106]]",diamond,no_dis,hori,left,"[99999,99999]","[106,-106]",left,1,0.8173,,,,,,001,2025-03-10_16h59.06.178,SL_sali,2021.2.3,Win32,119.047619,,,106,0,106,0,1,,,,,,,,
,,"[""circle"",""red"",""hori"",""left"",[150,0],[-106,106]]",circle,red,hori,left,"[150,0]","[-106,106]",left,1,1.4315,,,,,,001,2025-03-10_16h59.06.178,SL_sali,2021.2.3,Win32,119.047619,,,107,0,107,0,1,,,,,,,,
,,"[""circle"",""green"",""vert"",""up"",[0,150],[106,106]]",circle,green,vert,up,"[0,150]","[106,106]",up,1,1.2428,,,,,,001,2025-03-10_16h59.06.178,SL_sali,2021.2.3,Win32,119.047619,,,108,0,108,0,1,,,,,,,,
,,"[""diamond"",""no_dis"",""vert"",""up"",[99999,99999],[-150,0]]",diamond,no_dis,vert,up,"[99999,99999]","[-150,0]",up,1,1.3322,,,,,,001,2025-03-10_16h59.06.178,SL_sali,2021.2.3,Win32,119.047619,,,109,0,109,0,1,,,,,,,,
,,"[""circle"",""no_dis"",""vert"",""up"",[99999,99999],[-106,106]]",circle,no_dis,vert,up,"[99999,99999]","[-106,106]",up,1,1.2709,,,,,,001,2025-03-10_16h59.06.178,SL_sali,2021.2.3,Win32,119.047619,,,110,0,110,0,1,,,,,,,,
,,"[""diamond"",""red"",""vert"",""up"",[0,-150],[-150,0]]",diamond,red,vert,up,"[0,-150]","[-150,0]",up,1,1.9166,,,,,,001,2025-03-10_16h59.06.178,SL_sali,2021.2.3,Win32,119.047619,,,111,0,111,0,1,,,,,,,,
,,"[""circle"",""red"",""hori"",""left"",[106,106],[-106,-106]]",circle,red,hori,left,"[106,106]","[-106,-106]",up,0,1.3918,,,,,,001,2025-03-10_16h59.06.178,SL_sali,2021.2.3,Win32,119.047619,,,112,0,112,0,1,,,,,,,,
,,"[""circle"",""no_dis"",""hori"",""left"",[99999,99999],[106,106]]",circle,no_dis,hori,left,"[99999,99999]","[106,106]",left,1,1.2833,,,,,,001,2025-03-10_16h59.06.178,SL_sali,2021.2.3,Win32,119.047619,,,113,0,113,0,1,,,,,,,,
,,"[""circle"",""green"",""hori"",""left"",[150,0],[106,-106]]",circle,green,hori,left,"[150,0]","[106,-106]",left,1,1.656,,,,,,001,2025-03-10_16h59.06.178,SL_sali,2021.2.3,Win32,119.047619,,,114,0,114,0,1,,,,,,,,
,,"[""diamond"",""red"",""vert"",""up"",[-106,-106],[0,150]]",diamond,red,vert,up,"[-106,-106]","[0,150]",up,1,0.9002,,,,,,001,2025-03-10_16h59.06.178,SL_sali,2021.2.3,Win32,119.047619,,,115,0,115,0,1,,,,,,,,
,,"[""diamond"",""red"",""hori"",""left"",[-150,0],[0,150]]",diamond,red,hori,left,"[-150,0]","[0,150]",left,1,0.9265,,,,,,001,2025-03-10_16h59.06.178,SL_sali,2021.2.3,Win32,119.047619,,,116,0,116,0,1,,,,,,,,
,,"[""circle"",""green"",""hori"",""left"",[150,0],[0,150]]",circle,green,hori,left,"[150,0]","[0,150]",left,1,0.8777,,,,,,001,2025-03-10_16h59.06.178,SL_sali,2021.2.3,Win32,119.047619,,,117,0,117,0,1,,,,,,,,
,,"[""diamond"",""no_dis"",""vert"",""up"",[99999,99999],[106,-106]]",diamond,no_dis,vert,up,"[99999,99999]","[106,-106]",up,1,1.7355,,,,,,001,2025-03-10_16h59.06.178,SL_sali,2021.2.3,Win32,119.047619,,,118,0,118,0,1,,,,,,,,
,,"[""diamond"",""no_dis"",""vert"",""up"",[99999,99999],[-106,106]]",diamond,no_dis,vert,up,"[99999,99999]","[-106,106]",up,1,0.8026,,,,,,001,2025-03-10_16h59.06.178,SL_sali,2021.2.3,Win32,119.047619,,,119,0,119,0,1,,,,,,,,
,,,,,,,,,,,,,,,,,001,2025-03-10_16h59.06.178,SL_sali,2021.2.3,Win32,119.047619,,,,,,,,2,space,34.3927,1,0,1,0,1
,,"[""diamond"",""no_dis"",""hori"",""left"",[99999,99999],[106,106]]",diamond,no_dis,hori,left,"[99999,99999]","[106,106]",left,1,1.8529,,,,,,001,2025-03-10_16h59.06.178,SL_sali,2021.2.3,Win32,119.047619,,,0,0,0,0,1,,,,,,,,
,,"[""circle"",""no_dis"",""vert"",""up"",[99999,99999],[0,-150]]",circle,no_dis,vert,up,"[99999,99999]","[0,-150]",up,1,0.6947,,,,,,001,2025-03-10_16h59.06.178,SL_sali,2021.2.3,Win32,119.047619,,,1,0,1,0,1,,,,,,,,
,,"[""diamond"",""red"",""vert"",""up"",[106,-106],[0,-150]]",diamond,red,vert,up,"[106,-106]","[0,-150]",up,1,1.3259,,,,,,001,2025-03-10_16h59.06.178,SL_sali,2021.2.3,Win32,119.047619,,,2,0,2,0,1,,,,,,,,
,,"[""circle"",""green"",""hori"",""left"",[150,0],[106,-106]]",circle,green,hori,left,"[150,0]","[106,-106]",left,1,0.8846,,,,,,001,2025-03-10_16h59.06.178,SL_sali,2021.2.3,Win32,119.047619,,,3,0,3,0,1,,,,,,,,
,,"[""diamond"",""green"",""vert"",""up"",[-106,106],[-106,-106]]",diamond,green,vert,up,"[-106,106]","[-106,-106]",up,1,0.8758,,,,,,001,2025-03-10_16h59.06.178,SL_sali,2021.2.3,Win32,119.047619,,,4,0,4,0,1,,,,,,,,
,,"[""diamond"",""green"",""hori"",""left"",[-150,0],[-106,106]]",diamond,green,hori,left,"[-150,0]","[-106,106]",left,1,1.0654,,,,,,001,2025-03-10_16h59.06.178,SL_sali,2021.2.3,Win32,119.047619,,,5,0,5,0,1,,,,,,,,
,,"[""diamond"",""red"",""hori"",""left"",[106,106],[0,150]]",diamond,red,hori,left,"[106,106]","[0,150]",up,0,1.6506,,,,,,001,2025-03-10_16h59.06.178,SL_sali,2021.2.3,Win32,119.047619,,,6,0,6,0,1,,,,,,,,
,,"[""circle"",""red"",""hori"",""left"",[150,0],[-106,106]]",circle,red,hori,left,"[150,0]","[-106,106]",left,1,2.3861,,,,,,001,2025-03-10_16h59.06.178,SL_sali,2021.2.3,Win32,119.047619,,,7,0,7,0,1,,,,,,,,
,,"[""circle"",""green"",""hori"",""left"",[150,0],[0,150]]",circle,green,hori,left,"[150,0]","[0,150]",left,1,1.7564,,,,,,001,2025-03-10_16h59.06.178,SL_sali,2021.2.3,Win32,119.047619,,,8,0,8,0,1,,,,,,,,
,,"[""diamond"",""no_dis"",""vert"",""up"",[99999,99999],[-106,-106]]",diamond,no_dis,vert,up,"[99999,99999]","[-106,-106]",up,1,0.7494,,,,,,001,2025-03-10_16h59.06.178,SL_sali,2021.2.3,Win32,119.047619,,,9,0,9,0,1,,,,,,,,
,,"[""circle"",""green"",""vert"",""up"",[-150,0],[106,-106]]",circle,green,vert,up,"[-150,0]","[106,-106]",up,1,0.8591,,,,,,001,2025-03-10_16h59.06.178,SL_sali,2021.2.3,Win32,119.047619,,,10,0,10,0,1,,,,,,,,
,,"[""circle"",""red"",""vert"",""up"",[106,-106],[150,0]]",circle,red,vert,up,"[106,-106]","[150,0]",up,1,1.8144,,,,,,001,2025-03-10_16h59.06.178,SL_sali,2021.2.3,Win32,119.047619,,,11,0,11,0,1,,,,,,,,
,,"[""diamond"",""no_dis"",""hori"",""left"",[99999,99999],[150,0]]",diamond,no_dis,hori,left,"[99999,99999]","[150,0]",left,1,1.089,,,,,,001,2025-03-10_16h59.06.178,SL_sali,2021.2.3,Win32,119.047619,,,12,0,12,0,1,,,,,,,,
,,"[""circle"",""no_dis"",""vert"",""up"",[99999,99999],[0,-150]]",circle,no_dis,vert,up,"[99999,99999]","[0,-150]",up,1,1.2198,,,,,,001,2025-03-10_16h59.06.178,SL_sali,2021.2.3,Win32,119.047619,,,13,0,13,0,1,,,,,,,,
,,"[""circle"",""red"",""vert"",""up"",[-106,-106],[150,0]]",circle,red,vert,up,"[-106,-106]","[150,0]",up,1,1.1684,,,,,,001,2025-03-10_16h59.06.178,SL_sali,2021.2.3,Win32,119.047619,,,14,0,14,0,1,,,,,,,,
,,"[""circle"",""no_dis"",""vert"",""up"",[99999,99999],[-106,-106]]",circle,no_dis,vert,up,"[99999,99999]","[-106,-106]",up,1,0.6385,,,,,,001,2025-03-10_16h59.06.178,SL_sali,2021.2.3,Win32,119.047619,,,15,0,15,0,1,,,,,,,,
,,"[""circle"",""green"",""vert"",""up"",[106,-106],[150,0]]",circle,green,vert,up,"[106,-106]","[150,0]",up,1,1.198,,,,,,001,2025-03-10_16h59.06.178,SL_sali,2021.2.3,Win32,119.047619,,,16,0,16,0,1,,,,,,,,
,,"[""circle"",""red"",""vert"",""up"",[150,0],[0,-150]]",circle,red,vert,up,"[150,0]","[0,-150]",up,1,1.7925,,,,,,001,2025-03-10_16h59.06.178,SL_sali,2021.2.3,Win32,119.047619,,,17,0,17,0,1,,,,,,,,
,,"[""diamond"",""no_dis"",""hori"",""left"",[99999,99999],[106,-106]]",diamond,no_dis,hori,left,"[99999,99999]","[106,-106]",left,1,1.2112,,,,,,001,2025-03-10_16h59.06.178,SL_sali,2021.2.3,Win32,119.047619,,,18,0,18,0,1,,,,,,,,
,,"[""circle"",""green"",""hori"",""left"",[150,0],[0,150]]",circle,green,hori,left,"[150,0]","[0,150]",left,1,0.8716,,,,,,001,2025-03-10_16h59.06.178,SL_sali,2021.2.3,Win32,119.047619,,,19,0,19,0,1,,,,,,,,
,,"[""diamond"",""green"",""vert"",""up"",[0,-150],[106,106]]",diamond,green,vert,up,"[0,-150]","[106,106]",up,1,1.0376,,,,,,001,2025-03-10_16h59.06.178,SL_sali,2021.2.3,Win32,119.047619,,,20,0,20,0,1,,,,,,,,
,,"[""diamond"",""red"",""hori"",""left"",[150,0],[106,106]]",diamond,red,hori,left,"[150,0]","[106,106]",left,1,1.0401,,,,,,001,2025-03-10_16h59.06.178,SL_sali,2021.2.3,Win32,119.047619,,,21,0,21,0,1,,,,,,,,
,,"[""diamond"",""green"",""hori"",""left"",[150,0],[0,-150]]",diamond,green,hori,left,"[150,0]","[0,-150]",left,1,0.9561,,,,,,001,2025-03-10_16h59.06.178,SL_sali,2021.2.3,Win32,119.047619,,,22,0,22,0,1,,,,,,,,
,,"[""diamond"",""red"",""hori"",""left"",[-106,106],[106,106]]",diamond,red,hori,left,"[-106,106]","[106,106]",up,0,0.906,,,,,,001,2025-03-10_16h59.06.178,SL_sali,2021.2.3,Win32,119.047619,,,23,0,23,0,1,,,,,,,,
,,"[""circle"",""no_dis"",""hori"",""left"",[99999,99999],[150,0]]",circle,no_dis,hori,left,"[99999,99999]","[150,0]",left,1,1.377,,,,,,001,2025-03-10_16h59.06.178,SL_sali,2021.2.3,Win32,119.047619,,,24,0,24,0,1,,,,,,,,
,,"[""circle"",""red"",""hori"",""left"",[0,-150],[150,0]]",circle,red,hori,left,"[0,-150]","[150,0]",left,1,1.2169,,,,,,001,2025-03-10_16h59.06.178,SL_sali,2021.2.3,Win32,119.047619,,,25,0,25,0,1,,,,,,,,
,,"[""diamond"",""no_dis"",""hori"",""left"",[99999,99999],[0,150]]",diamond,no_dis,hori,left,"[99999,99999]","[0,150]",left,1,1.7008,,,,,,001,2025-03-10_16h59.06.178,SL_sali,2021.2.3,Win32,119.047619,,,26,0,26,0,1,,,,,,,,
,,"[""circle"",""green"",""hori"",""left"",[-106,106],[106,-106]]",circle,green,hori,left,"[-106,106]","[106,-106]",left,1,0.9573,,,,,,001,2025-03-10_16h59.06.178,SL_sali,2021.2.3,Win32,119.047619,,,27,0,27,0,1,,,,,,,,
,,"[""circle"",""no_dis"",""vert"",""up"",[99999,99999],[0,-150]]",circle,no_dis,vert,up,"[99999,99999]","[0,-150]",up,1,0.8361,,,,,,001,2025-03-10_16h59.06.178,SL_sali,2021.2.3,Win32,119.047619,,,28,0,28,0,1,,,,,,,,
,,"[""circle"",""red"",""hori"",""left"",[0,-150],[106,-106]]",circle,red,hori,left,"[0,-150]","[106,-106]",left,1,1.5175,,,,,,001,2025-03-10_16h59.06.178,SL_sali,2021.2.3,Win32,119.047619,,,29,0,29,0,1,,,,,,,,
,,"[""circle"",""no_dis"",""vert"",""up"",[99999,99999],[150,0]]",circle,no_dis,vert,up,"[99999,99999]","[150,0]",up,1,0.8887,,,,,,001,2025-03-10_16h59.06.178,SL_sali,2021.2.3,Win32,119.047619,,,30,0,30,0,1,,,,,,,,
,,"[""diamond"",""green"",""vert"",""up"",[150,0],[0,-150]]",diamond,green,vert,up,"[150,0]","[0,-150]",up,1,1.276,,,,,,001,2025-03-10_16h59.06.178,SL_sali,2021.2.3,Win32,119.047619,,,31,0,31,0,1,,,,,,,,
,,"[""diamond"",""no_dis"",""vert"",""up"",[99999,99999],[-106,106]]",diamond,no_dis,vert,up,"[99999,99999]","[-106,106]",up,1,0.5696,,,,,,001,2025-03-10_16h59.06.178,SL_sali,2021.2.3,Win32,119.047619,,,32,0,32,0,1,,,,,,,,
,,"[""circle"",""green"",""hori"",""left"",[150,0],[-106,-106]]",circle,green,hori,left,"[150,0]","[-106,-106]",left,1,1.0165,,,,,,001,2025-03-10_16h59.06.178,SL_sali,2021.2.3,Win32,119.047619,,,33,0,33,0,1,,,,,,,,
,,"[""diamond"",""red"",""vert"",""up"",[-106,-106],[0,150]]",diamond,red,vert,up,"[-106,-106]","[0,150]",left,0,1.33,,,,,,001,2025-03-10_16h59.06.178,SL_sali,2021.2.3,Win32,119.047619,,,34,0,34,0,1,,,,,,,,
,,"[""circle"",""no_dis"",""hori"",""left"",[99999,99999],[0,150]]",circle,no_dis,hori,left,"[99999,99999]","[0,150]",left,1,1.2952,,,,,,001,2025-03-10_16h59.06.178,SL_sali,2021.2.3,Win32,119.047619,,,35,0,35,0,1,,,,,,,,
,,"[""circle"",""green"",""vert"",""up"",[-106,106],[-150,0]]",circle,green,vert,up,"[-106,106]","[-150,0]",up,1,1.3553,,,,,,001,2025-03-10_16h59.06.178,SL_sali,2021.2.3,Win32,119.047619,,,36,0,36,0,1,,,,,,,,
,,"[""diamond"",""red"",""vert"",""up"",[106,106],[-106,-106]]",diamond,red,vert,up,"[106,106]","[-106,-106]",up,1,2.5533,,,,,,001,2025-03-10_16h59.06.178,SL_sali,2021.2.3,Win32,119.047619,,,37,0,37,0,1,,,,,,,,
,,"[""circle"",""no_dis"",""hori"",""left"",[99999,99999],[0,-150]]",circle,no_dis,hori,left,"[99999,99999]","[0,-150]",left,1,2.0965,,,,,,001,2025-03-10_16h59.06.178,SL_sali,2021.2.3,Win32,119.047619,,,38,0,38,0,1,,,,,,,,
,,"[""diamond"",""red"",""vert"",""up"",[106,106],[-106,-106]]",diamond,red,vert,up,"[106,106]","[-106,-106]",up,1,1.7831,,,,,,001,2025-03-10_16h59.06.178,SL_sali,2021.2.3,Win32,119.047619,,,39,0,39,0,1,,,,,,,,
,,"[""circle"",""no_dis"",""hori"",""left"",[99999,99999],[-150,0]]",circle,no_dis,hori,left,"[99999,99999]","[-150,0]",left,1,1.2493,,,,,,001,2025-03-10_16h59.06.178,SL_sali,2021.2.3,Win32,119.047619,,,40,0,40,0,1,,,,,,,,
,,"[""diamond"",""no_dis"",""vert"",""up"",[99999,99999],[106,-106]]",diamond,no_dis,vert,up,"[99999,99999]","[106,-106]",up,1,1.1528,,,,,,001,2025-03-10_16h59.06.178,SL_sali,2021.2.3,Win32,119.047619,,,41,0,41,0,1,,,,,,,,
,,"[""diamond"",""red"",""hori"",""left"",[0,-150],[150,0]]",diamond,red,hori,left,"[0,-150]","[150,0]",left,1,1.6831,,,,,,001,2025-03-10_16h59.06.178,SL_sali,2021.2.3,Win32,119.047619,,,42,0,42,0,1,,,,,,,,
,,"[""diamond"",""no_dis"",""vert"",""up"",[99999,99999],[0,150]]",diamond,no_dis,vert,up,"[99999,99999]","[0,150]",up,1,0.9346,,,,,,001,2025-03-10_16h59.06.178,SL_sali,2021.2.3,Win32,119.047619,,,43,0,43,0,1,,,,,,,,
,,"[""circle"",""red"",""vert"",""up"",[-150,0],[106,106]]",circle,red,vert,up,"[-150,0]","[106,106]",up,1,1.347,,,,,,001,2025-03-10_16h59.06.178,SL_sali,2021.2.3,Win32,119.047619,,,44,0,44,0,1,,,,,,,,
,,"[""diamond"",""red"",""hori"",""left"",[-150,0],[0,150]]",diamond,red,hori,left,"[-150,0]","[0,150]",left,1,1.1635,,,,,,001,2025-03-10_16h59.06.178,SL_sali,2021.2.3,Win32,119.047619,,,45,0,45,0,1,,,,,,,,
,,"[""circle"",""red"",""hori"",""left"",[150,0],[-106,106]]",circle,red,hori,left,"[150,0]","[-106,106]",left,1,1.0168,,,,,,001,2025-03-10_16h59.06.178,SL_sali,2021.2.3,Win32,119.047619,,,46,0,46,0,1,,,,,,,,
,,"[""circle"",""no_dis"",""hori"",""left"",[99999,99999],[106,106]]",circle,no_dis,hori,left,"[99999,99999]","[106,106]",left,1,0.563,,,,,,001,2025-03-10_16h59.06.178,SL_sali,2021.2.3,Win32,119.047619,,,47,0,47,0,1,,,,,,,,
,,"[""circle"",""green"",""vert"",""up"",[150,0],[-106,106]]",circle,green,vert,up,"[150,0]","[-106,106]",up,1,0.73,,,,,,001,2025-03-10_16h59.06.178,SL_sali,2021.2.3,Win32,119.047619,,,48,0,48,0,1,,,,,,,,
,,"[""circle"",""no_dis"",""hori"",""left"",[99999,99999],[-106,-106]]",circle,no_dis,hori,left,"[99999,99999]","[-106,-106]",left,1,0.9062,,,,,,001,2025-03-10_16h59.06.178,SL_sali,2021.2.3,Win32,119.047619,,,49,0,49,0,1,,,,,,,,
,,"[""diamond"",""green"",""hori"",""left"",[-106,-106],[-106,106]]",diamond,green,hori,left,"[-106,-106]","[-106,106]",up,0,0.6576,,,,,,001,2025-03-10_16h59.06.178,SL_sali,2021.2.3,Win32,119.047619,,,50,0,50,0,1,,,,,,,,
,,"[""circle"",""red"",""hori"",""left"",[106,106],[106,-106]]",circle,red,hori,left,"[106,106]","[106,-106]",left,1,2.0107,,,,,,001,2025-03-10_16h59.06.178,SL_sali,2021.2.3,Win32,119.047619,,,51,0,51,0,1,,,,,,,,
,,"[""circle"",""no_dis"",""hori"",""left"",[99999,99999],[106,-106]]",circle,no_dis,hori,left,"[99999,99999]","[106,-106]",left,1,0.7592,,,,,,001,2025-03-10_16h59.06.178,SL_sali,2021.2.3,Win32,119.047619,,,52,0,52,0,1,,,,,,,,
,,"[""diamond"",""green"",""hori"",""left"",[0,150],[-106,106]]",diamond,green,hori,left,"[0,150]","[-106,106]",left,1,1.2297,,,,,,001,2025-03-10_16h59.06.178,SL_sali,2021.2.3,Win32,119.047619,,,53,0,53,0,1,,,,,,,,
,,"[""circle"",""green"",""vert"",""up"",[-106,-106],[106,106]]",circle,green,vert,up,"[-106,-106]","[106,106]",up,1,1.0395,,,,,,001,2025-03-10_16h59.06.178,SL_sali,2021.2.3,Win32,119.047619,,,54,0,54,0,1,,,,,,,,
,,"[""diamond"",""green"",""hori"",""left"",[-106,-106],[0,150]]",diamond,green,hori,left,"[-106,-106]","[0,150]",left,1,2.0543,,,,,,001,2025-03-10_16h59.06.178,SL_sali,2021.2.3,Win32,119.047619,,,55,0,55,0,1,,,,,,,,
,,"[""diamond"",""red"",""vert"",""up"",[106,106],[-150,0]]",diamond,red,vert,up,"[106,106]","[-150,0]",up,1,1.0516,,,,,,001,2025-03-10_16h59.06.178,SL_sali,2021.2.3,Win32,119.047619,,,56,0,56,0,1,,,,,,,,
,,"[""diamond"",""no_dis"",""hori"",""left"",[99999,99999],[0,-150]]",diamond,no_dis,hori,left,"[99999,99999]","[0,-150]",left,1,1.3885,,,,,,001,2025-03-10_16h59.06.178,SL_sali,2021.2.3,Win32,119.047619,,,57,0,57,0,1,,,,,,,,
,,"[""circle"",""no_dis"",""vert"",""up"",[99999,99999],[-150,0]]",circle,no_dis,vert,up,"[99999,99999]","[-150,0]",up,1,1.0753,,,,,,001,2025-03-10_16h59.06.178,SL_sali,2021.2.3,Win32,119.047619,,,58,0,58,0,1,,,,,,,,
,,"[""diamond"",""green"",""hori"",""left"",[106,-106],[-150,0]]",diamond,green,hori,left,"[106,-106]","[-150,0]",left,1,2.1126,,,,,,001,2025-03-10_16h59.06.178,SL_sali,2021.2.3,Win32,119.047619,,,59,0,59,0,1,,,,,,,,
,,"[""diamond"",""no_dis"",""hori"",""left"",[99999,99999],[0,150]]",diamond,no_dis,hori,left,"[99999,99999]","[0,150]",left,1,0.6116,,,,,,001,2025-03-10_16h59.06.178,SL_sali,2021.2.3,Win32,119.047619,,,60,0,60,0,1,,,,,,,,
,,"[""diamond"",""no_dis"",""hori"",""left"",[99999,99999],[106,106]]",diamond,no_dis,hori,left,"[99999,99999]","[106,106]",left,1,0.958,,,,,,001,2025-03-10_16h59.06.178,SL_sali,2021.2.3,Win32,119.047619,,,61,0,61,0,1,,,,,,,,
,,"[""diamond"",""red"",""hori"",""left"",[-150,0],[-106,106]]",diamond,red,hori,left,"[-150,0]","[-106,106]",left,1,0.8349,,,,,,001,2025-03-10_16h59.06.178,SL_sali,2021.2.3,Win32,119.047619,,,62,0,62,0,1,,,,,,,,
,,"[""diamond"",""green"",""vert"",""up"",[0,-150],[-106,-106]]",diamond,green,vert,up,"[0,-150]","[-106,-106]",up,1,0.6563,,,,,,001,2025-03-10_16h59.06.178,SL_sali,2021.2.3,Win32,119.047619,,,63,0,63,0,1,,,,,,,,
,,"[""circle"",""green"",""vert"",""up"",[0,150],[150,0]]",circle,green,vert,up,"[0,150]","[150,0]",left,0,1.4759,,,,,,001,2025-03-10_16h59.06.178,SL_sali,2021.2.3,Win32,119.047619,,,64,0,64,0,1,,,,,,,,
,,"[""diamond"",""green"",""vert"",""up"",[0,150],[-150,0]]",diamond,green,vert,up,"[0,150]","[-150,0]",up,1,0.6254,,,,,,001,2025-03-10_16h59.06.178,SL_sali,2021.2.3,Win32,119.047619,,,65,0,65,0,1,,,,,,,,
,,"[""diamond"",""no_dis"",""vert"",""up"",[99999,99999],[-150,0]]",diamond,no_dis,vert,up,"[99999,99999]","[-150,0]",up,1,0.6807,,,,,,001,2025-03-10_16h59.06.178,SL_sali,2021.2.3,Win32,119.047619,,,66,0,66,0,1,,,,,,,,
,,"[""circle"",""no_dis"",""hori"",""left"",[99999,99999],[-106,106]]",circle,no_dis,hori,left,"[99999,99999]","[-106,106]",left,1,1.0183,,,,,,001,2025-03-10_16h59.06.178,SL_sali,2021.2.3,Win32,119.047619,,,67,0,67,0,1,,,,,,,,
,,"[""diamond"",""red"",""vert"",""up"",[150,0],[106,-106]]",diamond,red,vert,up,"[150,0]","[106,-106]",up,1,1.6186,,,,,,001,2025-03-10_16h59.06.178,SL_sali,2021.2.3,Win32,119.047619,,,68,0,68,0,1,,,,,,,,
,,"[""circle"",""green"",""hori"",""left"",[150,0],[-150,0]]",circle,green,hori,left,"[150,0]","[-150,0]",left,1,0.7337,,,,,,001,2025-03-10_16h59.06.178,SL_sali,2021.2.3,Win32,119.047619,,,69,0,69,0,1,,,,,,,,
,,"[""diamond"",""red"",""hori"",""left"",[150,0],[-106,-106]]",diamond,red,hori,left,"[150,0]","[-106,-106]",left,1,0.9656,,,,,,001,2025-03-10_16h59.06.178,SL_sali,2021.2.3,Win32,119.047619,,,70,0,70,0,1,,,,,,,,
,,"[""diamond"",""green"",""vert"",""up"",[150,0],[0,150]]",diamond,green,vert,up,"[150,0]","[0,150]",up,1,0.6101,,,,,,001,2025-03-10_16h59.06.178,SL_sali,2021.2.3,Win32,119.047619,,,71,0,71,0,1,,,,,,,,
,,"[""circle"",""no_dis"",""vert"",""up"",[99999,99999],[-106,106]]",circle,no_dis,vert,up,"[99999,99999]","[-106,106]",up,1,0.935,,,,,,001,2025-03-10_16h59.06.178,SL_sali,2021.2.3,Win32,119.047619,,,72,0,72,0,1,,,,,,,,
,,"[""diamond"",""green"",""vert"",""up"",[150,0],[106,-106]]",diamond,green,vert,up,"[150,0]","[106,-106]",up,1,1.1322,,,,,,001,2025-03-10_16h59.06.178,SL_sali,2021.2.3,Win32,119.047619,,,73,0,73,0,1,,,,,,,,
,,"[""circle"",""no_dis"",""vert"",""up"",[99999,99999],[0,150]]",circle,no_dis,vert,up,"[99999,99999]","[0,150]",up,1,1.573,,,,,,001,2025-03-10_16h59.06.178,SL_sali,2021.2.3,Win32,119.047619,,,74,0,74,0,1,,,,,,,,
,,"[""diamond"",""red"",""vert"",""up"",[-106,106],[-106,-106]]",diamond,red,vert,up,"[-106,106]","[-106,-106]",up,1,1.0985,,,,,,001,2025-03-10_16h59.06.178,SL_sali,2021.2.3,Win32,119.047619,,,75,0,75,0,1,,,,,,,,
,,"[""diamond"",""no_dis"",""vert"",""up"",[99999,99999],[-106,-106]]",diamond,no_dis,vert,up,"[99999,99999]","[-106,-106]",up,1,0.9014,,,,,,001,2025-03-10_16h59.06.178,SL_sali,2021.2.3,Win32,119.047619,,,76,0,76,0,1,,,,,,,,
,,"[""circle"",""green"",""vert"",""up"",[0,150],[106,106]]",circle,green,vert,up,"[0,150]","[106,106]",up,1,0.8667,,,,,,001,2025-03-10_16h59.06.178,SL_sali,2021.2.3,Win32,119.047619,,,77,0,77,0,1,,,,,,,,
,,"[""diamond"",""green"",""hori"",""left"",[-106,-106],[106,106]]",diamond,green,hori,left,"[-106,-106]","[106,106]",left,1,1.05,,,,,,001,2025-03-10_16h59.06.178,SL_sali,2021.2.3,Win32,119.047619,,,78,0,78,0,1,,,,,,,,
,,"[""diamond"",""no_dis"",""vert"",""up"",[99999,99999],[-106,106]]",diamond,no_dis,vert,up,"[99999,99999]","[-106,106]",up,1,1.4283,,,,,,001,2025-03-10_16h59.06.178,SL_sali,2021.2.3,Win32,119.047619,,,79,0,79,0,1,,,,,,,,
,,"[""diamond"",""no_dis"",""hori"",""left"",[99999,99999],[106,106]]",diamond,no_dis,hori,left,"[99999,99999]","[106,106]",left,1,1.0092,,,,,,001,2025-03-10_16h59.06.178,SL_sali,2021.2.3,Win32,119.047619,,,80,0,80,0,1,,,,,,,,
,,"[""circle"",""no_dis"",""vert"",""up"",[99999,99999],[-150,0]]",circle,no_dis,vert,up,"[99999,99999]","[-150,0]",up,1,1.3769,,,,,,001,2025-03-10_16h59.06.178,SL_sali,2021.2.3,Win32,119.047619,,,81,0,81,0,1,,,,,,,,
,,"[""circle"",""green"",""hori"",""left"",[150,0],[-150,0]]",circle,green,hori,left,"[150,0]","[-150,0]",left,1,0.8312,,,,,,001,2025-03-10_16h59.06.178,SL_sali,2021.2.3,Win32,119.047619,,,82,0,82,0,1,,,,,,,,
,,"[""diamond"",""red"",""hori"",""left"",[0,-150],[0,150]]",diamond,red,hori,left,"[0,-150]","[0,150]",left,1,1.2489,,,,,,001,2025-03-10_16h59.06.178,SL_sali,2021.2.3,Win32,119.047619,,,83,0,83,0,1,,,,,,,,
,,"[""diamond"",""green"",""vert"",""up"",[150,0],[106,-106]]",diamond,green,vert,up,"[150,0]","[106,-106]",up,1,1.0518,,,,,,001,2025-03-10_16h59.06.178,SL_sali,2021.2.3,Win32,119.047619,,,84,0,84,0,1,,,,,,,,
,,"[""diamond"",""green"",""hori"",""left"",[0,150],[-106,106]]",diamond,green,hori,left,"[0,150]","[-106,106]",left,1,0.7076,,,,,,001,2025-03-10_16h59.06.178,SL_sali,2021.2.3,Win32,119.047619,,,85,0,85,0,1,,,,,,,,
,,"[""circle"",""red"",""vert"",""up"",[150,0],[106,-106]]",circle,red,vert,up,"[150,0]","[106,-106]",up,1,1.3759,,,,,,001,2025-03-10_16h59.06.178,SL_sali,2021.2.3,Win32,119.047619,,,86,0,86,0,1,,,,,,,,
,,"[""circle"",""red"",""hori"",""left"",[106,106],[-150,0]]",circle,red,hori,left,"[106,106]","[-150,0]",left,1,1.0542,,,,,,001,2025-03-10_16h59.06.178,SL_sali,2021.2.3,Win32,119.047619,,,87,0,87,0,1,,,,,,,,
,,"[""circle"",""green"",""vert"",""up"",[150,0],[106,-106]]",circle,green,vert,up,"[150,0]","[106,-106]",up,1,0.5995,,,,,,001,2025-03-10_16h59.06.178,SL_sali,2021.2.3,Win32,119.047619,,,88,0,88,0,1,,,,,,,,
,,"[""diamond"",""no_dis"",""hori"",""left"",[99999,99999],[150,0]]",diamond,no_dis,hori,left,"[99999,99999]","[150,0]",left,1,1.2138,,,,,,001,2025-03-10_16h59.06.178,SL_sali,2021.2.3,Win32,119.047619,,,89,0,89,0,1,,,,,,,,
,,"[""circle"",""red"",""vert"",""up"",[-106,106],[0,-150]]",circle,red,vert,up,"[-106,106]","[0,-150]",left,0,1.2131,,,,,,001,2025-03-10_16h59.06.178,SL_sali,2021.2.3,Win32,119.047619,,,90,0,90,0,1,,,,,,,,
,,"[""circle"",""green"",""vert"",""up"",[-150,0],[-106,106]]",circle,green,vert,up,"[-150,0]","[-106,106]",up,1,1.4181,,,,,,001,2025-03-10_16h59.06.178,SL_sali,2021.2.3,Win32,119.047619,,,91,0,91,0,1,,,,,,,,
,,"[""diamond"",""red"",""vert"",""up"",[0,-150],[-150,0]]",diamond,red,vert,up,"[0,-150]","[-150,0]",up,1,1.859,,,,,,001,2025-03-10_16h59.06.178,SL_sali,2021.2.3,Win32,119.047619,,,92,0,92,0,1,,,,,,,,
,,"[""diamond"",""green"",""hori"",""left"",[150,0],[0,-150]]",diamond,green,hori,left,"[150,0]","[0,-150]",left,1,0.9929,,,,,,001,2025-03-10_16h59.06.178,SL_sali,2021.2.3,Win32,119.047619,,,93,0,93,0,1,,,,,,,,
,,"[""circle"",""green"",""hori"",""left"",[0,-150],[106,106]]",circle,green,hori,left,"[0,-150]","[106,106]",left,1,0.6656,,,,,,001,2025-03-10_16h59.06.178,SL_sali,2021.2.3,Win32,119.047619,,,94,0,94,0,1,,,,,,,,
,,"[""circle"",""red"",""vert"",""up"",[106,-106],[-150,0]]",circle,red,vert,up,"[106,-106]","[-150,0]",up,1,1.3348,,,,,,001,2025-03-10_16h59.06.178,SL_sali,2021.2.3,Win32,119.047619,,,95,0,95,0,1,,,,,,,,
,,"[""diamond"",""green"",""vert"",""up"",[106,106],[0,-150]]",diamond,green,vert,up,"[106,106]","[0,-150]",up,1,0.9877,,,,,,001,2025-03-10_16h59.06.178,SL_sali,2021.2.3,Win32,119.047619,,,96,0,96,0,1,,,,,,,,
,,"[""circle"",""red"",""vert"",""up"",[106,-106],[-106,106]]",circle,red,vert,up,"[106,-106]","[-106,106]",up,1,0.6243,,,,,,001,2025-03-10_16h59.06.178,SL_sali,2021.2.3,Win32,119.047619,,,97,0,97,0,1,,,,,,,,
,,"[""diamond"",""green"",""vert"",""up"",[-150,0],[150,0]]",diamond,green,vert,up,"[-150,0]","[150,0]",up,1,1.2441,,,,,,001,2025-03-10_16h59.06.178,SL_sali,2021.2.3,Win32,119.047619,,,98,0,98,0,1,,,,,,,,
,,"[""circle"",""green"",""vert"",""up"",[-150,0],[106,106]]",circle,green,vert,up,"[-150,0]","[106,106]",up,1,0.8446,,,,,,001,2025-03-10_16h59.06.178,SL_sali,2021.2.3,Win32,119.047619,,,99,0,99,0,1,,,,,,,,
,,"[""circle"",""no_dis"",""hori"",""left"",[99999,99999],[106,-106]]",circle,no_dis,hori,left,"[99999,99999]","[106,-106]",left,1,0.853,,,,,,001,2025-03-10_16h59.06.178,SL_sali,2021.2.3,Win32,119.047619,,,100,0,100,0,1,,,,,,,,
,,"[""diamond"",""no_dis"",""vert"",""up"",[99999,99999],[106,-106]]",diamond,no_dis,vert,up,"[99999,99999]","[106,-106]",left,0,1.1329,,,,,,001,2025-03-10_16h59.06.178,SL_sali,2021.2.3,Win32,119.047619,,,101,0,101,0,1,,,,,,,,
,,"[""circle"",""red"",""hori"",""left"",[150,0],[0,-150]]",circle,red,hori,left,"[150,0]","[0,-150]",left,1,2.3517,,,,,,001,2025-03-10_16h59.06.178,SL_sali,2021.2.3,Win32,119.047619,,,102,0,102,0,1,,,,,,,,
,,"[""diamond"",""red"",""hori"",""left"",[106,-106],[-106,106]]",diamond,red,hori,left,"[106,-106]","[-106,106]",left,1,0.6284,,,,,,001,2025-03-10_16h59.06.178,SL_sali,2021.2.3,Win32,119.047619,,,103,0,103,0,1,,,,,,,,
,,"[""diamond"",""red"",""vert"",""up"",[150,0],[-150,0]]",diamond,red,vert,up,"[150,0]","[-150,0]",up,1,0.7957,,,,,,001,2025-03-10_16h59.06.178,SL_sali,2021.2.3,Win32,119.047619,,,104,0,104,0,1,,,,,,,,
,,"[""circle"",""red"",""vert"",""up"",[-106,-106],[0,-150]]",circle,red,vert,up,"[-106,-106]","[0,-150]",up,1,2.1301,,,,,,001,2025-03-10_16h59.06.178,SL_sali,2021.2.3,Win32,119.047619,,,105,0,105,0,1,,,,,,,,
,,"[""diamond"",""no_dis"",""vert"",""up"",[99999,99999],[-150,0]]",diamond,no_dis,vert,up,"[99999,99999]","[-150,0]",left,0,1.1694,,,,,,001,2025-03-10_16h59.06.178,SL_sali,2021.2.3,Win32,119.047619,,,106,0,106,0,1,,,,,,,,
,,"[""circle"",""red"",""hori"",""left"",[106,106],[-106,-106]]",circle,red,hori,left,"[106,106]","[-106,-106]",left,1,1.1012,,,,,,001,2025-03-10_16h59.06.178,SL_sali,2021.2.3,Win32,119.047619,,,107,0,107,0,1,,,,,,,,
,,"[""diamond"",""red"",""vert"",""up"",[106,-106],[-150,0]]",diamond,red,vert,up,"[106,-106]","[-150,0]",up,1,1.314,,,,,,001,2025-03-10_16h59.06.178,SL_sali,2021.2.3,Win32,119.047619,,,108,0,108,0,1,,,,,,,,
,,"[""diamond"",""green"",""hori"",""left"",[150,0],[106,-106]]",diamond,green,hori,left,"[150,0]","[106,-106]",left,1,1.8347,,,,,,001,2025-03-10_16h59.06.178,SL_sali,2021.2.3,Win32,119.047619,,,109,0,109,0,1,,,,,,,,
,,"[""diamond"",""no_dis"",""hori"",""left"",[99999,99999],[-106,-106]]",diamond,no_dis,hori,left,"[99999,99999]","[-106,-106]",left,1,1.0347,,,,,,001,2025-03-10_16h59.06.178,SL_sali,2021.2.3,Win32,119.047619,,,110,0,110,0,1,,,,,,,,
,,"[""circle"",""no_dis"",""hori"",""left"",[99999,99999],[-106,106]]",circle,no_dis,hori,left,"[99999,99999]","[-106,106]",left,1,1.5428,,,,,,001,2025-03-10_16h59.06.178,SL_sali,2021.2.3,Win32,119.047619,,,111,0,111,0,1,,,,,,,,
,,"[""diamond"",""no_dis"",""vert"",""up"",[99999,99999],[106,106]]",diamond,no_dis,vert,up,"[99999,99999]","[106,106]",up,1,1.2682,,,,,,001,2025-03-10_16h59.06.178,SL_sali,2021.2.3,Win32,119.047619,,,112,0,112,0,1,,,,,,,,
,,"[""circle"",""red"",""hori"",""left"",[0,150],[-150,0]]",circle,red,hori,left,"[0,150]","[-150,0]",left,1,1.1259,,,,,,001,2025-03-10_16h59.06.178,SL_sali,2021.2.3,Win32,119.047619,,,113,0,113,0,1,,,,,,,,
,,"[""circle"",""no_dis"",""vert"",""up"",[99999,99999],[150,0]]",circle,no_dis,vert,up,"[99999,99999]","[150,0]",up,1,0.6191,,,,,,001,2025-03-10_16h59.06.178,SL_sali,2021.2.3,Win32,119.047619,,,114,0,114,0,1,,,,,,,,
,,"[""circle"",""red"",""hori"",""left"",[-106,-106],[106,106]]",circle,red,hori,left,"[-106,-106]","[106,106]",left,1,0.6912,,,,,,001,2025-03-10_16h59.06.178,SL_sali,2021.2.3,Win32,119.047619,,,115,0,115,0,1,,,,,,,,
,,"[""circle"",""green"",""hori"",""left"",[0,150],[-106,106]]",circle,green,hori,left,"[0,150]","[-106,106]",left,1,0.6496,,,,,,001,2025-03-10_16h59.06.178,SL_sali,2021.2.3,Win32,119.047619,,,116,0,116,0,1,,,,,,,,
,,"[""circle"",""red"",""vert"",""up"",[0,150],[-150,0]]",circle,red,vert,up,"[0,150]","[-150,0]",up,1,0.6744,,,,,,001,2025-03-10_16h59.06.178,SL_sali,2021.2.3,Win32,119.047619,,,117,0,117,0,1,,,,,,,,
,,"[""circle"",""green"",""hori"",""left"",[-106,106],[0,150]]",circle,green,hori,left,"[-106,106]","[0,150]",left,1,0.8209,,,,,,001,2025-03-10_16h59.06.178,SL_sali,2021.2.3,Win32,119.047619,,,118,0,118,0,1,,,,,,,,
,,"[""diamond"",""red"",""hori"",""left"",[-106,106],[106,-106]]",diamond,red,hori,left,"[-106,106]","[106,-106]",left,1,0.7946,,,,,,001,2025-03-10_16h59.06.178,SL_sali,2021.2.3,Win32,119.047619,,,119,0,119,0,1,,,,,,,,
,,,,,,,,,,,,,,,,,001,2025-03-10_16h59.06.178,SL_sali,2021.2.3,Win32,119.047619,,,,,,,,3,space,27.4608,2,0,2,0,1
,,"[""circle"",""no_dis"",""hori"",""left"",[99999,99999],[106,-106]]",circle,no_dis,hori,left,"[99999,99999]","[106,-106]",left,1,1.2555,,,,,,001,2025-03-10_16h59.06.178,SL_sali,2021.2.3,Win32,119.047619,,,0,0,0,0,1,,,,,,,,
,,"[""circle"",""red"",""hori"",""left"",[106,106],[106,-106]]",circle,red,hori,left,"[106,106]","[106,-106]",left,1,1.0397,,,,,,001,2025-03-10_16h59.06.178,SL_sali,2021.2.3,Win32,119.047619,,,1,0,1,0,1,,,,,,,,
,,"[""circle"",""green"",""vert"",""up"",[-106,-106],[106,106]]",circle,green,vert,up,"[-106,-106]","[106,106]",up,1,0.5854,,,,,,001,2025-03-10_16h59.06.178,SL_sali,2021.2.3,Win32,119.047619,,,2,0,2,0,1,,,,,,,,
,,"[""circle"",""green"",""vert"",""up"",[150,0],[106,-106]]",circle,green,vert,up,"[150,0]","[106,-106]",up,1,0.7429,,,,,,001,2025-03-10_16h59.06.178,SL_sali,2021.2.3,Win32,119.047619,,,3,0,3,0,1,,,,,,,,
,,"[""circle"",""no_dis"",""hori"",""left"",[99999,99999],[0,-150]]",circle,no_dis,hori,left,"[99999,99999]","[0,-150]",left,1,0.7242,,,,,,001,2025-03-10_16h59.06.178,SL_sali,2021.2.3,Win32,119.047619,,,4,0,4,0,1,,,,,,,,
,,"[""diamond"",""red"",""hori"",""left"",[150,0],[106,106]]",diamond,red,hori,left,"[150,0]","[106,106]",left,1,1.2082,,,,,,001,2025-03-10_16h59.06.178,SL_sali,2021.2.3,Win32,119.047619,,,5,0,5,0,1,,,,,,,,
,,"[""circle"",""no_dis"",""vert"",""up"",[99999,99999],[-150,0]]",circle,no_dis,vert,up,"[99999,99999]","[-150,0]",left,0,0.6712,,,,,,001,2025-03-10_16h59.06.178,SL_sali,2021.2.3,Win32,119.047619,,,6,0,6,0,1,,,,,,,,
,,"[""diamond"",""green"",""vert"",""up"",[150,0],[0,-150]]",diamond,green,vert,up,"[150,0]","[0,-150]",up,1,0.8765,,,,,,001,2025-03-10_16h59.06.178,SL_sali,2021.2.3,Win32,119.047619,,,7,0,7,0,1,,,,,,,,
,,"[""diamond"",""no_dis"",""vert"",""up"",[99999,99999],[-106,106]]",diamond,no_dis,vert,up,"[99999,99999]","[-106,106]",up,1,0.556,,,,,,001,2025-03-10_16h59.06.178,SL_sali,2021.2.3,Win32,119.047619,,,8,0,8,0,1,,,,,,,,
,,"[""diamond"",""green"",""hori"",""left"",[106,-106],[-150,0]]",diamond,green,hori,left,"[106,-106]","[-150,0]",left,1,0.6272,,,,,,001,2025-03-10_16h59.06.178,SL_sali,2021.2.3,Win32,119.047619,,,9,0,9,0,1,,,,,,,,
,,"[""circle"",""red"",""vert"",""up"",[-106,106],[0,-150]]",circle,red,vert,up,"[-106,106]","[0,-150]",up,1,0.9248,,,,,,001,2025-03-10_16h59.06.178,SL_sali,2021.2.3,Win32,119.047619,,,10,0,10,0,1,,,,,,,,
,,"[""diamond"",""no_dis"",""vert"",""up"",[99999,99999],[106,-106]]",diamond,no_dis,vert,up,"[99999,99999]","[106,-106]",up,1,0.858,,,,,,001,2025-03-10_16h59.06.178,SL_sali,2021.2.3,Win32,119.047619,,,11,0,11,0,1,,,,,,,,
,,"[""circle"",""no_dis"",""hori"",""left"",[99999,99999],[106,-106]]",circle,no_dis,hori,left,"[99999,99999]","[106,-106]",left,1,1.0466,,,,,,001,2025-03-10_16h59.06.178,SL_sali,2021.2.3,Win32,119.047619,,,12,0,12,0,1,,,,,,,,
,,"[""circle"",""red"",""hori"",""left"",[106,106],[-150,0]]",circle,red,hori,left,"[106,106]","[-150,0]",left,1,1.2837,,,,,,001,2025-03-10_16h59.06.178,SL_sali,2021.2.3,Win32,119.047619,,,13,0,13,0,1,,,,,,,,
,,"[""circle"",""no_dis"",""vert"",""up"",[99999,99999],[-150,0]]",circle,no_dis,vert,up,"[99999,99999]","[-150,0]",up,1,1.3838,,,,,,001,2025-03-10_16h59.06.178,SL_sali,2021.2.3,Win32,119.047619,,,14,0,14,0,1,,,,,,,,
,,"[""diamond"",""red"",""vert"",""up"",[106,-106],[0,-150]]",diamond,red,vert,up,"[106,-106]","[0,-150]",up,1,1.2502,,,,,,001,2025-03-10_16h59.06.178,SL_sali,2021.2.3,Win32,119.047619,,,15,0,15,0,1,,,,,,,,
,,"[""circle"",""red"",""hori"",""left"",[150,0],[0,-150]]",circle,red,hori,left,"[150,0]","[0,-150]",left,1,0.852,,,,,,001,2025-03-10_16h59.06.178,SL_sali,2021.2.3,Win32,119.047619,,,16,0,16,0,1,,,,,,,,
,,"[""diamond"",""red"",""hori"",""left"",[106,106],[0,150]]",diamond,red,hori,left,"[106,106]","[0,150]",left,1,1.1678,,,,,,001,2025-03-10_16h59.06.178,SL_sali,2021.2.3,Win32,119.047619,,,17,0,17,0,1,,,,,,,,
,,"[""circle"",""red"",""vert"",""up"",[-106,-106],[0,-150]]",circle,red,vert,up,"[-106,-106]","[0,-150]",up,1,0.8796,,,,,,001,2025-03-10_16h59.06.178,SL_sali,2021.2.3,Win32,119.047619,,,18,0,18,0,1,,,,,,,,
,,"[""circle"",""no_dis"",""hori"",""left"",[99999,99999],[0,150]]",circle,no_dis,hori,left,"[99999,99999]","[0,150]",left,1,0.629,,,,,,001,2025-03-10_16h59.06.178,SL_sali,2021.2.3,Win32,119.047619,,,19,0,19,0,1,,,,,,,,
,,"[""circle"",""green"",""hori"",""left"",[150,0],[0,150]]",circle,green,hori,left,"[150,0]","[0,150]",left,1,0.627,,,,,,001,2025-03-10_16h59.06.178,SL_sali,2021.2.3,Win32,119.047619,,,20,0,20,0,1,,,,,,,,
,,"[""circle"",""green"",""hori"",""left"",[150,0],[-150,0]]",circle,green,hori,left,"[150,0]","[-150,0]",left,1,1.3201,,,,,,001,2025-03-10_16h59.06.178,SL_sali,2021.2.3,Win32,119.047619,,,21,0,21,0,1,,,,,,,,
,,"[""diamond"",""no_dis"",""vert"",""up"",[99999,99999],[-150,0]]",diamond,no_dis,vert,up,"[99999,99999]","[-150,0]",up,1,0.7843,,,,,,001,2025-03-10_16h59.06.178,SL_sali,2021.2.3,Win32,119.047619,,,22,0,22,0,1,,,,,,,,
,,"[""diamond"",""no_dis"",""vert"",""up"",[99999,99999],[0,150]]",diamond,no_dis,vert,up,"[99999,99999]","[0,150]",up,1,0.7088,,,,,,001,2025-03-10_16h59.06.178,SL_sali,2021.2.3,Win32,119.047619,,,23,0,23,0,1,,,,,,,,
,,"[""circle"",""red"",""vert"",""up"",[106,-106],[-150,0]]",circle,red,vert,up,"[106,-106]","[-150,0]",up,1,1.264,,,,,,001,2025-03-10_16h59.06.178,SL_sali,2021.2.3,Win32,119.047619,,,24,0,24,0,1,,,,,,,,
,,"[""circle"",""no_dis"",""hori"",""left"",[99999,99999],[-106,106]]",circle,no_dis,hori,left,"[99999,99999]","[-106,106]",left,1,0.8253,,,,,,001,2025-03-10_16h59.06.178,SL_sali,2021.2.3,Win32,119.047619,,,25,0,25,0,1,,,,,,,,
,,"[""diamond"",""red"",""hori"",""left"",[0,-150],[150,0]]",diamond,red,hori,left,"[0,-150]","[150,0]",left,1,1.3467,,,,,,001,2025-03-10_16h59.06.178,SL_sali,2021.2.3,Win32,119.047619,,,26,0,26,0,1,,,,,,,,
,,"[""diamond"",""green"",""hori"",""left"",[-106,-106],[106,106]]",diamond,green,hori,left,"[-106,-106]","[106,106]",left,1,0.9047,,,,,,001,2025-03-10_16h59.06.178,SL_sali,2021.2.3,Win32,119.047619,,,27,0,27,0,1,,,,,,,,
,,"[""circle"",""green"",""vert"",""up"",[106,-106],[150,0]]",circle,green,vert,up,"[106,-106]","[150,0]",up,1,0.8571,,,,,,001,2025-03-10_16h59.06.178,SL_sali,2021.2.3,Win32,119.047619,,,28,0,28,0,1,,,,,,,,
,,"[""diamond"",""green"",""hori"",""left"",[0,150],[-106,106]]",diamond,green,hori,left,"[0,150]","[-106,106]",left,1,0.9719,,,,,,001,2025-03-10_16h59.06.178,SL_sali,2021.2.3,Win32,119.047619,,,29,0,29,0,1,,,,,,,,
,,"[""diamond"",""red"",""vert"",""up"",[-106,106],[-106,-106]]",diamond,red,vert,up,"[-106,106]","[-106,-106]",up,1,1.708,,,,,,001,2025-03-10_16h59.06.178,SL_sali,2021.2.3,Win32,119.047619,,,30,0,30,0,1,,,,,,,,
,,"[""circle"",""red"",""hori"",""left"",[150,0],[-106,106]]",circle,red,hori,left,"[150,0]","[-106,106]",up,0,1.5556,,,,,,001,2025-03-10_16h59.06.178,SL_sali,2021.2.3,Win32,119.047619,,,31,0,31,0,1,,,,,,,,
,,"[""diamond"",""no_dis"",""hori"",""left"",[99999,99999],[0,150]]",diamond,no_dis,hori,left,"[99999,99999]","[0,150]",up,0,0.7436,,,,,,001,2025-03-10_16h59.06.178,SL_sali,2021.2.3,Win32,119.047619,,,32,0,32,0,1,,,,,,,,
,,"[""diamond"",""green"",""vert"",""up"",[106,106],[0,-150]]",diamond,green,vert,up,"[106,106]","[0,-150]",up,1,1.4836,,,,,,001,2025-03-10_16h59.06.178,SL_sali,2021.2.3,Win32,119.047619,,,33,0,33,0,1,,,,,,,,
,,"[""diamond"",""no_dis"",""hori"",""left"",[99999,99999],[106,106]]",diamond,no_dis,hori,left,"[99999,99999]","[106,106]",left,1,0.6699,,,,,,001,2025-03-10_16h59.06.178,SL_sali,2021.2.3,Win32,119.047619,,,34,0,34,0,1,,,,,,,,
,,"[""circle"",""red"",""vert"",""up"",[106,-106],[-106,106]]",circle,red,vert,up,"[106,-106]","[-106,106]",up,1,1.365,,,,,,001,2025-03-10_16h59.06.178,SL_sali,2021.2.3,Win32,119.047619,,,35,0,35,0,1,,,,,,,,
,,"[""circle"",""no_dis"",""vert"",""up"",[99999,99999],[150,0]]",circle,no_dis,vert,up,"[99999,99999]","[150,0]",up,1,0.9682,,,,,,001,2025-03-10_16h59.06.178,SL_sali,2021.2.3,Win32,119.047619,,,36,0,36,0,1,,,,,,,,
,,"[""diamond"",""green"",""vert"",""up"",[150,0],[106,-106]]",diamond,green,vert,up,"[150,0]","[106,-106]",up,1,0.8832,,,,,,001,2025-03-10_16h59.06.178,SL_sali,2021.2.3,Win32,119.047619,,,37,0,37,0,1,,,,,,,,
,,"[""circle"",""no_dis"",""vert"",""up"",[99999,99999],[0,-150]]",circle,no_dis,vert,up,"[99999,99999]","[0,-150]",up,1,2.1689,,,,,,001,2025-03-10_16h59.06.178,SL_sali,2021.2.3,Win32,119.047619,,,38,0,38,0,1,,,,,,,,
,,"[""diamond"",""no_dis"",""hori"",""left"",[99999,99999],[150,0]]",diamond,no_dis,hori,left,"[99999,99999]","[150,0]",left,1,1.0541,,,,,,001,2025-03-10_16h59.06.178,SL_sali,2021.2.3,Win32,119.047619,,,39,0,39,0,1,,,,,,,,
,,"[""circle"",""green"",""hori"",""left"",[150,0],[106,-106]]",circle,green,hori,left,"[150,0]","[106,-106]",left,1,1.7289,,,,,,001,2025-03-10_16h59.06.178,SL_sali,2021.2.3,Win32,119.047619,,,40,0,40,0,1,,,,,,,,
,,"[""circle"",""red"",""vert"",""up"",[150,0],[0,-150]]",circle,red,vert,up,"[150,0]","[0,-150]",up,1,1.4443,,,,,,001,2025-03-10_16h59.06.178,SL_sali,2021.2.3,Win32,119.047619,,,41,0,41,0,1,,,,,,,,
,,"[""circle"",""no_dis"",""vert"",""up"",[99999,99999],[0,-150]]",circle,no_dis,vert,up,"[99999,99999]","[0,-150]",up,1,0.8846,,,,,,001,2025-03-10_16h59.06.178,SL_sali,2021.2.3,Win32,119.047619,,,42,0,42,0,1,,,,,,,,
,,"[""diamond"",""green"",""hori"",""left"",[-106,-106],[-106,106]]",diamond,green,hori,left,"[-106,-106]","[-106,106]",left,1,0.9032,,,,,,001,2025-03-10_16h59.06.178,SL_sali,2021.2.3,Win32,119.047619,,,43,0,43,0,1,,,,,,,,
,,"[""circle"",""no_dis"",""hori"",""left"",[99999,99999],[-150,0]]",circle,no_dis,hori,left,"[99999,99999]","[-150,0]",left,1,1.0229,,,,,,001,2025-03-10_16h59.06.178,SL_sali,2021.2.3,Win32,119.047619,,,44,0,44,0,1,,,,,,,,
,,"[""circle"",""green"",""vert"",""up"",[0,150],[106,106]]",circle,green,vert,up,"[0,150]","[106,106]",up,1,0.9225,,,,,,001,2025-03-10_16h59.06.178,SL_sali,2021.2.3,Win32,119.047619,,,45,0,45,0,1,,,,,,,,
,,"[""diamond"",""no_dis"",""hori"",""left"",[99999,99999],[0,-150]]",diamond,no_dis,hori,left,"[99999,99999]","[0,-150]",left,1,1.1688,,,,,,001,2025-03-10_16h59.06.178,SL_sali,2021.2.3,Win32,119.047619,,,46,0,46,0,1,,,,,,,,
,,"[""circle"",""red"",""vert"",""up"",[-150,0],[106,106]]",circle,red,vert,up,"[-150,0]","[106,106]",up,1,0.5787,,,,,,001,2025-03-10_16h59.06.178,SL_sali,2021.2.3,Win32,119.047619,,,47,0,47,0,1,,,,,,,,
,,"[""circle"",""green"",""vert"",""up"",[150,0],[-106,106]]",circle,green,vert,up,"[150,0]","[-106,106]",up,1,0.6047,,,,,,001,2025-03-10_16h59.06.178,SL_sali,2021.2.3,Win32,119.047619,,,48,0,48,0,1,,,,,,,,
,,"[""circle"",""green"",""hori"",""left"",[150,0],[-106,-106]]",circle,green,hori,left,"[150,0]","[-106,-106]",left,1,0.7675,,,,,,001,2025-03-10_16h59.06.178,SL_sali,2021.2.3,Win32,119.047619,,,49,0,49,0,1,,,,,,,,
,,"[""circle"",""red"",""hori"",""left"",[150,0],[-106,106]]",circle,red,hori,left,"[150,0]","[-106,106]",left,1,0.9954,,,,,,001,2025-03-10_16h59.06.178,SL_sali,2021.2.3,Win32,119.047619,,,50,0,50,0,1,,,,,,,,
,,"[""diamond"",""red"",""vert"",""up"",[106,106],[-150,0]]",diamond,red,vert,up,"[106,106]","[-150,0]",up,1,1.2109,,,,,,001,2025-03-10_16h59.06.178,SL_sali,2021.2.3,Win32,119.047619,,,51,0,51,0,1,,,,,,,,
,,"[""circle"",""green"",""vert"",""up"",[-150,0],[106,106]]",circle,green,vert,up,"[-150,0]","[106,106]",up,1,0.5639,,,,,,001,2025-03-10_16h59.06.178,SL_sali,2021.2.3,Win32,119.047619,,,52,0,52,0,1,,,,,,,,
,,"[""diamond"",""no_dis"",""vert"",""up"",[99999,99999],[-106,-106]]",diamond,no_dis,vert,up,"[99999,99999]","[-106,-106]",left,0,1.6713,,,,,,001,2025-03-10_16h59.06.178,SL_sali,2021.2.3,Win32,119.047619,,,53,0,53,0,1,,,,,,,,
,,"[""diamond"",""green"",""hori"",""left"",[150,0],[0,-150]]",diamond,green,hori,left,"[150,0]","[0,-150]",up,0,2.3528,,,,,,001,2025-03-10_16h59.06.178,SL_sali,2021.2.3,Win32,119.047619,,,54,0,54,0,1,,,,,,,,
,,"[""diamond"",""red"",""hori"",""left"",[-106,106],[106,-106]]",diamond,red,hori,left,"[-106,106]","[106,-106]",left,1,1.0798,,,,,,001,2025-03-10_16h59.06.178,SL_sali,2021.2.3,Win32,119.047619,,,55,0,55,0,1,,,,,,,,
,,"[""circle"",""red"",""vert"",""up"",[-106,-106],[150,0]]",circle,red,vert,up,"[-106,-106]","[150,0]",up,1,1.296,,,,,,001,2025-03-10_16h59.06.178,SL_sali,2021.2.3,Win32,119.047619,,,56,0,56,0,1,,,,,,,,
,,"[""diamond"",""no_dis"",""hori"",""left"",[99999,99999],[106,-106]]",diamond,no_dis,hori,left,"[99999,99999]","[106,-106]",left,1,1.0734,,,,,,001,2025-03-10_16h59.06.178,SL_sali,2021.2.3,Win32,119.047619,,,57,0,57,0,1,,,,,,,,
,,"[""diamond"",""red"",""hori"",""left"",[-106,106],[106,106]]",diamond,red,hori,left,"[-106,106]","[106,106]",left,1,1.0528,,,,,,001,2025-03-10_16h59.06.178,SL_sali,2021.2.3,Win32,119.047619,,,58,0,58,0,1,,,,,,,,
,,"[""diamond"",""no_dis"",""hori"",""left"",[99999,99999],[106,106]]",diamond,no_dis,hori,left,"[99999,99999]","[106,106]",left,1,1.097,,,,,,001,2025-03-10_16h59.06.178,SL_sali,2021.2.3,Win32,119.047619,,,59,0,59,0,1,,,,,,,,
,,"[""diamond"",""red"",""hori"",""left"",[0,-150],[0,150]]",diamond,red,hori,left,"[0,-150]","[0,150]",left,1,1.0054,,,,,,001,2025-03-10_16h59.06.178,SL_sali,2021.2.3,Win32,119.047619,,,60,0,60,0,1,,,,,,,,
,,"[""circle"",""red"",""hori"",""left"",[-106,-106],[106,106]]",circle,red,hori,left,"[-106,-106]","[106,106]",left,1,0.9874,,,,,,001,2025-03-10_16h59.06.178,SL_sali,2021.2.3,Win32,119.047619,,,61,0,61,0,1,,,,,,,,
,,"[""diamond"",""green"",""vert"",""up"",[-106,106],[-106,-106]]",diamond,green,vert,up,"[-106,106]","[-106,-106]",up,1,1.0694,,,,,,001,2025-03-10_16h59.06.178,SL_sali,2021.2.3,Win32,119.047619,,,62,0,62,0,1,,,,,,,,
,,"[""circle"",""no_dis"",""hori"",""left"",[99999,99999],[-106,-106]]",circle,no_dis,hori,left,"[99999,99999]","[-106,-106]",left,1,1.6267,,,,,,001,2025-03-10_16h59.06.178,SL_sali,2021.2.3,Win32,119.047619,,,63,0,63,0,1,,,,,,,,
,,"[""diamond"",""green"",""vert"",""up"",[150,0],[0,150]]",diamond,green,vert,up,"[150,0]","[0,150]",up,1,0.6705,,,,,,001,2025-03-10_16h59.06.178,SL_sali,2021.2.3,Win32,119.047619,,,64,0,64,0,1,,,,,,,,
,,"[""diamond"",""no_dis"",""vert"",""up"",[99999,99999],[-106,106]]",diamond,no_dis,vert,up,"[99999,99999]","[-106,106]",up,1,0.7197,,,,,,001,2025-03-10_16h59.06.178,SL_sali,2021.2.3,Win32,119.047619,,,65,0,65,0,1,,,,,,,,
,,"[""diamond"",""no_dis"",""vert"",""up"",[99999,99999],[106,-106]]",diamond,no_dis,vert,up,"[99999,99999]","[106,-106]",up,1,1.0083,,,,,,001,2025-03-10_16h59.06.178,SL_sali,2021.2.3,Win32,119.047619,,,66,0,66,0,1,,,,,,,,
,,"[""diamond"",""green"",""hori"",""left"",[150,0],[106,-106]]",diamond,green,hori,left,"[150,0]","[106,-106]",up,0,0.6996,,,,,,001,2025-03-10_16h59.06.178,SL_sali,2021.2.3,Win32,119.047619,,,67,0,67,0,1,,,,,,,,
,,"[""circle"",""no_dis"",""vert"",""up"",[99999,99999],[0,-150]]",circle,no_dis,vert,up,"[99999,99999]","[0,-150]",up,1,0.8958,,,,,,001,2025-03-10_16h59.06.178,SL_sali,2021.2.3,Win32,119.047619,,,68,0,68,0,1,,,,,,,,
,,"[""diamond"",""green"",""hori"",""left"",[0,150],[-106,106]]",diamond,green,hori,left,"[0,150]","[-106,106]",left,1,0.9027,,,,,,001,2025-03-10_16h59.06.178,SL_sali,2021.2.3,Win32,119.047619,,,69,0,69,0,1,,,,,,,,
,,"[""diamond"",""no_dis"",""hori"",""left"",[99999,99999],[150,0]]",diamond,no_dis,hori,left,"[99999,99999]","[150,0]",left,1,1.8103,,,,,,001,2025-03-10_16h59.06.178,SL_sali,2021.2.3,Win32,119.047619,,,70,0,70,0,1,,,,,,,,
,,"[""diamond"",""red"",""vert"",""up"",[106,106],[-106,-106]]",diamond,red,vert,up,"[106,106]","[-106,-106]",up,1,1.1909,,,,,,001,2025-03-10_16h59.06.178,SL_sali,2021.2.3,Win32,119.047619,,,71,0,71,0,1,,,,,,,,
,,"[""diamond"",""green"",""vert"",""up"",[0,-150],[106,106]]",diamond,green,vert,up,"[0,-150]","[106,106]",up,1,0.9263,,,,,,001,2025-03-10_16h59.06.178,SL_sali,2021.2.3,Win32,119.047619,,,72,0,72,0,1,,,,,,,,
,,"[""diamond"",""red"",""hori"",""left"",[150,0],[-106,-106]]",diamond,red,hori,left,"[150,0]","[-106,-106]",left,1,0.8155,,,,,,001,2025-03-10_16h59.06.178,SL_sali,2021.2.3,Win32,119.047619,,,73,0,73,0,1,,,,,,,,
,,"[""diamond"",""green"",""hori"",""left"",[-106,-106],[0,150]]",diamond,green,hori,left,"[-106,-106]","[0,150]",left,1,0.6529,,,,,,001,2025-03-10_16h59.06.178,SL_sali,2021.2.3,Win32,119.047619,,,74,0,74,0,1,,,,,,,,
,,"[""circle"",""red"",""hori"",""left"",[0,-150],[150,0]]",circle,red,hori,left,"[0,-150]","[150,0]",left,1,2.1891,,,,,,001,2025-03-10_16h59.06.178,SL_sali,2021.2.3,Win32,119.047619,,,75,0,75,0,1,,,,,,,,
,,"[""circle"",""green"",""hori"",""left"",[0,-150],[106,106]]",circle,green,hori,left,"[0,-150]","[106,106]",left,1,0.6881,,,,,,001,2025-03-10_16h59.06.178,SL_sali,2021.2.3,Win32,119.047619,,,76,0,76,0,1,,,,,,,,
,,"[""diamond"",""green"",""hori"",""left"",[150,0],[0,-150]]",diamond,green,hori,left,"[150,0]","[0,-150]",left,1,1.3466,,,,,,001,2025-03-10_16h59.06.178,SL_sali,2021.2.3,Win32,119.047619,,,77,0,77,0,1,,,,,,,,
,,"[""circle"",""green"",""hori"",""left"",[0,150],[-106,106]]",circle,green,hori,left,"[0,150]","[-106,106]",left,1,1.3719,,,,,,001,2025-03-10_16h59.06.178,SL_sali,2021.2.3,Win32,119.047619,,,78,0,78,0,1,,,,,,,,
,,"[""diamond"",""green"",""vert"",""up"",[0,-150],[-106,-106]]",diamond,green,vert,up,"[0,-150]","[-106,-106]",up,1,1.743,,,,,,001,2025-03-10_16h59.06.178,SL_sali,2021.2.3,Win32,119.047619,,,79,0,79,0,1,,,,,,,,
,,"[""circle"",""green"",""hori"",""left"",[150,0],[-150,0]]",circle,green,hori,left,"[150,0]","[-150,0]",left,1,0.9012,,,,,,001,2025-03-10_16h59.06.178,SL_sali,2021.2.3,Win32,119.047619,,,80,0,80,0,1,,,,,,,,
,,"[""diamond"",""red"",""hori"",""left"",[-150,0],[0,150]]",diamond,red,hori,left,"[-150,0]","[0,150]",left,1,0.8127,,,,,,001,2025-03-10_16h59.06.178,SL_sali,2021.2.3,Win32,119.047619,,,81,0,81,0,1,,,,,,,,
,,"[""circle"",""no_dis"",""vert"",""up"",[99999,99999],[0,150]]",circle,no_dis,vert,up,"[99999,99999]","[0,150]",up,1,0.9368,,,,,,001,2025-03-10_16h59.06.178,SL_sali,2021.2.3,Win32,119.047619,,,82,0,82,0,1,,,,,,,,
,,"[""diamond"",""red"",""vert"",""up"",[106,-106],[-150,0]]",diamond,red,vert,up,"[106,-106]","[-150,0]",up,1,1.6394,,,,,,001,2025-03-10_16h59.06.178,SL_sali,2021.2.3,Win32,119.047619,,,83,0,83,0,1,,,,,,,,
,,"[""circle"",""red"",""vert"",""up"",[106,-106],[150,0]]",circle,red,vert,up,"[106,-106]","[150,0]",up,1,1.3204,,,,,,001,2025-03-10_16h59.06.178,SL_sali,2021.2.3,Win32,119.047619,,,84,0,84,0,1,,,,,,,,
,,"[""diamond"",""green"",""vert"",""up"",[-150,0],[150,0]]",diamond,green,vert,up,"[-150,0]","[150,0]",up,1,0.6756,,,,,,001,2025-03-10_16h59.06.178,SL_sali,2021.2.3,Win32,119.047619,,,85,0,85,0,1,,,,,,,,
,,"[""circle"",""no_dis"",""vert"",""up"",[99999,99999],[-106,-106]]",circle,no_dis,vert,up,"[99999,99999]","[-106,-106]",up,1,0.9971,,,,,,001,2025-03-10_16h59.06.178,SL_sali,2021.2.3,Win32,119.047619,,,86,0,86,0,1,,,,,,,,
,,"[""circle"",""green"",""hori"",""left"",[150,0],[0,150]]",circle,green,hori,left,"[150,0]","[0,150]",left,1,0.8976,,,,,,001,2025-03-10_16h59.06.178,SL_sali,2021.2.3,Win32,119.047619,,,87,0,87,0,1,,,,,,,,
,,"[""diamond"",""no_dis"",""vert"",""up"",[99999,99999],[-106,-106]]",diamond,no_dis,vert,up,"[99999,99999]","[-106,-106]",up,1,1.3593,,,,,,001,2025-03-10_16h59.06.178,SL_sali,2021.2.3,Win32,119.047619,,,88,0,88,0,1,,,,,,,,
,,"[""diamond"",""no_dis"",""hori"",""left"",[99999,99999],[-106,-106]]",diamond,no_dis,hori,left,"[99999,99999]","[-106,-106]",left,1,0.967,,,,,,001,2025-03-10_16h59.06.178,SL_sali,2021.2.3,Win32,119.047619,,,89,0,89,0,1,,,,,,,,
,,"[""circle"",""red"",""vert"",""up"",[150,0],[106,-106]]",circle,red,vert,up,"[150,0]","[106,-106]",up,1,1.3599,,,,,,001,2025-03-10_16h59.06.178,SL_sali,2021.2.3,Win32,119.047619,,,90,0,90,0,1,,,,,,,,
,,"[""circle"",""no_dis"",""hori"",""left"",[99999,99999],[150,0]]",circle,no_dis,hori,left,"[99999,99999]","[150,0]",left,1,0.6343,,,,,,001,2025-03-10_16h59.06.178,SL_sali,2021.2.3,Win32,119.047619,,,91,0,91,0,1,,,,,,,,
,,"[""diamond"",""green"",""hori"",""left"",[-150,0],[-106,106]]",diamond,green,hori,left,"[-150,0]","[-106,106]",left,1,1.3032,,,,,,001,2025-03-10_16h59.06.178,SL_sali,2021.2.3,Win32,119.047619,,,92,0,92,0,1,,,,,,,,
