﻿key_resp.keys,key_resp.rt,trial_para,tar_shape,dis_color_condi,tar_line,cor_resp,dis_loc,tar_loc,resp.keys,resp.corr,resp.rt,trials.thisRepN,trials.thisTrialN,trials.thisN,trials.thisIndex,trials.ran,participant,date,expName,psychopyVersion,OS,frameRate,key_resp_2.keys,key_resp_2.rt,trials_2.thisRepN,trials_2.thisTrialN,trials_2.thisN,trials_2.thisIndex,trials_2.ran,block_num,key_resp_3.keys,key_resp_3.rt,trials_3.thisRepN,trials_3.thisTrialN,trials_3.thisN,trials_3.thisIndex,trials_3.ran
space,87.74,"[""circle"",""red"",""vert"",""up"",[150,0],[-106,106]]",circle,red,vert,up,"[150,0]","[-106,106]",up,1,1.1542,0,0,0,0,1,001,2025-03-17_14h42.06.313,SL_sali,2021.2.3,Win32,60.17571308,,,,,,,,,,,,,,,
,,"[""circle"",""red"",""vert"",""up"",[-150,0],[0,150]]",circle,red,vert,up,"[-150,0]","[0,150]",left,0,0.5613,1,0,1,0,1,001,2025-03-17_14h42.06.313,SL_sali,2021.2.3,Win32,60.17571308,,,,,,,,,,,,,,,
,,"[""diamond"",""no_dis"",""vert"",""up"",[99999,99999],[106,-106]]",diamond,no_dis,vert,up,"[99999,99999]","[106,-106]",,0,,2,0,2,0,1,001,2025-03-17_14h42.06.313,SL_sali,2021.2.3,Win32,60.17571308,,,,,,,,,,,,,,,
,,"[""diamond"",""red"",""vert"",""up"",[150,0],[0,150]]",diamond,red,vert,up,"[150,0]","[0,150]",up,1,1.3546,3,0,3,0,1,001,2025-03-17_14h42.06.313,SL_sali,2021.2.3,Win32,60.17571308,,,,,,,,,,,,,,,
,,"[""diamond"",""red"",""hori"",""left"",[106,106],[-106,106]]",diamond,red,hori,left,"[106,106]","[-106,106]",up,0,0.6417,4,0,4,0,1,001,2025-03-17_14h42.06.313,SL_sali,2021.2.3,Win32,60.17571308,,,,,,,,,,,,,,,
,,"[""circle"",""no_dis"",""hori"",""left"",[99999,99999],[0,-150]]",circle,no_dis,hori,left,"[99999,99999]","[0,-150]",up,0,1.1672,5,0,5,0,1,001,2025-03-17_14h42.06.313,SL_sali,2021.2.3,Win32,60.17571308,,,,,,,,,,,,,,,
,,"[""circle"",""no_dis"",""vert"",""up"",[99999,99999],[0,150]]",circle,no_dis,vert,up,"[99999,99999]","[0,150]",up,1,1.6613,6,0,6,0,1,001,2025-03-17_14h42.06.313,SL_sali,2021.2.3,Win32,60.17571308,,,,,,,,,,,,,,,
,,"[""circle"",""red"",""hori"",""left"",[0,-150],[150,0]]",circle,red,hori,left,"[0,-150]","[150,0]",left,1,1.1224,7,0,7,0,1,001,2025-03-17_14h42.06.313,SL_sali,2021.2.3,Win32,60.17571308,,,,,,,,,,,,,,,
,,"[""diamond"",""red"",""vert"",""up"",[-150,0],[106,106]]",diamond,red,vert,up,"[-150,0]","[106,106]",up,1,1.1715,8,0,8,0,1,001,2025-03-17_14h42.06.313,SL_sali,2021.2.3,Win32,60.17571308,,,,,,,,,,,,,,,
,,"[""diamond"",""no_dis"",""vert"",""up"",[99999,99999],[-150,0]]",diamond,no_dis,vert,up,"[99999,99999]","[-150,0]",up,1,1.3341,9,0,9,0,1,001,2025-03-17_14h42.06.313,SL_sali,2021.2.3,Win32,60.17571308,,,,,,,,,,,,,,,
,,"[""circle"",""red"",""vert"",""up"",[150,0],[-106,106]]",circle,red,vert,up,"[150,0]","[-106,106]",up,1,1.384,,,,,,001,2025-03-17_14h42.06.313,SL_sali,2021.2.3,Win32,60.17571308,space,8.0045,0,0,0,0,1,,,,,,,,
,,"[""circle"",""red"",""vert"",""up"",[-150,0],[0,150]]",circle,red,vert,up,"[-150,0]","[0,150]",up,1,1.1506,,,,,,001,2025-03-17_14h42.06.313,SL_sali,2021.2.3,Win32,60.17571308,,,1,0,1,0,1,,,,,,,,
,,"[""diamond"",""no_dis"",""vert"",""up"",[99999,99999],[106,-106]]",diamond,no_dis,vert,up,"[99999,99999]","[106,-106]",up,1,1.0689,,,,,,001,2025-03-17_14h42.06.313,SL_sali,2021.2.3,Win32,60.17571308,,,2,0,2,0,1,,,,,,,,
,,"[""diamond"",""red"",""vert"",""up"",[150,0],[0,150]]",diamond,red,vert,up,"[150,0]","[0,150]",left,0,1,,,,,,001,2025-03-17_14h42.06.313,SL_sali,2021.2.3,Win32,60.17571308,,,3,0,3,0,1,,,,,,,,
,,"[""diamond"",""red"",""hori"",""left"",[106,106],[-106,106]]",diamond,red,hori,left,"[106,106]","[-106,106]",left,1,1.4703,,,,,,001,2025-03-17_14h42.06.313,SL_sali,2021.2.3,Win32,60.17571308,,,4,0,4,0,1,,,,,,,,
,,"[""circle"",""no_dis"",""hori"",""left"",[99999,99999],[0,-150]]",circle,no_dis,hori,left,"[99999,99999]","[0,-150]",left,1,0.9673,,,,,,001,2025-03-17_14h42.06.313,SL_sali,2021.2.3,Win32,60.17571308,,,5,0,5,0,1,,,,,,,,
,,"[""circle"",""no_dis"",""vert"",""up"",[99999,99999],[0,150]]",circle,no_dis,vert,up,"[99999,99999]","[0,150]",up,1,0.9505,,,,,,001,2025-03-17_14h42.06.313,SL_sali,2021.2.3,Win32,60.17571308,,,6,0,6,0,1,,,,,,,,
,,"[""circle"",""red"",""hori"",""left"",[0,-150],[150,0]]",circle,red,hori,left,"[0,-150]","[150,0]",left,1,1.5231,,,,,,001,2025-03-17_14h42.06.313,SL_sali,2021.2.3,Win32,60.17571308,,,7,0,7,0,1,,,,,,,,
,,"[""diamond"",""red"",""vert"",""up"",[-150,0],[106,106]]",diamond,red,vert,up,"[-150,0]","[106,106]",up,1,1.0357,,,,,,001,2025-03-17_14h42.06.313,SL_sali,2021.2.3,Win32,60.17571308,,,8,0,8,0,1,,,,,,,,
,,"[""diamond"",""no_dis"",""vert"",""up"",[99999,99999],[-150,0]]",diamond,no_dis,vert,up,"[99999,99999]","[-150,0]",up,1,0.8864,,,,,,001,2025-03-17_14h42.06.313,SL_sali,2021.2.3,Win32,60.17571308,,,9,0,9,0,1,,,,,,,,
,,"[""diamond"",""green"",""vert"",""up"",[150,0],[106,-106]]",diamond,green,vert,up,"[150,0]","[106,-106]",up,1,1.3837,,,,,,001,2025-03-17_14h42.06.313,SL_sali,2021.2.3,Win32,60.17571308,,,10,0,10,0,1,,,,,,,,
,,"[""diamond"",""red"",""vert"",""up"",[-106,-106],[150,0]]",diamond,red,vert,up,"[-106,-106]","[150,0]",up,1,0.9785,,,,,,001,2025-03-17_14h42.06.313,SL_sali,2021.2.3,Win32,60.17571308,,,11,0,11,0,1,,,,,,,,
,,"[""circle"",""green"",""hori"",""left"",[0,-150],[-106,-106]]",circle,green,hori,left,"[0,-150]","[-106,-106]",left,1,1.2815,,,,,,001,2025-03-17_14h42.06.313,SL_sali,2021.2.3,Win32,60.17571308,,,12,0,12,0,1,,,,,,,,
,,"[""diamond"",""green"",""vert"",""up"",[0,150],[-106,106]]",diamond,green,vert,up,"[0,150]","[-106,106]",up,1,1.2679,,,,,,001,2025-03-17_14h42.06.313,SL_sali,2021.2.3,Win32,60.17571308,,,13,0,13,0,1,,,,,,,,
,,"[""diamond"",""no_dis"",""vert"",""up"",[99999,99999],[-106,-106]]",diamond,no_dis,vert,up,"[99999,99999]","[-106,-106]",up,1,1.2519,,,,,,001,2025-03-17_14h42.06.313,SL_sali,2021.2.3,Win32,60.17571308,,,14,0,14,0,1,,,,,,,,
,,"[""diamond"",""green"",""vert"",""up"",[0,150],[106,106]]",diamond,green,vert,up,"[0,150]","[106,106]",up,1,1.4459,,,,,,001,2025-03-17_14h42.06.313,SL_sali,2021.2.3,Win32,60.17571308,,,15,0,15,0,1,,,,,,,,
,,"[""diamond"",""green"",""hori"",""left"",[-106,106],[106,106]]",diamond,green,hori,left,"[-106,106]","[106,106]",left,1,0.893,,,,,,001,2025-03-17_14h42.06.313,SL_sali,2021.2.3,Win32,60.17571308,,,16,0,16,0,1,,,,,,,,
,,"[""diamond"",""no_dis"",""vert"",""up"",[99999,99999],[106,-106]]",diamond,no_dis,vert,up,"[99999,99999]","[106,-106]",up,1,0.7347,,,,,,001,2025-03-17_14h42.06.313,SL_sali,2021.2.3,Win32,60.17571308,,,17,0,17,0,1,,,,,,,,
,,"[""circle"",""red"",""hori"",""left"",[-150,0],[106,-106]]",circle,red,hori,left,"[-150,0]","[106,-106]",left,1,1.2724,,,,,,001,2025-03-17_14h42.06.313,SL_sali,2021.2.3,Win32,60.17571308,,,18,0,18,0,1,,,,,,,,
,,"[""diamond"",""green"",""vert"",""up"",[-106,106],[-106,-106]]",diamond,green,vert,up,"[-106,106]","[-106,-106]",left,0,1.4842,,,,,,001,2025-03-17_14h42.06.313,SL_sali,2021.2.3,Win32,60.17571308,,,19,0,19,0,1,,,,,,,,
,,"[""diamond"",""no_dis"",""hori"",""left"",[99999,99999],[150,0]]",diamond,no_dis,hori,left,"[99999,99999]","[150,0]",left,1,0.8274,,,,,,001,2025-03-17_14h42.06.313,SL_sali,2021.2.3,Win32,60.17571308,,,20,0,20,0,1,,,,,,,,
,,"[""diamond"",""green"",""hori"",""left"",[106,106],[-106,-106]]",diamond,green,hori,left,"[106,106]","[-106,-106]",left,1,0.8478,,,,,,001,2025-03-17_14h42.06.313,SL_sali,2021.2.3,Win32,60.17571308,,,21,0,21,0,1,,,,,,,,
,,"[""diamond"",""red"",""vert"",""up"",[106,-106],[150,0]]",diamond,red,vert,up,"[106,-106]","[150,0]",up,1,1.186,,,,,,001,2025-03-17_14h42.06.313,SL_sali,2021.2.3,Win32,60.17571308,,,22,0,22,0,1,,,,,,,,
,,"[""diamond"",""red"",""hori"",""left"",[150,0],[-106,106]]",diamond,red,hori,left,"[150,0]","[-106,106]",left,1,1.0336,,,,,,001,2025-03-17_14h42.06.313,SL_sali,2021.2.3,Win32,60.17571308,,,23,0,23,0,1,,,,,,,,
,,"[""diamond"",""no_dis"",""vert"",""up"",[99999,99999],[-106,-106]]",diamond,no_dis,vert,up,"[99999,99999]","[-106,-106]",up,1,0.9776,,,,,,001,2025-03-17_14h42.06.313,SL_sali,2021.2.3,Win32,60.17571308,,,24,0,24,0,1,,,,,,,,
,,"[""circle"",""green"",""vert"",""up"",[-106,-106],[106,106]]",circle,green,vert,up,"[-106,-106]","[106,106]",left,0,1.456,,,,,,001,2025-03-17_14h42.06.313,SL_sali,2021.2.3,Win32,60.17571308,,,25,0,25,0,1,,,,,,,,
,,"[""circle"",""red"",""hori"",""left"",[106,-106],[150,0]]",circle,red,hori,left,"[106,-106]","[150,0]",left,1,1.4577,,,,,,001,2025-03-17_14h42.06.313,SL_sali,2021.2.3,Win32,60.17571308,,,26,0,26,0,1,,,,,,,,
,,"[""circle"",""red"",""hori"",""left"",[-150,0],[0,-150]]",circle,red,hori,left,"[-150,0]","[0,-150]",left,1,1.2767,,,,,,001,2025-03-17_14h42.06.313,SL_sali,2021.2.3,Win32,60.17571308,,,27,0,27,0,1,,,,,,,,
,,"[""diamond"",""no_dis"",""vert"",""up"",[99999,99999],[106,106]]",diamond,no_dis,vert,up,"[99999,99999]","[106,106]",up,1,1.2005,,,,,,001,2025-03-17_14h42.06.313,SL_sali,2021.2.3,Win32,60.17571308,,,28,0,28,0,1,,,,,,,,
,,"[""diamond"",""no_dis"",""hori"",""left"",[99999,99999],[0,150]]",diamond,no_dis,hori,left,"[99999,99999]","[0,150]",left,1,0.629,,,,,,001,2025-03-17_14h42.06.313,SL_sali,2021.2.3,Win32,60.17571308,,,29,0,29,0,1,,,,,,,,
,,"[""circle"",""no_dis"",""vert"",""up"",[99999,99999],[0,-150]]",circle,no_dis,vert,up,"[99999,99999]","[0,-150]",up,1,0.7681,,,,,,001,2025-03-17_14h42.06.313,SL_sali,2021.2.3,Win32,60.17571308,,,30,0,30,0,1,,,,,,,,
,,"[""circle"",""red"",""vert"",""up"",[-106,106],[0,-150]]",circle,red,vert,up,"[-106,106]","[0,-150]",up,1,0.9974,,,,,,001,2025-03-17_14h42.06.313,SL_sali,2021.2.3,Win32,60.17571308,,,31,0,31,0,1,,,,,,,,
,,"[""diamond"",""green"",""hori"",""left"",[-106,106],[106,-106]]",diamond,green,hori,left,"[-106,106]","[106,-106]",left,1,0.9469,,,,,,001,2025-03-17_14h42.06.313,SL_sali,2021.2.3,Win32,60.17571308,,,32,0,32,0,1,,,,,,,,
,,"[""circle"",""green"",""hori"",""left"",[-150,0],[150,0]]",circle,green,hori,left,"[-150,0]","[150,0]",left,1,1.0671,,,,,,001,2025-03-17_14h42.06.313,SL_sali,2021.2.3,Win32,60.17571308,,,33,0,33,0,1,,,,,,,,
,,"[""diamond"",""no_dis"",""hori"",""left"",[99999,99999],[-106,106]]",diamond,no_dis,hori,left,"[99999,99999]","[-106,106]",left,1,1.6265,,,,,,001,2025-03-17_14h42.06.313,SL_sali,2021.2.3,Win32,60.17571308,,,34,0,34,0,1,,,,,,,,
,,"[""circle"",""green"",""hori"",""left"",[0,150],[106,-106]]",circle,green,hori,left,"[0,150]","[106,-106]",left,1,0.7801,,,,,,001,2025-03-17_14h42.06.313,SL_sali,2021.2.3,Win32,60.17571308,,,35,0,35,0,1,,,,,,,,
,,"[""circle"",""green"",""vert"",""up"",[106,106],[0,-150]]",circle,green,vert,up,"[106,106]","[0,-150]",up,1,1.057,,,,,,001,2025-03-17_14h42.06.313,SL_sali,2021.2.3,Win32,60.17571308,,,36,0,36,0,1,,,,,,,,
,,"[""circle"",""green"",""vert"",""up"",[106,-106],[-106,-106]]",circle,green,vert,up,"[106,-106]","[-106,-106]",left,0,1.7246,,,,,,001,2025-03-17_14h42.06.313,SL_sali,2021.2.3,Win32,60.17571308,,,37,0,37,0,1,,,,,,,,
,,"[""circle"",""no_dis"",""hori"",""left"",[99999,99999],[106,106]]",circle,no_dis,hori,left,"[99999,99999]","[106,106]",left,1,0.9838,,,,,,001,2025-03-17_14h42.06.313,SL_sali,2021.2.3,Win32,60.17571308,,,38,0,38,0,1,,,,,,,,
,,"[""circle"",""red"",""vert"",""up"",[106,106],[-150,0]]",circle,red,vert,up,"[106,106]","[-150,0]",up,1,1.1709,,,,,,001,2025-03-17_14h42.06.313,SL_sali,2021.2.3,Win32,60.17571308,,,39,0,39,0,1,,,,,,,,
,,"[""circle"",""red"",""hori"",""left"",[-106,106],[-150,0]]",circle,red,hori,left,"[-106,106]","[-150,0]",left,1,1.6739,,,,,,001,2025-03-17_14h42.06.313,SL_sali,2021.2.3,Win32,60.17571308,,,40,0,40,0,1,,,,,,,,
,,"[""circle"",""green"",""vert"",""up"",[106,106],[106,-106]]",circle,green,vert,up,"[106,106]","[106,-106]",up,1,0.9078,,,,,,001,2025-03-17_14h42.06.313,SL_sali,2021.2.3,Win32,60.17571308,,,41,0,41,0,1,,,,,,,,
,,"[""circle"",""green"",""hori"",""left"",[150,0],[-106,106]]",circle,green,hori,left,"[150,0]","[-106,106]",left,1,0.9079,,,,,,001,2025-03-17_14h42.06.313,SL_sali,2021.2.3,Win32,60.17571308,,,42,0,42,0,1,,,,,,,,
,,"[""diamond"",""no_dis"",""vert"",""up"",[99999,99999],[106,106]]",diamond,no_dis,vert,up,"[99999,99999]","[106,106]",up,1,1.098,,,,,,001,2025-03-17_14h42.06.313,SL_sali,2021.2.3,Win32,60.17571308,,,43,0,43,0,1,,,,,,,,
,,"[""diamond"",""green"",""hori"",""left"",[0,150],[106,106]]",diamond,green,hori,left,"[0,150]","[106,106]",left,1,2.4963,,,,,,001,2025-03-17_14h42.06.313,SL_sali,2021.2.3,Win32,60.17571308,,,44,0,44,0,1,,,,,,,,
,,"[""diamond"",""green"",""hori"",""left"",[106,106],[0,150]]",diamond,green,hori,left,"[106,106]","[0,150]",left,1,1.4237,,,,,,001,2025-03-17_14h42.06.313,SL_sali,2021.2.3,Win32,60.17571308,,,45,0,45,0,1,,,,,,,,
,,"[""circle"",""no_dis"",""vert"",""up"",[99999,99999],[0,-150]]",circle,no_dis,vert,up,"[99999,99999]","[0,-150]",up,1,1.227,,,,,,001,2025-03-17_14h42.06.313,SL_sali,2021.2.3,Win32,60.17571308,,,46,0,46,0,1,,,,,,,,
,,"[""circle"",""no_dis"",""vert"",""up"",[99999,99999],[106,-106]]",circle,no_dis,vert,up,"[99999,99999]","[106,-106]",up,1,1.8881,,,,,,001,2025-03-17_14h42.06.313,SL_sali,2021.2.3,Win32,60.17571308,,,47,0,47,0,1,,,,,,,,
,,"[""circle"",""no_dis"",""hori"",""left"",[99999,99999],[-106,106]]",circle,no_dis,hori,left,"[99999,99999]","[-106,106]",left,1,1.3003,,,,,,001,2025-03-17_14h42.06.313,SL_sali,2021.2.3,Win32,60.17571308,,,48,0,48,0,1,,,,,,,,
,,"[""circle"",""no_dis"",""vert"",""up"",[99999,99999],[106,106]]",circle,no_dis,vert,up,"[99999,99999]","[106,106]",up,1,1.659,,,,,,001,2025-03-17_14h42.06.313,SL_sali,2021.2.3,Win32,60.17571308,,,49,0,49,0,1,,,,,,,,
,,"[""diamond"",""red"",""hori"",""left"",[106,106],[0,150]]",diamond,red,hori,left,"[106,106]","[0,150]",left,1,1.267,,,,,,001,2025-03-17_14h42.06.313,SL_sali,2021.2.3,Win32,60.17571308,,,50,0,50,0,1,,,,,,,,
,,"[""diamond"",""green"",""hori"",""left"",[106,106],[106,-106]]",diamond,green,hori,left,"[106,106]","[106,-106]",left,1,1.684,,,,,,001,2025-03-17_14h42.06.313,SL_sali,2021.2.3,Win32,60.17571308,,,51,0,51,0,1,,,,,,,,
,,"[""diamond"",""no_dis"",""vert"",""up"",[99999,99999],[106,-106]]",diamond,no_dis,vert,up,"[99999,99999]","[106,-106]",up,1,1.1335,,,,,,001,2025-03-17_14h42.06.313,SL_sali,2021.2.3,Win32,60.17571308,,,52,0,52,0,1,,,,,,,,
,,"[""diamond"",""red"",""vert"",""up"",[106,-106],[-150,0]]",diamond,red,vert,up,"[106,-106]","[-150,0]",up,1,1.3839,,,,,,001,2025-03-17_14h42.06.313,SL_sali,2021.2.3,Win32,60.17571308,,,53,0,53,0,1,,,,,,,,
,,"[""diamond"",""green"",""vert"",""up"",[-106,106],[150,0]]",diamond,green,vert,up,"[-106,106]","[150,0]",up,1,1.4173,,,,,,001,2025-03-17_14h42.06.313,SL_sali,2021.2.3,Win32,60.17571308,,,54,0,54,0,1,,,,,,,,
,,"[""circle"",""no_dis"",""hori"",""left"",[99999,99999],[-106,-106]]",circle,no_dis,hori,left,"[99999,99999]","[-106,-106]",left,1,0.9169,,,,,,001,2025-03-17_14h42.06.313,SL_sali,2021.2.3,Win32,60.17571308,,,55,0,55,0,1,,,,,,,,
,,"[""diamond"",""no_dis"",""hori"",""left"",[99999,99999],[0,150]]",diamond,no_dis,hori,left,"[99999,99999]","[0,150]",left,1,0.6673,,,,,,001,2025-03-17_14h42.06.313,SL_sali,2021.2.3,Win32,60.17571308,,,56,0,56,0,1,,,,,,,,
,,"[""diamond"",""no_dis"",""hori"",""left"",[99999,99999],[-150,0]]",diamond,no_dis,hori,left,"[99999,99999]","[-150,0]",left,1,0.7503,,,,,,001,2025-03-17_14h42.06.313,SL_sali,2021.2.3,Win32,60.17571308,,,57,0,57,0,1,,,,,,,,
,,"[""circle"",""no_dis"",""hori"",""left"",[99999,99999],[0,-150]]",circle,no_dis,hori,left,"[99999,99999]","[0,-150]",left,1,1.2006,,,,,,001,2025-03-17_14h42.06.313,SL_sali,2021.2.3,Win32,60.17571308,,,58,0,58,0,1,,,,,,,,
,,"[""circle"",""green"",""vert"",""up"",[106,106],[106,-106]]",circle,green,vert,up,"[106,106]","[106,-106]",up,1,1.4671,,,,,,001,2025-03-17_14h42.06.313,SL_sali,2021.2.3,Win32,60.17571308,,,59,0,59,0,1,,,,,,,,
,,"[""diamond"",""no_dis"",""vert"",""up"",[99999,99999],[-150,0]]",diamond,no_dis,vert,up,"[99999,99999]","[-150,0]",left,0,0.867,,,,,,001,2025-03-17_14h42.06.313,SL_sali,2021.2.3,Win32,60.17571308,,,60,0,60,0,1,,,,,,,,
,,"[""circle"",""green"",""hori"",""left"",[106,106],[-106,-106]]",circle,green,hori,left,"[106,106]","[-106,-106]",left,1,0.7669,,,,,,001,2025-03-17_14h42.06.313,SL_sali,2021.2.3,Win32,60.17571308,,,61,0,61,0,1,,,,,,,,
,,"[""diamond"",""no_dis"",""hori"",""left"",[99999,99999],[-106,106]]",diamond,no_dis,hori,left,"[99999,99999]","[-106,106]",left,1,1.1838,,,,,,001,2025-03-17_14h42.06.313,SL_sali,2021.2.3,Win32,60.17571308,,,62,0,62,0,1,,,,,,,,
,,"[""diamond"",""green"",""vert"",""up"",[-106,-106],[106,-106]]",diamond,green,vert,up,"[-106,-106]","[106,-106]",up,1,1.3839,,,,,,001,2025-03-17_14h42.06.313,SL_sali,2021.2.3,Win32,60.17571308,,,63,0,63,0,1,,,,,,,,
,,"[""circle"",""green"",""vert"",""up"",[0,-150],[150,0]]",circle,green,vert,up,"[0,-150]","[150,0]",up,1,1.2003,,,,,,001,2025-03-17_14h42.06.313,SL_sali,2021.2.3,Win32,60.17571308,,,64,0,64,0,1,,,,,,,,
,,"[""diamond"",""red"",""hori"",""left"",[-106,-106],[106,-106]]",diamond,red,hori,left,"[-106,-106]","[106,-106]",left,1,1.7338,,,,,,001,2025-03-17_14h42.06.313,SL_sali,2021.2.3,Win32,60.17571308,,,65,0,65,0,1,,,,,,,,
,,"[""circle"",""red"",""vert"",""up"",[106,106],[150,0]]",circle,red,vert,up,"[106,106]","[150,0]",up,1,1.2503,,,,,,001,2025-03-17_14h42.06.313,SL_sali,2021.2.3,Win32,60.17571308,,,66,0,66,0,1,,,,,,,,
,,"[""circle"",""red"",""hori"",""left"",[0,-150],[106,-106]]",circle,red,hori,left,"[0,-150]","[106,-106]",left,1,0.884,,,,,,001,2025-03-17_14h42.06.313,SL_sali,2021.2.3,Win32,60.17571308,,,67,0,67,0,1,,,,,,,,
,,"[""diamond"",""green"",""hori"",""left"",[0,-150],[-106,-106]]",diamond,green,hori,left,"[0,-150]","[-106,-106]",left,1,2.817,,,,,,001,2025-03-17_14h42.06.313,SL_sali,2021.2.3,Win32,60.17571308,,,68,0,68,0,1,,,,,,,,
,,"[""diamond"",""no_dis"",""hori"",""left"",[99999,99999],[-106,106]]",diamond,no_dis,hori,left,"[99999,99999]","[-106,106]",left,1,0.9923,,,,,,001,2025-03-17_14h42.06.313,SL_sali,2021.2.3,Win32,60.17571308,,,69,0,69,0,1,,,,,,,,
,,"[""diamond"",""green"",""vert"",""up"",[106,106],[106,-106]]",diamond,green,vert,up,"[106,106]","[106,-106]",up,1,1.0056,,,,,,001,2025-03-17_14h42.06.313,SL_sali,2021.2.3,Win32,60.17571308,,,70,0,70,0,1,,,,,,,,
,,"[""circle"",""red"",""vert"",""up"",[0,-150],[-106,106]]",circle,red,vert,up,"[0,-150]","[-106,106]",up,1,1.9946,,,,,,001,2025-03-17_14h42.06.313,SL_sali,2021.2.3,Win32,60.17571308,,,71,0,71,0,1,,,,,,,,
,,"[""diamond"",""red"",""hori"",""left"",[0,-150],[106,-106]]",diamond,red,hori,left,"[0,-150]","[106,-106]",left,1,2.8303,,,,,,001,2025-03-17_14h42.06.313,SL_sali,2021.2.3,Win32,60.17571308,,,72,0,72,0,1,,,,,,,,
,,"[""circle"",""red"",""hori"",""left"",[0,150],[106,106]]",circle,red,hori,left,"[0,150]","[106,106]",left,1,1.7287,,,,,,001,2025-03-17_14h42.06.313,SL_sali,2021.2.3,Win32,60.17571308,,,73,0,73,0,1,,,,,,,,
,,"[""diamond"",""red"",""hori"",""left"",[106,-106],[0,150]]",diamond,red,hori,left,"[106,-106]","[0,150]",left,1,0.8799,,,,,,001,2025-03-17_14h42.06.313,SL_sali,2021.2.3,Win32,60.17571308,,,74,0,74,0,1,,,,,,,,
,,"[""circle"",""red"",""vert"",""up"",[-106,-106],[-106,106]]",circle,red,vert,up,"[-106,-106]","[-106,106]",up,1,1.4416,,,,,,001,2025-03-17_14h42.06.313,SL_sali,2021.2.3,Win32,60.17571308,,,75,0,75,0,1,,,,,,,,
,,"[""diamond"",""red"",""hori"",""left"",[150,0],[-106,-106]]",diamond,red,hori,left,"[150,0]","[-106,-106]",left,1,1.2604,,,,,,001,2025-03-17_14h42.06.313,SL_sali,2021.2.3,Win32,60.17571308,,,76,0,76,0,1,,,,,,,,
,,"[""diamond"",""red"",""vert"",""up"",[106,106],[0,150]]",diamond,red,vert,up,"[106,106]","[0,150]",up,1,1.5176,,,,,,001,2025-03-17_14h42.06.313,SL_sali,2021.2.3,Win32,60.17571308,,,77,0,77,0,1,,,,,,,,
,,"[""circle"",""no_dis"",""hori"",""left"",[99999,99999],[150,0]]",circle,no_dis,hori,left,"[99999,99999]","[150,0]",left,1,0.8045,,,,,,001,2025-03-17_14h42.06.313,SL_sali,2021.2.3,Win32,60.17571308,,,78,0,78,0,1,,,,,,,,
,,"[""circle"",""green"",""vert"",""up"",[0,-150],[-106,106]]",circle,green,vert,up,"[0,-150]","[-106,106]",up,1,1.0356,,,,,,001,2025-03-17_14h42.06.313,SL_sali,2021.2.3,Win32,60.17571308,,,79,0,79,0,1,,,,,,,,
,,"[""circle"",""no_dis"",""vert"",""up"",[99999,99999],[-150,0]]",circle,no_dis,vert,up,"[99999,99999]","[-150,0]",up,1,1.4302,,,,,,001,2025-03-17_14h42.06.313,SL_sali,2021.2.3,Win32,60.17571308,,,80,0,80,0,1,,,,,,,,
,,"[""circle"",""green"",""hori"",""left"",[106,-106],[150,0]]",circle,green,hori,left,"[106,-106]","[150,0]",left,1,1.6034,,,,,,001,2025-03-17_14h42.06.313,SL_sali,2021.2.3,Win32,60.17571308,,,81,0,81,0,1,,,,,,,,
,,"[""circle"",""no_dis"",""vert"",""up"",[99999,99999],[150,0]]",circle,no_dis,vert,up,"[99999,99999]","[150,0]",up,1,2.7424,,,,,,001,2025-03-17_14h42.06.313,SL_sali,2021.2.3,Win32,60.17571308,,,82,0,82,0,1,,,,,,,,
,,"[""circle"",""red"",""hori"",""left"",[106,106],[0,150]]",circle,red,hori,left,"[106,106]","[0,150]",left,1,1.5299,,,,,,001,2025-03-17_14h42.06.313,SL_sali,2021.2.3,Win32,60.17571308,,,83,0,83,0,1,,,,,,,,
,,"[""diamond"",""red"",""hori"",""left"",[106,106],[-150,0]]",diamond,red,hori,left,"[106,106]","[-150,0]",left,1,2.7843,,,,,,001,2025-03-17_14h42.06.313,SL_sali,2021.2.3,Win32,60.17571308,,,84,0,84,0,1,,,,,,,,
,,"[""circle"",""no_dis"",""hori"",""left"",[99999,99999],[0,150]]",circle,no_dis,hori,left,"[99999,99999]","[0,150]",left,1,1.7963,,,,,,001,2025-03-17_14h42.06.313,SL_sali,2021.2.3,Win32,60.17571308,,,85,0,85,0,1,,,,,,,,
,,"[""diamond"",""red"",""vert"",""up"",[0,150],[0,-150]]",diamond,red,vert,up,"[0,150]","[0,-150]",up,1,1.0831,,,,,,001,2025-03-17_14h42.06.313,SL_sali,2021.2.3,Win32,60.17571308,,,86,0,86,0,1,,,,,,,,
,,"[""diamond"",""red"",""vert"",""up"",[106,106],[-106,106]]",diamond,red,vert,up,"[106,106]","[-106,106]",,0,,,,,,,001,2025-03-17_14h42.06.313,SL_sali,2021.2.3,Win32,60.17571308,,,87,0,87,0,1,,,,,,,,
,,"[""diamond"",""green"",""hori"",""left"",[106,106],[0,150]]",diamond,green,hori,left,"[106,106]","[0,150]",left,1,1.1639,,,,,,001,2025-03-17_14h42.06.313,SL_sali,2021.2.3,Win32,60.17571308,,,88,0,88,0,1,,,,,,,,
,,"[""circle"",""green"",""vert"",""up"",[-106,-106],[150,0]]",circle,green,vert,up,"[-106,-106]","[150,0]",up,1,1.1332,,,,,,001,2025-03-17_14h42.06.313,SL_sali,2021.2.3,Win32,60.17571308,,,89,0,89,0,1,,,,,,,,
,,"[""diamond"",""green"",""vert"",""up"",[106,106],[150,0]]",diamond,green,vert,up,"[106,106]","[150,0]",up,1,1.4506,,,,,,001,2025-03-17_14h42.06.313,SL_sali,2021.2.3,Win32,60.17571308,,,90,0,90,0,1,,,,,,,,
,,"[""circle"",""red"",""vert"",""up"",[0,150],[-106,106]]",circle,red,vert,up,"[0,150]","[-106,106]",left,0,0.9671,,,,,,001,2025-03-17_14h42.06.313,SL_sali,2021.2.3,Win32,60.17571308,,,91,0,91,0,1,,,,,,,,
,,"[""diamond"",""red"",""hori"",""left"",[-150,0],[0,-150]]",diamond,red,hori,left,"[-150,0]","[0,-150]",left,1,1.5008,,,,,,001,2025-03-17_14h42.06.313,SL_sali,2021.2.3,Win32,60.17571308,,,92,0,92,0,1,,,,,,,,
,,"[""diamond"",""no_dis"",""hori"",""left"",[99999,99999],[106,-106]]",diamond,no_dis,hori,left,"[99999,99999]","[106,-106]",left,1,1.0924,,,,,,001,2025-03-17_14h42.06.313,SL_sali,2021.2.3,Win32,60.17571308,,,93,0,93,0,1,,,,,,,,
,,"[""diamond"",""green"",""vert"",""up"",[106,106],[-106,-106]]",diamond,green,vert,up,"[106,106]","[-106,-106]",up,1,0.8609,,,,,,001,2025-03-17_14h42.06.313,SL_sali,2021.2.3,Win32,60.17571308,,,94,0,94,0,1,,,,,,,,
,,"[""circle"",""no_dis"",""hori"",""left"",[99999,99999],[150,0]]",circle,no_dis,hori,left,"[99999,99999]","[150,0]",left,1,1.7272,,,,,,001,2025-03-17_14h42.06.313,SL_sali,2021.2.3,Win32,60.17571308,,,95,0,95,0,1,,,,,,,,
,,"[""circle"",""no_dis"",""vert"",""up"",[99999,99999],[106,106]]",circle,no_dis,vert,up,"[99999,99999]","[106,106]",up,1,1.8871,,,,,,001,2025-03-17_14h42.06.313,SL_sali,2021.2.3,Win32,60.17571308,,,96,0,96,0,1,,,,,,,,
,,"[""diamond"",""no_dis"",""hori"",""left"",[99999,99999],[-106,-106]]",diamond,no_dis,hori,left,"[99999,99999]","[-106,-106]",left,1,1.3381,,,,,,001,2025-03-17_14h42.06.313,SL_sali,2021.2.3,Win32,60.17571308,,,97,0,97,0,1,,,,,,,,
,,"[""circle"",""green"",""hori"",""left"",[-150,0],[150,0]]",circle,green,hori,left,"[-150,0]","[150,0]",left,1,1.8505,,,,,,001,2025-03-17_14h42.06.313,SL_sali,2021.2.3,Win32,60.17571308,,,98,0,98,0,1,,,,,,,,
,,"[""diamond"",""green"",""vert"",""up"",[106,106],[0,-150]]",diamond,green,vert,up,"[106,106]","[0,-150]",up,1,1.025,,,,,,001,2025-03-17_14h42.06.313,SL_sali,2021.2.3,Win32,60.17571308,,,99,0,99,0,1,,,,,,,,
,,"[""diamond"",""no_dis"",""hori"",""left"",[99999,99999],[-150,0]]",diamond,no_dis,hori,left,"[99999,99999]","[-150,0]",,0,,,,,,,001,2025-03-17_14h42.06.313,SL_sali,2021.2.3,Win32,60.17571308,,,100,0,100,0,1,,,,,,,,
,,"[""diamond"",""no_dis"",""vert"",""up"",[99999,99999],[0,150]]",diamond,no_dis,vert,up,"[99999,99999]","[0,150]",up,1,1.1235,,,,,,001,2025-03-17_14h42.06.313,SL_sali,2021.2.3,Win32,60.17571308,,,101,0,101,0,1,,,,,,,,
,,"[""circle"",""no_dis"",""hori"",""left"",[99999,99999],[150,0]]",circle,no_dis,hori,left,"[99999,99999]","[150,0]",left,1,1.3368,,,,,,001,2025-03-17_14h42.06.313,SL_sali,2021.2.3,Win32,60.17571308,,,102,0,102,0,1,,,,,,,,
,,"[""diamond"",""red"",""vert"",""up"",[-106,106],[0,-150]]",diamond,red,vert,up,"[-106,106]","[0,-150]",up,1,2.1378,,,,,,001,2025-03-17_14h42.06.313,SL_sali,2021.2.3,Win32,60.17571308,,,103,0,103,0,1,,,,,,,,
,,"[""circle"",""green"",""hori"",""left"",[-106,-106],[-106,106]]",circle,green,hori,left,"[-106,-106]","[-106,106]",left,1,2.2245,,,,,,001,2025-03-17_14h42.06.313,SL_sali,2021.2.3,Win32,60.17571308,,,104,0,104,0,1,,,,,,,,
,,"[""circle"",""red"",""vert"",""up"",[106,106],[106,-106]]",circle,red,vert,up,"[106,106]","[106,-106]",up,1,1.335,,,,,,001,2025-03-17_14h42.06.313,SL_sali,2021.2.3,Win32,60.17571308,,,105,0,105,0,1,,,,,,,,
,,"[""diamond"",""green"",""hori"",""left"",[106,106],[106,-106]]",diamond,green,hori,left,"[106,106]","[106,-106]",,0,,,,,,,001,2025-03-17_14h42.06.313,SL_sali,2021.2.3,Win32,60.17571308,,,106,0,106,0,1,,,,,,,,
,,"[""circle"",""red"",""vert"",""up"",[106,106],[150,0]]",circle,red,vert,up,"[106,106]","[150,0]",left,0,1.5303,,,,,,001,2025-03-17_14h42.06.313,SL_sali,2021.2.3,Win32,60.17571308,,,107,0,107,0,1,,,,,,,,
,,"[""circle"",""red"",""hori"",""left"",[-106,106],[150,0]]",circle,red,hori,left,"[-106,106]","[150,0]",up,0,0.7149,,,,,,001,2025-03-17_14h42.06.313,SL_sali,2021.2.3,Win32,60.17571308,,,108,0,108,0,1,,,,,,,,
,,"[""diamond"",""red"",""vert"",""up"",[-150,0],[-106,-106]]",diamond,red,vert,up,"[-150,0]","[-106,-106]",up,1,0.9399,,,,,,001,2025-03-17_14h42.06.313,SL_sali,2021.2.3,Win32,60.17571308,,,109,0,109,0,1,,,,,,,,
,,"[""circle"",""no_dis"",""hori"",""left"",[99999,99999],[-106,106]]",circle,no_dis,hori,left,"[99999,99999]","[-106,106]",left,1,1.8502,,,,,,001,2025-03-17_14h42.06.313,SL_sali,2021.2.3,Win32,60.17571308,,,110,0,110,0,1,,,,,,,,
,,"[""diamond"",""red"",""hori"",""left"",[106,-106],[0,-150]]",diamond,red,hori,left,"[106,-106]","[0,-150]",up,0,1.1837,,,,,,001,2025-03-17_14h42.06.313,SL_sali,2021.2.3,Win32,60.17571308,,,111,0,111,0,1,,,,,,,,
,,"[""circle"",""green"",""hori"",""left"",[-106,-106],[0,150]]",circle,green,hori,left,"[-106,-106]","[0,150]",left,1,1.7604,,,,,,001,2025-03-17_14h42.06.313,SL_sali,2021.2.3,Win32,60.17571308,,,112,0,112,0,1,,,,,,,,
,,"[""circle"",""green"",""hori"",""left"",[150,0],[-106,-106]]",circle,green,hori,left,"[150,0]","[-106,-106]",left,1,0.9097,,,,,,001,2025-03-17_14h42.06.313,SL_sali,2021.2.3,Win32,60.17571308,,,113,0,113,0,1,,,,,,,,
,,"[""circle"",""red"",""hori"",""left"",[106,106],[-106,106]]",circle,red,hori,left,"[106,106]","[-106,106]",left,1,1.0205,,,,,,001,2025-03-17_14h42.06.313,SL_sali,2021.2.3,Win32,60.17571308,,,114,0,114,0,1,,,,,,,,
,,"[""circle"",""no_dis"",""vert"",""up"",[99999,99999],[0,-150]]",circle,no_dis,vert,up,"[99999,99999]","[0,-150]",up,1,1.7828,,,,,,001,2025-03-17_14h42.06.313,SL_sali,2021.2.3,Win32,60.17571308,,,115,0,115,0,1,,,,,,,,
,,"[""circle"",""no_dis"",""vert"",""up"",[99999,99999],[-106,-106]]",circle,no_dis,vert,up,"[99999,99999]","[-106,-106]",up,1,0.7101,,,,,,001,2025-03-17_14h42.06.313,SL_sali,2021.2.3,Win32,60.17571308,,,116,0,116,0,1,,,,,,,,
,,"[""diamond"",""green"",""hori"",""left"",[150,0],[106,-106]]",diamond,green,hori,left,"[150,0]","[106,-106]",left,1,1.3267,,,,,,001,2025-03-17_14h42.06.313,SL_sali,2021.2.3,Win32,60.17571308,,,117,0,117,0,1,,,,,,,,
,,"[""circle"",""green"",""vert"",""up"",[0,150],[-150,0]]",circle,green,vert,up,"[0,150]","[-150,0]",up,1,1.1357,,,,,,001,2025-03-17_14h42.06.313,SL_sali,2021.2.3,Win32,60.17571308,,,118,0,118,0,1,,,,,,,,
,,"[""circle"",""green"",""vert"",""up"",[106,-106],[-150,0]]",circle,green,vert,up,"[106,-106]","[-150,0]",up,1,0.8849,,,,,,001,2025-03-17_14h42.06.313,SL_sali,2021.2.3,Win32,60.17571308,,,119,0,119,0,1,,,,,,,,
,,,,,,,,,,,,,,,,,001,2025-03-17_14h42.06.313,SL_sali,2021.2.3,Win32,60.17571308,,,,,,,,1,space,2.8574,0,0,0,0,1
,,"[""circle"",""no_dis"",""vert"",""up"",[99999,99999],[-150,0]]",circle,no_dis,vert,up,"[99999,99999]","[-150,0]",up,1,1.2813,,,,,,001,2025-03-17_14h42.06.313,SL_sali,2021.2.3,Win32,60.17571308,,,0,0,0,0,1,,,,,,,,
,,"[""circle"",""red"",""vert"",""up"",[0,150],[-106,106]]",circle,red,vert,up,"[0,150]","[-106,106]",up,1,1.0275,,,,,,001,2025-03-17_14h42.06.313,SL_sali,2021.2.3,Win32,60.17571308,,,1,0,1,0,1,,,,,,,,
,,"[""diamond"",""red"",""hori"",""left"",[106,-106],[0,150]]",diamond,red,hori,left,"[106,-106]","[0,150]",left,1,0.9742,,,,,,001,2025-03-17_14h42.06.313,SL_sali,2021.2.3,Win32,60.17571308,,,2,0,2,0,1,,,,,,,,
,,"[""diamond"",""green"",""hori"",""left"",[106,106],[-106,-106]]",diamond,green,hori,left,"[106,106]","[-106,-106]",left,1,2.1225,,,,,,001,2025-03-17_14h42.06.313,SL_sali,2021.2.3,Win32,60.17571308,,,3,0,3,0,1,,,,,,,,
,,"[""diamond"",""green"",""vert"",""up"",[150,0],[106,-106]]",diamond,green,vert,up,"[150,0]","[106,-106]",up,1,1.0342,,,,,,001,2025-03-17_14h42.06.313,SL_sali,2021.2.3,Win32,60.17571308,,,4,0,4,0,1,,,,,,,,
,,"[""diamond"",""no_dis"",""hori"",""left"",[99999,99999],[-106,-106]]",diamond,no_dis,hori,left,"[99999,99999]","[-106,-106]",left,1,0.7408,,,,,,001,2025-03-17_14h42.06.313,SL_sali,2021.2.3,Win32,60.17571308,,,5,0,5,0,1,,,,,,,,
,,"[""circle"",""no_dis"",""hori"",""left"",[99999,99999],[-106,106]]",circle,no_dis,hori,left,"[99999,99999]","[-106,106]",up,0,1.5796,,,,,,001,2025-03-17_14h42.06.313,SL_sali,2021.2.3,Win32,60.17571308,,,6,0,6,0,1,,,,,,,,
,,"[""diamond"",""no_dis"",""hori"",""left"",[99999,99999],[-150,0]]",diamond,no_dis,hori,left,"[99999,99999]","[-150,0]",left,1,0.6839,,,,,,001,2025-03-17_14h42.06.313,SL_sali,2021.2.3,Win32,60.17571308,,,7,0,7,0,1,,,,,,,,
,,"[""diamond"",""no_dis"",""hori"",""left"",[99999,99999],[-106,106]]",diamond,no_dis,hori,left,"[99999,99999]","[-106,106]",left,1,1.6837,,,,,,001,2025-03-17_14h42.06.313,SL_sali,2021.2.3,Win32,60.17571308,,,8,0,8,0,1,,,,,,,,
,,"[""diamond"",""no_dis"",""hori"",""left"",[99999,99999],[-150,0]]",diamond,no_dis,hori,left,"[99999,99999]","[-150,0]",left,1,1.3176,,,,,,001,2025-03-17_14h42.06.313,SL_sali,2021.2.3,Win32,60.17571308,,,9,0,9,0,1,,,,,,,,
,,"[""diamond"",""green"",""hori"",""left"",[-106,106],[106,106]]",diamond,green,hori,left,"[-106,106]","[106,106]",up,0,1.7508,,,,,,001,2025-03-17_14h42.06.313,SL_sali,2021.2.3,Win32,60.17571308,,,10,0,10,0,1,,,,,,,,
,,"[""circle"",""red"",""vert"",""up"",[150,0],[-106,106]]",circle,red,vert,up,"[150,0]","[-106,106]",up,1,0.7177,,,,,,001,2025-03-17_14h42.06.313,SL_sali,2021.2.3,Win32,60.17571308,,,11,0,11,0,1,,,,,,,,
,,"[""circle"",""no_dis"",""hori"",""left"",[99999,99999],[-106,-106]]",circle,no_dis,hori,left,"[99999,99999]","[-106,-106]",,0,,,,,,,001,2025-03-17_14h42.06.313,SL_sali,2021.2.3,Win32,60.17571308,,,12,0,12,0,1,,,,,,,,
,,"[""circle"",""red"",""vert"",""up"",[106,106],[106,-106]]",circle,red,vert,up,"[106,106]","[106,-106]",up,1,1.4693,,,,,,001,2025-03-17_14h42.06.313,SL_sali,2021.2.3,Win32,60.17571308,,,13,0,13,0,1,,,,,,,,
,,"[""diamond"",""green"",""hori"",""left"",[106,106],[0,150]]",diamond,green,hori,left,"[106,106]","[0,150]",left,1,2.3085,,,,,,001,2025-03-17_14h42.06.313,SL_sali,2021.2.3,Win32,60.17571308,,,14,0,14,0,1,,,,,,,,
,,"[""diamond"",""no_dis"",""vert"",""up"",[99999,99999],[-150,0]]",diamond,no_dis,vert,up,"[99999,99999]","[-150,0]",up,1,1.0543,,,,,,001,2025-03-17_14h42.06.313,SL_sali,2021.2.3,Win32,60.17571308,,,15,0,15,0,1,,,,,,,,
,,"[""circle"",""green"",""hori"",""left"",[150,0],[-106,106]]",circle,green,hori,left,"[150,0]","[-106,106]",,0,,,,,,,001,2025-03-17_14h42.06.313,SL_sali,2021.2.3,Win32,60.17571308,,,16,0,16,0,1,,,,,,,,
,,"[""circle"",""green"",""vert"",""up"",[-106,-106],[150,0]]",circle,green,vert,up,"[-106,-106]","[150,0]",up,1,2.9416,,,,,,001,2025-03-17_14h42.06.313,SL_sali,2021.2.3,Win32,60.17571308,,,17,0,17,0,1,,,,,,,,
,,"[""circle"",""no_dis"",""vert"",""up"",[99999,99999],[0,-150]]",circle,no_dis,vert,up,"[99999,99999]","[0,-150]",up,1,2.8608,,,,,,001,2025-03-17_14h42.06.313,SL_sali,2021.2.3,Win32,60.17571308,,,18,0,18,0,1,,,,,,,,
,,"[""circle"",""no_dis"",""hori"",""left"",[99999,99999],[150,0]]",circle,no_dis,hori,left,"[99999,99999]","[150,0]",left,1,2.9416,,,,,,001,2025-03-17_14h42.06.313,SL_sali,2021.2.3,Win32,60.17571308,,,19,0,19,0,1,,,,,,,,
,,"[""circle"",""red"",""vert"",""up"",[-106,106],[0,-150]]",circle,red,vert,up,"[-106,106]","[0,-150]",up,1,2.3982,,,,,,001,2025-03-17_14h42.06.313,SL_sali,2021.2.3,Win32,60.17571308,,,20,0,20,0,1,,,,,,,,
,,"[""circle"",""no_dis"",""vert"",""up"",[99999,99999],[0,-150]]",circle,no_dis,vert,up,"[99999,99999]","[0,-150]",up,1,0.8967,,,,,,001,2025-03-17_14h42.06.313,SL_sali,2021.2.3,Win32,60.17571308,,,21,0,21,0,1,,,,,,,,
,,"[""circle"",""no_dis"",""vert"",""up"",[99999,99999],[-106,-106]]",circle,no_dis,vert,up,"[99999,99999]","[-106,-106]",up,1,0.8022,,,,,,001,2025-03-17_14h42.06.313,SL_sali,2021.2.3,Win32,60.17571308,,,22,0,22,0,1,,,,,,,,
,,"[""circle"",""no_dis"",""hori"",""left"",[99999,99999],[150,0]]",circle,no_dis,hori,left,"[99999,99999]","[150,0]",left,1,1.1771,,,,,,001,2025-03-17_14h42.06.313,SL_sali,2021.2.3,Win32,60.17571308,,,23,0,23,0,1,,,,,,,,
,,"[""diamond"",""no_dis"",""vert"",""up"",[99999,99999],[-150,0]]",diamond,no_dis,vert,up,"[99999,99999]","[-150,0]",up,1,0.7645,,,,,,001,2025-03-17_14h42.06.313,SL_sali,2021.2.3,Win32,60.17571308,,,24,0,24,0,1,,,,,,,,
,,"[""circle"",""green"",""vert"",""up"",[106,106],[106,-106]]",circle,green,vert,up,"[106,106]","[106,-106]",up,1,0.8672,,,,,,001,2025-03-17_14h42.06.313,SL_sali,2021.2.3,Win32,60.17571308,,,25,0,25,0,1,,,,,,,,
,,"[""circle"",""no_dis"",""hori"",""left"",[99999,99999],[106,106]]",circle,no_dis,hori,left,"[99999,99999]","[106,106]",left,1,0.9672,,,,,,001,2025-03-17_14h42.06.313,SL_sali,2021.2.3,Win32,60.17571308,,,26,0,26,0,1,,,,,,,,
,,"[""diamond"",""no_dis"",""hori"",""left"",[99999,99999],[0,150]]",diamond,no_dis,hori,left,"[99999,99999]","[0,150]",left,1,1.5505,,,,,,001,2025-03-17_14h42.06.313,SL_sali,2021.2.3,Win32,60.17571308,,,27,0,27,0,1,,,,,,,,
,,"[""diamond"",""no_dis"",""vert"",""up"",[99999,99999],[-106,-106]]",diamond,no_dis,vert,up,"[99999,99999]","[-106,-106]",up,1,1.0363,,,,,,001,2025-03-17_14h42.06.313,SL_sali,2021.2.3,Win32,60.17571308,,,28,0,28,0,1,,,,,,,,
,,"[""diamond"",""red"",""hori"",""left"",[150,0],[-106,-106]]",diamond,red,hori,left,"[150,0]","[-106,-106]",left,1,0.8413,,,,,,001,2025-03-17_14h42.06.313,SL_sali,2021.2.3,Win32,60.17571308,,,29,0,29,0,1,,,,,,,,
,,"[""diamond"",""no_dis"",""vert"",""up"",[99999,99999],[106,106]]",diamond,no_dis,vert,up,"[99999,99999]","[106,106]",up,1,1.8192,,,,,,001,2025-03-17_14h42.06.313,SL_sali,2021.2.3,Win32,60.17571308,,,30,0,30,0,1,,,,,,,,
,,"[""diamond"",""green"",""hori"",""left"",[0,150],[106,106]]",diamond,green,hori,left,"[0,150]","[106,106]",left,1,1.1263,,,,,,001,2025-03-17_14h42.06.313,SL_sali,2021.2.3,Win32,60.17571308,,,31,0,31,0,1,,,,,,,,
,,"[""circle"",""no_dis"",""vert"",""up"",[99999,99999],[106,106]]",circle,no_dis,vert,up,"[99999,99999]","[106,106]",up,1,0.8758,,,,,,001,2025-03-17_14h42.06.313,SL_sali,2021.2.3,Win32,60.17571308,,,32,0,32,0,1,,,,,,,,
,,"[""diamond"",""green"",""vert"",""up"",[0,150],[-106,106]]",diamond,green,vert,up,"[0,150]","[-106,106]",up,1,1.4043,,,,,,001,2025-03-17_14h42.06.313,SL_sali,2021.2.3,Win32,60.17571308,,,33,0,33,0,1,,,,,,,,
,,"[""diamond"",""no_dis"",""vert"",""up"",[99999,99999],[106,106]]",diamond,no_dis,vert,up,"[99999,99999]","[106,106]",up,1,0.8172,,,,,,001,2025-03-17_14h42.06.313,SL_sali,2021.2.3,Win32,60.17571308,,,34,0,34,0,1,,,,,,,,
,,"[""circle"",""red"",""vert"",""up"",[106,106],[-150,0]]",circle,red,vert,up,"[106,106]","[-150,0]",up,1,1.1505,,,,,,001,2025-03-17_14h42.06.313,SL_sali,2021.2.3,Win32,60.17571308,,,35,0,35,0,1,,,,,,,,
,,"[""diamond"",""no_dis"",""vert"",""up"",[99999,99999],[106,-106]]",diamond,no_dis,vert,up,"[99999,99999]","[106,-106]",up,1,2.8398,,,,,,001,2025-03-17_14h42.06.313,SL_sali,2021.2.3,Win32,60.17571308,,,36,0,36,0,1,,,,,,,,
,,"[""diamond"",""green"",""hori"",""left"",[106,106],[106,-106]]",diamond,green,hori,left,"[106,106]","[106,-106]",left,1,2.4732,,,,,,001,2025-03-17_14h42.06.313,SL_sali,2021.2.3,Win32,60.17571308,,,37,0,37,0,1,,,,,,,,
,,"[""circle"",""green"",""hori"",""left"",[-106,-106],[0,150]]",circle,green,hori,left,"[-106,-106]","[0,150]",up,0,2.8583,,,,,,001,2025-03-17_14h42.06.313,SL_sali,2021.2.3,Win32,60.17571308,,,38,0,38,0,1,,,,,,,,
,,"[""circle"",""green"",""hori"",""left"",[-150,0],[150,0]]",circle,green,hori,left,"[-150,0]","[150,0]",left,1,0.6788,,,,,,001,2025-03-17_14h42.06.313,SL_sali,2021.2.3,Win32,60.17571308,,,39,0,39,0,1,,,,,,,,
,,"[""diamond"",""green"",""vert"",""up"",[-106,-106],[106,-106]]",diamond,green,vert,up,"[-106,-106]","[106,-106]",up,1,1.2006,,,,,,001,2025-03-17_14h42.06.313,SL_sali,2021.2.3,Win32,60.17571308,,,40,0,40,0,1,,,,,,,,
,,"[""diamond"",""no_dis"",""hori"",""left"",[99999,99999],[106,-106]]",diamond,no_dis,hori,left,"[99999,99999]","[106,-106]",left,1,2.1352,,,,,,001,2025-03-17_14h42.06.313,SL_sali,2021.2.3,Win32,60.17571308,,,41,0,41,0,1,,,,,,,,
,,"[""circle"",""red"",""vert"",""up"",[106,106],[150,0]]",circle,red,vert,up,"[106,106]","[150,0]",up,1,1.0301,,,,,,001,2025-03-17_14h42.06.313,SL_sali,2021.2.3,Win32,60.17571308,,,42,0,42,0,1,,,,,,,,
,,"[""circle"",""no_dis"",""vert"",""up"",[99999,99999],[106,106]]",circle,no_dis,vert,up,"[99999,99999]","[106,106]",up,1,0.7404,,,,,,001,2025-03-17_14h42.06.313,SL_sali,2021.2.3,Win32,60.17571308,,,43,0,43,0,1,,,,,,,,
,,"[""circle"",""green"",""hori"",""left"",[0,150],[106,-106]]",circle,green,hori,left,"[0,150]","[106,-106]",left,1,0.8254,,,,,,001,2025-03-17_14h42.06.313,SL_sali,2021.2.3,Win32,60.17571308,,,44,0,44,0,1,,,,,,,,
,,"[""diamond"",""red"",""hori"",""left"",[0,-150],[106,-106]]",diamond,red,hori,left,"[0,-150]","[106,-106]",left,1,1.9506,,,,,,001,2025-03-17_14h42.06.313,SL_sali,2021.2.3,Win32,60.17571308,,,45,0,45,0,1,,,,,,,,
,,"[""diamond"",""red"",""vert"",""up"",[150,0],[0,150]]",diamond,red,vert,up,"[150,0]","[0,150]",up,1,1.1881,,,,,,001,2025-03-17_14h42.06.313,SL_sali,2021.2.3,Win32,60.17571308,,,46,0,46,0,1,,,,,,,,
,,"[""circle"",""green"",""hori"",""left"",[106,-106],[150,0]]",circle,green,hori,left,"[106,-106]","[150,0]",left,1,1.0336,,,,,,001,2025-03-17_14h42.06.313,SL_sali,2021.2.3,Win32,60.17571308,,,47,0,47,0,1,,,,,,,,
,,"[""circle"",""red"",""vert"",""up"",[-150,0],[0,150]]",circle,red,vert,up,"[-150,0]","[0,150]",up,1,2.0505,,,,,,001,2025-03-17_14h42.06.313,SL_sali,2021.2.3,Win32,60.17571308,,,48,0,48,0,1,,,,,,,,
,,"[""circle"",""green"",""vert"",""up"",[0,150],[-150,0]]",circle,green,vert,up,"[0,150]","[-150,0]",up,1,1.2347,,,,,,001,2025-03-17_14h42.06.313,SL_sali,2021.2.3,Win32,60.17571308,,,49,0,49,0,1,,,,,,,,
,,"[""diamond"",""red"",""vert"",""up"",[-106,106],[0,-150]]",diamond,red,vert,up,"[-106,106]","[0,-150]",,0,,,,,,,001,2025-03-17_14h42.06.313,SL_sali,2021.2.3,Win32,60.17571308,,,50,0,50,0,1,,,,,,,,
,,"[""diamond"",""no_dis"",""hori"",""left"",[99999,99999],[0,150]]",diamond,no_dis,hori,left,"[99999,99999]","[0,150]",left,1,0.8419,,,,,,001,2025-03-17_14h42.06.313,SL_sali,2021.2.3,Win32,60.17571308,,,51,0,51,0,1,,,,,,,,
,,"[""diamond"",""red"",""hori"",""left"",[106,-106],[0,-150]]",diamond,red,hori,left,"[106,-106]","[0,-150]",left,1,1.6285,,,,,,001,2025-03-17_14h42.06.313,SL_sali,2021.2.3,Win32,60.17571308,,,52,0,52,0,1,,,,,,,,
,,"[""diamond"",""green"",""hori"",""left"",[0,-150],[-106,-106]]",diamond,green,hori,left,"[0,-150]","[-106,-106]",left,1,1.3338,,,,,,001,2025-03-17_14h42.06.313,SL_sali,2021.2.3,Win32,60.17571308,,,53,0,53,0,1,,,,,,,,
,,"[""circle"",""red"",""vert"",""up"",[-106,-106],[-106,106]]",circle,red,vert,up,"[-106,-106]","[-106,106]",up,1,1.9638,,,,,,001,2025-03-17_14h42.06.313,SL_sali,2021.2.3,Win32,60.17571308,,,54,0,54,0,1,,,,,,,,
,,"[""circle"",""no_dis"",""vert"",""up"",[99999,99999],[106,-106]]",circle,no_dis,vert,up,"[99999,99999]","[106,-106]",up,1,0.9288,,,,,,001,2025-03-17_14h42.06.313,SL_sali,2021.2.3,Win32,60.17571308,,,55,0,55,0,1,,,,,,,,
,,"[""diamond"",""red"",""hori"",""left"",[106,106],[0,150]]",diamond,red,hori,left,"[106,106]","[0,150]",,0,,,,,,,001,2025-03-17_14h42.06.313,SL_sali,2021.2.3,Win32,60.17571308,,,56,0,56,0,1,,,,,,,,
,,"[""diamond"",""green"",""hori"",""left"",[-106,106],[106,-106]]",diamond,green,hori,left,"[-106,106]","[106,-106]",left,1,0.6334,,,,,,001,2025-03-17_14h42.06.313,SL_sali,2021.2.3,Win32,60.17571308,,,57,0,57,0,1,,,,,,,,
,,"[""circle"",""green"",""vert"",""up"",[0,-150],[-106,106]]",circle,green,vert,up,"[0,-150]","[-106,106]",up,1,1.0587,,,,,,001,2025-03-17_14h42.06.313,SL_sali,2021.2.3,Win32,60.17571308,,,58,0,58,0,1,,,,,,,,
,,"[""circle"",""red"",""hori"",""left"",[106,106],[0,150]]",circle,red,hori,left,"[106,106]","[0,150]",left,1,2.6838,,,,,,001,2025-03-17_14h42.06.313,SL_sali,2021.2.3,Win32,60.17571308,,,59,0,59,0,1,,,,,,,,
,,"[""diamond"",""no_dis"",""vert"",""up"",[99999,99999],[106,-106]]",diamond,no_dis,vert,up,"[99999,99999]","[106,-106]",up,1,1.9259,,,,,,001,2025-03-17_14h42.06.313,SL_sali,2021.2.3,Win32,60.17571308,,,60,0,60,0,1,,,,,,,,
,,"[""diamond"",""red"",""vert"",""up"",[106,106],[0,150]]",diamond,red,vert,up,"[106,106]","[0,150]",up,1,1.8512,,,,,,001,2025-03-17_14h42.06.313,SL_sali,2021.2.3,Win32,60.17571308,,,61,0,61,0,1,,,,,,,,
,,"[""circle"",""red"",""hori"",""left"",[0,-150],[150,0]]",circle,red,hori,left,"[0,-150]","[150,0]",,0,,,,,,,001,2025-03-17_14h42.06.313,SL_sali,2021.2.3,Win32,60.17571308,,,62,0,62,0,1,,,,,,,,
,,"[""circle"",""green"",""hori"",""left"",[0,-150],[-106,-106]]",circle,green,hori,left,"[0,-150]","[-106,-106]",left,1,2.667,,,,,,001,2025-03-17_14h42.06.313,SL_sali,2021.2.3,Win32,60.17571308,,,63,0,63,0,1,,,,,,,,
,,"[""diamond"",""green"",""vert"",""up"",[106,106],[-106,-106]]",diamond,green,vert,up,"[106,106]","[-106,-106]",up,1,1.827,,,,,,001,2025-03-17_14h42.06.313,SL_sali,2021.2.3,Win32,60.17571308,,,64,0,64,0,1,,,,,,,,
,,"[""circle"",""no_dis"",""hori"",""left"",[99999,99999],[150,0]]",circle,no_dis,hori,left,"[99999,99999]","[150,0]",left,1,1.634,,,,,,001,2025-03-17_14h42.06.313,SL_sali,2021.2.3,Win32,60.17571308,,,65,0,65,0,1,,,,,,,,
,,"[""diamond"",""red"",""vert"",""up"",[106,-106],[150,0]]",diamond,red,vert,up,"[106,-106]","[150,0]",up,1,1.8338,,,,,,001,2025-03-17_14h42.06.313,SL_sali,2021.2.3,Win32,60.17571308,,,66,0,66,0,1,,,,,,,,
,,"[""circle"",""red"",""hori"",""left"",[-106,106],[-150,0]]",circle,red,hori,left,"[-106,106]","[-150,0]",left,1,1.5134,,,,,,001,2025-03-17_14h42.06.313,SL_sali,2021.2.3,Win32,60.17571308,,,67,0,67,0,1,,,,,,,,
,,"[""diamond"",""red"",""hori"",""left"",[106,106],[-106,106]]",diamond,red,hori,left,"[106,106]","[-106,106]",left,1,1.1694,,,,,,001,2025-03-17_14h42.06.313,SL_sali,2021.2.3,Win32,60.17571308,,,68,0,68,0,1,,,,,,,,
,,"[""diamond"",""green"",""vert"",""up"",[106,106],[106,-106]]",diamond,green,vert,up,"[106,106]","[106,-106]",up,1,1.6007,,,,,,001,2025-03-17_14h42.06.313,SL_sali,2021.2.3,Win32,60.17571308,,,69,0,69,0,1,,,,,,,,
,,"[""diamond"",""no_dis"",""hori"",""left"",[99999,99999],[-106,106]]",diamond,no_dis,hori,left,"[99999,99999]","[-106,106]",left,1,0.7305,,,,,,001,2025-03-17_14h42.06.313,SL_sali,2021.2.3,Win32,60.17571308,,,70,0,70,0,1,,,,,,,,
,,"[""circle"",""no_dis"",""hori"",""left"",[99999,99999],[-106,106]]",circle,no_dis,hori,left,"[99999,99999]","[-106,106]",left,1,1.0274,,,,,,001,2025-03-17_14h42.06.313,SL_sali,2021.2.3,Win32,60.17571308,,,71,0,71,0,1,,,,,,,,
,,"[""circle"",""no_dis"",""vert"",""up"",[99999,99999],[0,-150]]",circle,no_dis,vert,up,"[99999,99999]","[0,-150]",up,1,1.7753,,,,,,001,2025-03-17_14h42.06.313,SL_sali,2021.2.3,Win32,60.17571308,,,72,0,72,0,1,,,,,,,,
,,"[""diamond"",""red"",""hori"",""left"",[106,106],[-150,0]]",diamond,red,hori,left,"[106,106]","[-150,0]",left,1,1.4223,,,,,,001,2025-03-17_14h42.06.313,SL_sali,2021.2.3,Win32,60.17571308,,,73,0,73,0,1,,,,,,,,
,,"[""diamond"",""red"",""vert"",""up"",[106,106],[-106,106]]",diamond,red,vert,up,"[106,106]","[-106,106]",up,1,1.402,,,,,,001,2025-03-17_14h42.06.313,SL_sali,2021.2.3,Win32,60.17571308,,,74,0,74,0,1,,,,,,,,
,,"[""diamond"",""green"",""vert"",""up"",[106,106],[0,-150]]",diamond,green,vert,up,"[106,106]","[0,-150]",up,1,1.8413,,,,,,001,2025-03-17_14h42.06.313,SL_sali,2021.2.3,Win32,60.17571308,,,75,0,75,0,1,,,,,,,,
,,"[""diamond"",""red"",""vert"",""up"",[-106,-106],[150,0]]",diamond,red,vert,up,"[-106,-106]","[150,0]",up,1,1.4173,,,,,,001,2025-03-17_14h42.06.313,SL_sali,2021.2.3,Win32,60.17571308,,,76,0,76,0,1,,,,,,,,
,,"[""diamond"",""no_dis"",""hori"",""left"",[99999,99999],[150,0]]",diamond,no_dis,hori,left,"[99999,99999]","[150,0]",left,1,1.0459,,,,,,001,2025-03-17_14h42.06.313,SL_sali,2021.2.3,Win32,60.17571308,,,77,0,77,0,1,,,,,,,,
,,"[""diamond"",""red"",""hori"",""left"",[-150,0],[0,-150]]",diamond,red,hori,left,"[-150,0]","[0,-150]",left,1,1.071,,,,,,001,2025-03-17_14h42.06.313,SL_sali,2021.2.3,Win32,60.17571308,,,78,0,78,0,1,,,,,,,,
,,"[""circle"",""red"",""vert"",""up"",[106,106],[150,0]]",circle,red,vert,up,"[106,106]","[150,0]",up,1,2.3432,,,,,,001,2025-03-17_14h42.06.313,SL_sali,2021.2.3,Win32,60.17571308,,,79,0,79,0,1,,,,,,,,
,,"[""diamond"",""no_dis"",""vert"",""up"",[99999,99999],[106,-106]]",diamond,no_dis,vert,up,"[99999,99999]","[106,-106]",up,1,0.9999,,,,,,001,2025-03-17_14h42.06.313,SL_sali,2021.2.3,Win32,60.17571308,,,80,0,80,0,1,,,,,,,,
,,"[""diamond"",""red"",""vert"",""up"",[-150,0],[-106,-106]]",diamond,red,vert,up,"[-150,0]","[-106,-106]",left,0,0.988,,,,,,001,2025-03-17_14h42.06.313,SL_sali,2021.2.3,Win32,60.17571308,,,81,0,81,0,1,,,,,,,,
,,"[""diamond"",""green"",""hori"",""left"",[106,106],[106,-106]]",diamond,green,hori,left,"[106,106]","[106,-106]",left,1,1.0341,,,,,,001,2025-03-17_14h42.06.313,SL_sali,2021.2.3,Win32,60.17571308,,,82,0,82,0,1,,,,,,,,
,,"[""circle"",""red"",""hori"",""left"",[0,150],[106,106]]",circle,red,hori,left,"[0,150]","[106,106]",left,1,1.1336,,,,,,001,2025-03-17_14h42.06.313,SL_sali,2021.2.3,Win32,60.17571308,,,83,0,83,0,1,,,,,,,,
,,"[""circle"",""green"",""hori"",""left"",[-150,0],[150,0]]",circle,green,hori,left,"[-150,0]","[150,0]",left,1,1.2202,,,,,,001,2025-03-17_14h42.06.313,SL_sali,2021.2.3,Win32,60.17571308,,,84,0,84,0,1,,,,,,,,
,,"[""circle"",""red"",""hori"",""left"",[106,-106],[150,0]]",circle,red,hori,left,"[106,-106]","[150,0]",left,1,0.8896,,,,,,001,2025-03-17_14h42.06.313,SL_sali,2021.2.3,Win32,60.17571308,,,85,0,85,0,1,,,,,,,,
,,"[""diamond"",""red"",""vert"",""up"",[106,-106],[-150,0]]",diamond,red,vert,up,"[106,-106]","[-150,0]",up,1,1.0186,,,,,,001,2025-03-17_14h42.06.313,SL_sali,2021.2.3,Win32,60.17571308,,,86,0,86,0,1,,,,,,,,
,,"[""diamond"",""no_dis"",""vert"",""up"",[99999,99999],[-106,-106]]",diamond,no_dis,vert,up,"[99999,99999]","[-106,-106]",up,1,1.0476,,,,,,001,2025-03-17_14h42.06.313,SL_sali,2021.2.3,Win32,60.17571308,,,87,0,87,0,1,,,,,,,,
,,"[""diamond"",""green"",""hori"",""left"",[150,0],[106,-106]]",diamond,green,hori,left,"[150,0]","[106,-106]",left,1,1.1225,,,,,,001,2025-03-17_14h42.06.313,SL_sali,2021.2.3,Win32,60.17571308,,,88,0,88,0,1,,,,,,,,
,,"[""circle"",""green"",""vert"",""up"",[0,-150],[150,0]]",circle,green,vert,up,"[0,-150]","[150,0]",up,1,1.819,,,,,,001,2025-03-17_14h42.06.313,SL_sali,2021.2.3,Win32,60.17571308,,,89,0,89,0,1,,,,,,,,
,,"[""diamond"",""red"",""vert"",""up"",[-150,0],[106,106]]",diamond,red,vert,up,"[-150,0]","[106,106]",up,1,1.1102,,,,,,001,2025-03-17_14h42.06.313,SL_sali,2021.2.3,Win32,60.17571308,,,90,0,90,0,1,,,,,,,,
,,"[""circle"",""no_dis"",""hori"",""left"",[99999,99999],[0,-150]]",circle,no_dis,hori,left,"[99999,99999]","[0,-150]",left,1,1.6007,,,,,,001,2025-03-17_14h42.06.313,SL_sali,2021.2.3,Win32,60.17571308,,,91,0,91,0,1,,,,,,,,
,,"[""circle"",""green"",""vert"",""up"",[106,106],[106,-106]]",circle,green,vert,up,"[106,106]","[106,-106]",up,1,1.5257,,,,,,001,2025-03-17_14h42.06.313,SL_sali,2021.2.3,Win32,60.17571308,,,92,0,92,0,1,,,,,,,,
,,"[""diamond"",""red"",""vert"",""up"",[0,150],[0,-150]]",diamond,red,vert,up,"[0,150]","[0,-150]",up,1,1.2268,,,,,,001,2025-03-17_14h42.06.313,SL_sali,2021.2.3,Win32,60.17571308,,,93,0,93,0,1,,,,,,,,
,,"[""circle"",""green"",""vert"",""up"",[106,106],[0,-150]]",circle,green,vert,up,"[106,106]","[0,-150]",up,1,2.5567,,,,,,001,2025-03-17_14h42.06.313,SL_sali,2021.2.3,Win32,60.17571308,,,94,0,94,0,1,,,,,,,,
,,"[""circle"",""red"",""hori"",""left"",[106,106],[-106,106]]",circle,red,hori,left,"[106,106]","[-106,106]",left,1,2.4906,,,,,,001,2025-03-17_14h42.06.313,SL_sali,2021.2.3,Win32,60.17571308,,,95,0,95,0,1,,,,,,,,
,,"[""circle"",""green"",""vert"",""up"",[106,-106],[-150,0]]",circle,green,vert,up,"[106,-106]","[-150,0]",,0,,,,,,,001,2025-03-17_14h42.06.313,SL_sali,2021.2.3,Win32,60.17571308,,,96,0,96,0,1,,,,,,,,
,,"[""diamond"",""green"",""vert"",""up"",[0,150],[106,106]]",diamond,green,vert,up,"[0,150]","[106,106]",up,1,0.9456,,,,,,001,2025-03-17_14h42.06.313,SL_sali,2021.2.3,Win32,60.17571308,,,97,0,97,0,1,,,,,,,,
,,"[""diamond"",""green"",""vert"",""up"",[106,106],[150,0]]",diamond,green,vert,up,"[106,106]","[150,0]",up,1,1.9375,,,,,,001,2025-03-17_14h42.06.313,SL_sali,2021.2.3,Win32,60.17571308,,,98,0,98,0,1,,,,,,,,
,,"[""diamond"",""red"",""hori"",""left"",[-106,-106],[106,-106]]",diamond,red,hori,left,"[-106,-106]","[106,-106]",up,0,2.7587,,,,,,001,2025-03-17_14h42.06.313,SL_sali,2021.2.3,Win32,60.17571308,,,99,0,99,0,1,,,,,,,,
,,"[""diamond"",""no_dis"",""vert"",""up"",[99999,99999],[0,150]]",diamond,no_dis,vert,up,"[99999,99999]","[0,150]",,0,,,,,,,001,2025-03-17_14h42.06.313,SL_sali,2021.2.3,Win32,60.17571308,,,100,0,100,0,1,,,,,,,,
,,"[""circle"",""green"",""hori"",""left"",[150,0],[-106,-106]]",circle,green,hori,left,"[150,0]","[-106,-106]",left,1,0.7962,,,,,,001,2025-03-17_14h42.06.313,SL_sali,2021.2.3,Win32,60.17571308,,,101,0,101,0,1,,,,,,,,
,,"[""circle"",""no_dis"",""vert"",""up"",[99999,99999],[150,0]]",circle,no_dis,vert,up,"[99999,99999]","[150,0]",up,1,0.9274,,,,,,001,2025-03-17_14h42.06.313,SL_sali,2021.2.3,Win32,60.17571308,,,102,0,102,0,1,,,,,,,,
,,"[""circle"",""no_dis"",""vert"",""up"",[99999,99999],[0,150]]",circle,no_dis,vert,up,"[99999,99999]","[0,150]",up,1,1.2672,,,,,,001,2025-03-17_14h42.06.313,SL_sali,2021.2.3,Win32,60.17571308,,,103,0,103,0,1,,,,,,,,
,,"[""circle"",""no_dis"",""hori"",""left"",[99999,99999],[0,150]]",circle,no_dis,hori,left,"[99999,99999]","[0,150]",left,1,0.9778,,,,,,001,2025-03-17_14h42.06.313,SL_sali,2021.2.3,Win32,60.17571308,,,104,0,104,0,1,,,,,,,,
,,"[""circle"",""red"",""vert"",""up"",[0,-150],[-106,106]]",circle,red,vert,up,"[0,-150]","[-106,106]",up,1,0.9839,,,,,,001,2025-03-17_14h42.06.313,SL_sali,2021.2.3,Win32,60.17571308,,,105,0,105,0,1,,,,,,,,
,,"[""diamond"",""green"",""hori"",""left"",[106,106],[0,150]]",diamond,green,hori,left,"[106,106]","[0,150]",left,1,1.724,,,,,,001,2025-03-17_14h42.06.313,SL_sali,2021.2.3,Win32,60.17571308,,,106,0,106,0,1,,,,,,,,
,,"[""circle"",""no_dis"",""hori"",""left"",[99999,99999],[0,-150]]",circle,no_dis,hori,left,"[99999,99999]","[0,-150]",left,1,1.6758,,,,,,001,2025-03-17_14h42.06.313,SL_sali,2021.2.3,Win32,60.17571308,,,107,0,107,0,1,,,,,,,,
,,"[""circle"",""red"",""hori"",""left"",[-150,0],[0,-150]]",circle,red,hori,left,"[-150,0]","[0,-150]",left,1,1.8703,,,,,,001,2025-03-17_14h42.06.313,SL_sali,2021.2.3,Win32,60.17571308,,,108,0,108,0,1,,,,,,,,
,,"[""circle"",""red"",""hori"",""left"",[0,-150],[106,-106]]",circle,red,hori,left,"[0,-150]","[106,-106]",left,1,1.755,,,,,,001,2025-03-17_14h42.06.313,SL_sali,2021.2.3,Win32,60.17571308,,,109,0,109,0,1,,,,,,,,
,,"[""circle"",""green"",""hori"",""left"",[-106,-106],[-106,106]]",circle,green,hori,left,"[-106,-106]","[-106,106]",left,1,1.4173,,,,,,001,2025-03-17_14h42.06.313,SL_sali,2021.2.3,Win32,60.17571308,,,110,0,110,0,1,,,,,,,,
,,"[""diamond"",""green"",""vert"",""up"",[-106,106],[-106,-106]]",diamond,green,vert,up,"[-106,106]","[-106,-106]",up,1,2.1177,,,,,,001,2025-03-17_14h42.06.313,SL_sali,2021.2.3,Win32,60.17571308,,,111,0,111,0,1,,,,,,,,
,,"[""circle"",""red"",""hori"",""left"",[-150,0],[106,-106]]",circle,red,hori,left,"[-150,0]","[106,-106]",left,1,0.6928,,,,,,001,2025-03-17_14h42.06.313,SL_sali,2021.2.3,Win32,60.17571308,,,112,0,112,0,1,,,,,,,,
,,"[""circle"",""green"",""vert"",""up"",[106,-106],[-106,-106]]",circle,green,vert,up,"[106,-106]","[-106,-106]",up,1,0.928,,,,,,001,2025-03-17_14h42.06.313,SL_sali,2021.2.3,Win32,60.17571308,,,113,0,113,0,1,,,,,,,,
,,"[""diamond"",""red"",""hori"",""left"",[150,0],[-106,106]]",diamond,red,hori,left,"[150,0]","[-106,106]",left,1,1.2643,,,,,,001,2025-03-17_14h42.06.313,SL_sali,2021.2.3,Win32,60.17571308,,,114,0,114,0,1,,,,,,,,
,,"[""circle"",""red"",""hori"",""left"",[-106,106],[150,0]]",circle,red,hori,left,"[-106,106]","[150,0]",left,1,1.6348,,,,,,001,2025-03-17_14h42.06.313,SL_sali,2021.2.3,Win32,60.17571308,,,115,0,115,0,1,,,,,,,,
,,"[""circle"",""green"",""hori"",""left"",[106,106],[-106,-106]]",circle,green,hori,left,"[106,106]","[-106,-106]",left,1,0.6795,,,,,,001,2025-03-17_14h42.06.313,SL_sali,2021.2.3,Win32,60.17571308,,,116,0,116,0,1,,,,,,,,
,,"[""circle"",""green"",""vert"",""up"",[-106,-106],[106,106]]",circle,green,vert,up,"[-106,-106]","[106,106]",up,1,1.1379,,,,,,001,2025-03-17_14h42.06.313,SL_sali,2021.2.3,Win32,60.17571308,,,117,0,117,0,1,,,,,,,,
,,"[""diamond"",""no_dis"",""hori"",""left"",[99999,99999],[-106,106]]",diamond,no_dis,hori,left,"[99999,99999]","[-106,106]",left,1,1.3691,,,,,,001,2025-03-17_14h42.06.313,SL_sali,2021.2.3,Win32,60.17571308,,,118,0,118,0,1,,,,,,,,
,,"[""diamond"",""green"",""vert"",""up"",[-106,106],[150,0]]",diamond,green,vert,up,"[-106,106]","[150,0]",up,1,1.1295,,,,,,001,2025-03-17_14h42.06.313,SL_sali,2021.2.3,Win32,60.17571308,,,119,0,119,0,1,,,,,,,,
,,,,,,,,,,,,,,,,,001,2025-03-17_14h42.06.313,SL_sali,2021.2.3,Win32,60.17571308,,,,,,,,2,space,3.4329,1,0,1,0,1
,,"[""circle"",""red"",""hori"",""left"",[106,-106],[150,0]]",circle,red,hori,left,"[106,-106]","[150,0]",left,1,0.8723,,,,,,001,2025-03-17_14h42.06.313,SL_sali,2021.2.3,Win32,60.17571308,,,0,0,0,0,1,,,,,,,,
,,"[""circle"",""red"",""hori"",""left"",[106,106],[0,150]]",circle,red,hori,left,"[106,106]","[0,150]",left,1,1.0672,,,,,,001,2025-03-17_14h42.06.313,SL_sali,2021.2.3,Win32,60.17571308,,,1,0,1,0,1,,,,,,,,
,,"[""circle"",""red"",""hori"",""left"",[-106,106],[150,0]]",circle,red,hori,left,"[-106,106]","[150,0]",left,1,1.1266,,,,,,001,2025-03-17_14h42.06.313,SL_sali,2021.2.3,Win32,60.17571308,,,2,0,2,0,1,,,,,,,,
,,"[""diamond"",""red"",""vert"",""up"",[0,150],[0,-150]]",diamond,red,vert,up,"[0,150]","[0,-150]",up,1,1.4177,,,,,,001,2025-03-17_14h42.06.313,SL_sali,2021.2.3,Win32,60.17571308,,,3,0,3,0,1,,,,,,,,
,,"[""diamond"",""no_dis"",""vert"",""up"",[99999,99999],[-150,0]]",diamond,no_dis,vert,up,"[99999,99999]","[-150,0]",up,1,0.8763,,,,,,001,2025-03-17_14h42.06.313,SL_sali,2021.2.3,Win32,60.17571308,,,4,0,4,0,1,,,,,,,,
,,"[""diamond"",""green"",""vert"",""up"",[-106,106],[-106,-106]]",diamond,green,vert,up,"[-106,106]","[-106,-106]",up,1,0.8168,,,,,,001,2025-03-17_14h42.06.313,SL_sali,2021.2.3,Win32,60.17571308,,,5,0,5,0,1,,,,,,,,
,,"[""circle"",""red"",""hori"",""left"",[-106,106],[-150,0]]",circle,red,hori,left,"[-106,106]","[-150,0]",left,1,1.6018,,,,,,001,2025-03-17_14h42.06.313,SL_sali,2021.2.3,Win32,60.17571308,,,6,0,6,0,1,,,,,,,,
,,"[""diamond"",""green"",""vert"",""up"",[106,106],[-106,-106]]",diamond,green,vert,up,"[106,106]","[-106,-106]",up,1,1.1604,,,,,,001,2025-03-17_14h42.06.313,SL_sali,2021.2.3,Win32,60.17571308,,,7,0,7,0,1,,,,,,,,
,,"[""diamond"",""no_dis"",""hori"",""left"",[99999,99999],[-106,106]]",diamond,no_dis,hori,left,"[99999,99999]","[-106,106]",up,0,0.6542,,,,,,001,2025-03-17_14h42.06.313,SL_sali,2021.2.3,Win32,60.17571308,,,8,0,8,0,1,,,,,,,,
,,"[""diamond"",""red"",""vert"",""up"",[-150,0],[106,106]]",diamond,red,vert,up,"[-150,0]","[106,106]",up,1,0.6734,,,,,,001,2025-03-17_14h42.06.313,SL_sali,2021.2.3,Win32,60.17571308,,,9,0,9,0,1,,,,,,,,
,,"[""circle"",""no_dis"",""vert"",""up"",[99999,99999],[0,-150]]",circle,no_dis,vert,up,"[99999,99999]","[0,-150]",up,1,1.0837,,,,,,001,2025-03-17_14h42.06.313,SL_sali,2021.2.3,Win32,60.17571308,,,10,0,10,0,1,,,,,,,,
,,"[""circle"",""green"",""hori"",""left"",[-150,0],[150,0]]",circle,green,hori,left,"[-150,0]","[150,0]",left,1,0.9629,,,,,,001,2025-03-17_14h42.06.313,SL_sali,2021.2.3,Win32,60.17571308,,,11,0,11,0,1,,,,,,,,
,,"[""circle"",""green"",""hori"",""left"",[-106,-106],[0,150]]",circle,green,hori,left,"[-106,-106]","[0,150]",left,1,0.8348,,,,,,001,2025-03-17_14h42.06.313,SL_sali,2021.2.3,Win32,60.17571308,,,12,0,12,0,1,,,,,,,,
,,"[""circle"",""no_dis"",""vert"",""up"",[99999,99999],[106,106]]",circle,no_dis,vert,up,"[99999,99999]","[106,106]",up,1,0.8206,,,,,,001,2025-03-17_14h42.06.313,SL_sali,2021.2.3,Win32,60.17571308,,,13,0,13,0,1,,,,,,,,
,,"[""diamond"",""green"",""vert"",""up"",[106,106],[150,0]]",diamond,green,vert,up,"[106,106]","[150,0]",up,1,0.8712,,,,,,001,2025-03-17_14h42.06.313,SL_sali,2021.2.3,Win32,60.17571308,,,14,0,14,0,1,,,,,,,,
,,"[""circle"",""red"",""hori"",""left"",[106,106],[-106,106]]",circle,red,hori,left,"[106,106]","[-106,106]",left,1,1.222,,,,,,001,2025-03-17_14h42.06.313,SL_sali,2021.2.3,Win32,60.17571308,,,15,0,15,0,1,,,,,,,,
,,"[""circle"",""green"",""hori"",""left"",[150,0],[-106,106]]",circle,green,hori,left,"[150,0]","[-106,106]",left,1,1.0672,,,,,,001,2025-03-17_14h42.06.313,SL_sali,2021.2.3,Win32,60.17571308,,,16,0,16,0,1,,,,,,,,
,,"[""circle"",""no_dis"",""vert"",""up"",[99999,99999],[-106,-106]]",circle,no_dis,vert,up,"[99999,99999]","[-106,-106]",up,1,1.5076,,,,,,001,2025-03-17_14h42.06.313,SL_sali,2021.2.3,Win32,60.17571308,,,17,0,17,0,1,,,,,,,,
,,"[""circle"",""red"",""hori"",""left"",[0,-150],[150,0]]",circle,red,hori,left,"[0,-150]","[150,0]",left,1,1.1951,,,,,,001,2025-03-17_14h42.06.313,SL_sali,2021.2.3,Win32,60.17571308,,,18,0,18,0,1,,,,,,,,
,,"[""diamond"",""green"",""hori"",""left"",[106,106],[106,-106]]",diamond,green,hori,left,"[106,106]","[106,-106]",left,1,1.3168,,,,,,001,2025-03-17_14h42.06.313,SL_sali,2021.2.3,Win32,60.17571308,,,19,0,19,0,1,,,,,,,,
,,"[""circle"",""red"",""vert"",""up"",[-106,-106],[-106,106]]",circle,red,vert,up,"[-106,-106]","[-106,106]",up,1,1.6012,,,,,,001,2025-03-17_14h42.06.313,SL_sali,2021.2.3,Win32,60.17571308,,,20,0,20,0,1,,,,,,,,
,,"[""diamond"",""no_dis"",""vert"",""up"",[99999,99999],[0,150]]",diamond,no_dis,vert,up,"[99999,99999]","[0,150]",up,1,1.4506,,,,,,001,2025-03-17_14h42.06.313,SL_sali,2021.2.3,Win32,60.17571308,,,21,0,21,0,1,,,,,,,,
,,"[""circle"",""green"",""vert"",""up"",[106,-106],[-150,0]]",circle,green,vert,up,"[106,-106]","[-150,0]",up,1,1.7457,,,,,,001,2025-03-17_14h42.06.313,SL_sali,2021.2.3,Win32,60.17571308,,,22,0,22,0,1,,,,,,,,
,,"[""circle"",""no_dis"",""vert"",""up"",[99999,99999],[0,-150]]",circle,no_dis,vert,up,"[99999,99999]","[0,-150]",up,1,2.2869,,,,,,001,2025-03-17_14h42.06.313,SL_sali,2021.2.3,Win32,60.17571308,,,23,0,23,0,1,,,,,,,,
,,"[""diamond"",""red"",""hori"",""left"",[150,0],[-106,106]]",diamond,red,hori,left,"[150,0]","[-106,106]",left,1,1.1914,,,,,,001,2025-03-17_14h42.06.313,SL_sali,2021.2.3,Win32,60.17571308,,,24,0,24,0,1,,,,,,,,
,,"[""diamond"",""green"",""hori"",""left"",[-106,106],[106,106]]",diamond,green,hori,left,"[-106,106]","[106,106]",left,1,0.9999,,,,,,001,2025-03-17_14h42.06.313,SL_sali,2021.2.3,Win32,60.17571308,,,25,0,25,0,1,,,,,,,,
,,"[""circle"",""green"",""hori"",""left"",[150,0],[-106,-106]]",circle,green,hori,left,"[150,0]","[-106,-106]",left,1,0.8509,,,,,,001,2025-03-17_14h42.06.313,SL_sali,2021.2.3,Win32,60.17571308,,,26,0,26,0,1,,,,,,,,
,,"[""diamond"",""green"",""hori"",""left"",[106,106],[106,-106]]",diamond,green,hori,left,"[106,106]","[106,-106]",left,1,1.0506,,,,,,001,2025-03-17_14h42.06.313,SL_sali,2021.2.3,Win32,60.17571308,,,27,0,27,0,1,,,,,,,,
,,"[""diamond"",""red"",""hori"",""left"",[0,-150],[106,-106]]",diamond,red,hori,left,"[0,-150]","[106,-106]",left,1,1.0757,,,,,,001,2025-03-17_14h42.06.313,SL_sali,2021.2.3,Win32,60.17571308,,,28,0,28,0,1,,,,,,,,
,,"[""circle"",""no_dis"",""hori"",""left"",[99999,99999],[0,-150]]",circle,no_dis,hori,left,"[99999,99999]","[0,-150]",left,1,1.334,,,,,,001,2025-03-17_14h42.06.313,SL_sali,2021.2.3,Win32,60.17571308,,,29,0,29,0,1,,,,,,,,
,,"[""diamond"",""green"",""vert"",""up"",[150,0],[106,-106]]",diamond,green,vert,up,"[150,0]","[106,-106]",up,1,1.689,,,,,,001,2025-03-17_14h42.06.313,SL_sali,2021.2.3,Win32,60.17571308,,,30,0,30,0,1,,,,,,,,
,,"[""circle"",""green"",""hori"",""left"",[106,-106],[150,0]]",circle,green,hori,left,"[106,-106]","[150,0]",left,1,0.8759,,,,,,001,2025-03-17_14h42.06.313,SL_sali,2021.2.3,Win32,60.17571308,,,31,0,31,0,1,,,,,,,,
,,"[""circle"",""no_dis"",""hori"",""left"",[99999,99999],[0,-150]]",circle,no_dis,hori,left,"[99999,99999]","[0,-150]",left,1,0.6214,,,,,,001,2025-03-17_14h42.06.313,SL_sali,2021.2.3,Win32,60.17571308,,,32,0,32,0,1,,,,,,,,
,,"[""diamond"",""green"",""vert"",""up"",[-106,106],[150,0]]",diamond,green,vert,up,"[-106,106]","[150,0]",up,1,0.7946,,,,,,001,2025-03-17_14h42.06.313,SL_sali,2021.2.3,Win32,60.17571308,,,33,0,33,0,1,,,,,,,,
,,"[""diamond"",""green"",""hori"",""left"",[-106,106],[106,-106]]",diamond,green,hori,left,"[-106,106]","[106,-106]",left,1,1.5668,,,,,,001,2025-03-17_14h42.06.313,SL_sali,2021.2.3,Win32,60.17571308,,,34,0,34,0,1,,,,,,,,
,,"[""diamond"",""green"",""vert"",""up"",[0,150],[-106,106]]",diamond,green,vert,up,"[0,150]","[-106,106]",up,1,0.8231,,,,,,001,2025-03-17_14h42.06.313,SL_sali,2021.2.3,Win32,60.17571308,,,35,0,35,0,1,,,,,,,,
,,"[""diamond"",""no_dis"",""vert"",""up"",[99999,99999],[106,-106]]",diamond,no_dis,vert,up,"[99999,99999]","[106,-106]",up,1,0.7798,,,,,,001,2025-03-17_14h42.06.313,SL_sali,2021.2.3,Win32,60.17571308,,,36,0,36,0,1,,,,,,,,
,,"[""circle"",""no_dis"",""vert"",""up"",[99999,99999],[150,0]]",circle,no_dis,vert,up,"[99999,99999]","[150,0]",up,1,0.834,,,,,,001,2025-03-17_14h42.06.313,SL_sali,2021.2.3,Win32,60.17571308,,,37,0,37,0,1,,,,,,,,
,,"[""circle"",""green"",""vert"",""up"",[-106,-106],[150,0]]",circle,green,vert,up,"[-106,-106]","[150,0]",up,1,0.7544,,,,,,001,2025-03-17_14h42.06.313,SL_sali,2021.2.3,Win32,60.17571308,,,38,0,38,0,1,,,,,,,,
,,"[""diamond"",""no_dis"",""vert"",""up"",[99999,99999],[106,-106]]",diamond,no_dis,vert,up,"[99999,99999]","[106,-106]",up,1,0.7944,,,,,,001,2025-03-17_14h42.06.313,SL_sali,2021.2.3,Win32,60.17571308,,,39,0,39,0,1,,,,,,,,
,,"[""circle"",""red"",""vert"",""up"",[0,150],[-106,106]]",circle,red,vert,up,"[0,150]","[-106,106]",up,1,1.0672,,,,,,001,2025-03-17_14h42.06.313,SL_sali,2021.2.3,Win32,60.17571308,,,40,0,40,0,1,,,,,,,,
,,"[""diamond"",""no_dis"",""vert"",""up"",[99999,99999],[106,106]]",diamond,no_dis,vert,up,"[99999,99999]","[106,106]",up,1,0.934,,,,,,001,2025-03-17_14h42.06.313,SL_sali,2021.2.3,Win32,60.17571308,,,41,0,41,0,1,,,,,,,,
,,"[""diamond"",""no_dis"",""vert"",""up"",[99999,99999],[106,106]]",diamond,no_dis,vert,up,"[99999,99999]","[106,106]",up,1,1.1933,,,,,,001,2025-03-17_14h42.06.313,SL_sali,2021.2.3,Win32,60.17571308,,,42,0,42,0,1,,,,,,,,
,,"[""circle"",""green"",""hori"",""left"",[106,106],[-106,-106]]",circle,green,hori,left,"[106,106]","[-106,-106]",left,1,0.8338,,,,,,001,2025-03-17_14h42.06.313,SL_sali,2021.2.3,Win32,60.17571308,,,43,0,43,0,1,,,,,,,,
,,"[""diamond"",""no_dis"",""hori"",""left"",[99999,99999],[-106,-106]]",diamond,no_dis,hori,left,"[99999,99999]","[-106,-106]",left,1,0.9625,,,,,,001,2025-03-17_14h42.06.313,SL_sali,2021.2.3,Win32,60.17571308,,,44,0,44,0,1,,,,,,,,
,,"[""circle"",""no_dis"",""hori"",""left"",[99999,99999],[-106,106]]",circle,no_dis,hori,left,"[99999,99999]","[-106,106]",up,0,1.5858,,,,,,001,2025-03-17_14h42.06.313,SL_sali,2021.2.3,Win32,60.17571308,,,45,0,45,0,1,,,,,,,,
,,"[""circle"",""no_dis"",""hori"",""left"",[99999,99999],[150,0]]",circle,no_dis,hori,left,"[99999,99999]","[150,0]",left,1,1.179,,,,,,001,2025-03-17_14h42.06.313,SL_sali,2021.2.3,Win32,60.17571308,,,46,0,46,0,1,,,,,,,,
,,"[""diamond"",""green"",""vert"",""up"",[-106,-106],[106,-106]]",diamond,green,vert,up,"[-106,-106]","[106,-106]",up,1,1.9842,,,,,,001,2025-03-17_14h42.06.313,SL_sali,2021.2.3,Win32,60.17571308,,,47,0,47,0,1,,,,,,,,
,,"[""diamond"",""green"",""hori"",""left"",[106,106],[0,150]]",diamond,green,hori,left,"[106,106]","[0,150]",up,0,0.8868,,,,,,001,2025-03-17_14h42.06.313,SL_sali,2021.2.3,Win32,60.17571308,,,48,0,48,0,1,,,,,,,,
,,"[""circle"",""red"",""hori"",""left"",[0,-150],[106,-106]]",circle,red,hori,left,"[0,-150]","[106,-106]",left,1,1.0707,,,,,,001,2025-03-17_14h42.06.313,SL_sali,2021.2.3,Win32,60.17571308,,,49,0,49,0,1,,,,,,,,
,,"[""circle"",""red"",""vert"",""up"",[106,106],[-150,0]]",circle,red,vert,up,"[106,106]","[-150,0]",up,1,0.9842,,,,,,001,2025-03-17_14h42.06.313,SL_sali,2021.2.3,Win32,60.17571308,,,50,0,50,0,1,,,,,,,,
,,"[""diamond"",""red"",""vert"",""up"",[150,0],[0,150]]",diamond,red,vert,up,"[150,0]","[0,150]",up,1,2.7757,,,,,,001,2025-03-17_14h42.06.313,SL_sali,2021.2.3,Win32,60.17571308,,,51,0,51,0,1,,,,,,,,
,,"[""diamond"",""red"",""vert"",""up"",[106,-106],[-150,0]]",diamond,red,vert,up,"[106,-106]","[-150,0]",up,1,1.3177,,,,,,001,2025-03-17_14h42.06.313,SL_sali,2021.2.3,Win32,60.17571308,,,52,0,52,0,1,,,,,,,,
,,"[""circle"",""green"",""hori"",""left"",[0,-150],[-106,-106]]",circle,green,hori,left,"[0,-150]","[-106,-106]",left,1,1.5607,,,,,,001,2025-03-17_14h42.06.313,SL_sali,2021.2.3,Win32,60.17571308,,,53,0,53,0,1,,,,,,,,
,,"[""diamond"",""red"",""vert"",""up"",[106,106],[-106,106]]",diamond,red,vert,up,"[106,106]","[-106,106]",up,1,0.9116,,,,,,001,2025-03-17_14h42.06.313,SL_sali,2021.2.3,Win32,60.17571308,,,54,0,54,0,1,,,,,,,,
,,"[""circle"",""red"",""vert"",""up"",[106,106],[150,0]]",circle,red,vert,up,"[106,106]","[150,0]",up,1,1.614,,,,,,001,2025-03-17_14h42.06.313,SL_sali,2021.2.3,Win32,60.17571308,,,55,0,55,0,1,,,,,,,,
,,"[""diamond"",""green"",""vert"",""up"",[106,106],[106,-106]]",diamond,green,vert,up,"[106,106]","[106,-106]",up,1,1.859,,,,,,001,2025-03-17_14h42.06.313,SL_sali,2021.2.3,Win32,60.17571308,,,56,0,56,0,1,,,,,,,,
,,"[""circle"",""green"",""vert"",""up"",[0,-150],[-106,106]]",circle,green,vert,up,"[0,-150]","[-106,106]",,0,,,,,,,001,2025-03-17_14h42.06.313,SL_sali,2021.2.3,Win32,60.17571308,,,57,0,57,0,1,,,,,,,,
,,"[""diamond"",""red"",""hori"",""left"",[106,106],[0,150]]",diamond,red,hori,left,"[106,106]","[0,150]",left,1,1.0131,,,,,,001,2025-03-17_14h42.06.313,SL_sali,2021.2.3,Win32,60.17571308,,,58,0,58,0,1,,,,,,,,
,,"[""diamond"",""no_dis"",""hori"",""left"",[99999,99999],[0,150]]",diamond,no_dis,hori,left,"[99999,99999]","[0,150]",left,1,0.734,,,,,,001,2025-03-17_14h42.06.313,SL_sali,2021.2.3,Win32,60.17571308,,,59,0,59,0,1,,,,,,,,
,,"[""diamond"",""red"",""hori"",""left"",[106,106],[-150,0]]",diamond,red,hori,left,"[106,106]","[-150,0]",left,1,0.8742,,,,,,001,2025-03-17_14h42.06.313,SL_sali,2021.2.3,Win32,60.17571308,,,60,0,60,0,1,,,,,,,,
,,"[""diamond"",""no_dis"",""hori"",""left"",[99999,99999],[-150,0]]",diamond,no_dis,hori,left,"[99999,99999]","[-150,0]",left,1,0.6342,,,,,,001,2025-03-17_14h42.06.313,SL_sali,2021.2.3,Win32,60.17571308,,,61,0,61,0,1,,,,,,,,
,,"[""circle"",""no_dis"",""hori"",""left"",[99999,99999],[-106,-106]]",circle,no_dis,hori,left,"[99999,99999]","[-106,-106]",up,0,0.6838,,,,,,001,2025-03-17_14h42.06.313,SL_sali,2021.2.3,Win32,60.17571308,,,62,0,62,0,1,,,,,,,,
,,"[""circle"",""no_dis"",""vert"",""up"",[99999,99999],[106,-106]]",circle,no_dis,vert,up,"[99999,99999]","[106,-106]",up,1,0.6314,,,,,,001,2025-03-17_14h42.06.313,SL_sali,2021.2.3,Win32,60.17571308,,,63,0,63,0,1,,,,,,,,
,,"[""circle"",""no_dis"",""hori"",""left"",[99999,99999],[150,0]]",circle,no_dis,hori,left,"[99999,99999]","[150,0]",left,1,0.9003,,,,,,001,2025-03-17_14h42.06.313,SL_sali,2021.2.3,Win32,60.17571308,,,64,0,64,0,1,,,,,,,,
,,"[""circle"",""green"",""hori"",""left"",[0,150],[106,-106]]",circle,green,hori,left,"[0,150]","[106,-106]",left,1,1.8007,,,,,,001,2025-03-17_14h42.06.313,SL_sali,2021.2.3,Win32,60.17571308,,,65,0,65,0,1,,,,,,,,
,,"[""circle"",""no_dis"",""vert"",""up"",[99999,99999],[0,150]]",circle,no_dis,vert,up,"[99999,99999]","[0,150]",up,1,2.6398,,,,,,001,2025-03-17_14h42.06.313,SL_sali,2021.2.3,Win32,60.17571308,,,66,0,66,0,1,,,,,,,,
,,"[""diamond"",""red"",""hori"",""left"",[106,-106],[0,-150]]",diamond,red,hori,left,"[106,-106]","[0,-150]",left,1,1.9341,,,,,,001,2025-03-17_14h42.06.313,SL_sali,2021.2.3,Win32,60.17571308,,,67,0,67,0,1,,,,,,,,
,,"[""diamond"",""no_dis"",""vert"",""up"",[99999,99999],[106,-106]]",diamond,no_dis,vert,up,"[99999,99999]","[106,-106]",up,1,0.6447,,,,,,001,2025-03-17_14h42.06.313,SL_sali,2021.2.3,Win32,60.17571308,,,68,0,68,0,1,,,,,,,,
,,"[""diamond"",""no_dis"",""hori"",""left"",[99999,99999],[-106,106]]",diamond,no_dis,hori,left,"[99999,99999]","[-106,106]",left,1,0.6862,,,,,,001,2025-03-17_14h42.06.313,SL_sali,2021.2.3,Win32,60.17571308,,,69,0,69,0,1,,,,,,,,
,,"[""circle"",""green"",""hori"",""left"",[-106,-106],[-106,106]]",circle,green,hori,left,"[-106,-106]","[-106,106]",left,1,2.1509,,,,,,001,2025-03-17_14h42.06.313,SL_sali,2021.2.3,Win32,60.17571308,,,70,0,70,0,1,,,,,,,,
,,"[""diamond"",""red"",""hori"",""left"",[106,106],[-106,106]]",diamond,red,hori,left,"[106,106]","[-106,106]",,0,,,,,,,001,2025-03-17_14h42.06.313,SL_sali,2021.2.3,Win32,60.17571308,,,71,0,71,0,1,,,,,,,,
,,"[""diamond"",""no_dis"",""hori"",""left"",[99999,99999],[106,-106]]",diamond,no_dis,hori,left,"[99999,99999]","[106,-106]",left,1,0.9882,,,,,,001,2025-03-17_14h42.06.313,SL_sali,2021.2.3,Win32,60.17571308,,,72,0,72,0,1,,,,,,,,
,,"[""diamond"",""no_dis"",""hori"",""left"",[99999,99999],[-106,106]]",diamond,no_dis,hori,left,"[99999,99999]","[-106,106]",left,1,1.9453,,,,,,001,2025-03-17_14h42.06.313,SL_sali,2021.2.3,Win32,60.17571308,,,73,0,73,0,1,,,,,,,,
,,"[""diamond"",""red"",""hori"",""left"",[150,0],[-106,-106]]",diamond,red,hori,left,"[150,0]","[-106,-106]",left,1,1.5231,,,,,,001,2025-03-17_14h42.06.313,SL_sali,2021.2.3,Win32,60.17571308,,,74,0,74,0,1,,,,,,,,
,,"[""circle"",""green"",""hori"",""left"",[-150,0],[150,0]]",circle,green,hori,left,"[-150,0]","[150,0]",left,1,1.7042,,,,,,001,2025-03-17_14h42.06.313,SL_sali,2021.2.3,Win32,60.17571308,,,75,0,75,0,1,,,,,,,,
,,"[""circle"",""red"",""hori"",""left"",[-150,0],[0,-150]]",circle,red,hori,left,"[-150,0]","[0,-150]",left,1,1.6104,,,,,,001,2025-03-17_14h42.06.313,SL_sali,2021.2.3,Win32,60.17571308,,,76,0,76,0,1,,,,,,,,
,,"[""diamond"",""red"",""vert"",""up"",[-106,-106],[150,0]]",diamond,red,vert,up,"[-106,-106]","[150,0]",up,1,0.9265,,,,,,001,2025-03-17_14h42.06.313,SL_sali,2021.2.3,Win32,60.17571308,,,77,0,77,0,1,,,,,,,,
,,"[""circle"",""green"",""vert"",""up"",[106,106],[106,-106]]",circle,green,vert,up,"[106,106]","[106,-106]",up,1,0.8456,,,,,,001,2025-03-17_14h42.06.313,SL_sali,2021.2.3,Win32,60.17571308,,,78,0,78,0,1,,,,,,,,
,,"[""circle"",""red"",""vert"",""up"",[106,106],[150,0]]",circle,red,vert,up,"[106,106]","[150,0]",up,1,0.64,,,,,,001,2025-03-17_14h42.06.313,SL_sali,2021.2.3,Win32,60.17571308,,,79,0,79,0,1,,,,,,,,
,,"[""circle"",""no_dis"",""hori"",""left"",[99999,99999],[150,0]]",circle,no_dis,hori,left,"[99999,99999]","[150,0]",left,1,1.068,,,,,,001,2025-03-17_14h42.06.313,SL_sali,2021.2.3,Win32,60.17571308,,,80,0,80,0,1,,,,,,,,
,,"[""circle"",""green"",""vert"",""up"",[106,106],[0,-150]]",circle,green,vert,up,"[106,106]","[0,-150]",up,1,1.6204,,,,,,001,2025-03-17_14h42.06.313,SL_sali,2021.2.3,Win32,60.17571308,,,81,0,81,0,1,,,,,,,,
,,"[""diamond"",""green"",""vert"",""up"",[0,150],[106,106]]",diamond,green,vert,up,"[0,150]","[106,106]",left,0,1.9418,,,,,,001,2025-03-17_14h42.06.313,SL_sali,2021.2.3,Win32,60.17571308,,,82,0,82,0,1,,,,,,,,
,,"[""diamond"",""red"",""vert"",""up"",[106,-106],[150,0]]",diamond,red,vert,up,"[106,-106]","[150,0]",up,1,0.9673,,,,,,001,2025-03-17_14h42.06.313,SL_sali,2021.2.3,Win32,60.17571308,,,83,0,83,0,1,,,,,,,,
,,"[""diamond"",""green"",""vert"",""up"",[106,106],[0,-150]]",diamond,green,vert,up,"[106,106]","[0,-150]",up,1,0.7377,,,,,,001,2025-03-17_14h42.06.313,SL_sali,2021.2.3,Win32,60.17571308,,,84,0,84,0,1,,,,,,,,
,,"[""circle"",""red"",""vert"",""up"",[-106,106],[0,-150]]",circle,red,vert,up,"[-106,106]","[0,-150]",up,1,1.0838,,,,,,001,2025-03-17_14h42.06.313,SL_sali,2021.2.3,Win32,60.17571308,,,85,0,85,0,1,,,,,,,,
,,"[""circle"",""red"",""hori"",""left"",[-150,0],[106,-106]]",circle,red,hori,left,"[-150,0]","[106,-106]",left,1,0.767,,,,,,001,2025-03-17_14h42.06.313,SL_sali,2021.2.3,Win32,60.17571308,,,86,0,86,0,1,,,,,,,,
,,"[""circle"",""no_dis"",""hori"",""left"",[99999,99999],[106,106]]",circle,no_dis,hori,left,"[99999,99999]","[106,106]",up,0,1.1171,,,,,,001,2025-03-17_14h42.06.313,SL_sali,2021.2.3,Win32,60.17571308,,,87,0,87,0,1,,,,,,,,
,,"[""circle"",""no_dis"",""vert"",""up"",[99999,99999],[0,-150]]",circle,no_dis,vert,up,"[99999,99999]","[0,-150]",up,1,1.707,,,,,,001,2025-03-17_14h42.06.313,SL_sali,2021.2.3,Win32,60.17571308,,,88,0,88,0,1,,,,,,,,
,,"[""circle"",""green"",""vert"",""up"",[-106,-106],[106,106]]",circle,green,vert,up,"[-106,-106]","[106,106]",up,1,0.8888,,,,,,001,2025-03-17_14h42.06.313,SL_sali,2021.2.3,Win32,60.17571308,,,89,0,89,0,1,,,,,,,,
,,"[""diamond"",""red"",""vert"",""up"",[-150,0],[-106,-106]]",diamond,red,vert,up,"[-150,0]","[-106,-106]",up,1,1.3173,,,,,,001,2025-03-17_14h42.06.313,SL_sali,2021.2.3,Win32,60.17571308,,,90,0,90,0,1,,,,,,,,
,,"[""diamond"",""red"",""hori"",""left"",[-106,-106],[106,-106]]",diamond,red,hori,left,"[-106,-106]","[106,-106]",left,1,1.0671,,,,,,001,2025-03-17_14h42.06.313,SL_sali,2021.2.3,Win32,60.17571308,,,91,0,91,0,1,,,,,,,,
,,"[""circle"",""red"",""vert"",""up"",[106,106],[106,-106]]",circle,red,vert,up,"[106,106]","[106,-106]",up,1,2.3421,,,,,,001,2025-03-17_14h42.06.313,SL_sali,2021.2.3,Win32,60.17571308,,,92,0,92,0,1,,,,,,,,
,,"[""diamond"",""no_dis"",""vert"",""up"",[99999,99999],[-106,-106]]",diamond,no_dis,vert,up,"[99999,99999]","[-106,-106]",up,1,0.9405,,,,,,001,2025-03-17_14h42.06.313,SL_sali,2021.2.3,Win32,60.17571308,,,93,0,93,0,1,,,,,,,,
,,"[""diamond"",""red"",""hori"",""left"",[-150,0],[0,-150]]",diamond,red,hori,left,"[-150,0]","[0,-150]",left,1,1.2606,,,,,,001,2025-03-17_14h42.06.313,SL_sali,2021.2.3,Win32,60.17571308,,,94,0,94,0,1,,,,,,,,
,,"[""diamond"",""green"",""hori"",""left"",[106,106],[0,150]]",diamond,green,hori,left,"[106,106]","[0,150]",left,1,0.8141,,,,,,001,2025-03-17_14h42.06.313,SL_sali,2021.2.3,Win32,60.17571308,,,95,0,95,0,1,,,,,,,,
,,"[""circle"",""green"",""vert"",""up"",[106,106],[106,-106]]",circle,green,vert,up,"[106,106]","[106,-106]",up,1,1.0921,,,,,,001,2025-03-17_14h42.06.313,SL_sali,2021.2.3,Win32,60.17571308,,,96,0,96,0,1,,,,,,,,
,,"[""circle"",""no_dis"",""hori"",""left"",[99999,99999],[0,150]]",circle,no_dis,hori,left,"[99999,99999]","[0,150]",left,1,1.0513,,,,,,001,2025-03-17_14h42.06.313,SL_sali,2021.2.3,Win32,60.17571308,,,97,0,97,0,1,,,,,,,,
,,"[""diamond"",""no_dis"",""hori"",""left"",[99999,99999],[0,150]]",diamond,no_dis,hori,left,"[99999,99999]","[0,150]",left,1,0.7169,,,,,,001,2025-03-17_14h42.06.313,SL_sali,2021.2.3,Win32,60.17571308,,,98,0,98,0,1,,,,,,,,
,,"[""diamond"",""no_dis"",""hori"",""left"",[99999,99999],[-150,0]]",diamond,no_dis,hori,left,"[99999,99999]","[-150,0]",left,1,1.5169,,,,,,001,2025-03-17_14h42.06.313,SL_sali,2021.2.3,Win32,60.17571308,,,99,0,99,0,1,,,,,,,,
,,"[""circle"",""red"",""vert"",""up"",[0,-150],[-106,106]]",circle,red,vert,up,"[0,-150]","[-106,106]",up,1,1.0503,,,,,,001,2025-03-17_14h42.06.313,SL_sali,2021.2.3,Win32,60.17571308,,,100,0,100,0,1,,,,,,,,
,,"[""diamond"",""green"",""hori"",""left"",[150,0],[106,-106]]",diamond,green,hori,left,"[150,0]","[106,-106]",left,1,1.0359,,,,,,001,2025-03-17_14h42.06.313,SL_sali,2021.2.3,Win32,60.17571308,,,101,0,101,0,1,,,,,,,,
,,"[""diamond"",""red"",""vert"",""up"",[106,106],[0,150]]",diamond,red,vert,up,"[106,106]","[0,150]",up,1,1.1834,,,,,,001,2025-03-17_14h42.06.313,SL_sali,2021.2.3,Win32,60.17571308,,,102,0,102,0,1,,,,,,,,
,,"[""circle"",""red"",""vert"",""up"",[-150,0],[0,150]]",circle,red,vert,up,"[-150,0]","[0,150]",up,1,1.0684,,,,,,001,2025-03-17_14h42.06.313,SL_sali,2021.2.3,Win32,60.17571308,,,103,0,103,0,1,,,,,,,,
,,"[""diamond"",""red"",""vert"",""up"",[-106,106],[0,-150]]",diamond,red,vert,up,"[-106,106]","[0,-150]",up,1,0.8727,,,,,,001,2025-03-17_14h42.06.313,SL_sali,2021.2.3,Win32,60.17571308,,,104,0,104,0,1,,,,,,,,
,,"[""circle"",""red"",""vert"",""up"",[150,0],[-106,106]]",circle,red,vert,up,"[150,0]","[-106,106]",up,1,1.1169,,,,,,001,2025-03-17_14h42.06.313,SL_sali,2021.2.3,Win32,60.17571308,,,105,0,105,0,1,,,,,,,,
,,"[""circle"",""no_dis"",""vert"",""up"",[99999,99999],[-150,0]]",circle,no_dis,vert,up,"[99999,99999]","[-150,0]",up,1,0.7538,,,,,,001,2025-03-17_14h42.06.313,SL_sali,2021.2.3,Win32,60.17571308,,,106,0,106,0,1,,,,,,,,
,,"[""diamond"",""no_dis"",""vert"",""up"",[99999,99999],[-106,-106]]",diamond,no_dis,vert,up,"[99999,99999]","[-106,-106]",up,1,1.0631,,,,,,001,2025-03-17_14h42.06.313,SL_sali,2021.2.3,Win32,60.17571308,,,107,0,107,0,1,,,,,,,,
,,"[""diamond"",""green"",""hori"",""left"",[0,150],[106,106]]",diamond,green,hori,left,"[0,150]","[106,106]",left,1,1.1506,,,,,,001,2025-03-17_14h42.06.313,SL_sali,2021.2.3,Win32,60.17571308,,,108,0,108,0,1,,,,,,,,
,,"[""circle"",""no_dis"",""hori"",""left"",[99999,99999],[-106,106]]",circle,no_dis,hori,left,"[99999,99999]","[-106,106]",left,1,0.7005,,,,,,001,2025-03-17_14h42.06.313,SL_sali,2021.2.3,Win32,60.17571308,,,109,0,109,0,1,,,,,,,,
,,"[""circle"",""green"",""vert"",""up"",[106,-106],[-106,-106]]",circle,green,vert,up,"[106,-106]","[-106,-106]",up,1,1.0834,,,,,,001,2025-03-17_14h42.06.313,SL_sali,2021.2.3,Win32,60.17571308,,,110,0,110,0,1,,,,,,,,
,,"[""diamond"",""green"",""hori"",""left"",[0,-150],[-106,-106]]",diamond,green,hori,left,"[0,-150]","[-106,-106]",left,1,2.4836,,,,,,001,2025-03-17_14h42.06.313,SL_sali,2021.2.3,Win32,60.17571308,,,111,0,111,0,1,,,,,,,,
,,"[""circle"",""no_dis"",""vert"",""up"",[99999,99999],[106,106]]",circle,no_dis,vert,up,"[99999,99999]","[106,106]",up,1,1.0004,,,,,,001,2025-03-17_14h42.06.313,SL_sali,2021.2.3,Win32,60.17571308,,,112,0,112,0,1,,,,,,,,
,,"[""diamond"",""red"",""hori"",""left"",[106,-106],[0,150]]",diamond,red,hori,left,"[106,-106]","[0,150]",left,1,2.6504,,,,,,001,2025-03-17_14h42.06.313,SL_sali,2021.2.3,Win32,60.17571308,,,113,0,113,0,1,,,,,,,,
,,"[""diamond"",""green"",""hori"",""left"",[106,106],[-106,-106]]",diamond,green,hori,left,"[106,106]","[-106,-106]",left,1,1.6999,,,,,,001,2025-03-17_14h42.06.313,SL_sali,2021.2.3,Win32,60.17571308,,,114,0,114,0,1,,,,,,,,
,,"[""circle"",""red"",""hori"",""left"",[0,150],[106,106]]",circle,red,hori,left,"[0,150]","[106,106]",up,0,2.5023,,,,,,001,2025-03-17_14h42.06.313,SL_sali,2021.2.3,Win32,60.17571308,,,115,0,115,0,1,,,,,,,,
,,"[""circle"",""green"",""vert"",""up"",[0,-150],[150,0]]",circle,green,vert,up,"[0,-150]","[150,0]",up,1,1.5002,,,,,,001,2025-03-17_14h42.06.313,SL_sali,2021.2.3,Win32,60.17571308,,,116,0,116,0,1,,,,,,,,
,,"[""diamond"",""no_dis"",""vert"",""up"",[99999,99999],[-150,0]]",diamond,no_dis,vert,up,"[99999,99999]","[-150,0]",up,1,1.9003,,,,,,001,2025-03-17_14h42.06.313,SL_sali,2021.2.3,Win32,60.17571308,,,117,0,117,0,1,,,,,,,,
,,"[""diamond"",""no_dis"",""hori"",""left"",[99999,99999],[150,0]]",diamond,no_dis,hori,left,"[99999,99999]","[150,0]",left,1,1.1503,,,,,,001,2025-03-17_14h42.06.313,SL_sali,2021.2.3,Win32,60.17571308,,,118,0,118,0,1,,,,,,,,
,,"[""circle"",""green"",""vert"",""up"",[0,150],[-150,0]]",circle,green,vert,up,"[0,150]","[-150,0]",up,1,1.1759,,,,,,001,2025-03-17_14h42.06.313,SL_sali,2021.2.3,Win32,60.17571308,,,119,0,119,0,1,,,,,,,,
,,,,,,,,,,,,,,,,,001,2025-03-17_14h42.06.313,SL_sali,2021.2.3,Win32,60.17571308,,,,,,,,3,space,1.1682,2,0,2,0,1
,,"[""circle"",""green"",""vert"",""up"",[-106,-106],[150,0]]",circle,green,vert,up,"[-106,-106]","[150,0]",up,1,1.2002,,,,,,001,2025-03-17_14h42.06.313,SL_sali,2021.2.3,Win32,60.17571308,,,0,0,0,0,1,,,,,,,,
,,"[""diamond"",""red"",""hori"",""left"",[106,106],[-150,0]]",diamond,red,hori,left,"[106,106]","[-150,0]",left,1,1.1546,,,,,,001,2025-03-17_14h42.06.313,SL_sali,2021.2.3,Win32,60.17571308,,,1,0,1,0,1,,,,,,,,
,,"[""diamond"",""green"",""vert"",""up"",[0,150],[106,106]]",diamond,green,vert,up,"[0,150]","[106,106]",up,1,0.8001,,,,,,001,2025-03-17_14h42.06.313,SL_sali,2021.2.3,Win32,60.17571308,,,2,0,2,0,1,,,,,,,,
,,"[""circle"",""no_dis"",""vert"",""up"",[99999,99999],[0,-150]]",circle,no_dis,vert,up,"[99999,99999]","[0,-150]",left,0,1.5002,,,,,,001,2025-03-17_14h42.06.313,SL_sali,2021.2.3,Win32,60.17571308,,,3,0,3,0,1,,,,,,,,
,,"[""circle"",""no_dis"",""vert"",""up"",[99999,99999],[106,106]]",circle,no_dis,vert,up,"[99999,99999]","[106,106]",up,1,0.8766,,,,,,001,2025-03-17_14h42.06.313,SL_sali,2021.2.3,Win32,60.17571308,,,4,0,4,0,1,,,,,,,,
,,"[""diamond"",""red"",""vert"",""up"",[106,-106],[150,0]]",diamond,red,vert,up,"[106,-106]","[150,0]",up,1,1.5505,,,,,,001,2025-03-17_14h42.06.313,SL_sali,2021.2.3,Win32,60.17571308,,,5,0,5,0,1,,,,,,,,
,,"[""circle"",""no_dis"",""hori"",""left"",[99999,99999],[-106,-106]]",circle,no_dis,hori,left,"[99999,99999]","[-106,-106]",left,1,0.9176,,,,,,001,2025-03-17_14h42.06.313,SL_sali,2021.2.3,Win32,60.17571308,,,6,0,6,0,1,,,,,,,,
,,"[""diamond"",""red"",""vert"",""up"",[106,106],[-106,106]]",diamond,red,vert,up,"[106,106]","[-106,106]",up,1,1.1575,,,,,,001,2025-03-17_14h42.06.313,SL_sali,2021.2.3,Win32,60.17571308,,,7,0,7,0,1,,,,,,,,
,,"[""diamond"",""green"",""hori"",""left"",[106,106],[0,150]]",diamond,green,hori,left,"[106,106]","[0,150]",up,0,1.0036,,,,,,001,2025-03-17_14h42.06.313,SL_sali,2021.2.3,Win32,60.17571308,,,8,0,8,0,1,,,,,,,,
,,"[""circle"",""red"",""vert"",""up"",[0,-150],[-106,106]]",circle,red,vert,up,"[0,-150]","[-106,106]",left,0,1.4172,,,,,,001,2025-03-17_14h42.06.313,SL_sali,2021.2.3,Win32,60.17571308,,,9,0,9,0,1,,,,,,,,
,,"[""diamond"",""green"",""vert"",""up"",[0,150],[-106,106]]",diamond,green,vert,up,"[0,150]","[-106,106]",up,1,1.1431,,,,,,001,2025-03-17_14h42.06.313,SL_sali,2021.2.3,Win32,60.17571308,,,10,0,10,0,1,,,,,,,,
,,"[""circle"",""red"",""vert"",""up"",[106,106],[106,-106]]",circle,red,vert,up,"[106,106]","[106,-106]",up,1,1.0503,,,,,,001,2025-03-17_14h42.06.313,SL_sali,2021.2.3,Win32,60.17571308,,,11,0,11,0,1,,,,,,,,
,,"[""diamond"",""green"",""hori"",""left"",[106,106],[106,-106]]",diamond,green,hori,left,"[106,106]","[106,-106]",left,1,1.0801,,,,,,001,2025-03-17_14h42.06.313,SL_sali,2021.2.3,Win32,60.17571308,,,12,0,12,0,1,,,,,,,,
,,"[""diamond"",""red"",""vert"",""up"",[150,0],[0,150]]",diamond,red,vert,up,"[150,0]","[0,150]",up,1,1.281,,,,,,001,2025-03-17_14h42.06.313,SL_sali,2021.2.3,Win32,60.17571308,,,13,0,13,0,1,,,,,,,,
,,"[""diamond"",""red"",""hori"",""left"",[106,106],[0,150]]",diamond,red,hori,left,"[106,106]","[0,150]",left,1,2.4503,,,,,,001,2025-03-17_14h42.06.313,SL_sali,2021.2.3,Win32,60.17571308,,,14,0,14,0,1,,,,,,,,
,,"[""diamond"",""red"",""vert"",""up"",[0,150],[0,-150]]",diamond,red,vert,up,"[0,150]","[0,-150]",up,1,0.9171,,,,,,001,2025-03-17_14h42.06.313,SL_sali,2021.2.3,Win32,60.17571308,,,15,0,15,0,1,,,,,,,,
,,"[""diamond"",""green"",""vert"",""up"",[150,0],[106,-106]]",diamond,green,vert,up,"[150,0]","[106,-106]",up,1,0.9504,,,,,,001,2025-03-17_14h42.06.313,SL_sali,2021.2.3,Win32,60.17571308,,,16,0,16,0,1,,,,,,,,
,,"[""circle"",""red"",""vert"",""up"",[0,150],[-106,106]]",circle,red,vert,up,"[0,150]","[-106,106]",up,1,2.4506,,,,,,001,2025-03-17_14h42.06.313,SL_sali,2021.2.3,Win32,60.17571308,,,17,0,17,0,1,,,,,,,,
,,"[""diamond"",""no_dis"",""hori"",""left"",[99999,99999],[-150,0]]",diamond,no_dis,hori,left,"[99999,99999]","[-150,0]",left,1,0.8027,,,,,,001,2025-03-17_14h42.06.313,SL_sali,2021.2.3,Win32,60.17571308,,,18,0,18,0,1,,,,,,,,
,,"[""diamond"",""no_dis"",""hori"",""left"",[99999,99999],[0,150]]",diamond,no_dis,hori,left,"[99999,99999]","[0,150]",left,1,2.1499,,,,,,001,2025-03-17_14h42.06.313,SL_sali,2021.2.3,Win32,60.17571308,,,19,0,19,0,1,,,,,,,,
,,"[""circle"",""green"",""hori"",""left"",[106,-106],[150,0]]",circle,green,hori,left,"[106,-106]","[150,0]",left,1,1.3668,,,,,,001,2025-03-17_14h42.06.313,SL_sali,2021.2.3,Win32,60.17571308,,,20,0,20,0,1,,,,,,,,
,,"[""diamond"",""red"",""vert"",""up"",[106,106],[0,150]]",diamond,red,vert,up,"[106,106]","[0,150]",up,1,1.884,,,,,,001,2025-03-17_14h42.06.313,SL_sali,2021.2.3,Win32,60.17571308,,,21,0,21,0,1,,,,,,,,
,,"[""circle"",""green"",""hori"",""left"",[150,0],[-106,106]]",circle,green,hori,left,"[150,0]","[-106,106]",left,1,2.0429,,,,,,001,2025-03-17_14h42.06.313,SL_sali,2021.2.3,Win32,60.17571308,,,22,0,22,0,1,,,,,,,,
,,"[""diamond"",""green"",""hori"",""left"",[-106,106],[106,106]]",diamond,green,hori,left,"[-106,106]","[106,106]",left,1,2.8171,,,,,,001,2025-03-17_14h42.06.313,SL_sali,2021.2.3,Win32,60.17571308,,,23,0,23,0,1,,,,,,,,
,,"[""circle"",""red"",""hori"",""left"",[106,-106],[150,0]]",circle,red,hori,left,"[106,-106]","[150,0]",left,1,1.4561,,,,,,001,2025-03-17_14h42.06.313,SL_sali,2021.2.3,Win32,60.17571308,,,24,0,24,0,1,,,,,,,,
,,"[""circle"",""red"",""hori"",""left"",[0,-150],[150,0]]",circle,red,hori,left,"[0,-150]","[150,0]",left,1,1.9141,,,,,,001,2025-03-17_14h42.06.313,SL_sali,2021.2.3,Win32,60.17571308,,,25,0,25,0,1,,,,,,,,
,,"[""circle"",""no_dis"",""vert"",""up"",[99999,99999],[0,-150]]",circle,no_dis,vert,up,"[99999,99999]","[0,-150]",up,1,2.5786,,,,,,001,2025-03-17_14h42.06.313,SL_sali,2021.2.3,Win32,60.17571308,,,26,0,26,0,1,,,,,,,,
,,"[""diamond"",""red"",""vert"",""up"",[-150,0],[-106,-106]]",diamond,red,vert,up,"[-150,0]","[-106,-106]",up,1,1.0743,,,,,,001,2025-03-17_14h42.06.313,SL_sali,2021.2.3,Win32,60.17571308,,,27,0,27,0,1,,,,,,,,
,,"[""diamond"",""green"",""vert"",""up"",[-106,-106],[106,-106]]",diamond,green,vert,up,"[-106,-106]","[106,-106]",up,1,1.6506,,,,,,001,2025-03-17_14h42.06.313,SL_sali,2021.2.3,Win32,60.17571308,,,28,0,28,0,1,,,,,,,,
,,"[""circle"",""no_dis"",""vert"",""up"",[99999,99999],[150,0]]",circle,no_dis,vert,up,"[99999,99999]","[150,0]",up,1,1.0842,,,,,,001,2025-03-17_14h42.06.313,SL_sali,2021.2.3,Win32,60.17571308,,,29,0,29,0,1,,,,,,,,
,,"[""circle"",""green"",""vert"",""up"",[0,-150],[150,0]]",circle,green,vert,up,"[0,-150]","[150,0]",up,1,2.2801,,,,,,001,2025-03-17_14h42.06.313,SL_sali,2021.2.3,Win32,60.17571308,,,30,0,30,0,1,,,,,,,,
,,"[""circle"",""green"",""hori"",""left"",[-106,-106],[0,150]]",circle,green,hori,left,"[-106,-106]","[0,150]",up,0,1.6982,,,,,,001,2025-03-17_14h42.06.313,SL_sali,2021.2.3,Win32,60.17571308,,,31,0,31,0,1,,,,,,,,
,,"[""circle"",""green"",""hori"",""left"",[-106,-106],[-106,106]]",circle,green,hori,left,"[-106,-106]","[-106,106]",left,1,1.8183,,,,,,001,2025-03-17_14h42.06.313,SL_sali,2021.2.3,Win32,60.17571308,,,32,0,32,0,1,,,,,,,,
,,"[""diamond"",""red"",""vert"",""up"",[106,-106],[-150,0]]",diamond,red,vert,up,"[106,-106]","[-150,0]",left,0,2.9001,,,,,,001,2025-03-17_14h42.06.313,SL_sali,2021.2.3,Win32,60.17571308,,,33,0,33,0,1,,,,,,,,
,,"[""diamond"",""green"",""vert"",""up"",[-106,106],[150,0]]",diamond,green,vert,up,"[-106,106]","[150,0]",up,1,2.4506,,,,,,001,2025-03-17_14h42.06.313,SL_sali,2021.2.3,Win32,60.17571308,,,34,0,34,0,1,,,,,,,,
,,"[""circle"",""red"",""hori"",""left"",[-106,106],[150,0]]",circle,red,hori,left,"[-106,106]","[150,0]",,0,,,,,,,001,2025-03-17_14h42.06.313,SL_sali,2021.2.3,Win32,60.17571308,,,35,0,35,0,1,,,,,,,,
,,"[""diamond"",""green"",""hori"",""left"",[106,106],[0,150]]",diamond,green,hori,left,"[106,106]","[0,150]",left,1,0.8883,,,,,,001,2025-03-17_14h42.06.313,SL_sali,2021.2.3,Win32,60.17571308,,,36,0,36,0,1,,,,,,,,
,,"[""diamond"",""red"",""hori"",""left"",[106,-106],[0,-150]]",diamond,red,hori,left,"[106,-106]","[0,-150]",left,1,2.7755,,,,,,001,2025-03-17_14h42.06.313,SL_sali,2021.2.3,Win32,60.17571308,,,37,0,37,0,1,,,,,,,,
,,"[""diamond"",""green"",""hori"",""left"",[0,-150],[-106,-106]]",diamond,green,hori,left,"[0,-150]","[-106,-106]",left,1,2.9169,,,,,,001,2025-03-17_14h42.06.313,SL_sali,2021.2.3,Win32,60.17571308,,,38,0,38,0,1,,,,,,,,
,,"[""diamond"",""no_dis"",""vert"",""up"",[99999,99999],[-150,0]]",diamond,no_dis,vert,up,"[99999,99999]","[-150,0]",up,1,1.5311,,,,,,001,2025-03-17_14h42.06.313,SL_sali,2021.2.3,Win32,60.17571308,,,39,0,39,0,1,,,,,,,,
,,"[""diamond"",""no_dis"",""hori"",""left"",[99999,99999],[-106,-106]]",diamond,no_dis,hori,left,"[99999,99999]","[-106,-106]",left,1,1.9004,,,,,,001,2025-03-17_14h42.06.313,SL_sali,2021.2.3,Win32,60.17571308,,,40,0,40,0,1,,,,,,,,
,,"[""diamond"",""red"",""hori"",""left"",[-106,-106],[106,-106]]",diamond,red,hori,left,"[-106,-106]","[106,-106]",,0,,,,,,,001,2025-03-17_14h42.06.313,SL_sali,2021.2.3,Win32,60.17571308,,,41,0,41,0,1,,,,,,,,
,,"[""circle"",""no_dis"",""hori"",""left"",[99999,99999],[150,0]]",circle,no_dis,hori,left,"[99999,99999]","[150,0]",,0,,,,,,,001,2025-03-17_14h42.06.313,SL_sali,2021.2.3,Win32,60.17571308,,,42,0,42,0,1,,,,,,,,
,,"[""circle"",""red"",""vert"",""up"",[-150,0],[0,150]]",circle,red,vert,up,"[-150,0]","[0,150]",up,1,1.0843,,,,,,001,2025-03-17_14h42.06.313,SL_sali,2021.2.3,Win32,60.17571308,,,43,0,43,0,1,,,,,,,,
,,"[""circle"",""no_dis"",""hori"",""left"",[99999,99999],[-106,106]]",circle,no_dis,hori,left,"[99999,99999]","[-106,106]",left,1,1.2674,,,,,,001,2025-03-17_14h42.06.313,SL_sali,2021.2.3,Win32,60.17571308,,,44,0,44,0,1,,,,,,,,
,,"[""circle"",""green"",""vert"",""up"",[106,106],[106,-106]]",circle,green,vert,up,"[106,106]","[106,-106]",up,1,1.5208,,,,,,001,2025-03-17_14h42.06.313,SL_sali,2021.2.3,Win32,60.17571308,,,45,0,45,0,1,,,,,,,,
,,"[""diamond"",""no_dis"",""vert"",""up"",[99999,99999],[106,-106]]",diamond,no_dis,vert,up,"[99999,99999]","[106,-106]",up,1,1.258,,,,,,001,2025-03-17_14h42.06.313,SL_sali,2021.2.3,Win32,60.17571308,,,46,0,46,0,1,,,,,,,,
,,"[""circle"",""red"",""hori"",""left"",[0,-150],[106,-106]]",circle,red,hori,left,"[0,-150]","[106,-106]",left,1,1.165,,,,,,001,2025-03-17_14h42.06.313,SL_sali,2021.2.3,Win32,60.17571308,,,47,0,47,0,1,,,,,,,,
,,"[""diamond"",""red"",""hori"",""left"",[106,-106],[0,150]]",diamond,red,hori,left,"[106,-106]","[0,150]",left,1,1.9223,,,,,,001,2025-03-17_14h42.06.313,SL_sali,2021.2.3,Win32,60.17571308,,,48,0,48,0,1,,,,,,,,
,,"[""diamond"",""red"",""hori"",""left"",[150,0],[-106,106]]",diamond,red,hori,left,"[150,0]","[-106,106]",left,1,1.785,,,,,,001,2025-03-17_14h42.06.313,SL_sali,2021.2.3,Win32,60.17571308,,,49,0,49,0,1,,,,,,,,
,,"[""circle"",""red"",""hori"",""left"",[0,150],[106,106]]",circle,red,hori,left,"[0,150]","[106,106]",up,0,1.5721,,,,,,001,2025-03-17_14h42.06.313,SL_sali,2021.2.3,Win32,60.17571308,,,50,0,50,0,1,,,,,,,,
,,"[""circle"",""no_dis"",""vert"",""up"",[99999,99999],[106,106]]",circle,no_dis,vert,up,"[99999,99999]","[106,106]",up,1,1.1007,,,,,,001,2025-03-17_14h42.06.313,SL_sali,2021.2.3,Win32,60.17571308,,,51,0,51,0,1,,,,,,,,
,,"[""circle"",""green"",""vert"",""up"",[106,-106],[-150,0]]",circle,green,vert,up,"[106,-106]","[-150,0]",up,1,2.0243,,,,,,001,2025-03-17_14h42.06.313,SL_sali,2021.2.3,Win32,60.17571308,,,52,0,52,0,1,,,,,,,,
,,"[""diamond"",""red"",""hori"",""left"",[-150,0],[0,-150]]",diamond,red,hori,left,"[-150,0]","[0,-150]",left,1,1.322,,,,,,001,2025-03-17_14h42.06.313,SL_sali,2021.2.3,Win32,60.17571308,,,53,0,53,0,1,,,,,,,,
,,"[""circle"",""green"",""vert"",""up"",[0,-150],[-106,106]]",circle,green,vert,up,"[0,-150]","[-106,106]",up,1,1.0813,,,,,,001,2025-03-17_14h42.06.313,SL_sali,2021.2.3,Win32,60.17571308,,,54,0,54,0,1,,,,,,,,
,,"[""circle"",""red"",""vert"",""up"",[106,106],[150,0]]",circle,red,vert,up,"[106,106]","[150,0]",up,1,0.9001,,,,,,001,2025-03-17_14h42.06.313,SL_sali,2021.2.3,Win32,60.17571308,,,55,0,55,0,1,,,,,,,,
,,"[""circle"",""red"",""hori"",""left"",[106,106],[-106,106]]",circle,red,hori,left,"[106,106]","[-106,106]",left,1,0.9946,,,,,,001,2025-03-17_14h42.06.313,SL_sali,2021.2.3,Win32,60.17571308,,,56,0,56,0,1,,,,,,,,
,,"[""circle"",""no_dis"",""vert"",""up"",[99999,99999],[-106,-106]]",circle,no_dis,vert,up,"[99999,99999]","[-106,-106]",up,1,0.9129,,,,,,001,2025-03-17_14h42.06.313,SL_sali,2021.2.3,Win32,60.17571308,,,57,0,57,0,1,,,,,,,,
,,"[""circle"",""no_dis"",""vert"",""up"",[99999,99999],[-150,0]]",circle,no_dis,vert,up,"[99999,99999]","[-150,0]",up,1,0.8185,,,,,,001,2025-03-17_14h42.06.313,SL_sali,2021.2.3,Win32,60.17571308,,,58,0,58,0,1,,,,,,,,
,,"[""circle"",""green"",""hori"",""left"",[106,106],[-106,-106]]",circle,green,hori,left,"[106,106]","[-106,-106]",left,1,0.8076,,,,,,001,2025-03-17_14h42.06.313,SL_sali,2021.2.3,Win32,60.17571308,,,59,0,59,0,1,,,,,,,,
,,"[""diamond"",""no_dis"",""vert"",""up"",[99999,99999],[106,106]]",diamond,no_dis,vert,up,"[99999,99999]","[106,106]",up,1,0.8439,,,,,,001,2025-03-17_14h42.06.313,SL_sali,2021.2.3,Win32,60.17571308,,,60,0,60,0,1,,,,,,,,
,,"[""circle"",""red"",""hori"",""left"",[106,106],[0,150]]",circle,red,hori,left,"[106,106]","[0,150]",up,0,0.8946,,,,,,001,2025-03-17_14h42.06.313,SL_sali,2021.2.3,Win32,60.17571308,,,61,0,61,0,1,,,,,,,,
,,"[""diamond"",""red"",""vert"",""up"",[-106,106],[0,-150]]",diamond,red,vert,up,"[-106,106]","[0,-150]",up,1,1.7361,,,,,,001,2025-03-17_14h42.06.313,SL_sali,2021.2.3,Win32,60.17571308,,,62,0,62,0,1,,,,,,,,
,,"[""circle"",""red"",""vert"",""up"",[150,0],[-106,106]]",circle,red,vert,up,"[150,0]","[-106,106]",up,1,1.3505,,,,,,001,2025-03-17_14h42.06.313,SL_sali,2021.2.3,Win32,60.17571308,,,63,0,63,0,1,,,,,,,,
,,"[""diamond"",""red"",""hori"",""left"",[106,106],[-106,106]]",diamond,red,hori,left,"[106,106]","[-106,106]",left,1,1.6357,,,,,,001,2025-03-17_14h42.06.313,SL_sali,2021.2.3,Win32,60.17571308,,,64,0,64,0,1,,,,,,,,
,,"[""circle"",""no_dis"",""hori"",""left"",[99999,99999],[150,0]]",circle,no_dis,hori,left,"[99999,99999]","[150,0]",left,1,2.0383,,,,,,001,2025-03-17_14h42.06.313,SL_sali,2021.2.3,Win32,60.17571308,,,65,0,65,0,1,,,,,,,,
,,"[""circle"",""green"",""hori"",""left"",[-150,0],[150,0]]",circle,green,hori,left,"[-150,0]","[150,0]",left,1,1.4666,,,,,,001,2025-03-17_14h42.06.313,SL_sali,2021.2.3,Win32,60.17571308,,,66,0,66,0,1,,,,,,,,
,,"[""circle"",""no_dis"",""hori"",""left"",[99999,99999],[-106,106]]",circle,no_dis,hori,left,"[99999,99999]","[-106,106]",left,1,0.6103,,,,,,001,2025-03-17_14h42.06.313,SL_sali,2021.2.3,Win32,60.17571308,,,67,0,67,0,1,,,,,,,,
,,"[""circle"",""no_dis"",""hori"",""left"",[99999,99999],[106,106]]",circle,no_dis,hori,left,"[99999,99999]","[106,106]",left,1,0.7508,,,,,,001,2025-03-17_14h42.06.313,SL_sali,2021.2.3,Win32,60.17571308,,,68,0,68,0,1,,,,,,,,
,,"[""circle"",""red"",""vert"",""up"",[-106,106],[0,-150]]",circle,red,vert,up,"[-106,106]","[0,-150]",up,1,1.4676,,,,,,001,2025-03-17_14h42.06.313,SL_sali,2021.2.3,Win32,60.17571308,,,69,0,69,0,1,,,,,,,,
,,"[""circle"",""green"",""vert"",""up"",[0,150],[-150,0]]",circle,green,vert,up,"[0,150]","[-150,0]",up,1,1.0689,,,,,,001,2025-03-17_14h42.06.313,SL_sali,2021.2.3,Win32,60.17571308,,,70,0,70,0,1,,,,,,,,
,,"[""circle"",""red"",""hori"",""left"",[-150,0],[0,-150]]",circle,red,hori,left,"[-150,0]","[0,-150]",left,1,1.0842,,,,,,001,2025-03-17_14h42.06.313,SL_sali,2021.2.3,Win32,60.17571308,,,71,0,71,0,1,,,,,,,,
,,"[""diamond"",""no_dis"",""hori"",""left"",[99999,99999],[106,-106]]",diamond,no_dis,hori,left,"[99999,99999]","[106,-106]",left,1,1.2004,,,,,,001,2025-03-17_14h42.06.313,SL_sali,2021.2.3,Win32,60.17571308,,,72,0,72,0,1,,,,,,,,
,,"[""circle"",""no_dis"",""vert"",""up"",[99999,99999],[0,-150]]",circle,no_dis,vert,up,"[99999,99999]","[0,-150]",up,1,0.7418,,,,,,001,2025-03-17_14h42.06.313,SL_sali,2021.2.3,Win32,60.17571308,,,73,0,73,0,1,,,,,,,,
,,"[""circle"",""no_dis"",""vert"",""up"",[99999,99999],[106,-106]]",circle,no_dis,vert,up,"[99999,99999]","[106,-106]",up,1,0.6026,,,,,,001,2025-03-17_14h42.06.313,SL_sali,2021.2.3,Win32,60.17571308,,,74,0,74,0,1,,,,,,,,
,,"[""diamond"",""red"",""vert"",""up"",[-106,-106],[150,0]]",diamond,red,vert,up,"[-106,-106]","[150,0]",up,1,0.9355,,,,,,001,2025-03-17_14h42.06.313,SL_sali,2021.2.3,Win32,60.17571308,,,75,0,75,0,1,,,,,,,,
,,"[""diamond"",""green"",""vert"",""up"",[-106,106],[-106,-106]]",diamond,green,vert,up,"[-106,106]","[-106,-106]",up,1,1.1444,,,,,,001,2025-03-17_14h42.06.313,SL_sali,2021.2.3,Win32,60.17571308,,,76,0,76,0,1,,,,,,,,
,,"[""circle"",""red"",""hori"",""left"",[-106,106],[-150,0]]",circle,red,hori,left,"[-106,106]","[-150,0]",left,1,1.0213,,,,,,001,2025-03-17_14h42.06.313,SL_sali,2021.2.3,Win32,60.17571308,,,77,0,77,0,1,,,,,,,,
,,"[""diamond"",""no_dis"",""vert"",""up"",[99999,99999],[106,-106]]",diamond,no_dis,vert,up,"[99999,99999]","[106,-106]",up,1,1.0171,,,,,,001,2025-03-17_14h42.06.313,SL_sali,2021.2.3,Win32,60.17571308,,,78,0,78,0,1,,,,,,,,
,,"[""circle"",""red"",""vert"",""up"",[-106,-106],[-106,106]]",circle,red,vert,up,"[-106,-106]","[-106,106]",up,1,1.0676,,,,,,001,2025-03-17_14h42.06.313,SL_sali,2021.2.3,Win32,60.17571308,,,79,0,79,0,1,,,,,,,,
,,"[""diamond"",""green"",""vert"",""up"",[106,106],[150,0]]",diamond,green,vert,up,"[106,106]","[150,0]",,0,,,,,,,001,2025-03-17_14h42.06.313,SL_sali,2021.2.3,Win32,60.17571308,,,80,0,80,0,1,,,,,,,,
,,"[""diamond"",""no_dis"",""vert"",""up"",[99999,99999],[106,106]]",diamond,no_dis,vert,up,"[99999,99999]","[106,106]",up,1,1.0455,,,,,,001,2025-03-17_14h42.06.313,SL_sali,2021.2.3,Win32,60.17571308,,,81,0,81,0,1,,,,,,,,
,,"[""diamond"",""red"",""hori"",""left"",[0,-150],[106,-106]]",diamond,red,hori,left,"[0,-150]","[106,-106]",left,1,1.768,,,,,,001,2025-03-17_14h42.06.313,SL_sali,2021.2.3,Win32,60.17571308,,,82,0,82,0,1,,,,,,,,
,,"[""diamond"",""green"",""hori"",""left"",[106,106],[-106,-106]]",diamond,green,hori,left,"[106,106]","[-106,-106]",left,1,2.9171,,,,,,001,2025-03-17_14h42.06.313,SL_sali,2021.2.3,Win32,60.17571308,,,83,0,83,0,1,,,,,,,,
,,"[""diamond"",""no_dis"",""hori"",""left"",[99999,99999],[0,150]]",diamond,no_dis,hori,left,"[99999,99999]","[0,150]",left,1,1.9887,,,,,,001,2025-03-17_14h42.06.313,SL_sali,2021.2.3,Win32,60.17571308,,,84,0,84,0,1,,,,,,,,
,,"[""diamond"",""no_dis"",""vert"",""up"",[99999,99999],[106,-106]]",diamond,no_dis,vert,up,"[99999,99999]","[106,-106]",up,1,2.314,,,,,,001,2025-03-17_14h42.06.313,SL_sali,2021.2.3,Win32,60.17571308,,,85,0,85,0,1,,,,,,,,
,,"[""circle"",""green"",""hori"",""left"",[150,0],[-106,-106]]",circle,green,hori,left,"[150,0]","[-106,-106]",left,1,2.4199,,,,,,001,2025-03-17_14h42.06.313,SL_sali,2021.2.3,Win32,60.17571308,,,86,0,86,0,1,,,,,,,,
,,"[""circle"",""green"",""vert"",""up"",[106,106],[0,-150]]",circle,green,vert,up,"[106,106]","[0,-150]",up,1,1.3851,,,,,,001,2025-03-17_14h42.06.313,SL_sali,2021.2.3,Win32,60.17571308,,,87,0,87,0,1,,,,,,,,
,,"[""circle"",""green"",""hori"",""left"",[-150,0],[150,0]]",circle,green,hori,left,"[-150,0]","[150,0]",left,1,1.5866,,,,,,001,2025-03-17_14h42.06.313,SL_sali,2021.2.3,Win32,60.17571308,,,88,0,88,0,1,,,,,,,,
,,"[""diamond"",""no_dis"",""hori"",""left"",[99999,99999],[-150,0]]",diamond,no_dis,hori,left,"[99999,99999]","[-150,0]",up,0,1.3172,,,,,,001,2025-03-17_14h42.06.313,SL_sali,2021.2.3,Win32,60.17571308,,,89,0,89,0,1,,,,,,,,
,,"[""diamond"",""no_dis"",""hori"",""left"",[99999,99999],[-106,106]]",diamond,no_dis,hori,left,"[99999,99999]","[-106,106]",left,1,1.051,,,,,,001,2025-03-17_14h42.06.313,SL_sali,2021.2.3,Win32,60.17571308,,,90,0,90,0,1,,,,,,,,
