﻿key_resp.keys,key_resp.rt,trial_para,tar_shape,dis_color_condi,tar_line,cor_resp,dis_loc,tar_loc,resp.keys,resp.corr,trials.thisRepN,trials.thisTrialN,trials.thisN,trials.thisIndex,trials.ran,participant,date,expName,psychopyVersion,OS,frameRate,resp.rt,key_resp_2.keys,key_resp_2.rt,trials_2.thisRepN,trials_2.thisTrialN,trials_2.thisN,trials_2.thisIndex,trials_2.ran,block_num,key_resp_3.keys,key_resp_3.rt,trials_3.thisRepN,trials_3.thisTrialN,trials_3.thisN,trials_3.thisIndex,trials_3.ran
space,20.376,"[""circle"",""green"",""hori"",""left"",[106,106],[-106,-106]]",circle,green,hori,left,"[106,106]","[-106,-106]",,0,0,0,0,0,1,001,2025-03-17_12h13.07.029,SL_sali,2021.2.3,Win32,60.24096386,,,,,,,,,,,,,,,,
,,"[""circle"",""red"",""vert"",""up"",[-106,106],[106,106]]",circle,red,vert,up,"[-106,106]","[106,106]",up,1,1,0,1,0,1,001,2025-03-17_12h13.07.029,SL_sali,2021.2.3,Win32,60.24096386,1.6932,,,,,,,,,,,,,,,
,,"[""diamond"",""green"",""hori"",""left"",[106,-106],[-106,106]]",diamond,green,hori,left,"[106,-106]","[-106,106]",left,1,2,0,2,0,1,001,2025-03-17_12h13.07.029,SL_sali,2021.2.3,Win32,60.24096386,1.679,,,,,,,,,,,,,,,
,,"[""diamond"",""no_dis"",""vert"",""up"",[99999,99999],[0,150]]",diamond,no_dis,vert,up,"[99999,99999]","[0,150]",up,1,3,0,3,0,1,001,2025-03-17_12h13.07.029,SL_sali,2021.2.3,Win32,60.24096386,1.6058,,,,,,,,,,,,,,,
,,"[""circle"",""red"",""hori"",""left"",[106,106],[150,0]]",circle,red,hori,left,"[106,106]","[150,0]",left,1,4,0,4,0,1,001,2025-03-17_12h13.07.029,SL_sali,2021.2.3,Win32,60.24096386,2.509,,,,,,,,,,,,,,,
,,"[""diamond"",""no_dis"",""vert"",""up"",[99999,99999],[-106,-106]]",diamond,no_dis,vert,up,"[99999,99999]","[-106,-106]",up,1,5,0,5,0,1,001,2025-03-17_12h13.07.029,SL_sali,2021.2.3,Win32,60.24096386,1.2335,,,,,,,,,,,,,,,
,,"[""circle"",""green"",""vert"",""up"",[-106,106],[0,150]]",circle,green,vert,up,"[-106,106]","[0,150]",left,0,6,0,6,0,1,001,2025-03-17_12h13.07.029,SL_sali,2021.2.3,Win32,60.24096386,2.1943,,,,,,,,,,,,,,,
,,"[""circle"",""red"",""hori"",""left"",[106,-106],[150,0]]",circle,red,hori,left,"[106,-106]","[150,0]",left,1,7,0,7,0,1,001,2025-03-17_12h13.07.029,SL_sali,2021.2.3,Win32,60.24096386,1.9331,,,,,,,,,,,,,,,
,,"[""diamond"",""green"",""vert"",""up"",[0,-150],[150,0]]",diamond,green,vert,up,"[0,-150]","[150,0]",up,1,8,0,8,0,1,001,2025-03-17_12h13.07.029,SL_sali,2021.2.3,Win32,60.24096386,1.7218,,,,,,,,,,,,,,,
,,"[""diamond"",""no_dis"",""hori"",""left"",[99999,99999],[106,-106]]",diamond,no_dis,hori,left,"[99999,99999]","[106,-106]",left,1,9,0,9,0,1,001,2025-03-17_12h13.07.029,SL_sali,2021.2.3,Win32,60.24096386,2.0408,,,,,,,,,,,,,,,
,,"[""circle"",""green"",""hori"",""left"",[106,106],[-106,-106]]",circle,green,hori,left,"[106,106]","[-106,-106]",left,1,,,,,,001,2025-03-17_12h13.07.029,SL_sali,2021.2.3,Win32,60.24096386,1.3425,space,4.9003,0,0,0,0,1,,,,,,,,
,,"[""circle"",""red"",""vert"",""up"",[-106,106],[106,106]]",circle,red,vert,up,"[-106,106]","[106,106]",up,1,,,,,,001,2025-03-17_12h13.07.029,SL_sali,2021.2.3,Win32,60.24096386,1.4389,,,1,0,1,0,1,,,,,,,,
,,"[""diamond"",""green"",""hori"",""left"",[106,-106],[-106,106]]",diamond,green,hori,left,"[106,-106]","[-106,106]",left,1,,,,,,001,2025-03-17_12h13.07.029,SL_sali,2021.2.3,Win32,60.24096386,1.7421,,,2,0,2,0,1,,,,,,,,
,,"[""diamond"",""no_dis"",""vert"",""up"",[99999,99999],[0,150]]",diamond,no_dis,vert,up,"[99999,99999]","[0,150]",up,1,,,,,,001,2025-03-17_12h13.07.029,SL_sali,2021.2.3,Win32,60.24096386,1.5439,,,3,0,3,0,1,,,,,,,,
,,"[""circle"",""red"",""hori"",""left"",[106,106],[150,0]]",circle,red,hori,left,"[106,106]","[150,0]",left,1,,,,,,001,2025-03-17_12h13.07.029,SL_sali,2021.2.3,Win32,60.24096386,1.6531,,,4,0,4,0,1,,,,,,,,
,,"[""diamond"",""no_dis"",""vert"",""up"",[99999,99999],[-106,-106]]",diamond,no_dis,vert,up,"[99999,99999]","[-106,-106]",up,1,,,,,,001,2025-03-17_12h13.07.029,SL_sali,2021.2.3,Win32,60.24096386,1.5328,,,5,0,5,0,1,,,,,,,,
,,"[""circle"",""green"",""vert"",""up"",[-106,106],[0,150]]",circle,green,vert,up,"[-106,106]","[0,150]",up,1,,,,,,001,2025-03-17_12h13.07.029,SL_sali,2021.2.3,Win32,60.24096386,1.7498,,,6,0,6,0,1,,,,,,,,
,,"[""circle"",""red"",""hori"",""left"",[106,-106],[150,0]]",circle,red,hori,left,"[106,-106]","[150,0]",left,1,,,,,,001,2025-03-17_12h13.07.029,SL_sali,2021.2.3,Win32,60.24096386,1.3187,,,7,0,7,0,1,,,,,,,,
,,"[""diamond"",""green"",""vert"",""up"",[0,-150],[150,0]]",diamond,green,vert,up,"[0,-150]","[150,0]",up,1,,,,,,001,2025-03-17_12h13.07.029,SL_sali,2021.2.3,Win32,60.24096386,1.6499,,,8,0,8,0,1,,,,,,,,
,,"[""diamond"",""no_dis"",""hori"",""left"",[99999,99999],[106,-106]]",diamond,no_dis,hori,left,"[99999,99999]","[106,-106]",left,1,,,,,,001,2025-03-17_12h13.07.029,SL_sali,2021.2.3,Win32,60.24096386,1.6004,,,9,0,9,0,1,,,,,,,,
,,"[""circle"",""red"",""hori"",""left"",[-106,-106],[-150,0]]",circle,red,hori,left,"[-106,-106]","[-150,0]",left,1,,,,,,001,2025-03-17_12h13.07.029,SL_sali,2021.2.3,Win32,60.24096386,2.0946,,,10,0,10,0,1,,,,,,,,
,,"[""circle"",""no_dis"",""hori"",""left"",[99999,99999],[0,150]]",circle,no_dis,hori,left,"[99999,99999]","[0,150]",left,1,,,,,,001,2025-03-17_12h13.07.029,SL_sali,2021.2.3,Win32,60.24096386,1.6069,,,11,0,11,0,1,,,,,,,,
,,"[""circle"",""red"",""hori"",""left"",[-106,-106],[0,-150]]",circle,red,hori,left,"[-106,-106]","[0,-150]",left,1,,,,,,001,2025-03-17_12h13.07.029,SL_sali,2021.2.3,Win32,60.24096386,1.7831,,,12,0,12,0,1,,,,,,,,
,,"[""circle"",""red"",""vert"",""up"",[0,-150],[0,150]]",circle,red,vert,up,"[0,-150]","[0,150]",up,1,,,,,,001,2025-03-17_12h13.07.029,SL_sali,2021.2.3,Win32,60.24096386,1.4035,,,13,0,13,0,1,,,,,,,,
,,"[""circle"",""green"",""vert"",""up"",[106,-106],[0,150]]",circle,green,vert,up,"[106,-106]","[0,150]",up,1,,,,,,001,2025-03-17_12h13.07.029,SL_sali,2021.2.3,Win32,60.24096386,1.5163,,,14,0,14,0,1,,,,,,,,
,,"[""circle"",""green"",""vert"",""up"",[-106,-106],[0,150]]",circle,green,vert,up,"[-106,-106]","[0,150]",up,1,,,,,,001,2025-03-17_12h13.07.029,SL_sali,2021.2.3,Win32,60.24096386,1.5836,,,15,0,15,0,1,,,,,,,,
,,"[""circle"",""green"",""vert"",""up"",[0,150],[106,106]]",circle,green,vert,up,"[0,150]","[106,106]",up,1,,,,,,001,2025-03-17_12h13.07.029,SL_sali,2021.2.3,Win32,60.24096386,1.483,,,16,0,16,0,1,,,,,,,,
,,"[""circle"",""no_dis"",""vert"",""up"",[99999,99999],[-106,106]]",circle,no_dis,vert,up,"[99999,99999]","[-106,106]",up,1,,,,,,001,2025-03-17_12h13.07.029,SL_sali,2021.2.3,Win32,60.24096386,1.6252,,,17,0,17,0,1,,,,,,,,
,,"[""circle"",""no_dis"",""vert"",""up"",[99999,99999],[106,106]]",circle,no_dis,vert,up,"[99999,99999]","[106,106]",up,1,,,,,,001,2025-03-17_12h13.07.029,SL_sali,2021.2.3,Win32,60.24096386,2.0844,,,18,0,18,0,1,,,,,,,,
,,"[""circle"",""red"",""vert"",""up"",[-150,0],[0,-150]]",circle,red,vert,up,"[-150,0]","[0,-150]",up,1,,,,,,001,2025-03-17_12h13.07.029,SL_sali,2021.2.3,Win32,60.24096386,1.7221,,,19,0,19,0,1,,,,,,,,
,,"[""diamond"",""green"",""hori"",""left"",[0,150],[-106,-106]]",diamond,green,hori,left,"[0,150]","[-106,-106]",left,1,,,,,,001,2025-03-17_12h13.07.029,SL_sali,2021.2.3,Win32,60.24096386,2.5349,,,20,0,20,0,1,,,,,,,,
,,"[""diamond"",""no_dis"",""vert"",""up"",[99999,99999],[106,106]]",diamond,no_dis,vert,up,"[99999,99999]","[106,106]",up,1,,,,,,001,2025-03-17_12h13.07.029,SL_sali,2021.2.3,Win32,60.24096386,2.0502,,,21,0,21,0,1,,,,,,,,
,,"[""circle"",""red"",""hori"",""left"",[106,106],[106,-106]]",circle,red,hori,left,"[106,106]","[106,-106]",left,1,,,,,,001,2025-03-17_12h13.07.029,SL_sali,2021.2.3,Win32,60.24096386,1.3842,,,22,0,22,0,1,,,,,,,,
,,"[""diamond"",""no_dis"",""hori"",""left"",[99999,99999],[-150,0]]",diamond,no_dis,hori,left,"[99999,99999]","[-150,0]",left,1,,,,,,001,2025-03-17_12h13.07.029,SL_sali,2021.2.3,Win32,60.24096386,1.6996,,,23,0,23,0,1,,,,,,,,
,,"[""circle"",""green"",""hori"",""left"",[106,106],[-150,0]]",circle,green,hori,left,"[106,106]","[-150,0]",left,1,,,,,,001,2025-03-17_12h13.07.029,SL_sali,2021.2.3,Win32,60.24096386,1.5923,,,24,0,24,0,1,,,,,,,,
,,"[""diamond"",""red"",""hori"",""left"",[106,106],[0,-150]]",diamond,red,hori,left,"[106,106]","[0,-150]",left,1,,,,,,001,2025-03-17_12h13.07.029,SL_sali,2021.2.3,Win32,60.24096386,2.4551,,,25,0,25,0,1,,,,,,,,
,,"[""circle"",""green"",""vert"",""up"",[150,0],[0,-150]]",circle,green,vert,up,"[150,0]","[0,-150]",up,1,,,,,,001,2025-03-17_12h13.07.029,SL_sali,2021.2.3,Win32,60.24096386,1.9444,,,26,0,26,0,1,,,,,,,,
,,"[""circle"",""no_dis"",""vert"",""up"",[99999,99999],[106,-106]]",circle,no_dis,vert,up,"[99999,99999]","[106,-106]",up,1,,,,,,001,2025-03-17_12h13.07.029,SL_sali,2021.2.3,Win32,60.24096386,1.5831,,,27,0,27,0,1,,,,,,,,
,,"[""diamond"",""green"",""hori"",""left"",[106,106],[-106,-106]]",diamond,green,hori,left,"[106,106]","[-106,-106]",left,1,,,,,,001,2025-03-17_12h13.07.029,SL_sali,2021.2.3,Win32,60.24096386,2.2526,,,28,0,28,0,1,,,,,,,,
,,"[""circle"",""red"",""vert"",""up"",[106,106],[-106,106]]",circle,red,vert,up,"[106,106]","[-106,106]",up,1,,,,,,001,2025-03-17_12h13.07.029,SL_sali,2021.2.3,Win32,60.24096386,1.5917,,,29,0,29,0,1,,,,,,,,
,,"[""diamond"",""green"",""vert"",""up"",[106,106],[0,150]]",diamond,green,vert,up,"[106,106]","[0,150]",up,1,,,,,,001,2025-03-17_12h13.07.029,SL_sali,2021.2.3,Win32,60.24096386,2.4007,,,30,0,30,0,1,,,,,,,,
,,"[""circle"",""green"",""vert"",""up"",[0,-150],[106,-106]]",circle,green,vert,up,"[0,-150]","[106,-106]",up,1,,,,,,001,2025-03-17_12h13.07.029,SL_sali,2021.2.3,Win32,60.24096386,1.3221,,,31,0,31,0,1,,,,,,,,
,,"[""diamond"",""red"",""hori"",""left"",[106,106],[-106,106]]",diamond,red,hori,left,"[106,106]","[-106,106]",left,1,,,,,,001,2025-03-17_12h13.07.029,SL_sali,2021.2.3,Win32,60.24096386,2.2723,,,32,0,32,0,1,,,,,,,,
,,"[""diamond"",""red"",""vert"",""up"",[-106,106],[0,-150]]",diamond,red,vert,up,"[-106,106]","[0,-150]",up,1,,,,,,001,2025-03-17_12h13.07.029,SL_sali,2021.2.3,Win32,60.24096386,1.8502,,,33,0,33,0,1,,,,,,,,
,,"[""circle"",""no_dis"",""vert"",""up"",[99999,99999],[0,-150]]",circle,no_dis,vert,up,"[99999,99999]","[0,-150]",up,1,,,,,,001,2025-03-17_12h13.07.029,SL_sali,2021.2.3,Win32,60.24096386,2.7165,,,34,0,34,0,1,,,,,,,,
,,"[""circle"",""no_dis"",""vert"",""up"",[99999,99999],[0,-150]]",circle,no_dis,vert,up,"[99999,99999]","[0,-150]",up,1,,,,,,001,2025-03-17_12h13.07.029,SL_sali,2021.2.3,Win32,60.24096386,1.1997,,,35,0,35,0,1,,,,,,,,
,,"[""circle"",""green"",""vert"",""up"",[0,150],[-106,-106]]",circle,green,vert,up,"[0,150]","[-106,-106]",up,1,,,,,,001,2025-03-17_12h13.07.029,SL_sali,2021.2.3,Win32,60.24096386,1.4163,,,36,0,36,0,1,,,,,,,,
,,"[""diamond"",""red"",""hori"",""left"",[-150,0],[106,106]]",diamond,red,hori,left,"[-150,0]","[106,106]",left,1,,,,,,001,2025-03-17_12h13.07.029,SL_sali,2021.2.3,Win32,60.24096386,1.4257,,,37,0,37,0,1,,,,,,,,
,,"[""diamond"",""no_dis"",""hori"",""left"",[99999,99999],[150,0]]",diamond,no_dis,hori,left,"[99999,99999]","[150,0]",left,1,,,,,,001,2025-03-17_12h13.07.029,SL_sali,2021.2.3,Win32,60.24096386,1.7697,,,38,0,38,0,1,,,,,,,,
,,"[""diamond"",""green"",""vert"",""up"",[0,-150],[-150,0]]",diamond,green,vert,up,"[0,-150]","[-150,0]",up,1,,,,,,001,2025-03-17_12h13.07.029,SL_sali,2021.2.3,Win32,60.24096386,1.5519,,,39,0,39,0,1,,,,,,,,
,,"[""circle"",""red"",""hori"",""left"",[106,106],[106,-106]]",circle,red,hori,left,"[106,106]","[106,-106]",left,1,,,,,,001,2025-03-17_12h13.07.029,SL_sali,2021.2.3,Win32,60.24096386,1.2846,,,40,0,40,0,1,,,,,,,,
,,"[""diamond"",""green"",""vert"",""up"",[-106,106],[150,0]]",diamond,green,vert,up,"[-106,106]","[150,0]",up,1,,,,,,001,2025-03-17_12h13.07.029,SL_sali,2021.2.3,Win32,60.24096386,2.3675,,,41,0,41,0,1,,,,,,,,
,,"[""diamond"",""no_dis"",""vert"",""up"",[99999,99999],[-106,-106]]",diamond,no_dis,vert,up,"[99999,99999]","[-106,-106]",up,1,,,,,,001,2025-03-17_12h13.07.029,SL_sali,2021.2.3,Win32,60.24096386,1.6855,,,42,0,42,0,1,,,,,,,,
,,"[""diamond"",""red"",""vert"",""up"",[-106,106],[150,0]]",diamond,red,vert,up,"[-106,106]","[150,0]",up,1,,,,,,001,2025-03-17_12h13.07.029,SL_sali,2021.2.3,Win32,60.24096386,1.5548,,,43,0,43,0,1,,,,,,,,
,,"[""circle"",""red"",""vert"",""up"",[106,-106],[-106,106]]",circle,red,vert,up,"[106,-106]","[-106,106]",up,1,,,,,,001,2025-03-17_12h13.07.029,SL_sali,2021.2.3,Win32,60.24096386,1.5256,,,44,0,44,0,1,,,,,,,,
,,"[""diamond"",""no_dis"",""vert"",""up"",[99999,99999],[-106,-106]]",diamond,no_dis,vert,up,"[99999,99999]","[-106,-106]",up,1,,,,,,001,2025-03-17_12h13.07.029,SL_sali,2021.2.3,Win32,60.24096386,1.5573,,,45,0,45,0,1,,,,,,,,
,,"[""circle"",""no_dis"",""hori"",""left"",[99999,99999],[106,-106]]",circle,no_dis,hori,left,"[99999,99999]","[106,-106]",left,1,,,,,,001,2025-03-17_12h13.07.029,SL_sali,2021.2.3,Win32,60.24096386,1.8728,,,46,0,46,0,1,,,,,,,,
,,"[""circle"",""no_dis"",""vert"",""up"",[99999,99999],[0,150]]",circle,no_dis,vert,up,"[99999,99999]","[0,150]",up,1,,,,,,001,2025-03-17_12h13.07.029,SL_sali,2021.2.3,Win32,60.24096386,1.6364,,,47,0,47,0,1,,,,,,,,
,,"[""circle"",""red"",""vert"",""up"",[-106,106],[150,0]]",circle,red,vert,up,"[-106,106]","[150,0]",up,1,,,,,,001,2025-03-17_12h13.07.029,SL_sali,2021.2.3,Win32,60.24096386,1.7235,,,48,0,48,0,1,,,,,,,,
,,"[""diamond"",""red"",""hori"",""left"",[150,0],[-106,-106]]",diamond,red,hori,left,"[150,0]","[-106,-106]",left,1,,,,,,001,2025-03-17_12h13.07.029,SL_sali,2021.2.3,Win32,60.24096386,1.6837,,,49,0,49,0,1,,,,,,,,
,,"[""circle"",""green"",""vert"",""up"",[-106,-106],[-150,0]]",circle,green,vert,up,"[-106,-106]","[-150,0]",up,1,,,,,,001,2025-03-17_12h13.07.029,SL_sali,2021.2.3,Win32,60.24096386,1.2057,,,50,0,50,0,1,,,,,,,,
,,"[""diamond"",""no_dis"",""vert"",""up"",[99999,99999],[150,0]]",diamond,no_dis,vert,up,"[99999,99999]","[150,0]",up,1,,,,,,001,2025-03-17_12h13.07.029,SL_sali,2021.2.3,Win32,60.24096386,1.4828,,,51,0,51,0,1,,,,,,,,
,,"[""diamond"",""red"",""hori"",""left"",[-150,0],[150,0]]",diamond,red,hori,left,"[-150,0]","[150,0]",left,1,,,,,,001,2025-03-17_12h13.07.029,SL_sali,2021.2.3,Win32,60.24096386,1.403,,,52,0,52,0,1,,,,,,,,
,,"[""diamond"",""red"",""vert"",""up"",[106,-106],[150,0]]",diamond,red,vert,up,"[106,-106]","[150,0]",up,1,,,,,,001,2025-03-17_12h13.07.029,SL_sali,2021.2.3,Win32,60.24096386,1.7781,,,53,0,53,0,1,,,,,,,,
,,"[""diamond"",""no_dis"",""vert"",""up"",[99999,99999],[106,106]]",diamond,no_dis,vert,up,"[99999,99999]","[106,106]",up,1,,,,,,001,2025-03-17_12h13.07.029,SL_sali,2021.2.3,Win32,60.24096386,1.8204,,,54,0,54,0,1,,,,,,,,
,,"[""circle"",""green"",""hori"",""left"",[106,-106],[150,0]]",circle,green,hori,left,"[106,-106]","[150,0]",left,1,,,,,,001,2025-03-17_12h13.07.029,SL_sali,2021.2.3,Win32,60.24096386,1.6575,,,55,0,55,0,1,,,,,,,,
,,"[""diamond"",""red"",""vert"",""up"",[0,-150],[0,150]]",diamond,red,vert,up,"[0,-150]","[0,150]",up,1,,,,,,001,2025-03-17_12h13.07.029,SL_sali,2021.2.3,Win32,60.24096386,1.1506,,,56,0,56,0,1,,,,,,,,
,,"[""circle"",""no_dis"",""hori"",""left"",[99999,99999],[0,-150]]",circle,no_dis,hori,left,"[99999,99999]","[0,-150]",left,1,,,,,,001,2025-03-17_12h13.07.029,SL_sali,2021.2.3,Win32,60.24096386,1.1602,,,57,0,57,0,1,,,,,,,,
,,"[""circle"",""red"",""vert"",""up"",[-106,-106],[106,-106]]",circle,red,vert,up,"[-106,-106]","[106,-106]",up,1,,,,,,001,2025-03-17_12h13.07.029,SL_sali,2021.2.3,Win32,60.24096386,1.303,,,58,0,58,0,1,,,,,,,,
,,"[""diamond"",""green"",""vert"",""up"",[-150,0],[-106,-106]]",diamond,green,vert,up,"[-150,0]","[-106,-106]",up,1,,,,,,001,2025-03-17_12h13.07.029,SL_sali,2021.2.3,Win32,60.24096386,1.9265,,,59,0,59,0,1,,,,,,,,
,,"[""diamond"",""green"",""hori"",""left"",[-150,0],[150,0]]",diamond,green,hori,left,"[-150,0]","[150,0]",left,1,,,,,,001,2025-03-17_12h13.07.029,SL_sali,2021.2.3,Win32,60.24096386,1.3893,,,60,0,60,0,1,,,,,,,,
,,"[""circle"",""red"",""vert"",""up"",[0,150],[150,0]]",circle,red,vert,up,"[0,150]","[150,0]",up,1,,,,,,001,2025-03-17_12h13.07.029,SL_sali,2021.2.3,Win32,60.24096386,1.9859,,,61,0,61,0,1,,,,,,,,
,,"[""circle"",""no_dis"",""hori"",""left"",[99999,99999],[0,-150]]",circle,no_dis,hori,left,"[99999,99999]","[0,-150]",left,1,,,,,,001,2025-03-17_12h13.07.029,SL_sali,2021.2.3,Win32,60.24096386,1.2226,,,62,0,62,0,1,,,,,,,,
,,"[""diamond"",""green"",""vert"",""up"",[106,106],[0,-150]]",diamond,green,vert,up,"[106,106]","[0,-150]",up,1,,,,,,001,2025-03-17_12h13.07.029,SL_sali,2021.2.3,Win32,60.24096386,1.7336,,,63,0,63,0,1,,,,,,,,
,,"[""diamond"",""no_dis"",""vert"",""up"",[99999,99999],[150,0]]",diamond,no_dis,vert,up,"[99999,99999]","[150,0]",up,1,,,,,,001,2025-03-17_12h13.07.029,SL_sali,2021.2.3,Win32,60.24096386,0.9856,,,64,0,64,0,1,,,,,,,,
,,"[""circle"",""green"",""hori"",""left"",[150,0],[-150,0]]",circle,green,hori,left,"[150,0]","[-150,0]",left,1,,,,,,001,2025-03-17_12h13.07.029,SL_sali,2021.2.3,Win32,60.24096386,1.4779,,,65,0,65,0,1,,,,,,,,
,,"[""circle"",""green"",""hori"",""left"",[106,106],[150,0]]",circle,green,hori,left,"[106,106]","[150,0]",left,1,,,,,,001,2025-03-17_12h13.07.029,SL_sali,2021.2.3,Win32,60.24096386,1.4109,,,66,0,66,0,1,,,,,,,,
,,"[""circle"",""green"",""hori"",""left"",[106,106],[106,-106]]",circle,green,hori,left,"[106,106]","[106,-106]",left,1,,,,,,001,2025-03-17_12h13.07.029,SL_sali,2021.2.3,Win32,60.24096386,2.1731,,,67,0,67,0,1,,,,,,,,
,,"[""circle"",""red"",""hori"",""left"",[0,-150],[0,150]]",circle,red,hori,left,"[0,-150]","[0,150]",left,1,,,,,,001,2025-03-17_12h13.07.029,SL_sali,2021.2.3,Win32,60.24096386,1.846,,,68,0,68,0,1,,,,,,,,
,,"[""diamond"",""green"",""hori"",""left"",[150,0],[-150,0]]",diamond,green,hori,left,"[150,0]","[-150,0]",left,1,,,,,,001,2025-03-17_12h13.07.029,SL_sali,2021.2.3,Win32,60.24096386,1.9835,,,69,0,69,0,1,,,,,,,,
,,"[""diamond"",""no_dis"",""hori"",""left"",[99999,99999],[-150,0]]",diamond,no_dis,hori,left,"[99999,99999]","[-150,0]",left,1,,,,,,001,2025-03-17_12h13.07.029,SL_sali,2021.2.3,Win32,60.24096386,1.3369,,,70,0,70,0,1,,,,,,,,
,,"[""diamond"",""green"",""hori"",""left"",[106,106],[-106,106]]",diamond,green,hori,left,"[106,106]","[-106,106]",left,1,,,,,,001,2025-03-17_12h13.07.029,SL_sali,2021.2.3,Win32,60.24096386,1.6759,,,71,0,71,0,1,,,,,,,,
,,"[""diamond"",""green"",""vert"",""up"",[106,106],[-106,106]]",diamond,green,vert,up,"[106,106]","[-106,106]",up,1,,,,,,001,2025-03-17_12h13.07.029,SL_sali,2021.2.3,Win32,60.24096386,1.3244,,,72,0,72,0,1,,,,,,,,
,,"[""circle"",""green"",""hori"",""left"",[106,106],[106,-106]]",circle,green,hori,left,"[106,106]","[106,-106]",left,1,,,,,,001,2025-03-17_12h13.07.029,SL_sali,2021.2.3,Win32,60.24096386,1.4331,,,73,0,73,0,1,,,,,,,,
,,"[""circle"",""no_dis"",""hori"",""left"",[99999,99999],[-150,0]]",circle,no_dis,hori,left,"[99999,99999]","[-150,0]",left,1,,,,,,001,2025-03-17_12h13.07.029,SL_sali,2021.2.3,Win32,60.24096386,1.6592,,,74,0,74,0,1,,,,,,,,
,,"[""circle"",""green"",""hori"",""left"",[106,-106],[-106,106]]",circle,green,hori,left,"[106,-106]","[-106,106]",left,1,,,,,,001,2025-03-17_12h13.07.029,SL_sali,2021.2.3,Win32,60.24096386,1.077,,,75,0,75,0,1,,,,,,,,
,,"[""diamond"",""red"",""hori"",""left"",[0,-150],[150,0]]",diamond,red,hori,left,"[0,-150]","[150,0]",left,1,,,,,,001,2025-03-17_12h13.07.029,SL_sali,2021.2.3,Win32,60.24096386,1.5755,,,76,0,76,0,1,,,,,,,,
,,"[""diamond"",""no_dis"",""hori"",""left"",[99999,99999],[0,150]]",diamond,no_dis,hori,left,"[99999,99999]","[0,150]",left,1,,,,,,001,2025-03-17_12h13.07.029,SL_sali,2021.2.3,Win32,60.24096386,1.3241,,,77,0,77,0,1,,,,,,,,
,,"[""diamond"",""green"",""vert"",""up"",[150,0],[106,-106]]",diamond,green,vert,up,"[150,0]","[106,-106]",up,1,,,,,,001,2025-03-17_12h13.07.029,SL_sali,2021.2.3,Win32,60.24096386,1.3069,,,78,0,78,0,1,,,,,,,,
,,"[""diamond"",""green"",""hori"",""left"",[0,150],[106,-106]]",diamond,green,hori,left,"[0,150]","[106,-106]",left,1,,,,,,001,2025-03-17_12h13.07.029,SL_sali,2021.2.3,Win32,60.24096386,1.2836,,,79,0,79,0,1,,,,,,,,
,,"[""diamond"",""red"",""hori"",""left"",[150,0],[0,-150]]",diamond,red,hori,left,"[150,0]","[0,-150]",left,1,,,,,,001,2025-03-17_12h13.07.029,SL_sali,2021.2.3,Win32,60.24096386,1.2115,,,80,0,80,0,1,,,,,,,,
,,"[""circle"",""green"",""hori"",""left"",[-106,-106],[0,-150]]",circle,green,hori,left,"[-106,-106]","[0,-150]",left,1,,,,,,001,2025-03-17_12h13.07.029,SL_sali,2021.2.3,Win32,60.24096386,2.133,,,81,0,81,0,1,,,,,,,,
,,"[""diamond"",""no_dis"",""hori"",""left"",[99999,99999],[-106,-106]]",diamond,no_dis,hori,left,"[99999,99999]","[-106,-106]",left,1,,,,,,001,2025-03-17_12h13.07.029,SL_sali,2021.2.3,Win32,60.24096386,1.9668,,,82,0,82,0,1,,,,,,,,
,,"[""circle"",""no_dis"",""vert"",""up"",[99999,99999],[-106,106]]",circle,no_dis,vert,up,"[99999,99999]","[-106,106]",up,1,,,,,,001,2025-03-17_12h13.07.029,SL_sali,2021.2.3,Win32,60.24096386,1.3266,,,83,0,83,0,1,,,,,,,,
,,"[""circle"",""red"",""hori"",""left"",[-106,106],[0,150]]",circle,red,hori,left,"[-106,106]","[0,150]",left,1,,,,,,001,2025-03-17_12h13.07.029,SL_sali,2021.2.3,Win32,60.24096386,2.8336,,,84,0,84,0,1,,,,,,,,
,,"[""diamond"",""no_dis"",""hori"",""left"",[99999,99999],[106,106]]",diamond,no_dis,hori,left,"[99999,99999]","[106,106]",left,1,,,,,,001,2025-03-17_12h13.07.029,SL_sali,2021.2.3,Win32,60.24096386,1.717,,,85,0,85,0,1,,,,,,,,
,,"[""diamond"",""red"",""hori"",""left"",[106,-106],[150,0]]",diamond,red,hori,left,"[106,-106]","[150,0]",left,1,,,,,,001,2025-03-17_12h13.07.029,SL_sali,2021.2.3,Win32,60.24096386,2.2538,,,86,0,86,0,1,,,,,,,,
,,"[""diamond"",""red"",""vert"",""up"",[106,106],[106,-106]]",diamond,red,vert,up,"[106,106]","[106,-106]",up,1,,,,,,001,2025-03-17_12h13.07.029,SL_sali,2021.2.3,Win32,60.24096386,1.1668,,,87,0,87,0,1,,,,,,,,
,,"[""circle"",""no_dis"",""vert"",""up"",[99999,99999],[150,0]]",circle,no_dis,vert,up,"[99999,99999]","[150,0]",up,1,,,,,,001,2025-03-17_12h13.07.029,SL_sali,2021.2.3,Win32,60.24096386,2.3442,,,88,0,88,0,1,,,,,,,,
,,"[""diamond"",""red"",""vert"",""up"",[106,106],[0,150]]",diamond,red,vert,up,"[106,106]","[0,150]",up,1,,,,,,001,2025-03-17_12h13.07.029,SL_sali,2021.2.3,Win32,60.24096386,1.611,,,89,0,89,0,1,,,,,,,,
,,"[""circle"",""green"",""hori"",""left"",[106,106],[106,-106]]",circle,green,hori,left,"[106,106]","[106,-106]",left,1,,,,,,001,2025-03-17_12h13.07.029,SL_sali,2021.2.3,Win32,60.24096386,1.5781,,,90,0,90,0,1,,,,,,,,
,,"[""circle"",""no_dis"",""hori"",""left"",[99999,99999],[150,0]]",circle,no_dis,hori,left,"[99999,99999]","[150,0]",left,1,,,,,,001,2025-03-17_12h13.07.029,SL_sali,2021.2.3,Win32,60.24096386,1.1331,,,91,0,91,0,1,,,,,,,,
,,"[""circle"",""no_dis"",""hori"",""left"",[99999,99999],[106,106]]",circle,no_dis,hori,left,"[99999,99999]","[106,106]",left,1,,,,,,001,2025-03-17_12h13.07.029,SL_sali,2021.2.3,Win32,60.24096386,1.2119,,,92,0,92,0,1,,,,,,,,
,,"[""diamond"",""red"",""vert"",""up"",[0,150],[150,0]]",diamond,red,vert,up,"[0,150]","[150,0]",up,1,,,,,,001,2025-03-17_12h13.07.029,SL_sali,2021.2.3,Win32,60.24096386,1.889,,,93,0,93,0,1,,,,,,,,
,,"[""diamond"",""no_dis"",""vert"",""up"",[99999,99999],[106,-106]]",diamond,no_dis,vert,up,"[99999,99999]","[106,-106]",up,1,,,,,,001,2025-03-17_12h13.07.029,SL_sali,2021.2.3,Win32,60.24096386,1.091,,,94,0,94,0,1,,,,,,,,
,,"[""circle"",""no_dis"",""hori"",""left"",[99999,99999],[-106,106]]",circle,no_dis,hori,left,"[99999,99999]","[-106,106]",left,1,,,,,,001,2025-03-17_12h13.07.029,SL_sali,2021.2.3,Win32,60.24096386,1.1831,,,95,0,95,0,1,,,,,,,,
,,"[""diamond"",""green"",""hori"",""left"",[-150,0],[0,150]]",diamond,green,hori,left,"[-150,0]","[0,150]",left,1,,,,,,001,2025-03-17_12h13.07.029,SL_sali,2021.2.3,Win32,60.24096386,1.8855,,,96,0,96,0,1,,,,,,,,
,,"[""circle"",""red"",""vert"",""up"",[-150,0],[150,0]]",circle,red,vert,up,"[-150,0]","[150,0]",up,1,,,,,,001,2025-03-17_12h13.07.029,SL_sali,2021.2.3,Win32,60.24096386,1.7085,,,97,0,97,0,1,,,,,,,,
,,"[""circle"",""no_dis"",""vert"",""up"",[99999,99999],[0,-150]]",circle,no_dis,vert,up,"[99999,99999]","[0,-150]",up,1,,,,,,001,2025-03-17_12h13.07.029,SL_sali,2021.2.3,Win32,60.24096386,1.5662,,,98,0,98,0,1,,,,,,,,
,,"[""diamond"",""no_dis"",""hori"",""left"",[99999,99999],[-150,0]]",diamond,no_dis,hori,left,"[99999,99999]","[-150,0]",left,1,,,,,,001,2025-03-17_12h13.07.029,SL_sali,2021.2.3,Win32,60.24096386,1.8214,,,99,0,99,0,1,,,,,,,,
,,"[""diamond"",""red"",""vert"",""up"",[106,106],[0,150]]",diamond,red,vert,up,"[106,106]","[0,150]",up,1,,,,,,001,2025-03-17_12h13.07.029,SL_sali,2021.2.3,Win32,60.24096386,1.233,,,100,0,100,0,1,,,,,,,,
,,"[""diamond"",""no_dis"",""hori"",""left"",[99999,99999],[-106,106]]",diamond,no_dis,hori,left,"[99999,99999]","[-106,106]",left,1,,,,,,001,2025-03-17_12h13.07.029,SL_sali,2021.2.3,Win32,60.24096386,1.7224,,,101,0,101,0,1,,,,,,,,
,,"[""diamond"",""red"",""hori"",""left"",[0,150],[106,-106]]",diamond,red,hori,left,"[0,150]","[106,-106]",left,1,,,,,,001,2025-03-17_12h13.07.029,SL_sali,2021.2.3,Win32,60.24096386,1.6834,,,102,0,102,0,1,,,,,,,,
,,"[""diamond"",""green"",""vert"",""up"",[-150,0],[106,106]]",diamond,green,vert,up,"[-150,0]","[106,106]",up,1,,,,,,001,2025-03-17_12h13.07.029,SL_sali,2021.2.3,Win32,60.24096386,1.0601,,,103,0,103,0,1,,,,,,,,
,,"[""diamond"",""red"",""hori"",""left"",[150,0],[-150,0]]",diamond,red,hori,left,"[150,0]","[-150,0]",left,1,,,,,,001,2025-03-17_12h13.07.029,SL_sali,2021.2.3,Win32,60.24096386,1.0832,,,104,0,104,0,1,,,,,,,,
,,"[""diamond"",""green"",""hori"",""left"",[0,-150],[-106,-106]]",diamond,green,hori,left,"[0,-150]","[-106,-106]",left,1,,,,,,001,2025-03-17_12h13.07.029,SL_sali,2021.2.3,Win32,60.24096386,1.1545,,,105,0,105,0,1,,,,,,,,
,,"[""circle"",""green"",""vert"",""up"",[106,106],[-106,-106]]",circle,green,vert,up,"[106,106]","[-106,-106]",up,1,,,,,,001,2025-03-17_12h13.07.029,SL_sali,2021.2.3,Win32,60.24096386,1.7331,,,106,0,106,0,1,,,,,,,,
,,"[""circle"",""red"",""hori"",""left"",[106,106],[0,150]]",circle,red,hori,left,"[106,106]","[0,150]",left,1,,,,,,001,2025-03-17_12h13.07.029,SL_sali,2021.2.3,Win32,60.24096386,1.2551,,,107,0,107,0,1,,,,,,,,
,,"[""circle"",""red"",""vert"",""up"",[-106,-106],[-150,0]]",circle,red,vert,up,"[-106,-106]","[-150,0]",up,1,,,,,,001,2025-03-17_12h13.07.029,SL_sali,2021.2.3,Win32,60.24096386,1.3509,,,108,0,108,0,1,,,,,,,,
,,"[""diamond"",""green"",""hori"",""left"",[0,150],[106,-106]]",diamond,green,hori,left,"[0,150]","[106,-106]",left,1,,,,,,001,2025-03-17_12h13.07.029,SL_sali,2021.2.3,Win32,60.24096386,1.2829,,,109,0,109,0,1,,,,,,,,
,,"[""circle"",""red"",""hori"",""left"",[150,0],[0,150]]",circle,red,hori,left,"[150,0]","[0,150]",left,1,,,,,,001,2025-03-17_12h13.07.029,SL_sali,2021.2.3,Win32,60.24096386,1.6867,,,110,0,110,0,1,,,,,,,,
,,"[""circle"",""no_dis"",""vert"",""up"",[99999,99999],[0,150]]",circle,no_dis,vert,up,"[99999,99999]","[0,150]",up,1,,,,,,001,2025-03-17_12h13.07.029,SL_sali,2021.2.3,Win32,60.24096386,1.3337,,,111,0,111,0,1,,,,,,,,
,,"[""circle"",""no_dis"",""hori"",""left"",[99999,99999],[-106,106]]",circle,no_dis,hori,left,"[99999,99999]","[-106,106]",left,1,,,,,,001,2025-03-17_12h13.07.029,SL_sali,2021.2.3,Win32,60.24096386,1.2496,,,112,0,112,0,1,,,,,,,,
,,"[""diamond"",""green"",""vert"",""up"",[106,106],[106,-106]]",diamond,green,vert,up,"[106,106]","[106,-106]",up,1,,,,,,001,2025-03-17_12h13.07.029,SL_sali,2021.2.3,Win32,60.24096386,1.8717,,,113,0,113,0,1,,,,,,,,
,,"[""diamond"",""red"",""vert"",""up"",[106,106],[0,-150]]",diamond,red,vert,up,"[106,106]","[0,-150]",up,1,,,,,,001,2025-03-17_12h13.07.029,SL_sali,2021.2.3,Win32,60.24096386,1.2503,,,114,0,114,0,1,,,,,,,,
,,"[""circle"",""green"",""vert"",""up"",[-106,106],[106,106]]",circle,green,vert,up,"[-106,106]","[106,106]",up,1,,,,,,001,2025-03-17_12h13.07.029,SL_sali,2021.2.3,Win32,60.24096386,2.0074,,,115,0,115,0,1,,,,,,,,
,,"[""diamond"",""red"",""vert"",""up"",[-106,-106],[-106,106]]",diamond,red,vert,up,"[-106,-106]","[-106,106]",up,1,,,,,,001,2025-03-17_12h13.07.029,SL_sali,2021.2.3,Win32,60.24096386,1.4496,,,116,0,116,0,1,,,,,,,,
,,"[""diamond"",""no_dis"",""hori"",""left"",[99999,99999],[106,-106]]",diamond,no_dis,hori,left,"[99999,99999]","[106,-106]",left,1,,,,,,001,2025-03-17_12h13.07.029,SL_sali,2021.2.3,Win32,60.24096386,1.3103,,,117,0,117,0,1,,,,,,,,
,,"[""circle"",""no_dis"",""hori"",""left"",[99999,99999],[-106,-106]]",circle,no_dis,hori,left,"[99999,99999]","[-106,-106]",left,1,,,,,,001,2025-03-17_12h13.07.029,SL_sali,2021.2.3,Win32,60.24096386,2.2247,,,118,0,118,0,1,,,,,,,,
,,"[""diamond"",""no_dis"",""vert"",""up"",[99999,99999],[-150,0]]",diamond,no_dis,vert,up,"[99999,99999]","[-150,0]",up,1,,,,,,001,2025-03-17_12h13.07.029,SL_sali,2021.2.3,Win32,60.24096386,1.3393,,,119,0,119,0,1,,,,,,,,
,,,,,,,,,,,,,,,,001,2025-03-17_12h13.07.029,SL_sali,2021.2.3,Win32,60.24096386,,,,,,,,,1,space,13.0111,0,0,0,0,1
,,"[""circle"",""red"",""vert"",""up"",[106,-106],[-106,106]]",circle,red,vert,up,"[106,-106]","[-106,106]",up,1,,,,,,001,2025-03-17_12h13.07.029,SL_sali,2021.2.3,Win32,60.24096386,1.1608,,,0,0,0,0,1,,,,,,,,
,,"[""circle"",""red"",""vert"",""up"",[0,150],[150,0]]",circle,red,vert,up,"[0,150]","[150,0]",up,1,,,,,,001,2025-03-17_12h13.07.029,SL_sali,2021.2.3,Win32,60.24096386,1.9036,,,1,0,1,0,1,,,,,,,,
,,"[""circle"",""red"",""hori"",""left"",[106,106],[106,-106]]",circle,red,hori,left,"[106,106]","[106,-106]",left,1,,,,,,001,2025-03-17_12h13.07.029,SL_sali,2021.2.3,Win32,60.24096386,1.041,,,2,0,2,0,1,,,,,,,,
,,"[""circle"",""red"",""hori"",""left"",[106,106],[150,0]]",circle,red,hori,left,"[106,106]","[150,0]",left,1,,,,,,001,2025-03-17_12h13.07.029,SL_sali,2021.2.3,Win32,60.24096386,1.0205,,,3,0,3,0,1,,,,,,,,
,,"[""diamond"",""red"",""vert"",""up"",[106,106],[106,-106]]",diamond,red,vert,up,"[106,106]","[106,-106]",up,1,,,,,,001,2025-03-17_12h13.07.029,SL_sali,2021.2.3,Win32,60.24096386,2.134,,,4,0,4,0,1,,,,,,,,
,,"[""circle"",""green"",""vert"",""up"",[-106,-106],[-150,0]]",circle,green,vert,up,"[-106,-106]","[-150,0]",up,1,,,,,,001,2025-03-17_12h13.07.029,SL_sali,2021.2.3,Win32,60.24096386,1.2832,,,5,0,5,0,1,,,,,,,,
,,"[""circle"",""green"",""hori"",""left"",[106,106],[-106,-106]]",circle,green,hori,left,"[106,106]","[-106,-106]",left,1,,,,,,001,2025-03-17_12h13.07.029,SL_sali,2021.2.3,Win32,60.24096386,0.8747,,,6,0,6,0,1,,,,,,,,
,,"[""diamond"",""no_dis"",""vert"",""up"",[99999,99999],[0,150]]",diamond,no_dis,vert,up,"[99999,99999]","[0,150]",up,1,,,,,,001,2025-03-17_12h13.07.029,SL_sali,2021.2.3,Win32,60.24096386,1.717,,,7,0,7,0,1,,,,,,,,
,,"[""diamond"",""green"",""vert"",""up"",[106,106],[0,150]]",diamond,green,vert,up,"[106,106]","[0,150]",up,1,,,,,,001,2025-03-17_12h13.07.029,SL_sali,2021.2.3,Win32,60.24096386,2.4003,,,8,0,8,0,1,,,,,,,,
,,"[""diamond"",""red"",""hori"",""left"",[106,106],[0,-150]]",diamond,red,hori,left,"[106,106]","[0,-150]",left,1,,,,,,001,2025-03-17_12h13.07.029,SL_sali,2021.2.3,Win32,60.24096386,1.5495,,,9,0,9,0,1,,,,,,,,
,,"[""diamond"",""red"",""vert"",""up"",[0,-150],[0,150]]",diamond,red,vert,up,"[0,-150]","[0,150]",up,1,,,,,,001,2025-03-17_12h13.07.029,SL_sali,2021.2.3,Win32,60.24096386,1.1502,,,10,0,10,0,1,,,,,,,,
,,"[""circle"",""no_dis"",""vert"",""up"",[99999,99999],[0,-150]]",circle,no_dis,vert,up,"[99999,99999]","[0,-150]",up,1,,,,,,001,2025-03-17_12h13.07.029,SL_sali,2021.2.3,Win32,60.24096386,1.2356,,,11,0,11,0,1,,,,,,,,
,,"[""circle"",""no_dis"",""hori"",""left"",[99999,99999],[106,-106]]",circle,no_dis,hori,left,"[99999,99999]","[106,-106]",left,1,,,,,,001,2025-03-17_12h13.07.029,SL_sali,2021.2.3,Win32,60.24096386,1.1599,,,12,0,12,0,1,,,,,,,,
,,"[""diamond"",""red"",""vert"",""up"",[106,106],[0,-150]]",diamond,red,vert,up,"[106,106]","[0,-150]",up,1,,,,,,001,2025-03-17_12h13.07.029,SL_sali,2021.2.3,Win32,60.24096386,2.3667,,,13,0,13,0,1,,,,,,,,
,,"[""diamond"",""green"",""vert"",""up"",[-106,106],[150,0]]",diamond,green,vert,up,"[-106,106]","[150,0]",up,1,,,,,,001,2025-03-17_12h13.07.029,SL_sali,2021.2.3,Win32,60.24096386,1.3672,,,14,0,14,0,1,,,,,,,,
,,"[""circle"",""no_dis"",""vert"",""up"",[99999,99999],[-106,106]]",circle,no_dis,vert,up,"[99999,99999]","[-106,106]",up,1,,,,,,001,2025-03-17_12h13.07.029,SL_sali,2021.2.3,Win32,60.24096386,1.45,,,15,0,15,0,1,,,,,,,,
,,"[""diamond"",""green"",""vert"",""up"",[106,106],[0,-150]]",diamond,green,vert,up,"[106,106]","[0,-150]",up,1,,,,,,001,2025-03-17_12h13.07.029,SL_sali,2021.2.3,Win32,60.24096386,1.1928,,,16,0,16,0,1,,,,,,,,
,,"[""circle"",""green"",""hori"",""left"",[106,106],[106,-106]]",circle,green,hori,left,"[106,106]","[106,-106]",left,1,,,,,,001,2025-03-17_12h13.07.029,SL_sali,2021.2.3,Win32,60.24096386,1.151,,,17,0,17,0,1,,,,,,,,
,,"[""diamond"",""red"",""hori"",""left"",[-150,0],[150,0]]",diamond,red,hori,left,"[-150,0]","[150,0]",left,1,,,,,,001,2025-03-17_12h13.07.029,SL_sali,2021.2.3,Win32,60.24096386,1.754,,,18,0,18,0,1,,,,,,,,
,,"[""diamond"",""red"",""vert"",""up"",[0,150],[150,0]]",diamond,red,vert,up,"[0,150]","[150,0]",up,1,,,,,,001,2025-03-17_12h13.07.029,SL_sali,2021.2.3,Win32,60.24096386,1.2293,,,19,0,19,0,1,,,,,,,,
,,"[""circle"",""red"",""hori"",""left"",[106,106],[106,-106]]",circle,red,hori,left,"[106,106]","[106,-106]",left,1,,,,,,001,2025-03-17_12h13.07.029,SL_sali,2021.2.3,Win32,60.24096386,2.0344,,,20,0,20,0,1,,,,,,,,
,,"[""diamond"",""green"",""vert"",""up"",[150,0],[106,-106]]",diamond,green,vert,up,"[150,0]","[106,-106]",up,1,,,,,,001,2025-03-17_12h13.07.029,SL_sali,2021.2.3,Win32,60.24096386,1.1055,,,21,0,21,0,1,,,,,,,,
,,"[""circle"",""green"",""vert"",""up"",[106,106],[-106,-106]]",circle,green,vert,up,"[106,106]","[-106,-106]",up,1,,,,,,001,2025-03-17_12h13.07.029,SL_sali,2021.2.3,Win32,60.24096386,1.2996,,,22,0,22,0,1,,,,,,,,
,,"[""diamond"",""no_dis"",""hori"",""left"",[99999,99999],[106,-106]]",diamond,no_dis,hori,left,"[99999,99999]","[106,-106]",left,1,,,,,,001,2025-03-17_12h13.07.029,SL_sali,2021.2.3,Win32,60.24096386,1.1243,,,23,0,23,0,1,,,,,,,,
,,"[""circle"",""red"",""vert"",""up"",[-150,0],[150,0]]",circle,red,vert,up,"[-150,0]","[150,0]",up,1,,,,,,001,2025-03-17_12h13.07.029,SL_sali,2021.2.3,Win32,60.24096386,1.3195,,,24,0,24,0,1,,,,,,,,
,,"[""diamond"",""green"",""vert"",""up"",[0,-150],[150,0]]",diamond,green,vert,up,"[0,-150]","[150,0]",up,1,,,,,,001,2025-03-17_12h13.07.029,SL_sali,2021.2.3,Win32,60.24096386,1.2361,,,25,0,25,0,1,,,,,,,,
,,"[""diamond"",""red"",""hori"",""left"",[150,0],[0,-150]]",diamond,red,hori,left,"[150,0]","[0,-150]",left,1,,,,,,001,2025-03-17_12h13.07.029,SL_sali,2021.2.3,Win32,60.24096386,1.1171,,,26,0,26,0,1,,,,,,,,
,,"[""diamond"",""no_dis"",""vert"",""up"",[99999,99999],[-106,-106]]",diamond,no_dis,vert,up,"[99999,99999]","[-106,-106]",up,1,,,,,,001,2025-03-17_12h13.07.029,SL_sali,2021.2.3,Win32,60.24096386,1.2129,,,27,0,27,0,1,,,,,,,,
,,"[""circle"",""red"",""hori"",""left"",[106,106],[0,150]]",circle,red,hori,left,"[106,106]","[0,150]",left,1,,,,,,001,2025-03-17_12h13.07.029,SL_sali,2021.2.3,Win32,60.24096386,2.3,,,28,0,28,0,1,,,,,,,,
,,"[""diamond"",""green"",""hori"",""left"",[106,-106],[-106,106]]",diamond,green,hori,left,"[106,-106]","[-106,106]",left,1,,,,,,001,2025-03-17_12h13.07.029,SL_sali,2021.2.3,Win32,60.24096386,2.1911,,,29,0,29,0,1,,,,,,,,
,,"[""circle"",""green"",""vert"",""up"",[0,150],[-106,-106]]",circle,green,vert,up,"[0,150]","[-106,-106]",up,1,,,,,,001,2025-03-17_12h13.07.029,SL_sali,2021.2.3,Win32,60.24096386,1.3672,,,30,0,30,0,1,,,,,,,,
,,"[""circle"",""red"",""vert"",""up"",[-106,106],[150,0]]",circle,red,vert,up,"[-106,106]","[150,0]",up,1,,,,,,001,2025-03-17_12h13.07.029,SL_sali,2021.2.3,Win32,60.24096386,0.8352,,,31,0,31,0,1,,,,,,,,
,,"[""diamond"",""red"",""vert"",""up"",[-106,-106],[-106,106]]",diamond,red,vert,up,"[-106,-106]","[-106,106]",up,1,,,,,,001,2025-03-17_12h13.07.029,SL_sali,2021.2.3,Win32,60.24096386,1.617,,,32,0,32,0,1,,,,,,,,
,,"[""diamond"",""green"",""vert"",""up"",[-150,0],[-106,-106]]",diamond,green,vert,up,"[-150,0]","[-106,-106]",,0,,,,,,001,2025-03-17_12h13.07.029,SL_sali,2021.2.3,Win32,60.24096386,,,,33,0,33,0,1,,,,,,,,
,,"[""diamond"",""green"",""hori"",""left"",[106,106],[-106,-106]]",diamond,green,hori,left,"[106,106]","[-106,-106]",left,1,,,,,,001,2025-03-17_12h13.07.029,SL_sali,2021.2.3,Win32,60.24096386,1.4047,,,34,0,34,0,1,,,,,,,,
,,"[""circle"",""no_dis"",""vert"",""up"",[99999,99999],[0,-150]]",circle,no_dis,vert,up,"[99999,99999]","[0,-150]",left,0,,,,,,001,2025-03-17_12h13.07.029,SL_sali,2021.2.3,Win32,60.24096386,1.775,,,35,0,35,0,1,,,,,,,,
,,"[""circle"",""green"",""vert"",""up"",[-106,106],[106,106]]",circle,green,vert,up,"[-106,106]","[106,106]",up,1,,,,,,001,2025-03-17_12h13.07.029,SL_sali,2021.2.3,Win32,60.24096386,1.3329,,,36,0,36,0,1,,,,,,,,
,,"[""diamond"",""green"",""vert"",""up"",[-150,0],[106,106]]",diamond,green,vert,up,"[-150,0]","[106,106]",up,1,,,,,,001,2025-03-17_12h13.07.029,SL_sali,2021.2.3,Win32,60.24096386,1.6663,,,37,0,37,0,1,,,,,,,,
,,"[""circle"",""red"",""hori"",""left"",[0,-150],[0,150]]",circle,red,hori,left,"[0,-150]","[0,150]",left,1,,,,,,001,2025-03-17_12h13.07.029,SL_sali,2021.2.3,Win32,60.24096386,1.8077,,,38,0,38,0,1,,,,,,,,
,,"[""diamond"",""no_dis"",""hori"",""left"",[99999,99999],[-150,0]]",diamond,no_dis,hori,left,"[99999,99999]","[-150,0]",left,1,,,,,,001,2025-03-17_12h13.07.029,SL_sali,2021.2.3,Win32,60.24096386,2.15,,,39,0,39,0,1,,,,,,,,
,,"[""circle"",""red"",""vert"",""up"",[0,-150],[0,150]]",circle,red,vert,up,"[0,-150]","[0,150]",up,1,,,,,,001,2025-03-17_12h13.07.029,SL_sali,2021.2.3,Win32,60.24096386,1.3601,,,40,0,40,0,1,,,,,,,,
,,"[""diamond"",""green"",""hori"",""left"",[0,150],[106,-106]]",diamond,green,hori,left,"[0,150]","[106,-106]",left,1,,,,,,001,2025-03-17_12h13.07.029,SL_sali,2021.2.3,Win32,60.24096386,1.4049,,,41,0,41,0,1,,,,,,,,
,,"[""circle"",""red"",""vert"",""up"",[-106,-106],[106,-106]]",circle,red,vert,up,"[-106,-106]","[106,-106]",up,1,,,,,,001,2025-03-17_12h13.07.029,SL_sali,2021.2.3,Win32,60.24096386,1.1626,,,42,0,42,0,1,,,,,,,,
,,"[""circle"",""no_dis"",""hori"",""left"",[99999,99999],[0,-150]]",circle,no_dis,hori,left,"[99999,99999]","[0,-150]",left,1,,,,,,001,2025-03-17_12h13.07.029,SL_sali,2021.2.3,Win32,60.24096386,1.3745,,,43,0,43,0,1,,,,,,,,
,,"[""diamond"",""no_dis"",""hori"",""left"",[99999,99999],[-106,-106]]",diamond,no_dis,hori,left,"[99999,99999]","[-106,-106]",left,1,,,,,,001,2025-03-17_12h13.07.029,SL_sali,2021.2.3,Win32,60.24096386,2.1068,,,44,0,44,0,1,,,,,,,,
,,"[""circle"",""green"",""vert"",""up"",[150,0],[0,-150]]",circle,green,vert,up,"[150,0]","[0,-150]",up,1,,,,,,001,2025-03-17_12h13.07.029,SL_sali,2021.2.3,Win32,60.24096386,0.9391,,,45,0,45,0,1,,,,,,,,
,,"[""diamond"",""green"",""hori"",""left"",[-150,0],[0,150]]",diamond,green,hori,left,"[-150,0]","[0,150]",left,1,,,,,,001,2025-03-17_12h13.07.029,SL_sali,2021.2.3,Win32,60.24096386,1.6374,,,46,0,46,0,1,,,,,,,,
,,"[""diamond"",""green"",""vert"",""up"",[106,106],[-106,106]]",diamond,green,vert,up,"[106,106]","[-106,106]",up,1,,,,,,001,2025-03-17_12h13.07.029,SL_sali,2021.2.3,Win32,60.24096386,1.2049,,,47,0,47,0,1,,,,,,,,
,,"[""circle"",""green"",""hori"",""left"",[150,0],[-150,0]]",circle,green,hori,left,"[150,0]","[-150,0]",left,1,,,,,,001,2025-03-17_12h13.07.029,SL_sali,2021.2.3,Win32,60.24096386,1.7258,,,48,0,48,0,1,,,,,,,,
,,"[""diamond"",""no_dis"",""hori"",""left"",[99999,99999],[150,0]]",diamond,no_dis,hori,left,"[99999,99999]","[150,0]",left,1,,,,,,001,2025-03-17_12h13.07.029,SL_sali,2021.2.3,Win32,60.24096386,2.0742,,,49,0,49,0,1,,,,,,,,
,,"[""circle"",""red"",""hori"",""left"",[-106,106],[0,150]]",circle,red,hori,left,"[-106,106]","[0,150]",left,1,,,,,,001,2025-03-17_12h13.07.029,SL_sali,2021.2.3,Win32,60.24096386,1.2879,,,50,0,50,0,1,,,,,,,,
,,"[""diamond"",""no_dis"",""vert"",""up"",[99999,99999],[150,0]]",diamond,no_dis,vert,up,"[99999,99999]","[150,0]",up,1,,,,,,001,2025-03-17_12h13.07.029,SL_sali,2021.2.3,Win32,60.24096386,1.0596,,,51,0,51,0,1,,,,,,,,
,,"[""circle"",""green"",""vert"",""up"",[106,-106],[0,150]]",circle,green,vert,up,"[106,-106]","[0,150]",up,1,,,,,,001,2025-03-17_12h13.07.029,SL_sali,2021.2.3,Win32,60.24096386,1.3674,,,52,0,52,0,1,,,,,,,,
,,"[""diamond"",""no_dis"",""vert"",""up"",[99999,99999],[106,106]]",diamond,no_dis,vert,up,"[99999,99999]","[106,106]",up,1,,,,,,001,2025-03-17_12h13.07.029,SL_sali,2021.2.3,Win32,60.24096386,1.707,,,53,0,53,0,1,,,,,,,,
,,"[""circle"",""red"",""hori"",""left"",[150,0],[0,150]]",circle,red,hori,left,"[150,0]","[0,150]",left,1,,,,,,001,2025-03-17_12h13.07.029,SL_sali,2021.2.3,Win32,60.24096386,1.3089,,,54,0,54,0,1,,,,,,,,
,,"[""diamond"",""no_dis"",""hori"",""left"",[99999,99999],[0,150]]",diamond,no_dis,hori,left,"[99999,99999]","[0,150]",left,1,,,,,,001,2025-03-17_12h13.07.029,SL_sali,2021.2.3,Win32,60.24096386,1.9787,,,55,0,55,0,1,,,,,,,,
,,"[""circle"",""green"",""vert"",""up"",[0,-150],[106,-106]]",circle,green,vert,up,"[0,-150]","[106,-106]",up,1,,,,,,001,2025-03-17_12h13.07.029,SL_sali,2021.2.3,Win32,60.24096386,1.5594,,,56,0,56,0,1,,,,,,,,
,,"[""diamond"",""no_dis"",""vert"",""up"",[99999,99999],[-106,-106]]",diamond,no_dis,vert,up,"[99999,99999]","[-106,-106]",up,1,,,,,,001,2025-03-17_12h13.07.029,SL_sali,2021.2.3,Win32,60.24096386,1.7798,,,57,0,57,0,1,,,,,,,,
,,"[""diamond"",""no_dis"",""hori"",""left"",[99999,99999],[106,-106]]",diamond,no_dis,hori,left,"[99999,99999]","[106,-106]",left,1,,,,,,001,2025-03-17_12h13.07.029,SL_sali,2021.2.3,Win32,60.24096386,1.2361,,,58,0,58,0,1,,,,,,,,
,,"[""diamond"",""green"",""hori"",""left"",[106,106],[-106,106]]",diamond,green,hori,left,"[106,106]","[-106,106]",left,1,,,,,,001,2025-03-17_12h13.07.029,SL_sali,2021.2.3,Win32,60.24096386,1.3162,,,59,0,59,0,1,,,,,,,,
,,"[""circle"",""red"",""hori"",""left"",[106,-106],[150,0]]",circle,red,hori,left,"[106,-106]","[150,0]",left,1,,,,,,001,2025-03-17_12h13.07.029,SL_sali,2021.2.3,Win32,60.24096386,1.7027,,,60,0,60,0,1,,,,,,,,
,,"[""diamond"",""no_dis"",""vert"",""up"",[99999,99999],[106,-106]]",diamond,no_dis,vert,up,"[99999,99999]","[106,-106]",up,1,,,,,,001,2025-03-17_12h13.07.029,SL_sali,2021.2.3,Win32,60.24096386,1.2503,,,61,0,61,0,1,,,,,,,,
,,"[""circle"",""no_dis"",""vert"",""up"",[99999,99999],[-106,106]]",circle,no_dis,vert,up,"[99999,99999]","[-106,106]",up,1,,,,,,001,2025-03-17_12h13.07.029,SL_sali,2021.2.3,Win32,60.24096386,1.1345,,,62,0,62,0,1,,,,,,,,
,,"[""circle"",""green"",""hori"",""left"",[-106,-106],[0,-150]]",circle,green,hori,left,"[-106,-106]","[0,-150]",left,1,,,,,,001,2025-03-17_12h13.07.029,SL_sali,2021.2.3,Win32,60.24096386,1.142,,,63,0,63,0,1,,,,,,,,
,,"[""circle"",""no_dis"",""vert"",""up"",[99999,99999],[0,150]]",circle,no_dis,vert,up,"[99999,99999]","[0,150]",up,1,,,,,,001,2025-03-17_12h13.07.029,SL_sali,2021.2.3,Win32,60.24096386,1.2234,,,64,0,64,0,1,,,,,,,,
,,"[""circle"",""green"",""hori"",""left"",[106,106],[106,-106]]",circle,green,hori,left,"[106,106]","[106,-106]",left,1,,,,,,001,2025-03-17_12h13.07.029,SL_sali,2021.2.3,Win32,60.24096386,1.2114,,,65,0,65,0,1,,,,,,,,
,,"[""circle"",""no_dis"",""hori"",""left"",[99999,99999],[-106,-106]]",circle,no_dis,hori,left,"[99999,99999]","[-106,-106]",left,1,,,,,,001,2025-03-17_12h13.07.029,SL_sali,2021.2.3,Win32,60.24096386,1.5098,,,66,0,66,0,1,,,,,,,,
,,"[""diamond"",""red"",""vert"",""up"",[-106,106],[150,0]]",diamond,red,vert,up,"[-106,106]","[150,0]",up,1,,,,,,001,2025-03-17_12h13.07.029,SL_sali,2021.2.3,Win32,60.24096386,1.1162,,,67,0,67,0,1,,,,,,,,
,,"[""diamond"",""red"",""hori"",""left"",[150,0],[-150,0]]",diamond,red,hori,left,"[150,0]","[-150,0]",left,1,,,,,,001,2025-03-17_12h13.07.029,SL_sali,2021.2.3,Win32,60.24096386,1.5203,,,68,0,68,0,1,,,,,,,,
,,"[""circle"",""red"",""vert"",""up"",[-106,106],[106,106]]",circle,red,vert,up,"[-106,106]","[106,106]",up,1,,,,,,001,2025-03-17_12h13.07.029,SL_sali,2021.2.3,Win32,60.24096386,1.1617,,,69,0,69,0,1,,,,,,,,
,,"[""circle"",""no_dis"",""vert"",""up"",[99999,99999],[106,106]]",circle,no_dis,vert,up,"[99999,99999]","[106,106]",up,1,,,,,,001,2025-03-17_12h13.07.029,SL_sali,2021.2.3,Win32,60.24096386,1.6465,,,70,0,70,0,1,,,,,,,,
,,"[""diamond"",""red"",""hori"",""left"",[-150,0],[106,106]]",diamond,red,hori,left,"[-150,0]","[106,106]",left,1,,,,,,001,2025-03-17_12h13.07.029,SL_sali,2021.2.3,Win32,60.24096386,1.9853,,,71,0,71,0,1,,,,,,,,
,,"[""diamond"",""red"",""hori"",""left"",[0,150],[106,-106]]",diamond,red,hori,left,"[0,150]","[106,-106]",left,1,,,,,,001,2025-03-17_12h13.07.029,SL_sali,2021.2.3,Win32,60.24096386,1.0996,,,72,0,72,0,1,,,,,,,,
,,"[""circle"",""green"",""hori"",""left"",[106,-106],[-106,106]]",circle,green,hori,left,"[106,-106]","[-106,106]",left,1,,,,,,001,2025-03-17_12h13.07.029,SL_sali,2021.2.3,Win32,60.24096386,1.9054,,,73,0,73,0,1,,,,,,,,
,,"[""circle"",""no_dis"",""hori"",""left"",[99999,99999],[0,150]]",circle,no_dis,hori,left,"[99999,99999]","[0,150]",left,1,,,,,,001,2025-03-17_12h13.07.029,SL_sali,2021.2.3,Win32,60.24096386,1.8081,,,74,0,74,0,1,,,,,,,,
,,"[""diamond"",""no_dis"",""vert"",""up"",[99999,99999],[-150,0]]",diamond,no_dis,vert,up,"[99999,99999]","[-150,0]",up,1,,,,,,001,2025-03-17_12h13.07.029,SL_sali,2021.2.3,Win32,60.24096386,1.0702,,,75,0,75,0,1,,,,,,,,
,,"[""circle"",""red"",""vert"",""up"",[106,106],[-106,106]]",circle,red,vert,up,"[106,106]","[-106,106]",up,1,,,,,,001,2025-03-17_12h13.07.029,SL_sali,2021.2.3,Win32,60.24096386,1.1915,,,76,0,76,0,1,,,,,,,,
,,"[""circle"",""green"",""vert"",""up"",[-106,-106],[0,150]]",circle,green,vert,up,"[-106,-106]","[0,150]",up,1,,,,,,001,2025-03-17_12h13.07.029,SL_sali,2021.2.3,Win32,60.24096386,1.7337,,,77,0,77,0,1,,,,,,,,
,,"[""diamond"",""red"",""hori"",""left"",[150,0],[-106,-106]]",diamond,red,hori,left,"[150,0]","[-106,-106]",up,0,,,,,,001,2025-03-17_12h13.07.029,SL_sali,2021.2.3,Win32,60.24096386,1.9337,,,78,0,78,0,1,,,,,,,,
,,"[""circle"",""red"",""hori"",""left"",[-106,-106],[0,-150]]",circle,red,hori,left,"[-106,-106]","[0,-150]",left,1,,,,,,001,2025-03-17_12h13.07.029,SL_sali,2021.2.3,Win32,60.24096386,1.5942,,,79,0,79,0,1,,,,,,,,
,,"[""diamond"",""no_dis"",""vert"",""up"",[99999,99999],[106,106]]",diamond,no_dis,vert,up,"[99999,99999]","[106,106]",up,1,,,,,,001,2025-03-17_12h13.07.029,SL_sali,2021.2.3,Win32,60.24096386,2.15,,,80,0,80,0,1,,,,,,,,
,,"[""diamond"",""red"",""hori"",""left"",[106,106],[-106,106]]",diamond,red,hori,left,"[106,106]","[-106,106]",left,1,,,,,,001,2025-03-17_12h13.07.029,SL_sali,2021.2.3,Win32,60.24096386,1.3438,,,81,0,81,0,1,,,,,,,,
,,"[""circle"",""red"",""vert"",""up"",[-106,-106],[-150,0]]",circle,red,vert,up,"[-106,-106]","[-150,0]",up,1,,,,,,001,2025-03-17_12h13.07.029,SL_sali,2021.2.3,Win32,60.24096386,1.4455,,,82,0,82,0,1,,,,,,,,
,,"[""circle"",""green"",""hori"",""left"",[106,106],[106,-106]]",circle,green,hori,left,"[106,106]","[106,-106]",left,1,,,,,,001,2025-03-17_12h13.07.029,SL_sali,2021.2.3,Win32,60.24096386,1.617,,,83,0,83,0,1,,,,,,,,
,,"[""diamond"",""no_dis"",""vert"",""up"",[99999,99999],[-106,-106]]",diamond,no_dis,vert,up,"[99999,99999]","[-106,-106]",up,1,,,,,,001,2025-03-17_12h13.07.029,SL_sali,2021.2.3,Win32,60.24096386,1.0373,,,84,0,84,0,1,,,,,,,,
,,"[""circle"",""green"",""hori"",""left"",[106,-106],[150,0]]",circle,green,hori,left,"[106,-106]","[150,0]",left,1,,,,,,001,2025-03-17_12h13.07.029,SL_sali,2021.2.3,Win32,60.24096386,1.3683,,,85,0,85,0,1,,,,,,,,
,,"[""circle"",""no_dis"",""hori"",""left"",[99999,99999],[-106,106]]",circle,no_dis,hori,left,"[99999,99999]","[-106,106]",left,1,,,,,,001,2025-03-17_12h13.07.029,SL_sali,2021.2.3,Win32,60.24096386,1.3576,,,86,0,86,0,1,,,,,,,,
,,"[""diamond"",""red"",""vert"",""up"",[-106,106],[0,-150]]",diamond,red,vert,up,"[-106,106]","[0,-150]",up,1,,,,,,001,2025-03-17_12h13.07.029,SL_sali,2021.2.3,Win32,60.24096386,1.4872,,,87,0,87,0,1,,,,,,,,
,,"[""circle"",""green"",""vert"",""up"",[0,150],[106,106]]",circle,green,vert,up,"[0,150]","[106,106]",up,1,,,,,,001,2025-03-17_12h13.07.029,SL_sali,2021.2.3,Win32,60.24096386,2.2828,,,88,0,88,0,1,,,,,,,,
,,"[""circle"",""no_dis"",""hori"",""left"",[99999,99999],[-150,0]]",circle,no_dis,hori,left,"[99999,99999]","[-150,0]",left,1,,,,,,001,2025-03-17_12h13.07.029,SL_sali,2021.2.3,Win32,60.24096386,1.2554,,,89,0,89,0,1,,,,,,,,
,,"[""diamond"",""green"",""vert"",""up"",[106,106],[106,-106]]",diamond,green,vert,up,"[106,106]","[106,-106]",up,1,,,,,,001,2025-03-17_12h13.07.029,SL_sali,2021.2.3,Win32,60.24096386,1.4408,,,90,0,90,0,1,,,,,,,,
,,"[""diamond"",""green"",""hori"",""left"",[150,0],[-150,0]]",diamond,green,hori,left,"[150,0]","[-150,0]",left,1,,,,,,001,2025-03-17_12h13.07.029,SL_sali,2021.2.3,Win32,60.24096386,1.1191,,,91,0,91,0,1,,,,,,,,
,,"[""circle"",""green"",""vert"",""up"",[-106,106],[0,150]]",circle,green,vert,up,"[-106,106]","[0,150]",up,1,,,,,,001,2025-03-17_12h13.07.029,SL_sali,2021.2.3,Win32,60.24096386,1.5119,,,92,0,92,0,1,,,,,,,,
,,"[""diamond"",""no_dis"",""vert"",""up"",[99999,99999],[150,0]]",diamond,no_dis,vert,up,"[99999,99999]","[150,0]",up,1,,,,,,001,2025-03-17_12h13.07.029,SL_sali,2021.2.3,Win32,60.24096386,1.5365,,,93,0,93,0,1,,,,,,,,
,,"[""diamond"",""red"",""hori"",""left"",[0,-150],[150,0]]",diamond,red,hori,left,"[0,-150]","[150,0]",left,1,,,,,,001,2025-03-17_12h13.07.029,SL_sali,2021.2.3,Win32,60.24096386,1.3529,,,94,0,94,0,1,,,,,,,,
,,"[""diamond"",""green"",""hori"",""left"",[0,150],[-106,-106]]",diamond,green,hori,left,"[0,150]","[-106,-106]",left,1,,,,,,001,2025-03-17_12h13.07.029,SL_sali,2021.2.3,Win32,60.24096386,1.5997,,,95,0,95,0,1,,,,,,,,
,,"[""diamond"",""red"",""hori"",""left"",[106,-106],[150,0]]",diamond,red,hori,left,"[106,-106]","[150,0]",left,1,,,,,,001,2025-03-17_12h13.07.029,SL_sali,2021.2.3,Win32,60.24096386,1.6182,,,96,0,96,0,1,,,,,,,,
,,"[""diamond"",""red"",""vert"",""up"",[106,106],[0,150]]",diamond,red,vert,up,"[106,106]","[0,150]",up,1,,,,,,001,2025-03-17_12h13.07.029,SL_sali,2021.2.3,Win32,60.24096386,1.3671,,,97,0,97,0,1,,,,,,,,
,,"[""circle"",""no_dis"",""vert"",""up"",[99999,99999],[0,150]]",circle,no_dis,vert,up,"[99999,99999]","[0,150]",up,1,,,,,,001,2025-03-17_12h13.07.029,SL_sali,2021.2.3,Win32,60.24096386,1.1952,,,98,0,98,0,1,,,,,,,,
,,"[""diamond"",""green"",""vert"",""up"",[0,-150],[-150,0]]",diamond,green,vert,up,"[0,-150]","[-150,0]",up,1,,,,,,001,2025-03-17_12h13.07.029,SL_sali,2021.2.3,Win32,60.24096386,1.3749,,,99,0,99,0,1,,,,,,,,
,,"[""diamond"",""no_dis"",""hori"",""left"",[99999,99999],[-150,0]]",diamond,no_dis,hori,left,"[99999,99999]","[-150,0]",left,1,,,,,,001,2025-03-17_12h13.07.029,SL_sali,2021.2.3,Win32,60.24096386,1.0839,,,100,0,100,0,1,,,,,,,,
,,"[""circle"",""no_dis"",""vert"",""up"",[99999,99999],[0,-150]]",circle,no_dis,vert,up,"[99999,99999]","[0,-150]",up,1,,,,,,001,2025-03-17_12h13.07.029,SL_sali,2021.2.3,Win32,60.24096386,0.9184,,,101,0,101,0,1,,,,,,,,
,,"[""diamond"",""no_dis"",""hori"",""left"",[99999,99999],[-150,0]]",diamond,no_dis,hori,left,"[99999,99999]","[-150,0]",left,1,,,,,,001,2025-03-17_12h13.07.029,SL_sali,2021.2.3,Win32,60.24096386,1.1064,,,102,0,102,0,1,,,,,,,,
,,"[""circle"",""no_dis"",""vert"",""up"",[99999,99999],[150,0]]",circle,no_dis,vert,up,"[99999,99999]","[150,0]",up,1,,,,,,001,2025-03-17_12h13.07.029,SL_sali,2021.2.3,Win32,60.24096386,0.7934,,,103,0,103,0,1,,,,,,,,
,,"[""circle"",""no_dis"",""hori"",""left"",[99999,99999],[106,106]]",circle,no_dis,hori,left,"[99999,99999]","[106,106]",left,1,,,,,,001,2025-03-17_12h13.07.029,SL_sali,2021.2.3,Win32,60.24096386,0.9337,,,104,0,104,0,1,,,,,,,,
,,"[""diamond"",""red"",""vert"",""up"",[106,-106],[150,0]]",diamond,red,vert,up,"[106,-106]","[150,0]",up,1,,,,,,001,2025-03-17_12h13.07.029,SL_sali,2021.2.3,Win32,60.24096386,1.0562,,,105,0,105,0,1,,,,,,,,
,,"[""diamond"",""no_dis"",""hori"",""left"",[99999,99999],[106,106]]",diamond,no_dis,hori,left,"[99999,99999]","[106,106]",left,1,,,,,,001,2025-03-17_12h13.07.029,SL_sali,2021.2.3,Win32,60.24096386,1.7523,,,106,0,106,0,1,,,,,,,,
,,"[""circle"",""no_dis"",""hori"",""left"",[99999,99999],[0,-150]]",circle,no_dis,hori,left,"[99999,99999]","[0,-150]",left,1,,,,,,001,2025-03-17_12h13.07.029,SL_sali,2021.2.3,Win32,60.24096386,1.3208,,,107,0,107,0,1,,,,,,,,
,,"[""circle"",""no_dis"",""vert"",""up"",[99999,99999],[106,-106]]",circle,no_dis,vert,up,"[99999,99999]","[106,-106]",up,1,,,,,,001,2025-03-17_12h13.07.029,SL_sali,2021.2.3,Win32,60.24096386,1.2669,,,108,0,108,0,1,,,,,,,,
,,"[""diamond"",""red"",""vert"",""up"",[106,106],[0,150]]",diamond,red,vert,up,"[106,106]","[0,150]",up,1,,,,,,001,2025-03-17_12h13.07.029,SL_sali,2021.2.3,Win32,60.24096386,1.1167,,,109,0,109,0,1,,,,,,,,
,,"[""circle"",""red"",""hori"",""left"",[-106,-106],[-150,0]]",circle,red,hori,left,"[-106,-106]","[-150,0]",left,1,,,,,,001,2025-03-17_12h13.07.029,SL_sali,2021.2.3,Win32,60.24096386,1.1913,,,110,0,110,0,1,,,,,,,,
,,"[""diamond"",""no_dis"",""hori"",""left"",[99999,99999],[-106,106]]",diamond,no_dis,hori,left,"[99999,99999]","[-106,106]",left,1,,,,,,001,2025-03-17_12h13.07.029,SL_sali,2021.2.3,Win32,60.24096386,1.0713,,,111,0,111,0,1,,,,,,,,
,,"[""circle"",""green"",""hori"",""left"",[106,106],[-150,0]]",circle,green,hori,left,"[106,106]","[-150,0]",left,1,,,,,,001,2025-03-17_12h13.07.029,SL_sali,2021.2.3,Win32,60.24096386,1.1059,,,112,0,112,0,1,,,,,,,,
,,"[""circle"",""no_dis"",""hori"",""left"",[99999,99999],[-106,106]]",circle,no_dis,hori,left,"[99999,99999]","[-106,106]",up,0,,,,,,001,2025-03-17_12h13.07.029,SL_sali,2021.2.3,Win32,60.24096386,1.2257,,,113,0,113,0,1,,,,,,,,
,,"[""diamond"",""green"",""hori"",""left"",[0,-150],[-106,-106]]",diamond,green,hori,left,"[0,-150]","[-106,-106]",left,1,,,,,,001,2025-03-17_12h13.07.029,SL_sali,2021.2.3,Win32,60.24096386,2.0197,,,114,0,114,0,1,,,,,,,,
,,"[""diamond"",""green"",""hori"",""left"",[0,150],[106,-106]]",diamond,green,hori,left,"[0,150]","[106,-106]",left,1,,,,,,001,2025-03-17_12h13.07.029,SL_sali,2021.2.3,Win32,60.24096386,0.983,,,115,0,115,0,1,,,,,,,,
,,"[""diamond"",""green"",""hori"",""left"",[-150,0],[150,0]]",diamond,green,hori,left,"[-150,0]","[150,0]",left,1,,,,,,001,2025-03-17_12h13.07.029,SL_sali,2021.2.3,Win32,60.24096386,1.2574,,,116,0,116,0,1,,,,,,,,
,,"[""circle"",""red"",""vert"",""up"",[-150,0],[0,-150]]",circle,red,vert,up,"[-150,0]","[0,-150]",up,1,,,,,,001,2025-03-17_12h13.07.029,SL_sali,2021.2.3,Win32,60.24096386,1.1005,,,117,0,117,0,1,,,,,,,,
,,"[""circle"",""green"",""hori"",""left"",[106,106],[150,0]]",circle,green,hori,left,"[106,106]","[150,0]",left,1,,,,,,001,2025-03-17_12h13.07.029,SL_sali,2021.2.3,Win32,60.24096386,0.9841,,,118,0,118,0,1,,,,,,,,
,,"[""circle"",""no_dis"",""hori"",""left"",[99999,99999],[150,0]]",circle,no_dis,hori,left,"[99999,99999]","[150,0]",left,1,,,,,,001,2025-03-17_12h13.07.029,SL_sali,2021.2.3,Win32,60.24096386,1.2284,,,119,0,119,0,1,,,,,,,,
,,,,,,,,,,,,,,,,001,2025-03-17_12h13.07.029,SL_sali,2021.2.3,Win32,60.24096386,,,,,,,,,2,space,24.7557,1,0,1,0,1
,,"[""diamond"",""no_dis"",""vert"",""up"",[99999,99999],[150,0]]",diamond,no_dis,vert,up,"[99999,99999]","[150,0]",up,1,,,,,,001,2025-03-17_12h13.07.029,SL_sali,2021.2.3,Win32,60.24096386,0.7785,,,0,0,0,0,1,,,,,,,,
,,"[""circle"",""red"",""hori"",""left"",[0,-150],[0,150]]",circle,red,hori,left,"[0,-150]","[0,150]",left,1,,,,,,001,2025-03-17_12h13.07.029,SL_sali,2021.2.3,Win32,60.24096386,2.3663,,,1,0,1,0,1,,,,,,,,
,,"[""circle"",""no_dis"",""hori"",""left"",[99999,99999],[-106,-106]]",circle,no_dis,hori,left,"[99999,99999]","[-106,-106]",left,1,,,,,,001,2025-03-17_12h13.07.029,SL_sali,2021.2.3,Win32,60.24096386,1.0335,,,2,0,2,0,1,,,,,,,,
,,"[""circle"",""red"",""vert"",""up"",[-106,106],[150,0]]",circle,red,vert,up,"[-106,106]","[150,0]",up,1,,,,,,001,2025-03-17_12h13.07.029,SL_sali,2021.2.3,Win32,60.24096386,0.8756,,,3,0,3,0,1,,,,,,,,
,,"[""diamond"",""no_dis"",""hori"",""left"",[99999,99999],[-150,0]]",diamond,no_dis,hori,left,"[99999,99999]","[-150,0]",left,1,,,,,,001,2025-03-17_12h13.07.029,SL_sali,2021.2.3,Win32,60.24096386,0.8887,,,4,0,4,0,1,,,,,,,,
,,"[""circle"",""red"",""hori"",""left"",[150,0],[0,150]]",circle,red,hori,left,"[150,0]","[0,150]",left,1,,,,,,001,2025-03-17_12h13.07.029,SL_sali,2021.2.3,Win32,60.24096386,1.6901,,,5,0,5,0,1,,,,,,,,
,,"[""circle"",""red"",""hori"",""left"",[106,106],[0,150]]",circle,red,hori,left,"[106,106]","[0,150]",left,1,,,,,,001,2025-03-17_12h13.07.029,SL_sali,2021.2.3,Win32,60.24096386,2.5169,,,6,0,6,0,1,,,,,,,,
,,"[""circle"",""no_dis"",""vert"",""up"",[99999,99999],[0,-150]]",circle,no_dis,vert,up,"[99999,99999]","[0,-150]",up,1,,,,,,001,2025-03-17_12h13.07.029,SL_sali,2021.2.3,Win32,60.24096386,0.9507,,,7,0,7,0,1,,,,,,,,
,,"[""diamond"",""green"",""hori"",""left"",[106,106],[-106,-106]]",diamond,green,hori,left,"[106,106]","[-106,-106]",left,1,,,,,,001,2025-03-17_12h13.07.029,SL_sali,2021.2.3,Win32,60.24096386,2.191,,,8,0,8,0,1,,,,,,,,
,,"[""diamond"",""green"",""vert"",""up"",[-150,0],[-106,-106]]",diamond,green,vert,up,"[-150,0]","[-106,-106]",up,1,,,,,,001,2025-03-17_12h13.07.029,SL_sali,2021.2.3,Win32,60.24096386,2.4004,,,9,0,9,0,1,,,,,,,,
,,"[""diamond"",""no_dis"",""vert"",""up"",[99999,99999],[0,150]]",diamond,no_dis,vert,up,"[99999,99999]","[0,150]",up,1,,,,,,001,2025-03-17_12h13.07.029,SL_sali,2021.2.3,Win32,60.24096386,1.2707,,,10,0,10,0,1,,,,,,,,
,,"[""circle"",""green"",""hori"",""left"",[-106,-106],[0,-150]]",circle,green,hori,left,"[-106,-106]","[0,-150]",left,1,,,,,,001,2025-03-17_12h13.07.029,SL_sali,2021.2.3,Win32,60.24096386,1.0561,,,11,0,11,0,1,,,,,,,,
,,"[""diamond"",""no_dis"",""hori"",""left"",[99999,99999],[106,-106]]",diamond,no_dis,hori,left,"[99999,99999]","[106,-106]",left,1,,,,,,001,2025-03-17_12h13.07.029,SL_sali,2021.2.3,Win32,60.24096386,1.0718,,,12,0,12,0,1,,,,,,,,
,,"[""circle"",""no_dis"",""vert"",""up"",[99999,99999],[106,106]]",circle,no_dis,vert,up,"[99999,99999]","[106,106]",up,1,,,,,,001,2025-03-17_12h13.07.029,SL_sali,2021.2.3,Win32,60.24096386,1.3395,,,13,0,13,0,1,,,,,,,,
,,"[""circle"",""no_dis"",""vert"",""up"",[99999,99999],[-106,106]]",circle,no_dis,vert,up,"[99999,99999]","[-106,106]",up,1,,,,,,001,2025-03-17_12h13.07.029,SL_sali,2021.2.3,Win32,60.24096386,1.1003,,,14,0,14,0,1,,,,,,,,
,,"[""diamond"",""red"",""vert"",""up"",[106,106],[106,-106]]",diamond,red,vert,up,"[106,106]","[106,-106]",up,1,,,,,,001,2025-03-17_12h13.07.029,SL_sali,2021.2.3,Win32,60.24096386,1.8199,,,15,0,15,0,1,,,,,,,,
,,"[""circle"",""red"",""vert"",""up"",[-106,-106],[106,-106]]",circle,red,vert,up,"[-106,-106]","[106,-106]",up,1,,,,,,001,2025-03-17_12h13.07.029,SL_sali,2021.2.3,Win32,60.24096386,1.5291,,,16,0,16,0,1,,,,,,,,
,,"[""circle"",""red"",""hori"",""left"",[-106,-106],[0,-150]]",circle,red,hori,left,"[-106,-106]","[0,-150]",left,1,,,,,,001,2025-03-17_12h13.07.029,SL_sali,2021.2.3,Win32,60.24096386,1.8451,,,17,0,17,0,1,,,,,,,,
,,"[""circle"",""green"",""hori"",""left"",[106,106],[106,-106]]",circle,green,hori,left,"[106,106]","[106,-106]",left,1,,,,,,001,2025-03-17_12h13.07.029,SL_sali,2021.2.3,Win32,60.24096386,1.6728,,,18,0,18,0,1,,,,,,,,
,,"[""diamond"",""green"",""hori"",""left"",[-150,0],[0,150]]",diamond,green,hori,left,"[-150,0]","[0,150]",left,1,,,,,,001,2025-03-17_12h13.07.029,SL_sali,2021.2.3,Win32,60.24096386,1.3838,,,19,0,19,0,1,,,,,,,,
,,"[""diamond"",""green"",""vert"",""up"",[-106,106],[150,0]]",diamond,green,vert,up,"[-106,106]","[150,0]",up,1,,,,,,001,2025-03-17_12h13.07.029,SL_sali,2021.2.3,Win32,60.24096386,0.9836,,,20,0,20,0,1,,,,,,,,
,,"[""diamond"",""no_dis"",""hori"",""left"",[99999,99999],[-106,106]]",diamond,no_dis,hori,left,"[99999,99999]","[-106,106]",left,1,,,,,,001,2025-03-17_12h13.07.029,SL_sali,2021.2.3,Win32,60.24096386,1.296,,,21,0,21,0,1,,,,,,,,
,,"[""diamond"",""no_dis"",""hori"",""left"",[99999,99999],[-106,-106]]",diamond,no_dis,hori,left,"[99999,99999]","[-106,-106]",left,1,,,,,,001,2025-03-17_12h13.07.029,SL_sali,2021.2.3,Win32,60.24096386,1.1525,,,22,0,22,0,1,,,,,,,,
,,"[""circle"",""green"",""vert"",""up"",[106,-106],[0,150]]",circle,green,vert,up,"[106,-106]","[0,150]",up,1,,,,,,001,2025-03-17_12h13.07.029,SL_sali,2021.2.3,Win32,60.24096386,1.3713,,,23,0,23,0,1,,,,,,,,
,,"[""diamond"",""red"",""vert"",""up"",[106,106],[0,-150]]",diamond,red,vert,up,"[106,106]","[0,-150]",up,1,,,,,,001,2025-03-17_12h13.07.029,SL_sali,2021.2.3,Win32,60.24096386,1.054,,,24,0,24,0,1,,,,,,,,
,,"[""diamond"",""red"",""hori"",""left"",[0,-150],[150,0]]",diamond,red,hori,left,"[0,-150]","[150,0]",left,1,,,,,,001,2025-03-17_12h13.07.029,SL_sali,2021.2.3,Win32,60.24096386,1.8424,,,25,0,25,0,1,,,,,,,,
,,"[""diamond"",""no_dis"",""hori"",""left"",[99999,99999],[-150,0]]",diamond,no_dis,hori,left,"[99999,99999]","[-150,0]",left,1,,,,,,001,2025-03-17_12h13.07.029,SL_sali,2021.2.3,Win32,60.24096386,1.4214,,,26,0,26,0,1,,,,,,,,
,,"[""diamond"",""no_dis"",""vert"",""up"",[99999,99999],[-106,-106]]",diamond,no_dis,vert,up,"[99999,99999]","[-106,-106]",up,1,,,,,,001,2025-03-17_12h13.07.029,SL_sali,2021.2.3,Win32,60.24096386,0.9163,,,27,0,27,0,1,,,,,,,,
,,"[""diamond"",""red"",""hori"",""left"",[106,106],[-106,106]]",diamond,red,hori,left,"[106,106]","[-106,106]",left,1,,,,,,001,2025-03-17_12h13.07.029,SL_sali,2021.2.3,Win32,60.24096386,1.2333,,,28,0,28,0,1,,,,,,,,
,,"[""circle"",""no_dis"",""hori"",""left"",[99999,99999],[150,0]]",circle,no_dis,hori,left,"[99999,99999]","[150,0]",left,1,,,,,,001,2025-03-17_12h13.07.029,SL_sali,2021.2.3,Win32,60.24096386,1.4377,,,29,0,29,0,1,,,,,,,,
,,"[""diamond"",""green"",""hori"",""left"",[106,106],[-106,106]]",diamond,green,hori,left,"[106,106]","[-106,106]",left,1,,,,,,001,2025-03-17_12h13.07.029,SL_sali,2021.2.3,Win32,60.24096386,1.7941,,,30,0,30,0,1,,,,,,,,
,,"[""circle"",""green"",""vert"",""up"",[-106,-106],[0,150]]",circle,green,vert,up,"[-106,-106]","[0,150]",up,1,,,,,,001,2025-03-17_12h13.07.029,SL_sali,2021.2.3,Win32,60.24096386,1.2108,,,31,0,31,0,1,,,,,,,,
,,"[""circle"",""no_dis"",""vert"",""up"",[99999,99999],[-106,106]]",circle,no_dis,vert,up,"[99999,99999]","[-106,106]",up,1,,,,,,001,2025-03-17_12h13.07.029,SL_sali,2021.2.3,Win32,60.24096386,1.1003,,,32,0,32,0,1,,,,,,,,
,,"[""circle"",""green"",""vert"",""up"",[106,106],[-106,-106]]",circle,green,vert,up,"[106,106]","[-106,-106]",up,1,,,,,,001,2025-03-17_12h13.07.029,SL_sali,2021.2.3,Win32,60.24096386,1.0669,,,33,0,33,0,1,,,,,,,,
,,"[""circle"",""red"",""vert"",""up"",[-106,-106],[-150,0]]",circle,red,vert,up,"[-106,-106]","[-150,0]",up,1,,,,,,001,2025-03-17_12h13.07.029,SL_sali,2021.2.3,Win32,60.24096386,1.237,,,34,0,34,0,1,,,,,,,,
,,"[""circle"",""red"",""hori"",""left"",[-106,106],[0,150]]",circle,red,hori,left,"[-106,106]","[0,150]",left,1,,,,,,001,2025-03-17_12h13.07.029,SL_sali,2021.2.3,Win32,60.24096386,1.2332,,,35,0,35,0,1,,,,,,,,
,,"[""diamond"",""no_dis"",""vert"",""up"",[99999,99999],[106,106]]",diamond,no_dis,vert,up,"[99999,99999]","[106,106]",up,1,,,,,,001,2025-03-17_12h13.07.029,SL_sali,2021.2.3,Win32,60.24096386,1.7004,,,36,0,36,0,1,,,,,,,,
,,"[""circle"",""red"",""vert"",""up"",[-150,0],[0,-150]]",circle,red,vert,up,"[-150,0]","[0,-150]",up,1,,,,,,001,2025-03-17_12h13.07.029,SL_sali,2021.2.3,Win32,60.24096386,1.5337,,,37,0,37,0,1,,,,,,,,
,,"[""diamond"",""no_dis"",""vert"",""up"",[99999,99999],[106,-106]]",diamond,no_dis,vert,up,"[99999,99999]","[106,-106]",up,1,,,,,,001,2025-03-17_12h13.07.029,SL_sali,2021.2.3,Win32,60.24096386,2.1791,,,38,0,38,0,1,,,,,,,,
,,"[""diamond"",""red"",""vert"",""up"",[-106,106],[0,-150]]",diamond,red,vert,up,"[-106,106]","[0,-150]",up,1,,,,,,001,2025-03-17_12h13.07.029,SL_sali,2021.2.3,Win32,60.24096386,1.8354,,,39,0,39,0,1,,,,,,,,
,,"[""circle"",""green"",""hori"",""left"",[106,106],[150,0]]",circle,green,hori,left,"[106,106]","[150,0]",left,1,,,,,,001,2025-03-17_12h13.07.029,SL_sali,2021.2.3,Win32,60.24096386,2.4336,,,40,0,40,0,1,,,,,,,,
,,"[""circle"",""red"",""hori"",""left"",[106,106],[150,0]]",circle,red,hori,left,"[106,106]","[150,0]",left,1,,,,,,001,2025-03-17_12h13.07.029,SL_sali,2021.2.3,Win32,60.24096386,1.7997,,,41,0,41,0,1,,,,,,,,
,,"[""circle"",""no_dis"",""hori"",""left"",[99999,99999],[0,150]]",circle,no_dis,hori,left,"[99999,99999]","[0,150]",left,1,,,,,,001,2025-03-17_12h13.07.029,SL_sali,2021.2.3,Win32,60.24096386,1.1073,,,42,0,42,0,1,,,,,,,,
,,"[""diamond"",""no_dis"",""vert"",""up"",[99999,99999],[106,106]]",diamond,no_dis,vert,up,"[99999,99999]","[106,106]",up,1,,,,,,001,2025-03-17_12h13.07.029,SL_sali,2021.2.3,Win32,60.24096386,1.0369,,,43,0,43,0,1,,,,,,,,
,,"[""circle"",""green"",""vert"",""up"",[150,0],[0,-150]]",circle,green,vert,up,"[150,0]","[0,-150]",up,1,,,,,,001,2025-03-17_12h13.07.029,SL_sali,2021.2.3,Win32,60.24096386,1.8697,,,44,0,44,0,1,,,,,,,,
,,"[""diamond"",""green"",""vert"",""up"",[0,-150],[-150,0]]",diamond,green,vert,up,"[0,-150]","[-150,0]",up,1,,,,,,001,2025-03-17_12h13.07.029,SL_sali,2021.2.3,Win32,60.24096386,1.6999,,,45,0,45,0,1,,,,,,,,
,,"[""circle"",""no_dis"",""vert"",""up"",[99999,99999],[0,-150]]",circle,no_dis,vert,up,"[99999,99999]","[0,-150]",up,1,,,,,,001,2025-03-17_12h13.07.029,SL_sali,2021.2.3,Win32,60.24096386,1.5405,,,46,0,46,0,1,,,,,,,,
,,"[""diamond"",""red"",""vert"",""up"",[106,-106],[150,0]]",diamond,red,vert,up,"[106,-106]","[150,0]",up,1,,,,,,001,2025-03-17_12h13.07.029,SL_sali,2021.2.3,Win32,60.24096386,1.1046,,,47,0,47,0,1,,,,,,,,
,,"[""diamond"",""green"",""vert"",""up"",[106,106],[0,150]]",diamond,green,vert,up,"[106,106]","[0,150]",up,1,,,,,,001,2025-03-17_12h13.07.029,SL_sali,2021.2.3,Win32,60.24096386,0.9334,,,48,0,48,0,1,,,,,,,,
,,"[""diamond"",""red"",""vert"",""up"",[106,106],[0,150]]",diamond,red,vert,up,"[106,106]","[0,150]",up,1,,,,,,001,2025-03-17_12h13.07.029,SL_sali,2021.2.3,Win32,60.24096386,1.0336,,,49,0,49,0,1,,,,,,,,
,,"[""diamond"",""green"",""vert"",""up"",[106,106],[-106,106]]",diamond,green,vert,up,"[106,106]","[-106,106]",up,1,,,,,,001,2025-03-17_12h13.07.029,SL_sali,2021.2.3,Win32,60.24096386,2.2686,,,50,0,50,0,1,,,,,,,,
,,"[""circle"",""no_dis"",""vert"",""up"",[99999,99999],[0,150]]",circle,no_dis,vert,up,"[99999,99999]","[0,150]",up,1,,,,,,001,2025-03-17_12h13.07.029,SL_sali,2021.2.3,Win32,60.24096386,1.117,,,51,0,51,0,1,,,,,,,,
,,"[""circle"",""red"",""hori"",""left"",[-106,-106],[-150,0]]",circle,red,hori,left,"[-106,-106]","[-150,0]",left,1,,,,,,001,2025-03-17_12h13.07.029,SL_sali,2021.2.3,Win32,60.24096386,1.2002,,,52,0,52,0,1,,,,,,,,
,,"[""diamond"",""no_dis"",""vert"",""up"",[99999,99999],[-106,-106]]",diamond,no_dis,vert,up,"[99999,99999]","[-106,-106]",up,1,,,,,,001,2025-03-17_12h13.07.029,SL_sali,2021.2.3,Win32,60.24096386,1.0504,,,53,0,53,0,1,,,,,,,,
,,"[""diamond"",""no_dis"",""vert"",""up"",[99999,99999],[-150,0]]",diamond,no_dis,vert,up,"[99999,99999]","[-150,0]",up,1,,,,,,001,2025-03-17_12h13.07.029,SL_sali,2021.2.3,Win32,60.24096386,1.117,,,54,0,54,0,1,,,,,,,,
,,"[""diamond"",""green"",""vert"",""up"",[-150,0],[106,106]]",diamond,green,vert,up,"[-150,0]","[106,106]",up,1,,,,,,001,2025-03-17_12h13.07.029,SL_sali,2021.2.3,Win32,60.24096386,1.0335,,,55,0,55,0,1,,,,,,,,
,,"[""diamond"",""red"",""vert"",""up"",[0,150],[150,0]]",diamond,red,vert,up,"[0,150]","[150,0]",up,1,,,,,,001,2025-03-17_12h13.07.029,SL_sali,2021.2.3,Win32,60.24096386,0.9714,,,56,0,56,0,1,,,,,,,,
,,"[""diamond"",""no_dis"",""hori"",""left"",[99999,99999],[150,0]]",diamond,no_dis,hori,left,"[99999,99999]","[150,0]",left,1,,,,,,001,2025-03-17_12h13.07.029,SL_sali,2021.2.3,Win32,60.24096386,0.9511,,,57,0,57,0,1,,,,,,,,
,,"[""circle"",""red"",""vert"",""up"",[0,-150],[0,150]]",circle,red,vert,up,"[0,-150]","[0,150]",up,1,,,,,,001,2025-03-17_12h13.07.029,SL_sali,2021.2.3,Win32,60.24096386,1.6875,,,58,0,58,0,1,,,,,,,,
,,"[""circle"",""green"",""vert"",""up"",[0,150],[-106,-106]]",circle,green,vert,up,"[0,150]","[-106,-106]",up,1,,,,,,001,2025-03-17_12h13.07.029,SL_sali,2021.2.3,Win32,60.24096386,1.1163,,,59,0,59,0,1,,,,,,,,
,,"[""diamond"",""red"",""hori"",""left"",[-150,0],[150,0]]",diamond,red,hori,left,"[-150,0]","[150,0]",left,1,,,,,,001,2025-03-17_12h13.07.029,SL_sali,2021.2.3,Win32,60.24096386,1.312,,,60,0,60,0,1,,,,,,,,
,,"[""circle"",""no_dis"",""vert"",""up"",[99999,99999],[150,0]]",circle,no_dis,vert,up,"[99999,99999]","[150,0]",up,1,,,,,,001,2025-03-17_12h13.07.029,SL_sali,2021.2.3,Win32,60.24096386,1.1503,,,61,0,61,0,1,,,,,,,,
,,"[""circle"",""green"",""hori"",""left"",[106,106],[-106,-106]]",circle,green,hori,left,"[106,106]","[-106,-106]",left,1,,,,,,001,2025-03-17_12h13.07.029,SL_sali,2021.2.3,Win32,60.24096386,1.5608,,,62,0,62,0,1,,,,,,,,
,,"[""diamond"",""no_dis"",""hori"",""left"",[99999,99999],[0,150]]",diamond,no_dis,hori,left,"[99999,99999]","[0,150]",up,0,,,,,,001,2025-03-17_12h13.07.029,SL_sali,2021.2.3,Win32,60.24096386,1.7003,,,63,0,63,0,1,,,,,,,,
,,"[""diamond"",""red"",""vert"",""up"",[106,106],[0,150]]",diamond,red,vert,up,"[106,106]","[0,150]",up,1,,,,,,001,2025-03-17_12h13.07.029,SL_sali,2021.2.3,Win32,60.24096386,1.2213,,,64,0,64,0,1,,,,,,,,
,,"[""diamond"",""red"",""hori"",""left"",[106,106],[0,-150]]",diamond,red,hori,left,"[106,106]","[0,-150]",left,1,,,,,,001,2025-03-17_12h13.07.029,SL_sali,2021.2.3,Win32,60.24096386,1.1189,,,65,0,65,0,1,,,,,,,,
,,"[""circle"",""no_dis"",""vert"",""up"",[99999,99999],[0,150]]",circle,no_dis,vert,up,"[99999,99999]","[0,150]",up,1,,,,,,001,2025-03-17_12h13.07.029,SL_sali,2021.2.3,Win32,60.24096386,1.2777,,,66,0,66,0,1,,,,,,,,
,,"[""diamond"",""red"",""hori"",""left"",[150,0],[0,-150]]",diamond,red,hori,left,"[150,0]","[0,-150]",left,1,,,,,,001,2025-03-17_12h13.07.029,SL_sali,2021.2.3,Win32,60.24096386,1.0337,,,67,0,67,0,1,,,,,,,,
,,"[""circle"",""green"",""vert"",""up"",[-106,-106],[-150,0]]",circle,green,vert,up,"[-106,-106]","[-150,0]",up,1,,,,,,001,2025-03-17_12h13.07.029,SL_sali,2021.2.3,Win32,60.24096386,1.676,,,68,0,68,0,1,,,,,,,,
,,"[""diamond"",""green"",""hori"",""left"",[0,150],[-106,-106]]",diamond,green,hori,left,"[0,150]","[-106,-106]",left,1,,,,,,001,2025-03-17_12h13.07.029,SL_sali,2021.2.3,Win32,60.24096386,1.4836,,,69,0,69,0,1,,,,,,,,
,,"[""diamond"",""red"",""hori"",""left"",[106,-106],[150,0]]",diamond,red,hori,left,"[106,-106]","[150,0]",left,1,,,,,,001,2025-03-17_12h13.07.029,SL_sali,2021.2.3,Win32,60.24096386,1.7776,,,70,0,70,0,1,,,,,,,,
,,"[""circle"",""no_dis"",""hori"",""left"",[99999,99999],[-150,0]]",circle,no_dis,hori,left,"[99999,99999]","[-150,0]",left,1,,,,,,001,2025-03-17_12h13.07.029,SL_sali,2021.2.3,Win32,60.24096386,1.3329,,,71,0,71,0,1,,,,,,,,
,,"[""circle"",""green"",""vert"",""up"",[-106,106],[106,106]]",circle,green,vert,up,"[-106,106]","[106,106]",up,1,,,,,,001,2025-03-17_12h13.07.029,SL_sali,2021.2.3,Win32,60.24096386,1.3004,,,72,0,72,0,1,,,,,,,,
,,"[""circle"",""red"",""vert"",""up"",[106,-106],[-106,106]]",circle,red,vert,up,"[106,-106]","[-106,106]",up,1,,,,,,001,2025-03-17_12h13.07.029,SL_sali,2021.2.3,Win32,60.24096386,1.5053,,,73,0,73,0,1,,,,,,,,
,,"[""circle"",""no_dis"",""hori"",""left"",[99999,99999],[0,-150]]",circle,no_dis,hori,left,"[99999,99999]","[0,-150]",left,1,,,,,,001,2025-03-17_12h13.07.029,SL_sali,2021.2.3,Win32,60.24096386,1.2279,,,74,0,74,0,1,,,,,,,,
,,"[""diamond"",""no_dis"",""hori"",""left"",[99999,99999],[106,-106]]",diamond,no_dis,hori,left,"[99999,99999]","[106,-106]",left,1,,,,,,001,2025-03-17_12h13.07.029,SL_sali,2021.2.3,Win32,60.24096386,1.1069,,,75,0,75,0,1,,,,,,,,
,,"[""circle"",""red"",""vert"",""up"",[-150,0],[150,0]]",circle,red,vert,up,"[-150,0]","[150,0]",up,1,,,,,,001,2025-03-17_12h13.07.029,SL_sali,2021.2.3,Win32,60.24096386,1.4605,,,76,0,76,0,1,,,,,,,,
,,"[""diamond"",""red"",""vert"",""up"",[-106,106],[150,0]]",diamond,red,vert,up,"[-106,106]","[150,0]",up,1,,,,,,001,2025-03-17_12h13.07.029,SL_sali,2021.2.3,Win32,60.24096386,1.8607,,,77,0,77,0,1,,,,,,,,
,,"[""diamond"",""green"",""vert"",""up"",[150,0],[106,-106]]",diamond,green,vert,up,"[150,0]","[106,-106]",up,1,,,,,,001,2025-03-17_12h13.07.029,SL_sali,2021.2.3,Win32,60.24096386,1.7447,,,78,0,78,0,1,,,,,,,,
,,"[""diamond"",""red"",""hori"",""left"",[150,0],[-106,-106]]",diamond,red,hori,left,"[150,0]","[-106,-106]",left,1,,,,,,001,2025-03-17_12h13.07.029,SL_sali,2021.2.3,Win32,60.24096386,2.0864,,,79,0,79,0,1,,,,,,,,
,,"[""diamond"",""red"",""hori"",""left"",[150,0],[-150,0]]",diamond,red,hori,left,"[150,0]","[-150,0]",left,1,,,,,,001,2025-03-17_12h13.07.029,SL_sali,2021.2.3,Win32,60.24096386,1.9171,,,80,0,80,0,1,,,,,,,,
,,"[""circle"",""red"",""hori"",""left"",[106,-106],[150,0]]",circle,red,hori,left,"[106,-106]","[150,0]",left,1,,,,,,001,2025-03-17_12h13.07.029,SL_sali,2021.2.3,Win32,60.24096386,1.3756,,,81,0,81,0,1,,,,,,,,
,,"[""circle"",""no_dis"",""hori"",""left"",[99999,99999],[106,-106]]",circle,no_dis,hori,left,"[99999,99999]","[106,-106]",left,1,,,,,,001,2025-03-17_12h13.07.029,SL_sali,2021.2.3,Win32,60.24096386,1.3433,,,82,0,82,0,1,,,,,,,,
,,"[""diamond"",""green"",""hori"",""left"",[0,150],[106,-106]]",diamond,green,hori,left,"[0,150]","[106,-106]",left,1,,,,,,001,2025-03-17_12h13.07.029,SL_sali,2021.2.3,Win32,60.24096386,1.6051,,,83,0,83,0,1,,,,,,,,
,,"[""circle"",""green"",""hori"",""left"",[150,0],[-150,0]]",circle,green,hori,left,"[150,0]","[-150,0]",left,1,,,,,,001,2025-03-17_12h13.07.029,SL_sali,2021.2.3,Win32,60.24096386,2.3537,,,84,0,84,0,1,,,,,,,,
,,"[""diamond"",""no_dis"",""hori"",""left"",[99999,99999],[-150,0]]",diamond,no_dis,hori,left,"[99999,99999]","[-150,0]",left,1,,,,,,001,2025-03-17_12h13.07.029,SL_sali,2021.2.3,Win32,60.24096386,0.9947,,,85,0,85,0,1,,,,,,,,
,,"[""diamond"",""red"",""hori"",""left"",[0,150],[106,-106]]",diamond,red,hori,left,"[0,150]","[106,-106]",left,1,,,,,,001,2025-03-17_12h13.07.029,SL_sali,2021.2.3,Win32,60.24096386,1.1771,,,86,0,86,0,1,,,,,,,,
,,"[""diamond"",""no_dis"",""vert"",""up"",[99999,99999],[150,0]]",diamond,no_dis,vert,up,"[99999,99999]","[150,0]",up,1,,,,,,001,2025-03-17_12h13.07.029,SL_sali,2021.2.3,Win32,60.24096386,0.867,,,87,0,87,0,1,,,,,,,,
,,"[""circle"",""red"",""hori"",""left"",[106,106],[106,-106]]",circle,red,hori,left,"[106,106]","[106,-106]",up,0,,,,,,001,2025-03-17_12h13.07.029,SL_sali,2021.2.3,Win32,60.24096386,1.533,,,88,0,88,0,1,,,,,,,,
,,"[""circle"",""green"",""vert"",""up"",[0,-150],[106,-106]]",circle,green,vert,up,"[0,-150]","[106,-106]",up,1,,,,,,001,2025-03-17_12h13.07.029,SL_sali,2021.2.3,Win32,60.24096386,1.6671,,,89,0,89,0,1,,,,,,,,
,,"[""diamond"",""green"",""vert"",""up"",[106,106],[0,-150]]",diamond,green,vert,up,"[106,106]","[0,-150]",up,1,,,,,,001,2025-03-17_12h13.07.029,SL_sali,2021.2.3,Win32,60.24096386,1.5502,,,90,0,90,0,1,,,,,,,,
,,"[""diamond"",""green"",""hori"",""left"",[0,150],[106,-106]]",diamond,green,hori,left,"[0,150]","[106,-106]",left,1,,,,,,001,2025-03-17_12h13.07.029,SL_sali,2021.2.3,Win32,60.24096386,1.5414,,,91,0,91,0,1,,,,,,,,
,,"[""diamond"",""no_dis"",""vert"",""up"",[99999,99999],[-106,-106]]",diamond,no_dis,vert,up,"[99999,99999]","[-106,-106]",up,1,,,,,,001,2025-03-17_12h13.07.029,SL_sali,2021.2.3,Win32,60.24096386,0.9534,,,92,0,92,0,1,,,,,,,,
,,"[""circle"",""no_dis"",""vert"",""up"",[99999,99999],[106,-106]]",circle,no_dis,vert,up,"[99999,99999]","[106,-106]",up,1,,,,,,001,2025-03-17_12h13.07.029,SL_sali,2021.2.3,Win32,60.24096386,1.2205,,,93,0,93,0,1,,,,,,,,
,,"[""diamond"",""green"",""vert"",""up"",[106,106],[106,-106]]",diamond,green,vert,up,"[106,106]","[106,-106]",up,1,,,,,,001,2025-03-17_12h13.07.029,SL_sali,2021.2.3,Win32,60.24096386,1.1262,,,94,0,94,0,1,,,,,,,,
,,"[""circle"",""no_dis"",""hori"",""left"",[99999,99999],[-106,106]]",circle,no_dis,hori,left,"[99999,99999]","[-106,106]",left,1,,,,,,001,2025-03-17_12h13.07.029,SL_sali,2021.2.3,Win32,60.24096386,1.3525,,,95,0,95,0,1,,,,,,,,
,,"[""circle"",""green"",""vert"",""up"",[-106,106],[0,150]]",circle,green,vert,up,"[-106,106]","[0,150]",up,1,,,,,,001,2025-03-17_12h13.07.029,SL_sali,2021.2.3,Win32,60.24096386,1.0037,,,96,0,96,0,1,,,,,,,,
,,"[""diamond"",""red"",""hori"",""left"",[-150,0],[106,106]]",diamond,red,hori,left,"[-150,0]","[106,106]",left,1,,,,,,001,2025-03-17_12h13.07.029,SL_sali,2021.2.3,Win32,60.24096386,1.7503,,,97,0,97,0,1,,,,,,,,
,,"[""diamond"",""green"",""hori"",""left"",[0,-150],[-106,-106]]",diamond,green,hori,left,"[0,-150]","[-106,-106]",up,0,,,,,,001,2025-03-17_12h13.07.029,SL_sali,2021.2.3,Win32,60.24096386,2.4356,,,98,0,98,0,1,,,,,,,,
,,"[""diamond"",""green"",""hori"",""left"",[150,0],[-150,0]]",diamond,green,hori,left,"[150,0]","[-150,0]",left,1,,,,,,001,2025-03-17_12h13.07.029,SL_sali,2021.2.3,Win32,60.24096386,1.596,,,99,0,99,0,1,,,,,,,,
,,"[""circle"",""red"",""hori"",""left"",[106,106],[106,-106]]",circle,red,hori,left,"[106,106]","[106,-106]",left,1,,,,,,001,2025-03-17_12h13.07.029,SL_sali,2021.2.3,Win32,60.24096386,2.0944,,,100,0,100,0,1,,,,,,,,
,,"[""diamond"",""green"",""vert"",""up"",[0,-150],[150,0]]",diamond,green,vert,up,"[0,-150]","[150,0]",up,1,,,,,,001,2025-03-17_12h13.07.029,SL_sali,2021.2.3,Win32,60.24096386,1.2364,,,101,0,101,0,1,,,,,,,,
,,"[""circle"",""no_dis"",""hori"",""left"",[99999,99999],[0,-150]]",circle,no_dis,hori,left,"[99999,99999]","[0,-150]",left,1,,,,,,001,2025-03-17_12h13.07.029,SL_sali,2021.2.3,Win32,60.24096386,1.6408,,,102,0,102,0,1,,,,,,,,
,,"[""circle"",""red"",""vert"",""up"",[0,150],[150,0]]",circle,red,vert,up,"[0,150]","[150,0]",up,1,,,,,,001,2025-03-17_12h13.07.029,SL_sali,2021.2.3,Win32,60.24096386,1.2065,,,103,0,103,0,1,,,,,,,,
,,"[""circle"",""no_dis"",""vert"",""up"",[99999,99999],[0,-150]]",circle,no_dis,vert,up,"[99999,99999]","[0,-150]",up,1,,,,,,001,2025-03-17_12h13.07.029,SL_sali,2021.2.3,Win32,60.24096386,1.3004,,,104,0,104,0,1,,,,,,,,
,,"[""diamond"",""red"",""vert"",""up"",[0,-150],[0,150]]",diamond,red,vert,up,"[0,-150]","[0,150]",up,1,,,,,,001,2025-03-17_12h13.07.029,SL_sali,2021.2.3,Win32,60.24096386,1.3336,,,105,0,105,0,1,,,,,,,,
,,"[""circle"",""green"",""vert"",""up"",[0,150],[106,106]]",circle,green,vert,up,"[0,150]","[106,106]",up,1,,,,,,001,2025-03-17_12h13.07.029,SL_sali,2021.2.3,Win32,60.24096386,1.5845,,,106,0,106,0,1,,,,,,,,
,,"[""circle"",""green"",""hori"",""left"",[106,106],[-150,0]]",circle,green,hori,left,"[106,106]","[-150,0]",left,1,,,,,,001,2025-03-17_12h13.07.029,SL_sali,2021.2.3,Win32,60.24096386,1.0521,,,107,0,107,0,1,,,,,,,,
,,"[""circle"",""red"",""vert"",""up"",[-106,106],[106,106]]",circle,red,vert,up,"[-106,106]","[106,106]",up,1,,,,,,001,2025-03-17_12h13.07.029,SL_sali,2021.2.3,Win32,60.24096386,1.1118,,,108,0,108,0,1,,,,,,,,
,,"[""diamond"",""red"",""vert"",""up"",[-106,-106],[-106,106]]",diamond,red,vert,up,"[-106,-106]","[-106,106]",up,1,,,,,,001,2025-03-17_12h13.07.029,SL_sali,2021.2.3,Win32,60.24096386,1.1421,,,109,0,109,0,1,,,,,,,,
,,"[""diamond"",""green"",""hori"",""left"",[106,-106],[-106,106]]",diamond,green,hori,left,"[106,-106]","[-106,106]",left,1,,,,,,001,2025-03-17_12h13.07.029,SL_sali,2021.2.3,Win32,60.24096386,1.7771,,,110,0,110,0,1,,,,,,,,
,,"[""circle"",""no_dis"",""hori"",""left"",[99999,99999],[106,106]]",circle,no_dis,hori,left,"[99999,99999]","[106,106]",left,1,,,,,,001,2025-03-17_12h13.07.029,SL_sali,2021.2.3,Win32,60.24096386,1.7996,,,111,0,111,0,1,,,,,,,,
,,"[""circle"",""no_dis"",""hori"",""left"",[99999,99999],[-106,106]]",circle,no_dis,hori,left,"[99999,99999]","[-106,106]",left,1,,,,,,001,2025-03-17_12h13.07.029,SL_sali,2021.2.3,Win32,60.24096386,1.383,,,112,0,112,0,1,,,,,,,,
,,"[""circle"",""green"",""hori"",""left"",[106,106],[106,-106]]",circle,green,hori,left,"[106,106]","[106,-106]",left,1,,,,,,001,2025-03-17_12h13.07.029,SL_sali,2021.2.3,Win32,60.24096386,1.0175,,,113,0,113,0,1,,,,,,,,
,,"[""circle"",""green"",""hori"",""left"",[106,106],[106,-106]]",circle,green,hori,left,"[106,106]","[106,-106]",left,1,,,,,,001,2025-03-17_12h13.07.029,SL_sali,2021.2.3,Win32,60.24096386,1.2951,,,114,0,114,0,1,,,,,,,,
,,"[""circle"",""green"",""hori"",""left"",[106,-106],[-106,106]]",circle,green,hori,left,"[106,-106]","[-106,106]",left,1,,,,,,001,2025-03-17_12h13.07.029,SL_sali,2021.2.3,Win32,60.24096386,1.0415,,,115,0,115,0,1,,,,,,,,
,,"[""diamond"",""no_dis"",""hori"",""left"",[99999,99999],[106,106]]",diamond,no_dis,hori,left,"[99999,99999]","[106,106]",left,1,,,,,,001,2025-03-17_12h13.07.029,SL_sali,2021.2.3,Win32,60.24096386,1.74,,,116,0,116,0,1,,,,,,,,
,,"[""circle"",""green"",""hori"",""left"",[106,-106],[150,0]]",circle,green,hori,left,"[106,-106]","[150,0]",left,1,,,,,,001,2025-03-17_12h13.07.029,SL_sali,2021.2.3,Win32,60.24096386,1.3752,,,117,0,117,0,1,,,,,,,,
,,"[""diamond"",""green"",""hori"",""left"",[-150,0],[150,0]]",diamond,green,hori,left,"[-150,0]","[150,0]",left,1,,,,,,001,2025-03-17_12h13.07.029,SL_sali,2021.2.3,Win32,60.24096386,1.5171,,,118,0,118,0,1,,,,,,,,
,,"[""circle"",""red"",""vert"",""up"",[106,106],[-106,106]]",circle,red,vert,up,"[106,106]","[-106,106]",up,1,,,,,,001,2025-03-17_12h13.07.029,SL_sali,2021.2.3,Win32,60.24096386,1.8996,,,119,0,119,0,1,,,,,,,,
,,,,,,,,,,,,,,,,001,2025-03-17_12h13.07.029,SL_sali,2021.2.3,Win32,60.24096386,,,,,,,,,3,space,24.3846,2,0,2,0,1
,,"[""circle"",""green"",""vert"",""up"",[0,-150],[106,-106]]",circle,green,vert,up,"[0,-150]","[106,-106]",up,1,,,,,,001,2025-03-17_12h13.07.029,SL_sali,2021.2.3,Win32,60.24096386,1.2163,,,0,0,0,0,1,,,,,,,,
,,"[""circle"",""no_dis"",""hori"",""left"",[99999,99999],[0,150]]",circle,no_dis,hori,left,"[99999,99999]","[0,150]",left,1,,,,,,001,2025-03-17_12h13.07.029,SL_sali,2021.2.3,Win32,60.24096386,1.4015,,,1,0,1,0,1,,,,,,,,
,,"[""circle"",""green"",""vert"",""up"",[-106,106],[0,150]]",circle,green,vert,up,"[-106,106]","[0,150]",up,1,,,,,,001,2025-03-17_12h13.07.029,SL_sali,2021.2.3,Win32,60.24096386,0.9346,,,2,0,2,0,1,,,,,,,,
,,"[""diamond"",""no_dis"",""hori"",""left"",[99999,99999],[-150,0]]",diamond,no_dis,hori,left,"[99999,99999]","[-150,0]",left,1,,,,,,001,2025-03-17_12h13.07.029,SL_sali,2021.2.3,Win32,60.24096386,1.05,,,3,0,3,0,1,,,,,,,,
,,"[""circle"",""green"",""hori"",""left"",[106,106],[106,-106]]",circle,green,hori,left,"[106,106]","[106,-106]",left,1,,,,,,001,2025-03-17_12h13.07.029,SL_sali,2021.2.3,Win32,60.24096386,1.433,,,4,0,4,0,1,,,,,,,,
,,"[""diamond"",""green"",""vert"",""up"",[0,-150],[-150,0]]",diamond,green,vert,up,"[0,-150]","[-150,0]",up,1,,,,,,001,2025-03-17_12h13.07.029,SL_sali,2021.2.3,Win32,60.24096386,0.9425,,,5,0,5,0,1,,,,,,,,
,,"[""circle"",""no_dis"",""vert"",""up"",[99999,99999],[0,150]]",circle,no_dis,vert,up,"[99999,99999]","[0,150]",up,1,,,,,,001,2025-03-17_12h13.07.029,SL_sali,2021.2.3,Win32,60.24096386,1.0963,,,6,0,6,0,1,,,,,,,,
,,"[""circle"",""no_dis"",""hori"",""left"",[99999,99999],[150,0]]",circle,no_dis,hori,left,"[99999,99999]","[150,0]",left,1,,,,,,001,2025-03-17_12h13.07.029,SL_sali,2021.2.3,Win32,60.24096386,0.7016,,,7,0,7,0,1,,,,,,,,
,,"[""circle"",""green"",""vert"",""up"",[0,150],[106,106]]",circle,green,vert,up,"[0,150]","[106,106]",up,1,,,,,,001,2025-03-17_12h13.07.029,SL_sali,2021.2.3,Win32,60.24096386,0.9092,,,8,0,8,0,1,,,,,,,,
,,"[""circle"",""red"",""hori"",""left"",[106,106],[106,-106]]",circle,red,hori,left,"[106,106]","[106,-106]",left,1,,,,,,001,2025-03-17_12h13.07.029,SL_sali,2021.2.3,Win32,60.24096386,0.8731,,,9,0,9,0,1,,,,,,,,
,,"[""diamond"",""green"",""hori"",""left"",[150,0],[-150,0]]",diamond,green,hori,left,"[150,0]","[-150,0]",left,1,,,,,,001,2025-03-17_12h13.07.029,SL_sali,2021.2.3,Win32,60.24096386,1.1856,,,10,0,10,0,1,,,,,,,,
,,"[""diamond"",""no_dis"",""vert"",""up"",[99999,99999],[-106,-106]]",diamond,no_dis,vert,up,"[99999,99999]","[-106,-106]",up,1,,,,,,001,2025-03-17_12h13.07.029,SL_sali,2021.2.3,Win32,60.24096386,0.7169,,,11,0,11,0,1,,,,,,,,
,,"[""diamond"",""green"",""vert"",""up"",[150,0],[106,-106]]",diamond,green,vert,up,"[150,0]","[106,-106]",up,1,,,,,,001,2025-03-17_12h13.07.029,SL_sali,2021.2.3,Win32,60.24096386,0.9281,,,12,0,12,0,1,,,,,,,,
,,"[""diamond"",""red"",""vert"",""up"",[-106,106],[150,0]]",diamond,red,vert,up,"[-106,106]","[150,0]",up,1,,,,,,001,2025-03-17_12h13.07.029,SL_sali,2021.2.3,Win32,60.24096386,1.2168,,,13,0,13,0,1,,,,,,,,
,,"[""circle"",""red"",""vert"",""up"",[106,-106],[-106,106]]",circle,red,vert,up,"[106,-106]","[-106,106]",up,1,,,,,,001,2025-03-17_12h13.07.029,SL_sali,2021.2.3,Win32,60.24096386,1.0079,,,14,0,14,0,1,,,,,,,,
,,"[""circle"",""green"",""vert"",""up"",[150,0],[0,-150]]",circle,green,vert,up,"[150,0]","[0,-150]",up,1,,,,,,001,2025-03-17_12h13.07.029,SL_sali,2021.2.3,Win32,60.24096386,0.9766,,,15,0,15,0,1,,,,,,,,
,,"[""diamond"",""red"",""hori"",""left"",[106,106],[-106,106]]",diamond,red,hori,left,"[106,106]","[-106,106]",left,1,,,,,,001,2025-03-17_12h13.07.029,SL_sali,2021.2.3,Win32,60.24096386,1.9097,,,16,0,16,0,1,,,,,,,,
,,"[""diamond"",""no_dis"",""hori"",""left"",[99999,99999],[-150,0]]",diamond,no_dis,hori,left,"[99999,99999]","[-150,0]",left,1,,,,,,001,2025-03-17_12h13.07.029,SL_sali,2021.2.3,Win32,60.24096386,1.8669,,,17,0,17,0,1,,,,,,,,
,,"[""circle"",""green"",""vert"",""up"",[-106,106],[106,106]]",circle,green,vert,up,"[-106,106]","[106,106]",up,1,,,,,,001,2025-03-17_12h13.07.029,SL_sali,2021.2.3,Win32,60.24096386,1.6761,,,18,0,18,0,1,,,,,,,,
,,"[""circle"",""green"",""hori"",""left"",[106,106],[-150,0]]",circle,green,hori,left,"[106,106]","[-150,0]",left,1,,,,,,001,2025-03-17_12h13.07.029,SL_sali,2021.2.3,Win32,60.24096386,1.0842,,,19,0,19,0,1,,,,,,,,
,,"[""circle"",""green"",""vert"",""up"",[0,150],[-106,-106]]",circle,green,vert,up,"[0,150]","[-106,-106]",up,1,,,,,,001,2025-03-17_12h13.07.029,SL_sali,2021.2.3,Win32,60.24096386,2.4412,,,20,0,20,0,1,,,,,,,,
,,"[""diamond"",""no_dis"",""hori"",""left"",[99999,99999],[-106,-106]]",diamond,no_dis,hori,left,"[99999,99999]","[-106,-106]",left,1,,,,,,001,2025-03-17_12h13.07.029,SL_sali,2021.2.3,Win32,60.24096386,1.9602,,,21,0,21,0,1,,,,,,,,
,,"[""diamond"",""red"",""hori"",""left"",[106,-106],[150,0]]",diamond,red,hori,left,"[106,-106]","[150,0]",left,1,,,,,,001,2025-03-17_12h13.07.029,SL_sali,2021.2.3,Win32,60.24096386,1.6456,,,22,0,22,0,1,,,,,,,,
,,"[""circle"",""no_dis"",""vert"",""up"",[99999,99999],[106,106]]",circle,no_dis,vert,up,"[99999,99999]","[106,106]",up,1,,,,,,001,2025-03-17_12h13.07.029,SL_sali,2021.2.3,Win32,60.24096386,1.8859,,,23,0,23,0,1,,,,,,,,
,,"[""diamond"",""no_dis"",""vert"",""up"",[99999,99999],[-150,0]]",diamond,no_dis,vert,up,"[99999,99999]","[-150,0]",up,1,,,,,,001,2025-03-17_12h13.07.029,SL_sali,2021.2.3,Win32,60.24096386,1.2455,,,24,0,24,0,1,,,,,,,,
,,"[""circle"",""red"",""vert"",""up"",[-106,106],[106,106]]",circle,red,vert,up,"[-106,106]","[106,106]",up,1,,,,,,001,2025-03-17_12h13.07.029,SL_sali,2021.2.3,Win32,60.24096386,1.0448,,,25,0,25,0,1,,,,,,,,
,,"[""circle"",""green"",""hori"",""left"",[106,-106],[150,0]]",circle,green,hori,left,"[106,-106]","[150,0]",left,1,,,,,,001,2025-03-17_12h13.07.029,SL_sali,2021.2.3,Win32,60.24096386,1.3997,,,26,0,26,0,1,,,,,,,,
,,"[""circle"",""red"",""hori"",""left"",[106,106],[0,150]]",circle,red,hori,left,"[106,106]","[0,150]",left,1,,,,,,001,2025-03-17_12h13.07.029,SL_sali,2021.2.3,Win32,60.24096386,2.1741,,,27,0,27,0,1,,,,,,,,
,,"[""circle"",""green"",""vert"",""up"",[106,-106],[0,150]]",circle,green,vert,up,"[106,-106]","[0,150]",up,1,,,,,,001,2025-03-17_12h13.07.029,SL_sali,2021.2.3,Win32,60.24096386,0.8366,,,28,0,28,0,1,,,,,,,,
,,"[""circle"",""red"",""hori"",""left"",[106,-106],[150,0]]",circle,red,hori,left,"[106,-106]","[150,0]",left,1,,,,,,001,2025-03-17_12h13.07.029,SL_sali,2021.2.3,Win32,60.24096386,0.8933,,,29,0,29,0,1,,,,,,,,
,,"[""circle"",""red"",""hori"",""left"",[0,-150],[0,150]]",circle,red,hori,left,"[0,-150]","[0,150]",left,1,,,,,,001,2025-03-17_12h13.07.029,SL_sali,2021.2.3,Win32,60.24096386,0.9496,,,30,0,30,0,1,,,,,,,,
,,"[""circle"",""green"",""vert"",""up"",[106,106],[-106,-106]]",circle,green,vert,up,"[106,106]","[-106,-106]",up,1,,,,,,001,2025-03-17_12h13.07.029,SL_sali,2021.2.3,Win32,60.24096386,1.0082,,,31,0,31,0,1,,,,,,,,
,,"[""circle"",""green"",""hori"",""left"",[106,106],[106,-106]]",circle,green,hori,left,"[106,106]","[106,-106]",left,1,,,,,,001,2025-03-17_12h13.07.029,SL_sali,2021.2.3,Win32,60.24096386,0.8772,,,32,0,32,0,1,,,,,,,,
,,"[""diamond"",""no_dis"",""hori"",""left"",[99999,99999],[-106,106]]",diamond,no_dis,hori,left,"[99999,99999]","[-106,106]",up,0,,,,,,001,2025-03-17_12h13.07.029,SL_sali,2021.2.3,Win32,60.24096386,2.1012,,,33,0,33,0,1,,,,,,,,
,,"[""diamond"",""green"",""hori"",""left"",[106,106],[-106,106]]",diamond,green,hori,left,"[106,106]","[-106,106]",left,1,,,,,,001,2025-03-17_12h13.07.029,SL_sali,2021.2.3,Win32,60.24096386,1.236,,,34,0,34,0,1,,,,,,,,
,,"[""diamond"",""green"",""hori"",""left"",[106,106],[-106,-106]]",diamond,green,hori,left,"[106,106]","[-106,-106]",left,1,,,,,,001,2025-03-17_12h13.07.029,SL_sali,2021.2.3,Win32,60.24096386,1.0163,,,35,0,35,0,1,,,,,,,,
,,"[""diamond"",""no_dis"",""vert"",""up"",[99999,99999],[-106,-106]]",diamond,no_dis,vert,up,"[99999,99999]","[-106,-106]",up,1,,,,,,001,2025-03-17_12h13.07.029,SL_sali,2021.2.3,Win32,60.24096386,0.9775,,,36,0,36,0,1,,,,,,,,
,,"[""diamond"",""green"",""hori"",""left"",[-150,0],[0,150]]",diamond,green,hori,left,"[-150,0]","[0,150]",left,1,,,,,,001,2025-03-17_12h13.07.029,SL_sali,2021.2.3,Win32,60.24096386,1.6044,,,37,0,37,0,1,,,,,,,,
,,"[""circle"",""no_dis"",""vert"",""up"",[99999,99999],[0,-150]]",circle,no_dis,vert,up,"[99999,99999]","[0,-150]",up,1,,,,,,001,2025-03-17_12h13.07.029,SL_sali,2021.2.3,Win32,60.24096386,1.1519,,,38,0,38,0,1,,,,,,,,
,,"[""circle"",""red"",""vert"",""up"",[-150,0],[0,-150]]",circle,red,vert,up,"[-150,0]","[0,-150]",up,1,,,,,,001,2025-03-17_12h13.07.029,SL_sali,2021.2.3,Win32,60.24096386,0.8127,,,39,0,39,0,1,,,,,,,,
,,"[""circle"",""no_dis"",""hori"",""left"",[99999,99999],[0,-150]]",circle,no_dis,hori,left,"[99999,99999]","[0,-150]",left,1,,,,,,001,2025-03-17_12h13.07.029,SL_sali,2021.2.3,Win32,60.24096386,0.933,,,40,0,40,0,1,,,,,,,,
,,"[""circle"",""no_dis"",""hori"",""left"",[99999,99999],[-106,106]]",circle,no_dis,hori,left,"[99999,99999]","[-106,106]",left,1,,,,,,001,2025-03-17_12h13.07.029,SL_sali,2021.2.3,Win32,60.24096386,1.1239,,,41,0,41,0,1,,,,,,,,
,,"[""diamond"",""red"",""hori"",""left"",[0,150],[106,-106]]",diamond,red,hori,left,"[0,150]","[106,-106]",left,1,,,,,,001,2025-03-17_12h13.07.029,SL_sali,2021.2.3,Win32,60.24096386,1.4496,,,42,0,42,0,1,,,,,,,,
,,"[""circle"",""no_dis"",""hori"",""left"",[99999,99999],[106,106]]",circle,no_dis,hori,left,"[99999,99999]","[106,106]",left,1,,,,,,001,2025-03-17_12h13.07.029,SL_sali,2021.2.3,Win32,60.24096386,1.7,,,43,0,43,0,1,,,,,,,,
,,"[""diamond"",""green"",""vert"",""up"",[-106,106],[150,0]]",diamond,green,vert,up,"[-106,106]","[150,0]",up,1,,,,,,001,2025-03-17_12h13.07.029,SL_sali,2021.2.3,Win32,60.24096386,1.3496,,,44,0,44,0,1,,,,,,,,
,,"[""circle"",""red"",""hori"",""left"",[-106,-106],[0,-150]]",circle,red,hori,left,"[-106,-106]","[0,-150]",left,1,,,,,,001,2025-03-17_12h13.07.029,SL_sali,2021.2.3,Win32,60.24096386,2.5885,,,45,0,45,0,1,,,,,,,,
,,"[""circle"",""red"",""vert"",""up"",[106,106],[-106,106]]",circle,red,vert,up,"[106,106]","[-106,106]",up,1,,,,,,001,2025-03-17_12h13.07.029,SL_sali,2021.2.3,Win32,60.24096386,1.2503,,,46,0,46,0,1,,,,,,,,
,,"[""diamond"",""green"",""vert"",""up"",[106,106],[-106,106]]",diamond,green,vert,up,"[106,106]","[-106,106]",up,1,,,,,,001,2025-03-17_12h13.07.029,SL_sali,2021.2.3,Win32,60.24096386,1.4455,,,47,0,47,0,1,,,,,,,,
,,"[""diamond"",""red"",""vert"",""up"",[106,106],[0,-150]]",diamond,red,vert,up,"[106,106]","[0,-150]",up,1,,,,,,001,2025-03-17_12h13.07.029,SL_sali,2021.2.3,Win32,60.24096386,0.9099,,,48,0,48,0,1,,,,,,,,
,,"[""diamond"",""green"",""hori"",""left"",[0,-150],[-106,-106]]",diamond,green,hori,left,"[0,-150]","[-106,-106]",left,1,,,,,,001,2025-03-17_12h13.07.029,SL_sali,2021.2.3,Win32,60.24096386,0.917,,,49,0,49,0,1,,,,,,,,
,,"[""diamond"",""no_dis"",""hori"",""left"",[99999,99999],[106,106]]",diamond,no_dis,hori,left,"[99999,99999]","[106,106]",left,1,,,,,,001,2025-03-17_12h13.07.029,SL_sali,2021.2.3,Win32,60.24096386,0.8839,,,50,0,50,0,1,,,,,,,,
,,"[""circle"",""red"",""vert"",""up"",[-106,-106],[-150,0]]",circle,red,vert,up,"[-106,-106]","[-150,0]",up,1,,,,,,001,2025-03-17_12h13.07.029,SL_sali,2021.2.3,Win32,60.24096386,1.6899,,,51,0,51,0,1,,,,,,,,
,,"[""diamond"",""red"",""vert"",""up"",[0,-150],[0,150]]",diamond,red,vert,up,"[0,-150]","[0,150]",up,1,,,,,,001,2025-03-17_12h13.07.029,SL_sali,2021.2.3,Win32,60.24096386,0.8284,,,52,0,52,0,1,,,,,,,,
,,"[""diamond"",""no_dis"",""hori"",""left"",[99999,99999],[106,-106]]",diamond,no_dis,hori,left,"[99999,99999]","[106,-106]",left,1,,,,,,001,2025-03-17_12h13.07.029,SL_sali,2021.2.3,Win32,60.24096386,1.6502,,,53,0,53,0,1,,,,,,,,
,,"[""circle"",""no_dis"",""hori"",""left"",[99999,99999],[-150,0]]",circle,no_dis,hori,left,"[99999,99999]","[-150,0]",left,1,,,,,,001,2025-03-17_12h13.07.029,SL_sali,2021.2.3,Win32,60.24096386,1.2282,,,54,0,54,0,1,,,,,,,,
,,"[""diamond"",""green"",""vert"",""up"",[106,106],[0,150]]",diamond,green,vert,up,"[106,106]","[0,150]",up,1,,,,,,001,2025-03-17_12h13.07.029,SL_sali,2021.2.3,Win32,60.24096386,1.5123,,,55,0,55,0,1,,,,,,,,
,,"[""diamond"",""red"",""vert"",""up"",[106,106],[0,150]]",diamond,red,vert,up,"[106,106]","[0,150]",up,1,,,,,,001,2025-03-17_12h13.07.029,SL_sali,2021.2.3,Win32,60.24096386,1.6715,,,56,0,56,0,1,,,,,,,,
,,"[""diamond"",""red"",""vert"",""up"",[-106,106],[0,-150]]",diamond,red,vert,up,"[-106,106]","[0,-150]",up,1,,,,,,001,2025-03-17_12h13.07.029,SL_sali,2021.2.3,Win32,60.24096386,1.383,,,57,0,57,0,1,,,,,,,,
,,"[""diamond"",""red"",""vert"",""up"",[106,-106],[150,0]]",diamond,red,vert,up,"[106,-106]","[150,0]",up,1,,,,,,001,2025-03-17_12h13.07.029,SL_sali,2021.2.3,Win32,60.24096386,1.5002,,,58,0,58,0,1,,,,,,,,
,,"[""circle"",""no_dis"",""vert"",""up"",[99999,99999],[0,-150]]",circle,no_dis,vert,up,"[99999,99999]","[0,-150]",up,1,,,,,,001,2025-03-17_12h13.07.029,SL_sali,2021.2.3,Win32,60.24096386,1.5195,,,59,0,59,0,1,,,,,,,,
,,"[""circle"",""no_dis"",""vert"",""up"",[99999,99999],[-106,106]]",circle,no_dis,vert,up,"[99999,99999]","[-106,106]",up,1,,,,,,001,2025-03-17_12h13.07.029,SL_sali,2021.2.3,Win32,60.24096386,1.9772,,,60,0,60,0,1,,,,,,,,
,,"[""diamond"",""red"",""hori"",""left"",[150,0],[0,-150]]",diamond,red,hori,left,"[150,0]","[0,-150]",left,1,,,,,,001,2025-03-17_12h13.07.029,SL_sali,2021.2.3,Win32,60.24096386,1.1996,,,61,0,61,0,1,,,,,,,,
,,"[""diamond"",""no_dis"",""vert"",""up"",[99999,99999],[0,150]]",diamond,no_dis,vert,up,"[99999,99999]","[0,150]",up,1,,,,,,001,2025-03-17_12h13.07.029,SL_sali,2021.2.3,Win32,60.24096386,0.9894,,,62,0,62,0,1,,,,,,,,
,,"[""circle"",""no_dis"",""hori"",""left"",[99999,99999],[106,-106]]",circle,no_dis,hori,left,"[99999,99999]","[106,-106]",left,1,,,,,,001,2025-03-17_12h13.07.029,SL_sali,2021.2.3,Win32,60.24096386,1.7212,,,63,0,63,0,1,,,,,,,,
,,"[""circle"",""no_dis"",""vert"",""up"",[99999,99999],[150,0]]",circle,no_dis,vert,up,"[99999,99999]","[150,0]",up,1,,,,,,001,2025-03-17_12h13.07.029,SL_sali,2021.2.3,Win32,60.24096386,1.0683,,,64,0,64,0,1,,,,,,,,
,,"[""diamond"",""red"",""hori"",""left"",[150,0],[-106,-106]]",diamond,red,hori,left,"[150,0]","[-106,-106]",left,1,,,,,,001,2025-03-17_12h13.07.029,SL_sali,2021.2.3,Win32,60.24096386,2.2503,,,65,0,65,0,1,,,,,,,,
,,"[""circle"",""red"",""hori"",""left"",[106,106],[106,-106]]",circle,red,hori,left,"[106,106]","[106,-106]",left,1,,,,,,001,2025-03-17_12h13.07.029,SL_sali,2021.2.3,Win32,60.24096386,1.5003,,,66,0,66,0,1,,,,,,,,
,,"[""diamond"",""no_dis"",""vert"",""up"",[99999,99999],[-106,-106]]",diamond,no_dis,vert,up,"[99999,99999]","[-106,-106]",up,1,,,,,,001,2025-03-17_12h13.07.029,SL_sali,2021.2.3,Win32,60.24096386,2.0596,,,67,0,67,0,1,,,,,,,,
,,"[""diamond"",""green"",""vert"",""up"",[0,-150],[150,0]]",diamond,green,vert,up,"[0,-150]","[150,0]",up,1,,,,,,001,2025-03-17_12h13.07.029,SL_sali,2021.2.3,Win32,60.24096386,1.0952,,,68,0,68,0,1,,,,,,,,
,,"[""diamond"",""red"",""vert"",""up"",[106,106],[0,150]]",diamond,red,vert,up,"[106,106]","[0,150]",up,1,,,,,,001,2025-03-17_12h13.07.029,SL_sali,2021.2.3,Win32,60.24096386,1.6542,,,69,0,69,0,1,,,,,,,,
,,"[""diamond"",""no_dis"",""hori"",""left"",[99999,99999],[0,150]]",diamond,no_dis,hori,left,"[99999,99999]","[0,150]",left,1,,,,,,001,2025-03-17_12h13.07.029,SL_sali,2021.2.3,Win32,60.24096386,1.2177,,,70,0,70,0,1,,,,,,,,
,,"[""diamond"",""green"",""hori"",""left"",[0,150],[-106,-106]]",diamond,green,hori,left,"[0,150]","[-106,-106]",left,1,,,,,,001,2025-03-17_12h13.07.029,SL_sali,2021.2.3,Win32,60.24096386,1.033,,,71,0,71,0,1,,,,,,,,
,,"[""circle"",""green"",""hori"",""left"",[150,0],[-150,0]]",circle,green,hori,left,"[150,0]","[-150,0]",left,1,,,,,,001,2025-03-17_12h13.07.029,SL_sali,2021.2.3,Win32,60.24096386,1.2671,,,72,0,72,0,1,,,,,,,,
,,"[""diamond"",""red"",""hori"",""left"",[150,0],[-150,0]]",diamond,red,hori,left,"[150,0]","[-150,0]",left,1,,,,,,001,2025-03-17_12h13.07.029,SL_sali,2021.2.3,Win32,60.24096386,1.0459,,,73,0,73,0,1,,,,,,,,
,,"[""diamond"",""no_dis"",""hori"",""left"",[99999,99999],[150,0]]",diamond,no_dis,hori,left,"[99999,99999]","[150,0]",left,1,,,,,,001,2025-03-17_12h13.07.029,SL_sali,2021.2.3,Win32,60.24096386,1.8524,,,74,0,74,0,1,,,,,,,,
,,"[""circle"",""no_dis"",""vert"",""up"",[99999,99999],[-106,106]]",circle,no_dis,vert,up,"[99999,99999]","[-106,106]",up,1,,,,,,001,2025-03-17_12h13.07.029,SL_sali,2021.2.3,Win32,60.24096386,0.9615,,,75,0,75,0,1,,,,,,,,
,,"[""circle"",""red"",""vert"",""up"",[-150,0],[150,0]]",circle,red,vert,up,"[-150,0]","[150,0]",up,1,,,,,,001,2025-03-17_12h13.07.029,SL_sali,2021.2.3,Win32,60.24096386,1.0542,,,76,0,76,0,1,,,,,,,,
,,"[""circle"",""no_dis"",""hori"",""left"",[99999,99999],[-106,-106]]",circle,no_dis,hori,left,"[99999,99999]","[-106,-106]",left,1,,,,,,001,2025-03-17_12h13.07.029,SL_sali,2021.2.3,Win32,60.24096386,1.0496,,,77,0,77,0,1,,,,,,,,
,,"[""circle"",""green"",""vert"",""up"",[-106,-106],[0,150]]",circle,green,vert,up,"[-106,-106]","[0,150]",up,1,,,,,,001,2025-03-17_12h13.07.029,SL_sali,2021.2.3,Win32,60.24096386,0.8703,,,78,0,78,0,1,,,,,,,,
,,"[""circle"",""no_dis"",""vert"",""up"",[99999,99999],[0,-150]]",circle,no_dis,vert,up,"[99999,99999]","[0,-150]",up,1,,,,,,001,2025-03-17_12h13.07.029,SL_sali,2021.2.3,Win32,60.24096386,0.9337,,,79,0,79,0,1,,,,,,,,
,,"[""diamond"",""red"",""vert"",""up"",[0,150],[150,0]]",diamond,red,vert,up,"[0,150]","[150,0]",up,1,,,,,,001,2025-03-17_12h13.07.029,SL_sali,2021.2.3,Win32,60.24096386,1.0667,,,80,0,80,0,1,,,,,,,,
,,"[""circle"",""green"",""hori"",""left"",[106,106],[150,0]]",circle,green,hori,left,"[106,106]","[150,0]",left,1,,,,,,001,2025-03-17_12h13.07.029,SL_sali,2021.2.3,Win32,60.24096386,1.1858,,,81,0,81,0,1,,,,,,,,
,,"[""circle"",""green"",""vert"",""up"",[-106,-106],[-150,0]]",circle,green,vert,up,"[-106,-106]","[-150,0]",up,1,,,,,,001,2025-03-17_12h13.07.029,SL_sali,2021.2.3,Win32,60.24096386,0.9253,,,82,0,82,0,1,,,,,,,,
,,"[""diamond"",""no_dis"",""vert"",""up"",[99999,99999],[106,-106]]",diamond,no_dis,vert,up,"[99999,99999]","[106,-106]",up,1,,,,,,001,2025-03-17_12h13.07.029,SL_sali,2021.2.3,Win32,60.24096386,1.5163,,,83,0,83,0,1,,,,,,,,
,,"[""circle"",""red"",""hori"",""left"",[106,106],[150,0]]",circle,red,hori,left,"[106,106]","[150,0]",left,1,,,,,,001,2025-03-17_12h13.07.029,SL_sali,2021.2.3,Win32,60.24096386,1.9932,,,84,0,84,0,1,,,,,,,,
,,"[""circle"",""red"",""hori"",""left"",[-106,106],[0,150]]",circle,red,hori,left,"[-106,106]","[0,150]",left,1,,,,,,001,2025-03-17_12h13.07.029,SL_sali,2021.2.3,Win32,60.24096386,0.811,,,85,0,85,0,1,,,,,,,,
,,"[""circle"",""red"",""vert"",""up"",[0,150],[150,0]]",circle,red,vert,up,"[0,150]","[150,0]",up,1,,,,,,001,2025-03-17_12h13.07.029,SL_sali,2021.2.3,Win32,60.24096386,0.7494,,,86,0,86,0,1,,,,,,,,
,,"[""diamond"",""green"",""vert"",""up"",[106,106],[106,-106]]",diamond,green,vert,up,"[106,106]","[106,-106]",up,1,,,,,,001,2025-03-17_12h13.07.029,SL_sali,2021.2.3,Win32,60.24096386,2.1513,,,87,0,87,0,1,,,,,,,,
,,"[""diamond"",""no_dis"",""vert"",""up"",[99999,99999],[106,106]]",diamond,no_dis,vert,up,"[99999,99999]","[106,106]",up,1,,,,,,001,2025-03-17_12h13.07.029,SL_sali,2021.2.3,Win32,60.24096386,0.8829,,,88,0,88,0,1,,,,,,,,
,,"[""circle"",""red"",""vert"",""up"",[-106,106],[150,0]]",circle,red,vert,up,"[-106,106]","[150,0]",up,1,,,,,,001,2025-03-17_12h13.07.029,SL_sali,2021.2.3,Win32,60.24096386,1.5884,,,89,0,89,0,1,,,,,,,,
,,"[""diamond"",""red"",""hori"",""left"",[-150,0],[150,0]]",diamond,red,hori,left,"[-150,0]","[150,0]",left,1,,,,,,001,2025-03-17_12h13.07.029,SL_sali,2021.2.3,Win32,60.24096386,1.5497,,,90,0,90,0,1,,,,,,,,
