﻿key_resp.keys,key_resp.rt,trial_para,tar_shape,dis_color_condi,tar_line,cor_resp,dis_loc,tar_loc,resp.keys,resp.corr,trials.thisRepN,trials.thisTrialN,trials.thisN,trials.thisIndex,trials.ran,participant,date,expName,psychopyVersion,OS,frameRate,resp.rt,key_resp_2.keys,key_resp_2.rt,trials_2.thisRepN,trials_2.thisTrialN,trials_2.thisN,trials_2.thisIndex,trials_2.ran,block_num,key_resp_3.keys,key_resp_3.rt,trials_3.thisRepN,trials_3.thisTrialN,trials_3.thisN,trials_3.thisIndex,trials_3.ran
space,26.3345,"[""circle"",""red"",""vert"",""up"",[-106,-106],[-106,106]]",circle,red,vert,up,"[-106,-106]","[-106,106]",,0,0,0,0,0,1,001,2025-03-11_21h35.14.855,SL_sali,2021.2.3,Win32,120.4819277,,,,,,,,,,,,,,,,
,,"[""circle"",""green"",""vert"",""up"",[106,-106],[-150,0]]",circle,green,vert,up,"[106,-106]","[-150,0]",,0,1,0,1,0,1,001,2025-03-11_21h35.14.855,SL_sali,2021.2.3,Win32,120.4819277,,,,,,,,,,,,,,,,
,,"[""circle"",""green"",""vert"",""up"",[-106,106],[106,-106]]",circle,green,vert,up,"[-106,106]","[106,-106]",,0,2,0,2,0,1,001,2025-03-11_21h35.14.855,SL_sali,2021.2.3,Win32,120.4819277,,,,,,,,,,,,,,,,
,,"[""circle"",""green"",""hori"",""left"",[0,150],[-106,106]]",circle,green,hori,left,"[0,150]","[-106,106]",,0,3,0,3,0,1,001,2025-03-11_21h35.14.855,SL_sali,2021.2.3,Win32,120.4819277,,,,,,,,,,,,,,,,
,,"[""circle"",""no_dis"",""vert"",""up"",[99999,99999],[106,-106]]",circle,no_dis,vert,up,"[99999,99999]","[106,-106]",,0,4,0,4,0,1,001,2025-03-11_21h35.14.855,SL_sali,2021.2.3,Win32,120.4819277,,,,,,,,,,,,,,,,
,,"[""diamond"",""red"",""vert"",""up"",[0,150],[-106,106]]",diamond,red,vert,up,"[0,150]","[-106,106]",,0,5,0,5,0,1,001,2025-03-11_21h35.14.855,SL_sali,2021.2.3,Win32,120.4819277,,,,,,,,,,,,,,,,
,,"[""diamond"",""no_dis"",""vert"",""up"",[99999,99999],[0,150]]",diamond,no_dis,vert,up,"[99999,99999]","[0,150]",,0,6,0,6,0,1,001,2025-03-11_21h35.14.855,SL_sali,2021.2.3,Win32,120.4819277,,,,,,,,,,,,,,,,
,,"[""diamond"",""green"",""vert"",""up"",[150,0],[-106,-106]]",diamond,green,vert,up,"[150,0]","[-106,-106]",up,1,7,0,7,0,1,001,2025-03-11_21h35.14.855,SL_sali,2021.2.3,Win32,120.4819277,2.6024,,,,,,,,,,,,,,,
,,"[""diamond"",""green"",""hori"",""left"",[-106,106],[-150,0]]",diamond,green,hori,left,"[-106,106]","[-150,0]",left,1,8,0,8,0,1,001,2025-03-11_21h35.14.855,SL_sali,2021.2.3,Win32,120.4819277,0.9968,,,,,,,,,,,,,,,
,,"[""diamond"",""no_dis"",""vert"",""up"",[99999,99999],[-106,-106]]",diamond,no_dis,vert,up,"[99999,99999]","[-106,-106]",up,1,9,0,9,0,1,001,2025-03-11_21h35.14.855,SL_sali,2021.2.3,Win32,120.4819277,0.1663,,,,,,,,,,,,,,,
,,"[""circle"",""red"",""vert"",""up"",[-106,-106],[-106,106]]",circle,red,vert,up,"[-106,-106]","[-106,106]",up,1,,,,,,001,2025-03-11_21h35.14.855,SL_sali,2021.2.3,Win32,120.4819277,0.3608,space,5.2259,0,0,0,0,1,,,,,,,,
,,"[""circle"",""green"",""vert"",""up"",[106,-106],[-150,0]]",circle,green,vert,up,"[106,-106]","[-150,0]",up,1,,,,,,001,2025-03-11_21h35.14.855,SL_sali,2021.2.3,Win32,120.4819277,0.001,,,1,0,1,0,1,,,,,,,,
,,"[""circle"",""green"",""vert"",""up"",[-106,106],[106,-106]]",circle,green,vert,up,"[-106,106]","[106,-106]",up,1,,,,,,001,2025-03-11_21h35.14.855,SL_sali,2021.2.3,Win32,120.4819277,0.1254,,,2,0,2,0,1,,,,,,,,
,,"[""circle"",""green"",""hori"",""left"",[0,150],[-106,106]]",circle,green,hori,left,"[0,150]","[-106,106]",left,1,,,,,,001,2025-03-11_21h35.14.855,SL_sali,2021.2.3,Win32,120.4819277,0.3015,,,3,0,3,0,1,,,,,,,,
,,"[""circle"",""no_dis"",""vert"",""up"",[99999,99999],[106,-106]]",circle,no_dis,vert,up,"[99999,99999]","[106,-106]",left,0,,,,,,001,2025-03-11_21h35.14.855,SL_sali,2021.2.3,Win32,120.4819277,0.2416,,,4,0,4,0,1,,,,,,,,
,,"[""diamond"",""red"",""vert"",""up"",[0,150],[-106,106]]",diamond,red,vert,up,"[0,150]","[-106,106]",left,0,,,,,,001,2025-03-11_21h35.14.855,SL_sali,2021.2.3,Win32,120.4819277,0.1583,,,5,0,5,0,1,,,,,,,,
,,"[""diamond"",""no_dis"",""vert"",""up"",[99999,99999],[0,150]]",diamond,no_dis,vert,up,"[99999,99999]","[0,150]",up,1,,,,,,001,2025-03-11_21h35.14.855,SL_sali,2021.2.3,Win32,120.4819277,0.5026,,,6,0,6,0,1,,,,,,,,
,,"[""diamond"",""green"",""vert"",""up"",[150,0],[-106,-106]]",diamond,green,vert,up,"[150,0]","[-106,-106]",up,1,,,,,,001,2025-03-11_21h35.14.855,SL_sali,2021.2.3,Win32,120.4819277,0.1577,,,7,0,7,0,1,,,,,,,,
,,"[""diamond"",""green"",""hori"",""left"",[-106,106],[-150,0]]",diamond,green,hori,left,"[-106,106]","[-150,0]",left,1,,,,,,001,2025-03-11_21h35.14.855,SL_sali,2021.2.3,Win32,120.4819277,0.3963,,,8,0,8,0,1,,,,,,,,
,,"[""diamond"",""no_dis"",""vert"",""up"",[99999,99999],[-106,-106]]",diamond,no_dis,vert,up,"[99999,99999]","[-106,-106]",up,1,,,,,,001,2025-03-11_21h35.14.855,SL_sali,2021.2.3,Win32,120.4819277,0.5044,,,9,0,9,0,1,,,,,,,,
,,"[""diamond"",""no_dis"",""vert"",""up"",[99999,99999],[-106,-106]]",diamond,no_dis,vert,up,"[99999,99999]","[-106,-106]",left,0,,,,,,001,2025-03-11_21h35.14.855,SL_sali,2021.2.3,Win32,120.4819277,0.6973,,,10,0,10,0,1,,,,,,,,
,,"[""circle"",""no_dis"",""hori"",""left"",[99999,99999],[106,106]]",circle,no_dis,hori,left,"[99999,99999]","[106,106]",up,0,,,,,,001,2025-03-11_21h35.14.855,SL_sali,2021.2.3,Win32,120.4819277,0.2655,,,11,0,11,0,1,,,,,,,,
,,"[""circle"",""no_dis"",""vert"",""up"",[99999,99999],[-106,106]]",circle,no_dis,vert,up,"[99999,99999]","[-106,106]",up,1,,,,,,001,2025-03-11_21h35.14.855,SL_sali,2021.2.3,Win32,120.4819277,0.0676,,,12,0,12,0,1,,,,,,,,
,,"[""diamond"",""no_dis"",""hori"",""left"",[99999,99999],[106,106]]",diamond,no_dis,hori,left,"[99999,99999]","[106,106]",up,0,,,,,,001,2025-03-11_21h35.14.855,SL_sali,2021.2.3,Win32,120.4819277,0.0147,,,13,0,13,0,1,,,,,,,,
,,"[""circle"",""no_dis"",""hori"",""left"",[99999,99999],[106,-106]]",circle,no_dis,hori,left,"[99999,99999]","[106,-106]",up,0,,,,,,001,2025-03-11_21h35.14.855,SL_sali,2021.2.3,Win32,120.4819277,0.1104,,,14,0,14,0,1,,,,,,,,
,,"[""diamond"",""green"",""hori"",""left"",[-106,106],[-150,0]]",diamond,green,hori,left,"[-106,106]","[-150,0]",up,0,,,,,,001,2025-03-11_21h35.14.855,SL_sali,2021.2.3,Win32,120.4819277,1.5656,,,15,0,15,0,1,,,,,,,,
,,"[""diamond"",""green"",""hori"",""left"",[-106,106],[0,-150]]",diamond,green,hori,left,"[-106,106]","[0,-150]",left,1,,,,,,001,2025-03-11_21h35.14.855,SL_sali,2021.2.3,Win32,120.4819277,1.0817,,,16,0,16,0,1,,,,,,,,
,,"[""diamond"",""green"",""hori"",""left"",[0,-150],[150,0]]",diamond,green,hori,left,"[0,-150]","[150,0]",up,0,,,,,,001,2025-03-11_21h35.14.855,SL_sali,2021.2.3,Win32,120.4819277,1.0147,,,17,0,17,0,1,,,,,,,,
,,"[""circle"",""green"",""hori"",""left"",[150,0],[106,-106]]",circle,green,hori,left,"[150,0]","[106,-106]",left,1,,,,,,001,2025-03-11_21h35.14.855,SL_sali,2021.2.3,Win32,120.4819277,1.4365,,,18,0,18,0,1,,,,,,,,
,,"[""diamond"",""red"",""hori"",""left"",[-150,0],[0,-150]]",diamond,red,hori,left,"[-150,0]","[0,-150]",up,0,,,,,,001,2025-03-11_21h35.14.855,SL_sali,2021.2.3,Win32,120.4819277,1.1238,,,19,0,19,0,1,,,,,,,,
,,"[""diamond"",""no_dis"",""hori"",""left"",[99999,99999],[-150,0]]",diamond,no_dis,hori,left,"[99999,99999]","[-150,0]",left,1,,,,,,001,2025-03-11_21h35.14.855,SL_sali,2021.2.3,Win32,120.4819277,1.5894,,,20,0,20,0,1,,,,,,,,
,,"[""circle"",""green"",""vert"",""up"",[-106,106],[-106,-106]]",circle,green,vert,up,"[-106,106]","[-106,-106]",up,1,,,,,,001,2025-03-11_21h35.14.855,SL_sali,2021.2.3,Win32,120.4819277,1.4541,,,21,0,21,0,1,,,,,,,,
,,"[""circle"",""green"",""hori"",""left"",[0,150],[0,-150]]",circle,green,hori,left,"[0,150]","[0,-150]",left,1,,,,,,001,2025-03-11_21h35.14.855,SL_sali,2021.2.3,Win32,120.4819277,1.3188,,,22,0,22,0,1,,,,,,,,
,,"[""circle"",""green"",""vert"",""up"",[-150,0],[150,0]]",circle,green,vert,up,"[-150,0]","[150,0]",up,1,,,,,,001,2025-03-11_21h35.14.855,SL_sali,2021.2.3,Win32,120.4819277,0.9418,,,23,0,23,0,1,,,,,,,,
,,"[""circle"",""red"",""hori"",""left"",[-150,0],[106,-106]]",circle,red,hori,left,"[-150,0]","[106,-106]",up,0,,,,,,001,2025-03-11_21h35.14.855,SL_sali,2021.2.3,Win32,120.4819277,1.4354,,,24,0,24,0,1,,,,,,,,
,,"[""diamond"",""red"",""hori"",""left"",[-106,106],[150,0]]",diamond,red,hori,left,"[-106,106]","[150,0]",left,1,,,,,,001,2025-03-11_21h35.14.855,SL_sali,2021.2.3,Win32,120.4819277,1.4856,,,25,0,25,0,1,,,,,,,,
,,"[""diamond"",""green"",""hori"",""left"",[-106,106],[0,-150]]",diamond,green,hori,left,"[-106,106]","[0,-150]",left,1,,,,,,001,2025-03-11_21h35.14.855,SL_sali,2021.2.3,Win32,120.4819277,1.4267,,,26,0,26,0,1,,,,,,,,
,,"[""diamond"",""no_dis"",""hori"",""left"",[99999,99999],[-150,0]]",diamond,no_dis,hori,left,"[99999,99999]","[-150,0]",up,0,,,,,,001,2025-03-11_21h35.14.855,SL_sali,2021.2.3,Win32,120.4819277,1.6314,,,27,0,27,0,1,,,,,,,,
,,"[""circle"",""red"",""hori"",""left"",[0,-150],[-150,0]]",circle,red,hori,left,"[0,-150]","[-150,0]",up,0,,,,,,001,2025-03-11_21h35.14.855,SL_sali,2021.2.3,Win32,120.4819277,1.0519,,,28,0,28,0,1,,,,,,,,
,,"[""diamond"",""red"",""hori"",""left"",[-106,-106],[0,-150]]",diamond,red,hori,left,"[-106,-106]","[0,-150]",left,1,,,,,,001,2025-03-11_21h35.14.855,SL_sali,2021.2.3,Win32,120.4819277,0.3506,,,29,0,29,0,1,,,,,,,,
,,"[""diamond"",""green"",""hori"",""left"",[150,0],[-150,0]]",diamond,green,hori,left,"[150,0]","[-150,0]",left,1,,,,,,001,2025-03-11_21h35.14.855,SL_sali,2021.2.3,Win32,120.4819277,1.3325,,,30,0,30,0,1,,,,,,,,
,,"[""circle"",""red"",""vert"",""up"",[0,-150],[-106,106]]",circle,red,vert,up,"[0,-150]","[-106,106]",up,1,,,,,,001,2025-03-11_21h35.14.855,SL_sali,2021.2.3,Win32,120.4819277,1.1236,,,31,0,31,0,1,,,,,,,,
,,"[""diamond"",""green"",""vert"",""up"",[150,0],[-106,-106]]",diamond,green,vert,up,"[150,0]","[-106,-106]",left,0,,,,,,001,2025-03-11_21h35.14.855,SL_sali,2021.2.3,Win32,120.4819277,1.0243,,,32,0,32,0,1,,,,,,,,
,,"[""circle"",""red"",""vert"",""up"",[0,-150],[106,106]]",circle,red,vert,up,"[0,-150]","[106,106]",left,0,,,,,,001,2025-03-11_21h35.14.855,SL_sali,2021.2.3,Win32,120.4819277,0.968,,,33,0,33,0,1,,,,,,,,
,,"[""diamond"",""red"",""vert"",""up"",[106,-106],[-150,0]]",diamond,red,vert,up,"[106,-106]","[-150,0]",left,0,,,,,,001,2025-03-11_21h35.14.855,SL_sali,2021.2.3,Win32,120.4819277,1.4354,,,34,0,34,0,1,,,,,,,,
,,"[""diamond"",""red"",""vert"",""up"",[106,-106],[0,-150]]",diamond,red,vert,up,"[106,-106]","[0,-150]",up,1,,,,,,001,2025-03-11_21h35.14.855,SL_sali,2021.2.3,Win32,120.4819277,0.6701,,,35,0,35,0,1,,,,,,,,
,,"[""diamond"",""green"",""vert"",""up"",[106,106],[-150,0]]",diamond,green,vert,up,"[106,106]","[-150,0]",left,0,,,,,,001,2025-03-11_21h35.14.855,SL_sali,2021.2.3,Win32,120.4819277,1.7756,,,36,0,36,0,1,,,,,,,,
,,"[""diamond"",""green"",""vert"",""up"",[-106,106],[150,0]]",diamond,green,vert,up,"[-106,106]","[150,0]",up,1,,,,,,001,2025-03-11_21h35.14.855,SL_sali,2021.2.3,Win32,120.4819277,0.1747,,,37,0,37,0,1,,,,,,,,
,,"[""diamond"",""no_dis"",""hori"",""left"",[99999,99999],[-106,-106]]",diamond,no_dis,hori,left,"[99999,99999]","[-106,-106]",left,1,,,,,,001,2025-03-11_21h35.14.855,SL_sali,2021.2.3,Win32,120.4819277,0.8599,,,38,0,38,0,1,,,,,,,,
,,"[""diamond"",""green"",""hori"",""left"",[-106,106],[106,106]]",diamond,green,hori,left,"[-106,106]","[106,106]",up,0,,,,,,001,2025-03-11_21h35.14.855,SL_sali,2021.2.3,Win32,120.4819277,0.7207,,,39,0,39,0,1,,,,,,,,
,,"[""diamond"",""no_dis"",""hori"",""left"",[99999,99999],[-150,0]]",diamond,no_dis,hori,left,"[99999,99999]","[-150,0]",up,0,,,,,,001,2025-03-11_21h35.14.855,SL_sali,2021.2.3,Win32,120.4819277,1.1729,,,40,0,40,0,1,,,,,,,,
,,"[""circle"",""no_dis"",""hori"",""left"",[99999,99999],[-106,-106]]",circle,no_dis,hori,left,"[99999,99999]","[-106,-106]",left,1,,,,,,001,2025-03-11_21h35.14.855,SL_sali,2021.2.3,Win32,120.4819277,1.1828,,,41,0,41,0,1,,,,,,,,
,,"[""circle"",""red"",""hori"",""left"",[0,150],[106,-106]]",circle,red,hori,left,"[0,150]","[106,-106]",up,0,,,,,,001,2025-03-11_21h35.14.855,SL_sali,2021.2.3,Win32,120.4819277,1.1045,,,42,0,42,0,1,,,,,,,,
,,"[""circle"",""green"",""hori"",""left"",[106,106],[0,-150]]",circle,green,hori,left,"[106,106]","[0,-150]",up,0,,,,,,001,2025-03-11_21h35.14.855,SL_sali,2021.2.3,Win32,120.4819277,1.585,,,43,0,43,0,1,,,,,,,,
,,"[""circle"",""no_dis"",""hori"",""left"",[99999,99999],[0,150]]",circle,no_dis,hori,left,"[99999,99999]","[0,150]",left,1,,,,,,001,2025-03-11_21h35.14.855,SL_sali,2021.2.3,Win32,120.4819277,1.9253,,,44,0,44,0,1,,,,,,,,
,,"[""circle"",""red"",""vert"",""up"",[-150,0],[106,-106]]",circle,red,vert,up,"[-150,0]","[106,-106]",up,1,,,,,,001,2025-03-11_21h35.14.855,SL_sali,2021.2.3,Win32,120.4819277,1.1186,,,45,0,45,0,1,,,,,,,,
,,"[""circle"",""no_dis"",""hori"",""left"",[99999,99999],[-106,106]]",circle,no_dis,hori,left,"[99999,99999]","[-106,106]",up,0,,,,,,001,2025-03-11_21h35.14.855,SL_sali,2021.2.3,Win32,120.4819277,1.3157,,,46,0,46,0,1,,,,,,,,
,,"[""diamond"",""no_dis"",""hori"",""left"",[99999,99999],[0,150]]",diamond,no_dis,hori,left,"[99999,99999]","[0,150]",up,0,,,,,,001,2025-03-11_21h35.14.855,SL_sali,2021.2.3,Win32,120.4819277,1.9787,,,47,0,47,0,1,,,,,,,,
,,"[""circle"",""red"",""vert"",""up"",[0,-150],[-106,-106]]",circle,red,vert,up,"[0,-150]","[-106,-106]",up,1,,,,,,001,2025-03-11_21h35.14.855,SL_sali,2021.2.3,Win32,120.4819277,1.2719,,,48,0,48,0,1,,,,,,,,
,,"[""diamond"",""red"",""vert"",""up"",[0,-150],[-106,-106]]",diamond,red,vert,up,"[0,-150]","[-106,-106]",up,1,,,,,,001,2025-03-11_21h35.14.855,SL_sali,2021.2.3,Win32,120.4819277,1.2998,,,49,0,49,0,1,,,,,,,,
,,"[""circle"",""red"",""hori"",""left"",[-106,106],[106,106]]",circle,red,hori,left,"[-106,106]","[106,106]",up,0,,,,,,001,2025-03-11_21h35.14.855,SL_sali,2021.2.3,Win32,120.4819277,1.4379,,,50,0,50,0,1,,,,,,,,
,,"[""diamond"",""green"",""vert"",""up"",[-106,106],[0,150]]",diamond,green,vert,up,"[-106,106]","[0,150]",up,1,,,,,,001,2025-03-11_21h35.14.855,SL_sali,2021.2.3,Win32,120.4819277,2.002,,,51,0,51,0,1,,,,,,,,
,,"[""diamond"",""red"",""hori"",""left"",[-106,106],[0,150]]",diamond,red,hori,left,"[-106,106]","[0,150]",up,0,,,,,,001,2025-03-11_21h35.14.855,SL_sali,2021.2.3,Win32,120.4819277,2.1086,,,52,0,52,0,1,,,,,,,,
,,"[""circle"",""green"",""hori"",""left"",[0,150],[-106,106]]",circle,green,hori,left,"[0,150]","[-106,106]",left,1,,,,,,001,2025-03-11_21h35.14.855,SL_sali,2021.2.3,Win32,120.4819277,1.3683,,,53,0,53,0,1,,,,,,,,
,,"[""diamond"",""no_dis"",""hori"",""left"",[99999,99999],[0,-150]]",diamond,no_dis,hori,left,"[99999,99999]","[0,-150]",left,1,,,,,,001,2025-03-11_21h35.14.855,SL_sali,2021.2.3,Win32,120.4819277,2.9729,,,54,0,54,0,1,,,,,,,,
,,"[""circle"",""red"",""hori"",""left"",[106,106],[-106,-106]]",circle,red,hori,left,"[106,106]","[-106,-106]",left,1,,,,,,001,2025-03-11_21h35.14.855,SL_sali,2021.2.3,Win32,120.4819277,2.7775,,,55,0,55,0,1,,,,,,,,
,,"[""circle"",""green"",""vert"",""up"",[106,-106],[-106,106]]",circle,green,vert,up,"[106,-106]","[-106,106]",up,1,,,,,,001,2025-03-11_21h35.14.855,SL_sali,2021.2.3,Win32,120.4819277,2.4681,,,56,0,56,0,1,,,,,,,,
,,"[""diamond"",""green"",""vert"",""up"",[106,-106],[0,-150]]",diamond,green,vert,up,"[106,-106]","[0,-150]",left,0,,,,,,001,2025-03-11_21h35.14.855,SL_sali,2021.2.3,Win32,120.4819277,2.6398,,,57,0,57,0,1,,,,,,,,
,,"[""circle"",""red"",""vert"",""up"",[-106,-106],[150,0]]",circle,red,vert,up,"[-106,-106]","[150,0]",,0,,,,,,001,2025-03-11_21h35.14.855,SL_sali,2021.2.3,Win32,120.4819277,,,,58,0,58,0,1,,,,,,,,
,,"[""diamond"",""no_dis"",""vert"",""up"",[99999,99999],[106,106]]",diamond,no_dis,vert,up,"[99999,99999]","[106,106]",up,1,,,,,,001,2025-03-11_21h35.14.855,SL_sali,2021.2.3,Win32,120.4819277,1.3426,,,59,0,59,0,1,,,,,,,,
,,"[""diamond"",""red"",""vert"",""up"",[-150,0],[-106,-106]]",diamond,red,vert,up,"[-150,0]","[-106,-106]",left,0,,,,,,001,2025-03-11_21h35.14.855,SL_sali,2021.2.3,Win32,120.4819277,2.7267,,,60,0,60,0,1,,,,,,,,
,,"[""circle"",""no_dis"",""vert"",""up"",[99999,99999],[0,-150]]",circle,no_dis,vert,up,"[99999,99999]","[0,-150]",,0,,,,,,001,2025-03-11_21h35.14.855,SL_sali,2021.2.3,Win32,120.4819277,,,,61,0,61,0,1,,,,,,,,
,,"[""diamond"",""green"",""vert"",""up"",[150,0],[106,106]]",diamond,green,vert,up,"[150,0]","[106,106]",up,1,,,,,,001,2025-03-11_21h35.14.855,SL_sali,2021.2.3,Win32,120.4819277,1.5883,,,62,0,62,0,1,,,,,,,,
,,"[""circle"",""green"",""vert"",""up"",[-106,106],[0,-150]]",circle,green,vert,up,"[-106,106]","[0,-150]",up,1,,,,,,001,2025-03-11_21h35.14.855,SL_sali,2021.2.3,Win32,120.4819277,1.1961,,,63,0,63,0,1,,,,,,,,
,,"[""diamond"",""no_dis"",""vert"",""up"",[99999,99999],[0,-150]]",diamond,no_dis,vert,up,"[99999,99999]","[0,-150]",up,1,,,,,,001,2025-03-11_21h35.14.855,SL_sali,2021.2.3,Win32,120.4819277,1.0549,,,64,0,64,0,1,,,,,,,,
,,"[""diamond"",""green"",""hori"",""left"",[-106,-106],[0,150]]",diamond,green,hori,left,"[-106,-106]","[0,150]",left,1,,,,,,001,2025-03-11_21h35.14.855,SL_sali,2021.2.3,Win32,120.4819277,1.4177,,,65,0,65,0,1,,,,,,,,
,,"[""diamond"",""no_dis"",""vert"",""up"",[99999,99999],[-150,0]]",diamond,no_dis,vert,up,"[99999,99999]","[-150,0]",up,1,,,,,,001,2025-03-11_21h35.14.855,SL_sali,2021.2.3,Win32,120.4819277,1.3461,,,66,0,66,0,1,,,,,,,,
,,"[""circle"",""red"",""vert"",""up"",[150,0],[-106,106]]",circle,red,vert,up,"[150,0]","[-106,106]",up,1,,,,,,001,2025-03-11_21h35.14.855,SL_sali,2021.2.3,Win32,120.4819277,2.068,,,67,0,67,0,1,,,,,,,,
,,"[""diamond"",""red"",""vert"",""up"",[-106,-106],[0,-150]]",diamond,red,vert,up,"[-106,-106]","[0,-150]",up,1,,,,,,001,2025-03-11_21h35.14.855,SL_sali,2021.2.3,Win32,120.4819277,1.4792,,,68,0,68,0,1,,,,,,,,
,,"[""circle"",""red"",""vert"",""up"",[-106,-106],[106,-106]]",circle,red,vert,up,"[-106,-106]","[106,-106]",up,1,,,,,,001,2025-03-11_21h35.14.855,SL_sali,2021.2.3,Win32,120.4819277,1.1358,,,69,0,69,0,1,,,,,,,,
,,"[""circle"",""red"",""vert"",""up"",[-106,106],[106,-106]]",circle,red,vert,up,"[-106,106]","[106,-106]",up,1,,,,,,001,2025-03-11_21h35.14.855,SL_sali,2021.2.3,Win32,120.4819277,1.0616,,,70,0,70,0,1,,,,,,,,
,,"[""circle"",""no_dis"",""vert"",""up"",[99999,99999],[-106,106]]",circle,no_dis,vert,up,"[99999,99999]","[-106,106]",up,1,,,,,,001,2025-03-11_21h35.14.855,SL_sali,2021.2.3,Win32,120.4819277,0.866,,,71,0,71,0,1,,,,,,,,
,,"[""diamond"",""no_dis"",""hori"",""left"",[99999,99999],[-106,-106]]",diamond,no_dis,hori,left,"[99999,99999]","[-106,-106]",left,1,,,,,,001,2025-03-11_21h35.14.855,SL_sali,2021.2.3,Win32,120.4819277,1.4474,,,72,0,72,0,1,,,,,,,,
,,"[""diamond"",""green"",""vert"",""up"",[106,-106],[-106,-106]]",diamond,green,vert,up,"[106,-106]","[-106,-106]",left,0,,,,,,001,2025-03-11_21h35.14.855,SL_sali,2021.2.3,Win32,120.4819277,2.5589,,,73,0,73,0,1,,,,,,,,
,,"[""diamond"",""green"",""hori"",""left"",[-106,106],[106,106]]",diamond,green,hori,left,"[-106,106]","[106,106]",left,1,,,,,,001,2025-03-11_21h35.14.855,SL_sali,2021.2.3,Win32,120.4819277,1.6269,,,74,0,74,0,1,,,,,,,,
,,"[""diamond"",""no_dis"",""vert"",""up"",[99999,99999],[106,106]]",diamond,no_dis,vert,up,"[99999,99999]","[106,106]",up,1,,,,,,001,2025-03-11_21h35.14.855,SL_sali,2021.2.3,Win32,120.4819277,1.1044,,,75,0,75,0,1,,,,,,,,
,,"[""diamond"",""red"",""vert"",""up"",[-106,106],[106,-106]]",diamond,red,vert,up,"[-106,106]","[106,-106]",up,1,,,,,,001,2025-03-11_21h35.14.855,SL_sali,2021.2.3,Win32,120.4819277,1.0188,,,76,0,76,0,1,,,,,,,,
,,"[""diamond"",""green"",""vert"",""up"",[-150,0],[0,-150]]",diamond,green,vert,up,"[-150,0]","[0,-150]",up,1,,,,,,001,2025-03-11_21h35.14.855,SL_sali,2021.2.3,Win32,120.4819277,1.1563,,,77,0,77,0,1,,,,,,,,
,,"[""diamond"",""red"",""vert"",""up"",[0,-150],[-106,-106]]",diamond,red,vert,up,"[0,-150]","[-106,-106]",left,0,,,,,,001,2025-03-11_21h35.14.855,SL_sali,2021.2.3,Win32,120.4819277,1.1375,,,78,0,78,0,1,,,,,,,,
,,"[""circle"",""green"",""vert"",""up"",[-106,106],[106,106]]",circle,green,vert,up,"[-106,106]","[106,106]",up,1,,,,,,001,2025-03-11_21h35.14.855,SL_sali,2021.2.3,Win32,120.4819277,1.9194,,,79,0,79,0,1,,,,,,,,
,,"[""circle"",""no_dis"",""vert"",""up"",[99999,99999],[0,150]]",circle,no_dis,vert,up,"[99999,99999]","[0,150]",up,1,,,,,,001,2025-03-11_21h35.14.855,SL_sali,2021.2.3,Win32,120.4819277,2.2587,,,80,0,80,0,1,,,,,,,,
,,"[""circle"",""red"",""hori"",""left"",[-106,106],[106,106]]",circle,red,hori,left,"[-106,106]","[106,106]",left,1,,,,,,001,2025-03-11_21h35.14.855,SL_sali,2021.2.3,Win32,120.4819277,1.2472,,,81,0,81,0,1,,,,,,,,
,,"[""diamond"",""red"",""hori"",""left"",[106,-106],[-106,106]]",diamond,red,hori,left,"[106,-106]","[-106,106]",up,0,,,,,,001,2025-03-11_21h35.14.855,SL_sali,2021.2.3,Win32,120.4819277,1.0207,,,82,0,82,0,1,,,,,,,,
,,"[""circle"",""green"",""hori"",""left"",[-106,106],[-106,-106]]",circle,green,hori,left,"[-106,106]","[-106,-106]",up,0,,,,,,001,2025-03-11_21h35.14.855,SL_sali,2021.2.3,Win32,120.4819277,1.4123,,,83,0,83,0,1,,,,,,,,
,,"[""circle"",""green"",""vert"",""up"",[-106,-106],[-150,0]]",circle,green,vert,up,"[-106,-106]","[-150,0]",up,1,,,,,,001,2025-03-11_21h35.14.855,SL_sali,2021.2.3,Win32,120.4819277,1.7836,,,84,0,84,0,1,,,,,,,,
,,"[""diamond"",""red"",""hori"",""left"",[106,106],[0,-150]]",diamond,red,hori,left,"[106,106]","[0,-150]",left,1,,,,,,001,2025-03-11_21h35.14.855,SL_sali,2021.2.3,Win32,120.4819277,1.4429,,,85,0,85,0,1,,,,,,,,
,,"[""circle"",""red"",""hori"",""left"",[106,-106],[150,0]]",circle,red,hori,left,"[106,-106]","[150,0]",left,1,,,,,,001,2025-03-11_21h35.14.855,SL_sali,2021.2.3,Win32,120.4819277,1.3529,,,86,0,86,0,1,,,,,,,,
,,"[""diamond"",""no_dis"",""vert"",""up"",[99999,99999],[150,0]]",diamond,no_dis,vert,up,"[99999,99999]","[150,0]",up,1,,,,,,001,2025-03-11_21h35.14.855,SL_sali,2021.2.3,Win32,120.4819277,1.2406,,,87,0,87,0,1,,,,,,,,
,,"[""circle"",""red"",""hori"",""left"",[-150,0],[106,-106]]",circle,red,hori,left,"[-150,0]","[106,-106]",left,1,,,,,,001,2025-03-11_21h35.14.855,SL_sali,2021.2.3,Win32,120.4819277,1.1518,,,88,0,88,0,1,,,,,,,,
,,"[""diamond"",""no_dis"",""vert"",""up"",[99999,99999],[0,-150]]",diamond,no_dis,vert,up,"[99999,99999]","[0,-150]",up,1,,,,,,001,2025-03-11_21h35.14.855,SL_sali,2021.2.3,Win32,120.4819277,1.4926,,,89,0,89,0,1,,,,,,,,
,,"[""diamond"",""green"",""hori"",""left"",[106,106],[-106,-106]]",diamond,green,hori,left,"[106,106]","[-106,-106]",left,1,,,,,,001,2025-03-11_21h35.14.855,SL_sali,2021.2.3,Win32,120.4819277,1.8357,,,90,0,90,0,1,,,,,,,,
,,"[""diamond"",""red"",""hori"",""left"",[-106,106],[-150,0]]",diamond,red,hori,left,"[-106,106]","[-150,0]",left,1,,,,,,001,2025-03-11_21h35.14.855,SL_sali,2021.2.3,Win32,120.4819277,1.6039,,,91,0,91,0,1,,,,,,,,
,,"[""circle"",""no_dis"",""vert"",""up"",[99999,99999],[150,0]]",circle,no_dis,vert,up,"[99999,99999]","[150,0]",up,1,,,,,,001,2025-03-11_21h35.14.855,SL_sali,2021.2.3,Win32,120.4819277,1.2711,,,92,0,92,0,1,,,,,,,,
,,"[""circle"",""green"",""vert"",""up"",[-106,106],[106,-106]]",circle,green,vert,up,"[-106,106]","[106,-106]",up,1,,,,,,001,2025-03-11_21h35.14.855,SL_sali,2021.2.3,Win32,120.4819277,1.0446,,,93,0,93,0,1,,,,,,,,
,,"[""circle"",""red"",""hori"",""left"",[0,150],[-106,-106]]",circle,red,hori,left,"[0,150]","[-106,-106]",left,1,,,,,,001,2025-03-11_21h35.14.855,SL_sali,2021.2.3,Win32,120.4819277,1.1177,,,94,0,94,0,1,,,,,,,,
,,"[""diamond"",""red"",""hori"",""left"",[-106,-106],[106,-106]]",diamond,red,hori,left,"[-106,-106]","[106,-106]",up,0,,,,,,001,2025-03-11_21h35.14.855,SL_sali,2021.2.3,Win32,120.4819277,1.2843,,,95,0,95,0,1,,,,,,,,
,,"[""diamond"",""red"",""vert"",""up"",[-150,0],[-106,-106]]",diamond,red,vert,up,"[-150,0]","[-106,-106]",up,1,,,,,,001,2025-03-11_21h35.14.855,SL_sali,2021.2.3,Win32,120.4819277,1.3993,,,96,0,96,0,1,,,,,,,,
,,"[""diamond"",""red"",""vert"",""up"",[-106,106],[-150,0]]",diamond,red,vert,up,"[-106,106]","[-150,0]",up,1,,,,,,001,2025-03-11_21h35.14.855,SL_sali,2021.2.3,Win32,120.4819277,1.3915,,,97,0,97,0,1,,,,,,,,
,,"[""diamond"",""red"",""hori"",""left"",[0,-150],[150,0]]",diamond,red,hori,left,"[0,-150]","[150,0]",left,1,,,,,,001,2025-03-11_21h35.14.855,SL_sali,2021.2.3,Win32,120.4819277,0.9169,,,98,0,98,0,1,,,,,,,,
,,"[""circle"",""no_dis"",""vert"",""up"",[99999,99999],[106,-106]]",circle,no_dis,vert,up,"[99999,99999]","[106,-106]",up,1,,,,,,001,2025-03-11_21h35.14.855,SL_sali,2021.2.3,Win32,120.4819277,0.9933,,,99,0,99,0,1,,,,,,,,
,,"[""circle"",""green"",""hori"",""left"",[106,106],[-106,-106]]",circle,green,hori,left,"[106,106]","[-106,-106]",left,1,,,,,,001,2025-03-11_21h35.14.855,SL_sali,2021.2.3,Win32,120.4819277,1.1045,,,100,0,100,0,1,,,,,,,,
,,"[""circle"",""green"",""vert"",""up"",[106,106],[106,-106]]",circle,green,vert,up,"[106,106]","[106,-106]",up,1,,,,,,001,2025-03-11_21h35.14.855,SL_sali,2021.2.3,Win32,120.4819277,0.9678,,,101,0,101,0,1,,,,,,,,
,,"[""circle"",""green"",""hori"",""left"",[150,0],[-150,0]]",circle,green,hori,left,"[150,0]","[-150,0]",left,1,,,,,,001,2025-03-11_21h35.14.855,SL_sali,2021.2.3,Win32,120.4819277,0.9035,,,102,0,102,0,1,,,,,,,,
,,"[""circle"",""no_dis"",""vert"",""up"",[99999,99999],[106,-106]]",circle,no_dis,vert,up,"[99999,99999]","[106,-106]",up,1,,,,,,001,2025-03-11_21h35.14.855,SL_sali,2021.2.3,Win32,120.4819277,0.9925,,,103,0,103,0,1,,,,,,,,
,,"[""circle"",""no_dis"",""hori"",""left"",[99999,99999],[106,106]]",circle,no_dis,hori,left,"[99999,99999]","[106,106]",left,1,,,,,,001,2025-03-11_21h35.14.855,SL_sali,2021.2.3,Win32,120.4819277,1.1747,,,104,0,104,0,1,,,,,,,,
,,"[""diamond"",""no_dis"",""hori"",""left"",[99999,99999],[150,0]]",diamond,no_dis,hori,left,"[99999,99999]","[150,0]",left,1,,,,,,001,2025-03-11_21h35.14.855,SL_sali,2021.2.3,Win32,120.4819277,1.3873,,,105,0,105,0,1,,,,,,,,
,,"[""diamond"",""red"",""hori"",""left"",[-106,106],[106,106]]",diamond,red,hori,left,"[-106,106]","[106,106]",left,1,,,,,,001,2025-03-11_21h35.14.855,SL_sali,2021.2.3,Win32,120.4819277,1.3206,,,106,0,106,0,1,,,,,,,,
,,"[""circle"",""red"",""hori"",""left"",[0,150],[-106,-106]]",circle,red,hori,left,"[0,150]","[-106,-106]",left,1,,,,,,001,2025-03-11_21h35.14.855,SL_sali,2021.2.3,Win32,120.4819277,2.3186,,,107,0,107,0,1,,,,,,,,
,,"[""circle"",""no_dis"",""vert"",""up"",[99999,99999],[0,-150]]",circle,no_dis,vert,up,"[99999,99999]","[0,-150]",up,1,,,,,,001,2025-03-11_21h35.14.855,SL_sali,2021.2.3,Win32,120.4819277,1.0567,,,108,0,108,0,1,,,,,,,,
,,"[""circle"",""red"",""vert"",""up"",[-106,106],[0,-150]]",circle,red,vert,up,"[-106,106]","[0,-150]",up,1,,,,,,001,2025-03-11_21h35.14.855,SL_sali,2021.2.3,Win32,120.4819277,0.9891,,,109,0,109,0,1,,,,,,,,
,,"[""circle"",""green"",""hori"",""left"",[0,150],[0,-150]]",circle,green,hori,left,"[0,150]","[0,-150]",left,1,,,,,,001,2025-03-11_21h35.14.855,SL_sali,2021.2.3,Win32,120.4819277,1.1601,,,110,0,110,0,1,,,,,,,,
,,"[""circle"",""no_dis"",""hori"",""left"",[99999,99999],[-106,106]]",circle,no_dis,hori,left,"[99999,99999]","[-106,106]",left,1,,,,,,001,2025-03-11_21h35.14.855,SL_sali,2021.2.3,Win32,120.4819277,1.2601,,,111,0,111,0,1,,,,,,,,
,,"[""circle"",""no_dis"",""hori"",""left"",[99999,99999],[150,0]]",circle,no_dis,hori,left,"[99999,99999]","[150,0]",left,1,,,,,,001,2025-03-11_21h35.14.855,SL_sali,2021.2.3,Win32,120.4819277,0.8576,,,112,0,112,0,1,,,,,,,,
,,"[""circle"",""no_dis"",""hori"",""left"",[99999,99999],[0,150]]",circle,no_dis,hori,left,"[99999,99999]","[0,150]",left,1,,,,,,001,2025-03-11_21h35.14.855,SL_sali,2021.2.3,Win32,120.4819277,0.8773,,,113,0,113,0,1,,,,,,,,
,,"[""circle"",""no_dis"",""vert"",""up"",[99999,99999],[106,-106]]",circle,no_dis,vert,up,"[99999,99999]","[106,-106]",up,1,,,,,,001,2025-03-11_21h35.14.855,SL_sali,2021.2.3,Win32,120.4819277,0.8821,,,114,0,114,0,1,,,,,,,,
,,"[""diamond"",""no_dis"",""hori"",""left"",[99999,99999],[-106,106]]",diamond,no_dis,hori,left,"[99999,99999]","[-106,106]",left,1,,,,,,001,2025-03-11_21h35.14.855,SL_sali,2021.2.3,Win32,120.4819277,1.9005,,,115,0,115,0,1,,,,,,,,
,,"[""diamond"",""green"",""vert"",""up"",[150,0],[-150,0]]",diamond,green,vert,up,"[150,0]","[-150,0]",up,1,,,,,,001,2025-03-11_21h35.14.855,SL_sali,2021.2.3,Win32,120.4819277,1.9883,,,116,0,116,0,1,,,,,,,,
,,"[""circle"",""no_dis"",""hori"",""left"",[99999,99999],[-150,0]]",circle,no_dis,hori,left,"[99999,99999]","[-150,0]",left,1,,,,,,001,2025-03-11_21h35.14.855,SL_sali,2021.2.3,Win32,120.4819277,1.1419,,,117,0,117,0,1,,,,,,,,
,,"[""circle"",""green"",""hori"",""left"",[106,106],[-150,0]]",circle,green,hori,left,"[106,106]","[-150,0]",left,1,,,,,,001,2025-03-11_21h35.14.855,SL_sali,2021.2.3,Win32,120.4819277,1.4851,,,118,0,118,0,1,,,,,,,,
,,"[""diamond"",""no_dis"",""vert"",""up"",[99999,99999],[150,0]]",diamond,no_dis,vert,up,"[99999,99999]","[150,0]",up,1,,,,,,001,2025-03-11_21h35.14.855,SL_sali,2021.2.3,Win32,120.4819277,1.3853,,,119,0,119,0,1,,,,,,,,
,,,,,,,,,,,,,,,,001,2025-03-11_21h35.14.855,SL_sali,2021.2.3,Win32,120.4819277,,,,,,,,,1,space,7.9496,0,0,0,0,1
,,"[""circle"",""green"",""hori"",""left"",[150,0],[-150,0]]",circle,green,hori,left,"[150,0]","[-150,0]",left,1,,,,,,001,2025-03-11_21h35.14.855,SL_sali,2021.2.3,Win32,120.4819277,1.1763,,,0,0,0,0,1,,,,,,,,
,,"[""diamond"",""green"",""hori"",""left"",[-106,106],[106,106]]",diamond,green,hori,left,"[-106,106]","[106,106]",left,1,,,,,,001,2025-03-11_21h35.14.855,SL_sali,2021.2.3,Win32,120.4819277,1.3871,,,1,0,1,0,1,,,,,,,,
,,"[""circle"",""red"",""hori"",""left"",[0,150],[-106,-106]]",circle,red,hori,left,"[0,150]","[-106,-106]",left,1,,,,,,001,2025-03-11_21h35.14.855,SL_sali,2021.2.3,Win32,120.4819277,1.2595,,,2,0,2,0,1,,,,,,,,
,,"[""diamond"",""red"",""vert"",""up"",[-106,106],[-150,0]]",diamond,red,vert,up,"[-106,106]","[-150,0]",up,1,,,,,,001,2025-03-11_21h35.14.855,SL_sali,2021.2.3,Win32,120.4819277,1.3683,,,3,0,3,0,1,,,,,,,,
,,"[""diamond"",""green"",""vert"",""up"",[106,-106],[-106,-106]]",diamond,green,vert,up,"[106,-106]","[-106,-106]",up,1,,,,,,001,2025-03-11_21h35.14.855,SL_sali,2021.2.3,Win32,120.4819277,1.758,,,4,0,4,0,1,,,,,,,,
,,"[""diamond"",""no_dis"",""vert"",""up"",[99999,99999],[0,-150]]",diamond,no_dis,vert,up,"[99999,99999]","[0,-150]",up,1,,,,,,001,2025-03-11_21h35.14.855,SL_sali,2021.2.3,Win32,120.4819277,1.3533,,,5,0,5,0,1,,,,,,,,
,,"[""diamond"",""green"",""hori"",""left"",[-106,106],[0,-150]]",diamond,green,hori,left,"[-106,106]","[0,-150]",left,1,,,,,,001,2025-03-11_21h35.14.855,SL_sali,2021.2.3,Win32,120.4819277,1.0604,,,6,0,6,0,1,,,,,,,,
,,"[""diamond"",""no_dis"",""hori"",""left"",[99999,99999],[150,0]]",diamond,no_dis,hori,left,"[99999,99999]","[150,0]",left,1,,,,,,001,2025-03-11_21h35.14.855,SL_sali,2021.2.3,Win32,120.4819277,1.0331,,,7,0,7,0,1,,,,,,,,
,,"[""circle"",""red"",""hori"",""left"",[0,-150],[-150,0]]",circle,red,hori,left,"[0,-150]","[-150,0]",up,0,,,,,,001,2025-03-11_21h35.14.855,SL_sali,2021.2.3,Win32,120.4819277,1.1614,,,8,0,8,0,1,,,,,,,,
,,"[""circle"",""green"",""vert"",""up"",[-106,106],[106,-106]]",circle,green,vert,up,"[-106,106]","[106,-106]",up,1,,,,,,001,2025-03-11_21h35.14.855,SL_sali,2021.2.3,Win32,120.4819277,1.0768,,,9,0,9,0,1,,,,,,,,
,,"[""diamond"",""no_dis"",""vert"",""up"",[99999,99999],[106,106]]",diamond,no_dis,vert,up,"[99999,99999]","[106,106]",up,1,,,,,,001,2025-03-11_21h35.14.855,SL_sali,2021.2.3,Win32,120.4819277,1.4953,,,10,0,10,0,1,,,,,,,,
,,"[""circle"",""red"",""vert"",""up"",[-106,-106],[150,0]]",circle,red,vert,up,"[-106,-106]","[150,0]",up,1,,,,,,001,2025-03-11_21h35.14.855,SL_sali,2021.2.3,Win32,120.4819277,1.271,,,11,0,11,0,1,,,,,,,,
,,"[""circle"",""red"",""hori"",""left"",[106,-106],[150,0]]",circle,red,hori,left,"[106,-106]","[150,0]",left,1,,,,,,001,2025-03-11_21h35.14.855,SL_sali,2021.2.3,Win32,120.4819277,1.1595,,,12,0,12,0,1,,,,,,,,
,,"[""circle"",""green"",""hori"",""left"",[0,150],[0,-150]]",circle,green,hori,left,"[0,150]","[0,-150]",left,1,,,,,,001,2025-03-11_21h35.14.855,SL_sali,2021.2.3,Win32,120.4819277,1.3004,,,13,0,13,0,1,,,,,,,,
,,"[""circle"",""red"",""hori"",""left"",[-150,0],[106,-106]]",circle,red,hori,left,"[-150,0]","[106,-106]",left,1,,,,,,001,2025-03-11_21h35.14.855,SL_sali,2021.2.3,Win32,120.4819277,0.9933,,,14,0,14,0,1,,,,,,,,
,,"[""circle"",""no_dis"",""vert"",""up"",[99999,99999],[150,0]]",circle,no_dis,vert,up,"[99999,99999]","[150,0]",up,1,,,,,,001,2025-03-11_21h35.14.855,SL_sali,2021.2.3,Win32,120.4819277,1.1613,,,15,0,15,0,1,,,,,,,,
,,"[""diamond"",""green"",""vert"",""up"",[-150,0],[0,-150]]",diamond,green,vert,up,"[-150,0]","[0,-150]",left,0,,,,,,001,2025-03-11_21h35.14.855,SL_sali,2021.2.3,Win32,120.4819277,1.3354,,,16,0,16,0,1,,,,,,,,
,,"[""circle"",""no_dis"",""vert"",""up"",[99999,99999],[0,-150]]",circle,no_dis,vert,up,"[99999,99999]","[0,-150]",up,1,,,,,,001,2025-03-11_21h35.14.855,SL_sali,2021.2.3,Win32,120.4819277,1.1294,,,17,0,17,0,1,,,,,,,,
,,"[""diamond"",""red"",""vert"",""up"",[-150,0],[-106,-106]]",diamond,red,vert,up,"[-150,0]","[-106,-106]",up,1,,,,,,001,2025-03-11_21h35.14.855,SL_sali,2021.2.3,Win32,120.4819277,1.211,,,18,0,18,0,1,,,,,,,,
,,"[""circle"",""red"",""vert"",""up"",[-106,106],[0,-150]]",circle,red,vert,up,"[-106,106]","[0,-150]",up,1,,,,,,001,2025-03-11_21h35.14.855,SL_sali,2021.2.3,Win32,120.4819277,0.8996,,,19,0,19,0,1,,,,,,,,
,,"[""diamond"",""no_dis"",""vert"",""up"",[99999,99999],[-106,-106]]",diamond,no_dis,vert,up,"[99999,99999]","[-106,-106]",up,1,,,,,,001,2025-03-11_21h35.14.855,SL_sali,2021.2.3,Win32,120.4819277,1.2732,,,20,0,20,0,1,,,,,,,,
,,"[""circle"",""green"",""vert"",""up"",[106,106],[106,-106]]",circle,green,vert,up,"[106,106]","[106,-106]",up,1,,,,,,001,2025-03-11_21h35.14.855,SL_sali,2021.2.3,Win32,120.4819277,1.8915,,,21,0,21,0,1,,,,,,,,
,,"[""circle"",""green"",""vert"",""up"",[106,-106],[-150,0]]",circle,green,vert,up,"[106,-106]","[-150,0]",up,1,,,,,,001,2025-03-11_21h35.14.855,SL_sali,2021.2.3,Win32,120.4819277,1.2249,,,22,0,22,0,1,,,,,,,,
,,"[""diamond"",""red"",""hori"",""left"",[-106,106],[-150,0]]",diamond,red,hori,left,"[-106,106]","[-150,0]",left,1,,,,,,001,2025-03-11_21h35.14.855,SL_sali,2021.2.3,Win32,120.4819277,1.4789,,,23,0,23,0,1,,,,,,,,
,,"[""circle"",""no_dis"",""hori"",""left"",[99999,99999],[0,150]]",circle,no_dis,hori,left,"[99999,99999]","[0,150]",left,1,,,,,,001,2025-03-11_21h35.14.855,SL_sali,2021.2.3,Win32,120.4819277,1.1212,,,24,0,24,0,1,,,,,,,,
,,"[""circle"",""no_dis"",""hori"",""left"",[99999,99999],[0,150]]",circle,no_dis,hori,left,"[99999,99999]","[0,150]",left,1,,,,,,001,2025-03-11_21h35.14.855,SL_sali,2021.2.3,Win32,120.4819277,1.6167,,,25,0,25,0,1,,,,,,,,
,,"[""diamond"",""red"",""vert"",""up"",[-106,-106],[0,-150]]",diamond,red,vert,up,"[-106,-106]","[0,-150]",up,1,,,,,,001,2025-03-11_21h35.14.855,SL_sali,2021.2.3,Win32,120.4819277,1.147,,,26,0,26,0,1,,,,,,,,
,,"[""circle"",""green"",""vert"",""up"",[-106,-106],[-150,0]]",circle,green,vert,up,"[-106,-106]","[-150,0]",up,1,,,,,,001,2025-03-11_21h35.14.855,SL_sali,2021.2.3,Win32,120.4819277,1.2614,,,27,0,27,0,1,,,,,,,,
,,"[""circle"",""green"",""hori"",""left"",[106,106],[-106,-106]]",circle,green,hori,left,"[106,106]","[-106,-106]",left,1,,,,,,001,2025-03-11_21h35.14.855,SL_sali,2021.2.3,Win32,120.4819277,1.0055,,,28,0,28,0,1,,,,,,,,
,,"[""circle"",""red"",""vert"",""up"",[0,-150],[106,106]]",circle,red,vert,up,"[0,-150]","[106,106]",up,1,,,,,,001,2025-03-11_21h35.14.855,SL_sali,2021.2.3,Win32,120.4819277,1.0486,,,29,0,29,0,1,,,,,,,,
,,"[""circle"",""green"",""hori"",""left"",[0,150],[-106,106]]",circle,green,hori,left,"[0,150]","[-106,106]",left,1,,,,,,001,2025-03-11_21h35.14.855,SL_sali,2021.2.3,Win32,120.4819277,0.983,,,30,0,30,0,1,,,,,,,,
,,"[""diamond"",""red"",""hori"",""left"",[-106,106],[150,0]]",diamond,red,hori,left,"[-106,106]","[150,0]",left,1,,,,,,001,2025-03-11_21h35.14.855,SL_sali,2021.2.3,Win32,120.4819277,0.971,,,31,0,31,0,1,,,,,,,,
,,"[""diamond"",""red"",""vert"",""up"",[0,-150],[-106,-106]]",diamond,red,vert,up,"[0,-150]","[-106,-106]",up,1,,,,,,001,2025-03-11_21h35.14.855,SL_sali,2021.2.3,Win32,120.4819277,0.9763,,,32,0,32,0,1,,,,,,,,
,,"[""circle"",""red"",""hori"",""left"",[0,150],[-106,-106]]",circle,red,hori,left,"[0,150]","[-106,-106]",left,1,,,,,,001,2025-03-11_21h35.14.855,SL_sali,2021.2.3,Win32,120.4819277,1.7211,,,33,0,33,0,1,,,,,,,,
,,"[""diamond"",""green"",""vert"",""up"",[106,-106],[0,-150]]",diamond,green,vert,up,"[106,-106]","[0,-150]",up,1,,,,,,001,2025-03-11_21h35.14.855,SL_sali,2021.2.3,Win32,120.4819277,1.4407,,,34,0,34,0,1,,,,,,,,
,,"[""diamond"",""green"",""hori"",""left"",[-106,106],[0,-150]]",diamond,green,hori,left,"[-106,106]","[0,-150]",left,1,,,,,,001,2025-03-11_21h35.14.855,SL_sali,2021.2.3,Win32,120.4819277,1.3605,,,35,0,35,0,1,,,,,,,,
,,"[""diamond"",""green"",""hori"",""left"",[-106,106],[-150,0]]",diamond,green,hori,left,"[-106,106]","[-150,0]",left,1,,,,,,001,2025-03-11_21h35.14.855,SL_sali,2021.2.3,Win32,120.4819277,1.6212,,,36,0,36,0,1,,,,,,,,
,,"[""circle"",""no_dis"",""hori"",""left"",[99999,99999],[-106,106]]",circle,no_dis,hori,left,"[99999,99999]","[-106,106]",up,0,,,,,,001,2025-03-11_21h35.14.855,SL_sali,2021.2.3,Win32,120.4819277,1.4397,,,37,0,37,0,1,,,,,,,,
,,"[""diamond"",""green"",""vert"",""up"",[-106,106],[150,0]]",diamond,green,vert,up,"[-106,106]","[150,0]",up,1,,,,,,001,2025-03-11_21h35.14.855,SL_sali,2021.2.3,Win32,120.4819277,1.3348,,,38,0,38,0,1,,,,,,,,
,,"[""diamond"",""red"",""hori"",""left"",[-150,0],[0,-150]]",diamond,red,hori,left,"[-150,0]","[0,-150]",left,1,,,,,,001,2025-03-11_21h35.14.855,SL_sali,2021.2.3,Win32,120.4819277,1.1497,,,39,0,39,0,1,,,,,,,,
,,"[""circle"",""no_dis"",""vert"",""up"",[99999,99999],[-106,106]]",circle,no_dis,vert,up,"[99999,99999]","[-106,106]",up,1,,,,,,001,2025-03-11_21h35.14.855,SL_sali,2021.2.3,Win32,120.4819277,1.0731,,,40,0,40,0,1,,,,,,,,
,,"[""circle"",""red"",""hori"",""left"",[-106,106],[106,106]]",circle,red,hori,left,"[-106,106]","[106,106]",left,1,,,,,,001,2025-03-11_21h35.14.855,SL_sali,2021.2.3,Win32,120.4819277,0.9096,,,41,0,41,0,1,,,,,,,,
,,"[""diamond"",""no_dis"",""vert"",""up"",[99999,99999],[0,-150]]",diamond,no_dis,vert,up,"[99999,99999]","[0,-150]",up,1,,,,,,001,2025-03-11_21h35.14.855,SL_sali,2021.2.3,Win32,120.4819277,1.2662,,,42,0,42,0,1,,,,,,,,
,,"[""diamond"",""green"",""hori"",""left"",[0,-150],[150,0]]",diamond,green,hori,left,"[0,-150]","[150,0]",left,1,,,,,,001,2025-03-11_21h35.14.855,SL_sali,2021.2.3,Win32,120.4819277,1.4364,,,43,0,43,0,1,,,,,,,,
,,"[""diamond"",""green"",""vert"",""up"",[150,0],[-150,0]]",diamond,green,vert,up,"[150,0]","[-150,0]",up,1,,,,,,001,2025-03-11_21h35.14.855,SL_sali,2021.2.3,Win32,120.4819277,1.3101,,,44,0,44,0,1,,,,,,,,
,,"[""diamond"",""no_dis"",""hori"",""left"",[99999,99999],[-150,0]]",diamond,no_dis,hori,left,"[99999,99999]","[-150,0]",left,1,,,,,,001,2025-03-11_21h35.14.855,SL_sali,2021.2.3,Win32,120.4819277,1.3965,,,45,0,45,0,1,,,,,,,,
,,"[""circle"",""no_dis"",""hori"",""left"",[99999,99999],[-106,106]]",circle,no_dis,hori,left,"[99999,99999]","[-106,106]",left,1,,,,,,001,2025-03-11_21h35.14.855,SL_sali,2021.2.3,Win32,120.4819277,1.5428,,,46,0,46,0,1,,,,,,,,
,,"[""diamond"",""no_dis"",""hori"",""left"",[99999,99999],[-106,-106]]",diamond,no_dis,hori,left,"[99999,99999]","[-106,-106]",left,1,,,,,,001,2025-03-11_21h35.14.855,SL_sali,2021.2.3,Win32,120.4819277,1.8814,,,47,0,47,0,1,,,,,,,,
,,"[""diamond"",""green"",""hori"",""left"",[-106,106],[-150,0]]",diamond,green,hori,left,"[-106,106]","[-150,0]",left,1,,,,,,001,2025-03-11_21h35.14.855,SL_sali,2021.2.3,Win32,120.4819277,1.7944,,,48,0,48,0,1,,,,,,,,
,,"[""diamond"",""green"",""hori"",""left"",[-106,-106],[0,150]]",diamond,green,hori,left,"[-106,-106]","[0,150]",left,1,,,,,,001,2025-03-11_21h35.14.855,SL_sali,2021.2.3,Win32,120.4819277,1.8686,,,49,0,49,0,1,,,,,,,,
,,"[""circle"",""green"",""hori"",""left"",[0,150],[-106,106]]",circle,green,hori,left,"[0,150]","[-106,106]",left,1,,,,,,001,2025-03-11_21h35.14.855,SL_sali,2021.2.3,Win32,120.4819277,1.0806,,,50,0,50,0,1,,,,,,,,
,,"[""circle"",""red"",""vert"",""up"",[150,0],[-106,106]]",circle,red,vert,up,"[150,0]","[-106,106]",up,1,,,,,,001,2025-03-11_21h35.14.855,SL_sali,2021.2.3,Win32,120.4819277,1.4651,,,51,0,51,0,1,,,,,,,,
,,"[""diamond"",""no_dis"",""hori"",""left"",[99999,99999],[-106,-106]]",diamond,no_dis,hori,left,"[99999,99999]","[-106,-106]",left,1,,,,,,001,2025-03-11_21h35.14.855,SL_sali,2021.2.3,Win32,120.4819277,0.9262,,,52,0,52,0,1,,,,,,,,
,,"[""diamond"",""red"",""vert"",""up"",[106,-106],[-150,0]]",diamond,red,vert,up,"[106,-106]","[-150,0]",up,1,,,,,,001,2025-03-11_21h35.14.855,SL_sali,2021.2.3,Win32,120.4819277,1.2354,,,53,0,53,0,1,,,,,,,,
,,"[""circle"",""red"",""hori"",""left"",[-106,106],[106,106]]",circle,red,hori,left,"[-106,106]","[106,106]",left,1,,,,,,001,2025-03-11_21h35.14.855,SL_sali,2021.2.3,Win32,120.4819277,1.147,,,54,0,54,0,1,,,,,,,,
,,"[""diamond"",""no_dis"",""vert"",""up"",[99999,99999],[150,0]]",diamond,no_dis,vert,up,"[99999,99999]","[150,0]",up,1,,,,,,001,2025-03-11_21h35.14.855,SL_sali,2021.2.3,Win32,120.4819277,1.8617,,,55,0,55,0,1,,,,,,,,
,,"[""diamond"",""red"",""hori"",""left"",[106,-106],[-106,106]]",diamond,red,hori,left,"[106,-106]","[-106,106]",left,1,,,,,,001,2025-03-11_21h35.14.855,SL_sali,2021.2.3,Win32,120.4819277,0.8043,,,56,0,56,0,1,,,,,,,,
,,"[""circle"",""green"",""vert"",""up"",[106,-106],[-106,106]]",circle,green,vert,up,"[106,-106]","[-106,106]",up,1,,,,,,001,2025-03-11_21h35.14.855,SL_sali,2021.2.3,Win32,120.4819277,1.0208,,,57,0,57,0,1,,,,,,,,
,,"[""circle"",""green"",""vert"",""up"",[-106,106],[106,-106]]",circle,green,vert,up,"[-106,106]","[106,-106]",up,1,,,,,,001,2025-03-11_21h35.14.855,SL_sali,2021.2.3,Win32,120.4819277,1.0911,,,58,0,58,0,1,,,,,,,,
,,"[""diamond"",""green"",""hori"",""left"",[106,106],[-106,-106]]",diamond,green,hori,left,"[106,106]","[-106,-106]",left,1,,,,,,001,2025-03-11_21h35.14.855,SL_sali,2021.2.3,Win32,120.4819277,1.3833,,,59,0,59,0,1,,,,,,,,
,,"[""circle"",""green"",""vert"",""up"",[-106,106],[106,106]]",circle,green,vert,up,"[-106,106]","[106,106]",up,1,,,,,,001,2025-03-11_21h35.14.855,SL_sali,2021.2.3,Win32,120.4819277,1.1778,,,60,0,60,0,1,,,,,,,,
,,"[""circle"",""no_dis"",""vert"",""up"",[99999,99999],[106,-106]]",circle,no_dis,vert,up,"[99999,99999]","[106,-106]",up,1,,,,,,001,2025-03-11_21h35.14.855,SL_sali,2021.2.3,Win32,120.4819277,2.3396,,,61,0,61,0,1,,,,,,,,
,,"[""circle"",""no_dis"",""hori"",""left"",[99999,99999],[150,0]]",circle,no_dis,hori,left,"[99999,99999]","[150,0]",left,1,,,,,,001,2025-03-11_21h35.14.855,SL_sali,2021.2.3,Win32,120.4819277,0.872,,,62,0,62,0,1,,,,,,,,
,,"[""circle"",""red"",""vert"",""up"",[0,-150],[-106,106]]",circle,red,vert,up,"[0,-150]","[-106,106]",up,1,,,,,,001,2025-03-11_21h35.14.855,SL_sali,2021.2.3,Win32,120.4819277,0.9345,,,63,0,63,0,1,,,,,,,,
,,"[""circle"",""red"",""vert"",""up"",[-106,-106],[106,-106]]",circle,red,vert,up,"[-106,-106]","[106,-106]",up,1,,,,,,001,2025-03-11_21h35.14.855,SL_sali,2021.2.3,Win32,120.4819277,0.9702,,,64,0,64,0,1,,,,,,,,
,,"[""circle"",""red"",""vert"",""up"",[-150,0],[106,-106]]",circle,red,vert,up,"[-150,0]","[106,-106]",up,1,,,,,,001,2025-03-11_21h35.14.855,SL_sali,2021.2.3,Win32,120.4819277,0.9093,,,65,0,65,0,1,,,,,,,,
,,"[""diamond"",""red"",""hori"",""left"",[-106,-106],[0,-150]]",diamond,red,hori,left,"[-106,-106]","[0,-150]",left,1,,,,,,001,2025-03-11_21h35.14.855,SL_sali,2021.2.3,Win32,120.4819277,1.0254,,,66,0,66,0,1,,,,,,,,
,,"[""circle"",""no_dis"",""vert"",""up"",[99999,99999],[106,-106]]",circle,no_dis,vert,up,"[99999,99999]","[106,-106]",up,1,,,,,,001,2025-03-11_21h35.14.855,SL_sali,2021.2.3,Win32,120.4819277,0.9065,,,67,0,67,0,1,,,,,,,,
,,"[""diamond"",""red"",""vert"",""up"",[106,-106],[0,-150]]",diamond,red,vert,up,"[106,-106]","[0,-150]",left,0,,,,,,001,2025-03-11_21h35.14.855,SL_sali,2021.2.3,Win32,120.4819277,0.9176,,,68,0,68,0,1,,,,,,,,
,,"[""circle"",""red"",""vert"",""up"",[-106,106],[106,-106]]",circle,red,vert,up,"[-106,106]","[106,-106]",up,1,,,,,,001,2025-03-11_21h35.14.855,SL_sali,2021.2.3,Win32,120.4819277,0.963,,,69,0,69,0,1,,,,,,,,
,,"[""circle"",""green"",""vert"",""up"",[-106,106],[-106,-106]]",circle,green,vert,up,"[-106,106]","[-106,-106]",up,1,,,,,,001,2025-03-11_21h35.14.855,SL_sali,2021.2.3,Win32,120.4819277,1.3255,,,70,0,70,0,1,,,,,,,,
,,"[""circle"",""no_dis"",""hori"",""left"",[99999,99999],[-106,-106]]",circle,no_dis,hori,left,"[99999,99999]","[-106,-106]",left,1,,,,,,001,2025-03-11_21h35.14.855,SL_sali,2021.2.3,Win32,120.4819277,1.1428,,,71,0,71,0,1,,,,,,,,
,,"[""circle"",""red"",""vert"",""up"",[0,-150],[-106,-106]]",circle,red,vert,up,"[0,-150]","[-106,-106]",up,1,,,,,,001,2025-03-11_21h35.14.855,SL_sali,2021.2.3,Win32,120.4819277,1.0016,,,72,0,72,0,1,,,,,,,,
,,"[""diamond"",""no_dis"",""hori"",""left"",[99999,99999],[-150,0]]",diamond,no_dis,hori,left,"[99999,99999]","[-150,0]",left,1,,,,,,001,2025-03-11_21h35.14.855,SL_sali,2021.2.3,Win32,120.4819277,1.5851,,,73,0,73,0,1,,,,,,,,
,,"[""diamond"",""no_dis"",""vert"",""up"",[99999,99999],[-150,0]]",diamond,no_dis,vert,up,"[99999,99999]","[-150,0]",up,1,,,,,,001,2025-03-11_21h35.14.855,SL_sali,2021.2.3,Win32,120.4819277,1.1737,,,74,0,74,0,1,,,,,,,,
,,"[""diamond"",""red"",""hori"",""left"",[-106,106],[0,150]]",diamond,red,hori,left,"[-106,106]","[0,150]",left,1,,,,,,001,2025-03-11_21h35.14.855,SL_sali,2021.2.3,Win32,120.4819277,1.3837,,,75,0,75,0,1,,,,,,,,
,,"[""circle"",""red"",""hori"",""left"",[-150,0],[106,-106]]",circle,red,hori,left,"[-150,0]","[106,-106]",left,1,,,,,,001,2025-03-11_21h35.14.855,SL_sali,2021.2.3,Win32,120.4819277,0.8435,,,76,0,76,0,1,,,,,,,,
,,"[""diamond"",""green"",""vert"",""up"",[150,0],[-106,-106]]",diamond,green,vert,up,"[150,0]","[-106,-106]",up,1,,,,,,001,2025-03-11_21h35.14.855,SL_sali,2021.2.3,Win32,120.4819277,1.0565,,,77,0,77,0,1,,,,,,,,
,,"[""circle"",""green"",""vert"",""up"",[-106,106],[0,-150]]",circle,green,vert,up,"[-106,106]","[0,-150]",up,1,,,,,,001,2025-03-11_21h35.14.855,SL_sali,2021.2.3,Win32,120.4819277,0.9247,,,78,0,78,0,1,,,,,,,,
,,"[""circle"",""no_dis"",""vert"",""up"",[99999,99999],[0,-150]]",circle,no_dis,vert,up,"[99999,99999]","[0,-150]",left,0,,,,,,001,2025-03-11_21h35.14.855,SL_sali,2021.2.3,Win32,120.4819277,1.9428,,,79,0,79,0,1,,,,,,,,
,,"[""circle"",""no_dis"",""hori"",""left"",[99999,99999],[106,-106]]",circle,no_dis,hori,left,"[99999,99999]","[106,-106]",left,1,,,,,,001,2025-03-11_21h35.14.855,SL_sali,2021.2.3,Win32,120.4819277,1.026,,,80,0,80,0,1,,,,,,,,
,,"[""circle"",""no_dis"",""hori"",""left"",[99999,99999],[-150,0]]",circle,no_dis,hori,left,"[99999,99999]","[-150,0]",left,1,,,,,,001,2025-03-11_21h35.14.855,SL_sali,2021.2.3,Win32,120.4819277,1.0262,,,81,0,81,0,1,,,,,,,,
,,"[""diamond"",""no_dis"",""hori"",""left"",[99999,99999],[0,150]]",diamond,no_dis,hori,left,"[99999,99999]","[0,150]",left,1,,,,,,001,2025-03-11_21h35.14.855,SL_sali,2021.2.3,Win32,120.4819277,1.6938,,,82,0,82,0,1,,,,,,,,
,,"[""circle"",""green"",""hori"",""left"",[106,106],[-150,0]]",circle,green,hori,left,"[106,106]","[-150,0]",left,1,,,,,,001,2025-03-11_21h35.14.855,SL_sali,2021.2.3,Win32,120.4819277,1.1129,,,83,0,83,0,1,,,,,,,,
,,"[""circle"",""no_dis"",""hori"",""left"",[99999,99999],[106,106]]",circle,no_dis,hori,left,"[99999,99999]","[106,106]",left,1,,,,,,001,2025-03-11_21h35.14.855,SL_sali,2021.2.3,Win32,120.4819277,0.7794,,,84,0,84,0,1,,,,,,,,
,,"[""diamond"",""red"",""vert"",""up"",[0,-150],[-106,-106]]",diamond,red,vert,up,"[0,-150]","[-106,-106]",up,1,,,,,,001,2025-03-11_21h35.14.855,SL_sali,2021.2.3,Win32,120.4819277,0.891,,,85,0,85,0,1,,,,,,,,
,,"[""diamond"",""red"",""hori"",""left"",[106,106],[0,-150]]",diamond,red,hori,left,"[106,106]","[0,-150]",left,1,,,,,,001,2025-03-11_21h35.14.855,SL_sali,2021.2.3,Win32,120.4819277,1.0168,,,86,0,86,0,1,,,,,,,,
,,"[""diamond"",""no_dis"",""vert"",""up"",[99999,99999],[150,0]]",diamond,no_dis,vert,up,"[99999,99999]","[150,0]",up,1,,,,,,001,2025-03-11_21h35.14.855,SL_sali,2021.2.3,Win32,120.4819277,1.2312,,,87,0,87,0,1,,,,,,,,
,,"[""circle"",""red"",""hori"",""left"",[0,150],[106,-106]]",circle,red,hori,left,"[0,150]","[106,-106]",left,1,,,,,,001,2025-03-11_21h35.14.855,SL_sali,2021.2.3,Win32,120.4819277,1.1693,,,88,0,88,0,1,,,,,,,,
,,"[""circle"",""no_dis"",""vert"",""up"",[99999,99999],[106,-106]]",circle,no_dis,vert,up,"[99999,99999]","[106,-106]",up,1,,,,,,001,2025-03-11_21h35.14.855,SL_sali,2021.2.3,Win32,120.4819277,1.4433,,,89,0,89,0,1,,,,,,,,
,,"[""diamond"",""green"",""hori"",""left"",[-106,106],[106,106]]",diamond,green,hori,left,"[-106,106]","[106,106]",left,1,,,,,,001,2025-03-11_21h35.14.855,SL_sali,2021.2.3,Win32,120.4819277,1.2437,,,90,0,90,0,1,,,,,,,,
,,"[""diamond"",""no_dis"",""vert"",""up"",[99999,99999],[0,150]]",diamond,no_dis,vert,up,"[99999,99999]","[0,150]",up,1,,,,,,001,2025-03-11_21h35.14.855,SL_sali,2021.2.3,Win32,120.4819277,1.0147,,,91,0,91,0,1,,,,,,,,
,,"[""diamond"",""green"",""hori"",""left"",[150,0],[-150,0]]",diamond,green,hori,left,"[150,0]","[-150,0]",left,1,,,,,,001,2025-03-11_21h35.14.855,SL_sali,2021.2.3,Win32,120.4819277,1.6901,,,92,0,92,0,1,,,,,,,,
,,"[""circle"",""green"",""vert"",""up"",[-150,0],[150,0]]",circle,green,vert,up,"[-150,0]","[150,0]",up,1,,,,,,001,2025-03-11_21h35.14.855,SL_sali,2021.2.3,Win32,120.4819277,1.1093,,,93,0,93,0,1,,,,,,,,
,,"[""circle"",""green"",""hori"",""left"",[0,150],[0,-150]]",circle,green,hori,left,"[0,150]","[0,-150]",left,1,,,,,,001,2025-03-11_21h35.14.855,SL_sali,2021.2.3,Win32,120.4819277,1.077,,,94,0,94,0,1,,,,,,,,
,,"[""diamond"",""green"",""vert"",""up"",[150,0],[106,106]]",diamond,green,vert,up,"[150,0]","[106,106]",up,1,,,,,,001,2025-03-11_21h35.14.855,SL_sali,2021.2.3,Win32,120.4819277,1.189,,,95,0,95,0,1,,,,,,,,
,,"[""diamond"",""no_dis"",""hori"",""left"",[99999,99999],[106,106]]",diamond,no_dis,hori,left,"[99999,99999]","[106,106]",left,1,,,,,,001,2025-03-11_21h35.14.855,SL_sali,2021.2.3,Win32,120.4819277,1.653,,,96,0,96,0,1,,,,,,,,
,,"[""diamond"",""no_dis"",""hori"",""left"",[99999,99999],[-106,106]]",diamond,no_dis,hori,left,"[99999,99999]","[-106,106]",left,1,,,,,,001,2025-03-11_21h35.14.855,SL_sali,2021.2.3,Win32,120.4819277,1.5592,,,97,0,97,0,1,,,,,,,,
,,"[""diamond"",""no_dis"",""hori"",""left"",[99999,99999],[0,-150]]",diamond,no_dis,hori,left,"[99999,99999]","[0,-150]",left,1,,,,,,001,2025-03-11_21h35.14.855,SL_sali,2021.2.3,Win32,120.4819277,1.1317,,,98,0,98,0,1,,,,,,,,
,,"[""diamond"",""red"",""vert"",""up"",[-150,0],[-106,-106]]",diamond,red,vert,up,"[-150,0]","[-106,-106]",up,1,,,,,,001,2025-03-11_21h35.14.855,SL_sali,2021.2.3,Win32,120.4819277,1.1902,,,99,0,99,0,1,,,,,,,,
,,"[""diamond"",""green"",""vert"",""up"",[-106,106],[0,150]]",diamond,green,vert,up,"[-106,106]","[0,150]",left,0,,,,,,001,2025-03-11_21h35.14.855,SL_sali,2021.2.3,Win32,120.4819277,1.3941,,,100,0,100,0,1,,,,,,,,
,,"[""circle"",""no_dis"",""vert"",""up"",[99999,99999],[-106,106]]",circle,no_dis,vert,up,"[99999,99999]","[-106,106]",up,1,,,,,,001,2025-03-11_21h35.14.855,SL_sali,2021.2.3,Win32,120.4819277,1.0836,,,101,0,101,0,1,,,,,,,,
,,"[""circle"",""no_dis"",""vert"",""up"",[99999,99999],[106,-106]]",circle,no_dis,vert,up,"[99999,99999]","[106,-106]",up,1,,,,,,001,2025-03-11_21h35.14.855,SL_sali,2021.2.3,Win32,120.4819277,0.9318,,,102,0,102,0,1,,,,,,,,
,,"[""diamond"",""no_dis"",""vert"",""up"",[99999,99999],[-106,-106]]",diamond,no_dis,vert,up,"[99999,99999]","[-106,-106]",up,1,,,,,,001,2025-03-11_21h35.14.855,SL_sali,2021.2.3,Win32,120.4819277,1.2403,,,103,0,103,0,1,,,,,,,,
,,"[""diamond"",""green"",""vert"",""up"",[150,0],[-106,-106]]",diamond,green,vert,up,"[150,0]","[-106,-106]",up,1,,,,,,001,2025-03-11_21h35.14.855,SL_sali,2021.2.3,Win32,120.4819277,1.031,,,104,0,104,0,1,,,,,,,,
,,"[""circle"",""red"",""vert"",""up"",[-106,-106],[-106,106]]",circle,red,vert,up,"[-106,-106]","[-106,106]",up,1,,,,,,001,2025-03-11_21h35.14.855,SL_sali,2021.2.3,Win32,120.4819277,1.535,,,105,0,105,0,1,,,,,,,,
,,"[""diamond"",""red"",""vert"",""up"",[-106,106],[106,-106]]",diamond,red,vert,up,"[-106,106]","[106,-106]",up,1,,,,,,001,2025-03-11_21h35.14.855,SL_sali,2021.2.3,Win32,120.4819277,1.2261,,,106,0,106,0,1,,,,,,,,
,,"[""diamond"",""red"",""hori"",""left"",[-106,-106],[106,-106]]",diamond,red,hori,left,"[-106,-106]","[106,-106]",left,1,,,,,,001,2025-03-11_21h35.14.855,SL_sali,2021.2.3,Win32,120.4819277,2.1329,,,107,0,107,0,1,,,,,,,,
,,"[""diamond"",""no_dis"",""vert"",""up"",[99999,99999],[106,106]]",diamond,no_dis,vert,up,"[99999,99999]","[106,106]",up,1,,,,,,001,2025-03-11_21h35.14.855,SL_sali,2021.2.3,Win32,120.4819277,1.1404,,,108,0,108,0,1,,,,,,,,
,,"[""diamond"",""green"",""vert"",""up"",[106,106],[-150,0]]",diamond,green,vert,up,"[106,106]","[-150,0]",up,1,,,,,,001,2025-03-11_21h35.14.855,SL_sali,2021.2.3,Win32,120.4819277,1.0014,,,109,0,109,0,1,,,,,,,,
,,"[""diamond"",""red"",""hori"",""left"",[-106,106],[106,106]]",diamond,red,hori,left,"[-106,106]","[106,106]",left,1,,,,,,001,2025-03-11_21h35.14.855,SL_sali,2021.2.3,Win32,120.4819277,1.7773,,,110,0,110,0,1,,,,,,,,
,,"[""diamond"",""red"",""hori"",""left"",[0,-150],[150,0]]",diamond,red,hori,left,"[0,-150]","[150,0]",left,1,,,,,,001,2025-03-11_21h35.14.855,SL_sali,2021.2.3,Win32,120.4819277,1.9983,,,111,0,111,0,1,,,,,,,,
,,"[""circle"",""no_dis"",""vert"",""up"",[99999,99999],[0,150]]",circle,no_dis,vert,up,"[99999,99999]","[0,150]",up,1,,,,,,001,2025-03-11_21h35.14.855,SL_sali,2021.2.3,Win32,120.4819277,1.2332,,,112,0,112,0,1,,,,,,,,
,,"[""diamond"",""red"",""vert"",""up"",[0,150],[-106,106]]",diamond,red,vert,up,"[0,150]","[-106,106]",up,1,,,,,,001,2025-03-11_21h35.14.855,SL_sali,2021.2.3,Win32,120.4819277,1.4689,,,113,0,113,0,1,,,,,,,,
,,"[""circle"",""green"",""hori"",""left"",[150,0],[106,-106]]",circle,green,hori,left,"[150,0]","[106,-106]",left,1,,,,,,001,2025-03-11_21h35.14.855,SL_sali,2021.2.3,Win32,120.4819277,1.1565,,,114,0,114,0,1,,,,,,,,
,,"[""circle"",""red"",""hori"",""left"",[106,106],[-106,-106]]",circle,red,hori,left,"[106,106]","[-106,-106]",left,1,,,,,,001,2025-03-11_21h35.14.855,SL_sali,2021.2.3,Win32,120.4819277,1.2596,,,115,0,115,0,1,,,,,,,,
,,"[""diamond"",""no_dis"",""hori"",""left"",[99999,99999],[-150,0]]",diamond,no_dis,hori,left,"[99999,99999]","[-150,0]",left,1,,,,,,001,2025-03-11_21h35.14.855,SL_sali,2021.2.3,Win32,120.4819277,0.8744,,,116,0,116,0,1,,,,,,,,
,,"[""circle"",""green"",""hori"",""left"",[-106,106],[-106,-106]]",circle,green,hori,left,"[-106,106]","[-106,-106]",left,1,,,,,,001,2025-03-11_21h35.14.855,SL_sali,2021.2.3,Win32,120.4819277,1.3785,,,117,0,117,0,1,,,,,,,,
,,"[""circle"",""green"",""hori"",""left"",[106,106],[0,-150]]",circle,green,hori,left,"[106,106]","[0,-150]",left,1,,,,,,001,2025-03-11_21h35.14.855,SL_sali,2021.2.3,Win32,120.4819277,0.9672,,,118,0,118,0,1,,,,,,,,
,,"[""circle"",""no_dis"",""hori"",""left"",[99999,99999],[106,106]]",circle,no_dis,hori,left,"[99999,99999]","[106,106]",left,1,,,,,,001,2025-03-11_21h35.14.855,SL_sali,2021.2.3,Win32,120.4819277,0.7293,,,119,0,119,0,1,,,,,,,,
,,,,,,,,,,,,,,,,001,2025-03-11_21h35.14.855,SL_sali,2021.2.3,Win32,120.4819277,,,,,,,,,2,space,4.6765,1,0,1,0,1
,,"[""diamond"",""green"",""vert"",""up"",[106,106],[-150,0]]",diamond,green,vert,up,"[106,106]","[-150,0]",up,1,,,,,,001,2025-03-11_21h35.14.855,SL_sali,2021.2.3,Win32,120.4819277,2.4197,,,0,0,0,0,1,,,,,,,,
,,"[""diamond"",""green"",""vert"",""up"",[-106,106],[150,0]]",diamond,green,vert,up,"[-106,106]","[150,0]",up,1,,,,,,001,2025-03-11_21h35.14.855,SL_sali,2021.2.3,Win32,120.4819277,1.1787,,,1,0,1,0,1,,,,,,,,
,,"[""circle"",""green"",""vert"",""up"",[106,-106],[-106,106]]",circle,green,vert,up,"[106,-106]","[-106,106]",up,1,,,,,,001,2025-03-11_21h35.14.855,SL_sali,2021.2.3,Win32,120.4819277,1.1878,,,2,0,2,0,1,,,,,,,,
,,"[""diamond"",""green"",""vert"",""up"",[106,-106],[0,-150]]",diamond,green,vert,up,"[106,-106]","[0,-150]",up,1,,,,,,001,2025-03-11_21h35.14.855,SL_sali,2021.2.3,Win32,120.4819277,1.3224,,,3,0,3,0,1,,,,,,,,
,,"[""circle"",""no_dis"",""hori"",""left"",[99999,99999],[0,150]]",circle,no_dis,hori,left,"[99999,99999]","[0,150]",left,1,,,,,,001,2025-03-11_21h35.14.855,SL_sali,2021.2.3,Win32,120.4819277,0.9752,,,4,0,4,0,1,,,,,,,,
,,"[""diamond"",""green"",""vert"",""up"",[150,0],[-106,-106]]",diamond,green,vert,up,"[150,0]","[-106,-106]",up,1,,,,,,001,2025-03-11_21h35.14.855,SL_sali,2021.2.3,Win32,120.4819277,0.8285,,,5,0,5,0,1,,,,,,,,
,,"[""diamond"",""no_dis"",""vert"",""up"",[99999,99999],[106,106]]",diamond,no_dis,vert,up,"[99999,99999]","[106,106]",up,1,,,,,,001,2025-03-11_21h35.14.855,SL_sali,2021.2.3,Win32,120.4819277,1.0567,,,6,0,6,0,1,,,,,,,,
,,"[""circle"",""no_dis"",""vert"",""up"",[99999,99999],[-106,106]]",circle,no_dis,vert,up,"[99999,99999]","[-106,106]",up,1,,,,,,001,2025-03-11_21h35.14.855,SL_sali,2021.2.3,Win32,120.4819277,0.8933,,,7,0,7,0,1,,,,,,,,
,,"[""diamond"",""red"",""vert"",""up"",[-150,0],[-106,-106]]",diamond,red,vert,up,"[-150,0]","[-106,-106]",up,1,,,,,,001,2025-03-11_21h35.14.855,SL_sali,2021.2.3,Win32,120.4819277,1.1198,,,8,0,8,0,1,,,,,,,,
,,"[""diamond"",""green"",""hori"",""left"",[-106,-106],[0,150]]",diamond,green,hori,left,"[-106,-106]","[0,150]",up,0,,,,,,001,2025-03-11_21h35.14.855,SL_sali,2021.2.3,Win32,120.4819277,1.0497,,,9,0,9,0,1,,,,,,,,
,,"[""circle"",""red"",""vert"",""up"",[-106,-106],[-106,106]]",circle,red,vert,up,"[-106,-106]","[-106,106]",up,1,,,,,,001,2025-03-11_21h35.14.855,SL_sali,2021.2.3,Win32,120.4819277,1.1744,,,10,0,10,0,1,,,,,,,,
,,"[""circle"",""red"",""hori"",""left"",[106,106],[-106,-106]]",circle,red,hori,left,"[106,106]","[-106,-106]",left,1,,,,,,001,2025-03-11_21h35.14.855,SL_sali,2021.2.3,Win32,120.4819277,0.9398,,,11,0,11,0,1,,,,,,,,
,,"[""diamond"",""red"",""hori"",""left"",[0,-150],[150,0]]",diamond,red,hori,left,"[0,-150]","[150,0]",left,1,,,,,,001,2025-03-11_21h35.14.855,SL_sali,2021.2.3,Win32,120.4819277,1.2402,,,12,0,12,0,1,,,,,,,,
,,"[""diamond"",""no_dis"",""vert"",""up"",[99999,99999],[-106,-106]]",diamond,no_dis,vert,up,"[99999,99999]","[-106,-106]",up,1,,,,,,001,2025-03-11_21h35.14.855,SL_sali,2021.2.3,Win32,120.4819277,1.1673,,,13,0,13,0,1,,,,,,,,
,,"[""circle"",""no_dis"",""hori"",""left"",[99999,99999],[0,150]]",circle,no_dis,hori,left,"[99999,99999]","[0,150]",left,1,,,,,,001,2025-03-11_21h35.14.855,SL_sali,2021.2.3,Win32,120.4819277,1.2512,,,14,0,14,0,1,,,,,,,,
,,"[""diamond"",""red"",""hori"",""left"",[-150,0],[0,-150]]",diamond,red,hori,left,"[-150,0]","[0,-150]",left,1,,,,,,001,2025-03-11_21h35.14.855,SL_sali,2021.2.3,Win32,120.4819277,1.0847,,,15,0,15,0,1,,,,,,,,
,,"[""circle"",""red"",""vert"",""up"",[-106,106],[106,-106]]",circle,red,vert,up,"[-106,106]","[106,-106]",up,1,,,,,,001,2025-03-11_21h35.14.855,SL_sali,2021.2.3,Win32,120.4819277,0.9443,,,16,0,16,0,1,,,,,,,,
,,"[""diamond"",""red"",""vert"",""up"",[0,150],[-106,106]]",diamond,red,vert,up,"[0,150]","[-106,106]",up,1,,,,,,001,2025-03-11_21h35.14.855,SL_sali,2021.2.3,Win32,120.4819277,1.1066,,,17,0,17,0,1,,,,,,,,
,,"[""circle"",""no_dis"",""vert"",""up"",[99999,99999],[0,-150]]",circle,no_dis,vert,up,"[99999,99999]","[0,-150]",up,1,,,,,,001,2025-03-11_21h35.14.855,SL_sali,2021.2.3,Win32,120.4819277,1.0679,,,18,0,18,0,1,,,,,,,,
,,"[""circle"",""no_dis"",""hori"",""left"",[99999,99999],[-106,106]]",circle,no_dis,hori,left,"[99999,99999]","[-106,106]",left,1,,,,,,001,2025-03-11_21h35.14.855,SL_sali,2021.2.3,Win32,120.4819277,1.0279,,,19,0,19,0,1,,,,,,,,
,,"[""circle"",""green"",""hori"",""left"",[0,150],[-106,106]]",circle,green,hori,left,"[0,150]","[-106,106]",left,1,,,,,,001,2025-03-11_21h35.14.855,SL_sali,2021.2.3,Win32,120.4819277,0.8849,,,20,0,20,0,1,,,,,,,,
,,"[""circle"",""red"",""hori"",""left"",[-106,106],[106,106]]",circle,red,hori,left,"[-106,106]","[106,106]",left,1,,,,,,001,2025-03-11_21h35.14.855,SL_sali,2021.2.3,Win32,120.4819277,1.1359,,,21,0,21,0,1,,,,,,,,
,,"[""circle"",""green"",""hori"",""left"",[0,150],[-106,106]]",circle,green,hori,left,"[0,150]","[-106,106]",left,1,,,,,,001,2025-03-11_21h35.14.855,SL_sali,2021.2.3,Win32,120.4819277,0.8763,,,22,0,22,0,1,,,,,,,,
,,"[""diamond"",""red"",""hori"",""left"",[-106,106],[0,150]]",diamond,red,hori,left,"[-106,106]","[0,150]",up,0,,,,,,001,2025-03-11_21h35.14.855,SL_sali,2021.2.3,Win32,120.4819277,1.17,,,23,0,23,0,1,,,,,,,,
,,"[""circle"",""no_dis"",""hori"",""left"",[99999,99999],[-106,106]]",circle,no_dis,hori,left,"[99999,99999]","[-106,106]",left,1,,,,,,001,2025-03-11_21h35.14.855,SL_sali,2021.2.3,Win32,120.4819277,0.8271,,,24,0,24,0,1,,,,,,,,
,,"[""circle"",""green"",""hori"",""left"",[106,106],[-106,-106]]",circle,green,hori,left,"[106,106]","[-106,-106]",left,1,,,,,,001,2025-03-11_21h35.14.855,SL_sali,2021.2.3,Win32,120.4819277,0.9093,,,25,0,25,0,1,,,,,,,,
,,"[""diamond"",""no_dis"",""hori"",""left"",[99999,99999],[106,106]]",diamond,no_dis,hori,left,"[99999,99999]","[106,106]",left,1,,,,,,001,2025-03-11_21h35.14.855,SL_sali,2021.2.3,Win32,120.4819277,0.9801,,,26,0,26,0,1,,,,,,,,
,,"[""diamond"",""green"",""vert"",""up"",[150,0],[-106,-106]]",diamond,green,vert,up,"[150,0]","[-106,-106]",up,1,,,,,,001,2025-03-11_21h35.14.855,SL_sali,2021.2.3,Win32,120.4819277,0.883,,,27,0,27,0,1,,,,,,,,
,,"[""diamond"",""no_dis"",""vert"",""up"",[99999,99999],[150,0]]",diamond,no_dis,vert,up,"[99999,99999]","[150,0]",up,1,,,,,,001,2025-03-11_21h35.14.855,SL_sali,2021.2.3,Win32,120.4819277,0.9982,,,28,0,28,0,1,,,,,,,,
,,"[""diamond"",""red"",""vert"",""up"",[-106,106],[106,-106]]",diamond,red,vert,up,"[-106,106]","[106,-106]",up,1,,,,,,001,2025-03-11_21h35.14.855,SL_sali,2021.2.3,Win32,120.4819277,0.9123,,,29,0,29,0,1,,,,,,,,
,,"[""diamond"",""green"",""hori"",""left"",[-106,106],[-150,0]]",diamond,green,hori,left,"[-106,106]","[-150,0]",left,1,,,,,,001,2025-03-11_21h35.14.855,SL_sali,2021.2.3,Win32,120.4819277,1.381,,,30,0,30,0,1,,,,,,,,
,,"[""diamond"",""green"",""hori"",""left"",[-106,106],[0,-150]]",diamond,green,hori,left,"[-106,106]","[0,-150]",left,1,,,,,,001,2025-03-11_21h35.14.855,SL_sali,2021.2.3,Win32,120.4819277,1.2136,,,31,0,31,0,1,,,,,,,,
,,"[""diamond"",""no_dis"",""vert"",""up"",[99999,99999],[-106,-106]]",diamond,no_dis,vert,up,"[99999,99999]","[-106,-106]",up,1,,,,,,001,2025-03-11_21h35.14.855,SL_sali,2021.2.3,Win32,120.4819277,1.1846,,,32,0,32,0,1,,,,,,,,
,,"[""diamond"",""red"",""vert"",""up"",[-106,-106],[0,-150]]",diamond,red,vert,up,"[-106,-106]","[0,-150]",up,1,,,,,,001,2025-03-11_21h35.14.855,SL_sali,2021.2.3,Win32,120.4819277,0.7939,,,33,0,33,0,1,,,,,,,,
,,"[""circle"",""red"",""hori"",""left"",[0,150],[106,-106]]",circle,red,hori,left,"[0,150]","[106,-106]",left,1,,,,,,001,2025-03-11_21h35.14.855,SL_sali,2021.2.3,Win32,120.4819277,1.0861,,,34,0,34,0,1,,,,,,,,
,,"[""diamond"",""green"",""vert"",""up"",[-106,106],[0,150]]",diamond,green,vert,up,"[-106,106]","[0,150]",up,1,,,,,,001,2025-03-11_21h35.14.855,SL_sali,2021.2.3,Win32,120.4819277,0.8546,,,35,0,35,0,1,,,,,,,,
,,"[""circle"",""green"",""vert"",""up"",[-106,-106],[-150,0]]",circle,green,vert,up,"[-106,-106]","[-150,0]",up,1,,,,,,001,2025-03-11_21h35.14.855,SL_sali,2021.2.3,Win32,120.4819277,1.4425,,,36,0,36,0,1,,,,,,,,
,,"[""circle"",""red"",""vert"",""up"",[-150,0],[106,-106]]",circle,red,vert,up,"[-150,0]","[106,-106]",up,1,,,,,,001,2025-03-11_21h35.14.855,SL_sali,2021.2.3,Win32,120.4819277,1.1131,,,37,0,37,0,1,,,,,,,,
,,"[""circle"",""no_dis"",""vert"",""up"",[99999,99999],[106,-106]]",circle,no_dis,vert,up,"[99999,99999]","[106,-106]",up,1,,,,,,001,2025-03-11_21h35.14.855,SL_sali,2021.2.3,Win32,120.4819277,0.6264,,,38,0,38,0,1,,,,,,,,
,,"[""circle"",""red"",""vert"",""up"",[150,0],[-106,106]]",circle,red,vert,up,"[150,0]","[-106,106]",up,1,,,,,,001,2025-03-11_21h35.14.855,SL_sali,2021.2.3,Win32,120.4819277,0.7087,,,39,0,39,0,1,,,,,,,,
,,"[""circle"",""no_dis"",""vert"",""up"",[99999,99999],[106,-106]]",circle,no_dis,vert,up,"[99999,99999]","[106,-106]",up,1,,,,,,001,2025-03-11_21h35.14.855,SL_sali,2021.2.3,Win32,120.4819277,0.5471,,,40,0,40,0,1,,,,,,,,
,,"[""circle"",""red"",""vert"",""up"",[0,-150],[106,106]]",circle,red,vert,up,"[0,-150]","[106,106]",left,0,,,,,,001,2025-03-11_21h35.14.855,SL_sali,2021.2.3,Win32,120.4819277,1.0491,,,41,0,41,0,1,,,,,,,,
,,"[""diamond"",""no_dis"",""vert"",""up"",[99999,99999],[0,150]]",diamond,no_dis,vert,up,"[99999,99999]","[0,150]",up,1,,,,,,001,2025-03-11_21h35.14.855,SL_sali,2021.2.3,Win32,120.4819277,1.5624,,,42,0,42,0,1,,,,,,,,
,,"[""circle"",""green"",""hori"",""left"",[150,0],[106,-106]]",circle,green,hori,left,"[150,0]","[106,-106]",left,1,,,,,,001,2025-03-11_21h35.14.855,SL_sali,2021.2.3,Win32,120.4819277,0.9995,,,43,0,43,0,1,,,,,,,,
,,"[""diamond"",""red"",""hori"",""left"",[-106,106],[106,106]]",diamond,red,hori,left,"[-106,106]","[106,106]",left,1,,,,,,001,2025-03-11_21h35.14.855,SL_sali,2021.2.3,Win32,120.4819277,2.5188,,,44,0,44,0,1,,,,,,,,
,,"[""diamond"",""red"",""hori"",""left"",[-106,106],[150,0]]",diamond,red,hori,left,"[-106,106]","[150,0]",left,1,,,,,,001,2025-03-11_21h35.14.855,SL_sali,2021.2.3,Win32,120.4819277,0.8482,,,45,0,45,0,1,,,,,,,,
,,"[""circle"",""no_dis"",""hori"",""left"",[99999,99999],[150,0]]",circle,no_dis,hori,left,"[99999,99999]","[150,0]",left,1,,,,,,001,2025-03-11_21h35.14.855,SL_sali,2021.2.3,Win32,120.4819277,1.1846,,,46,0,46,0,1,,,,,,,,
,,"[""diamond"",""green"",""vert"",""up"",[106,-106],[-106,-106]]",diamond,green,vert,up,"[106,-106]","[-106,-106]",up,1,,,,,,001,2025-03-11_21h35.14.855,SL_sali,2021.2.3,Win32,120.4819277,1.4751,,,47,0,47,0,1,,,,,,,,
,,"[""circle"",""no_dis"",""vert"",""up"",[99999,99999],[0,150]]",circle,no_dis,vert,up,"[99999,99999]","[0,150]",up,1,,,,,,001,2025-03-11_21h35.14.855,SL_sali,2021.2.3,Win32,120.4819277,1.6165,,,48,0,48,0,1,,,,,,,,
,,"[""diamond"",""red"",""hori"",""left"",[-106,-106],[106,-106]]",diamond,red,hori,left,"[-106,-106]","[106,-106]",left,1,,,,,,001,2025-03-11_21h35.14.855,SL_sali,2021.2.3,Win32,120.4819277,1.1282,,,49,0,49,0,1,,,,,,,,
,,"[""circle"",""red"",""hori"",""left"",[-150,0],[106,-106]]",circle,red,hori,left,"[-150,0]","[106,-106]",left,1,,,,,,001,2025-03-11_21h35.14.855,SL_sali,2021.2.3,Win32,120.4819277,0.7392,,,50,0,50,0,1,,,,,,,,
,,"[""diamond"",""no_dis"",""vert"",""up"",[99999,99999],[-150,0]]",diamond,no_dis,vert,up,"[99999,99999]","[-150,0]",up,1,,,,,,001,2025-03-11_21h35.14.855,SL_sali,2021.2.3,Win32,120.4819277,1.5002,,,51,0,51,0,1,,,,,,,,
,,"[""diamond"",""green"",""vert"",""up"",[150,0],[106,106]]",diamond,green,vert,up,"[150,0]","[106,106]",up,1,,,,,,001,2025-03-11_21h35.14.855,SL_sali,2021.2.3,Win32,120.4819277,2.5191,,,52,0,52,0,1,,,,,,,,
,,"[""diamond"",""no_dis"",""hori"",""left"",[99999,99999],[-150,0]]",diamond,no_dis,hori,left,"[99999,99999]","[-150,0]",left,1,,,,,,001,2025-03-11_21h35.14.855,SL_sali,2021.2.3,Win32,120.4819277,1.3688,,,53,0,53,0,1,,,,,,,,
,,"[""diamond"",""green"",""hori"",""left"",[-106,106],[-150,0]]",diamond,green,hori,left,"[-106,106]","[-150,0]",left,1,,,,,,001,2025-03-11_21h35.14.855,SL_sali,2021.2.3,Win32,120.4819277,1.5233,,,54,0,54,0,1,,,,,,,,
,,"[""circle"",""no_dis"",""vert"",""up"",[99999,99999],[106,-106]]",circle,no_dis,vert,up,"[99999,99999]","[106,-106]",up,1,,,,,,001,2025-03-11_21h35.14.855,SL_sali,2021.2.3,Win32,120.4819277,1.0033,,,55,0,55,0,1,,,,,,,,
,,"[""circle"",""no_dis"",""hori"",""left"",[99999,99999],[-150,0]]",circle,no_dis,hori,left,"[99999,99999]","[-150,0]",up,0,,,,,,001,2025-03-11_21h35.14.855,SL_sali,2021.2.3,Win32,120.4819277,1.0242,,,56,0,56,0,1,,,,,,,,
,,"[""circle"",""green"",""hori"",""left"",[106,106],[-150,0]]",circle,green,hori,left,"[106,106]","[-150,0]",left,1,,,,,,001,2025-03-11_21h35.14.855,SL_sali,2021.2.3,Win32,120.4819277,0.9157,,,57,0,57,0,1,,,,,,,,
,,"[""circle"",""red"",""hori"",""left"",[0,150],[-106,-106]]",circle,red,hori,left,"[0,150]","[-106,-106]",left,1,,,,,,001,2025-03-11_21h35.14.855,SL_sali,2021.2.3,Win32,120.4819277,1.2736,,,58,0,58,0,1,,,,,,,,
,,"[""circle"",""green"",""vert"",""up"",[-106,106],[106,106]]",circle,green,vert,up,"[-106,106]","[106,106]",up,1,,,,,,001,2025-03-11_21h35.14.855,SL_sali,2021.2.3,Win32,120.4819277,0.9748,,,59,0,59,0,1,,,,,,,,
,,"[""circle"",""no_dis"",""vert"",""up"",[99999,99999],[106,-106]]",circle,no_dis,vert,up,"[99999,99999]","[106,-106]",up,1,,,,,,001,2025-03-11_21h35.14.855,SL_sali,2021.2.3,Win32,120.4819277,1.3366,,,60,0,60,0,1,,,,,,,,
,,"[""circle"",""no_dis"",""hori"",""left"",[99999,99999],[106,106]]",circle,no_dis,hori,left,"[99999,99999]","[106,106]",left,1,,,,,,001,2025-03-11_21h35.14.855,SL_sali,2021.2.3,Win32,120.4819277,1.008,,,61,0,61,0,1,,,,,,,,
,,"[""diamond"",""red"",""hori"",""left"",[-106,106],[-150,0]]",diamond,red,hori,left,"[-106,106]","[-150,0]",left,1,,,,,,001,2025-03-11_21h35.14.855,SL_sali,2021.2.3,Win32,120.4819277,1.3219,,,62,0,62,0,1,,,,,,,,
,,"[""circle"",""green"",""vert"",""up"",[-106,106],[-106,-106]]",circle,green,vert,up,"[-106,106]","[-106,-106]",up,1,,,,,,001,2025-03-11_21h35.14.855,SL_sali,2021.2.3,Win32,120.4819277,1.0062,,,63,0,63,0,1,,,,,,,,
,,"[""diamond"",""no_dis"",""hori"",""left"",[99999,99999],[-106,-106]]",diamond,no_dis,hori,left,"[99999,99999]","[-106,-106]",left,1,,,,,,001,2025-03-11_21h35.14.855,SL_sali,2021.2.3,Win32,120.4819277,0.9028,,,64,0,64,0,1,,,,,,,,
,,"[""circle"",""red"",""hori"",""left"",[0,150],[-106,-106]]",circle,red,hori,left,"[0,150]","[-106,-106]",left,1,,,,,,001,2025-03-11_21h35.14.855,SL_sali,2021.2.3,Win32,120.4819277,1.0573,,,65,0,65,0,1,,,,,,,,
,,"[""circle"",""red"",""vert"",""up"",[-106,-106],[150,0]]",circle,red,vert,up,"[-106,-106]","[150,0]",left,0,,,,,,001,2025-03-11_21h35.14.855,SL_sali,2021.2.3,Win32,120.4819277,1.4524,,,66,0,66,0,1,,,,,,,,
,,"[""circle"",""red"",""vert"",""up"",[0,-150],[-106,-106]]",circle,red,vert,up,"[0,-150]","[-106,-106]",up,1,,,,,,001,2025-03-11_21h35.14.855,SL_sali,2021.2.3,Win32,120.4819277,0.8971,,,67,0,67,0,1,,,,,,,,
,,"[""diamond"",""no_dis"",""vert"",""up"",[99999,99999],[0,-150]]",diamond,no_dis,vert,up,"[99999,99999]","[0,-150]",up,1,,,,,,001,2025-03-11_21h35.14.855,SL_sali,2021.2.3,Win32,120.4819277,1.2089,,,68,0,68,0,1,,,,,,,,
,,"[""circle"",""red"",""vert"",""up"",[0,-150],[-106,106]]",circle,red,vert,up,"[0,-150]","[-106,106]",up,1,,,,,,001,2025-03-11_21h35.14.855,SL_sali,2021.2.3,Win32,120.4819277,1.269,,,69,0,69,0,1,,,,,,,,
,,"[""diamond"",""no_dis"",""hori"",""left"",[99999,99999],[150,0]]",diamond,no_dis,hori,left,"[99999,99999]","[150,0]",left,1,,,,,,001,2025-03-11_21h35.14.855,SL_sali,2021.2.3,Win32,120.4819277,0.9415,,,70,0,70,0,1,,,,,,,,
,,"[""circle"",""green"",""vert"",""up"",[-106,106],[106,-106]]",circle,green,vert,up,"[-106,106]","[106,-106]",up,1,,,,,,001,2025-03-11_21h35.14.855,SL_sali,2021.2.3,Win32,120.4819277,0.9719,,,71,0,71,0,1,,,,,,,,
,,"[""diamond"",""red"",""vert"",""up"",[106,-106],[0,-150]]",diamond,red,vert,up,"[106,-106]","[0,-150]",up,1,,,,,,001,2025-03-11_21h35.14.855,SL_sali,2021.2.3,Win32,120.4819277,1.317,,,72,0,72,0,1,,,,,,,,
,,"[""circle"",""green"",""vert"",""up"",[-106,106],[106,-106]]",circle,green,vert,up,"[-106,106]","[106,-106]",up,1,,,,,,001,2025-03-11_21h35.14.855,SL_sali,2021.2.3,Win32,120.4819277,1.01,,,73,0,73,0,1,,,,,,,,
,,"[""diamond"",""no_dis"",""hori"",""left"",[99999,99999],[-106,-106]]",diamond,no_dis,hori,left,"[99999,99999]","[-106,-106]",left,1,,,,,,001,2025-03-11_21h35.14.855,SL_sali,2021.2.3,Win32,120.4819277,1.3211,,,74,0,74,0,1,,,,,,,,
,,"[""diamond"",""green"",""hori"",""left"",[-106,106],[0,-150]]",diamond,green,hori,left,"[-106,106]","[0,-150]",left,1,,,,,,001,2025-03-11_21h35.14.855,SL_sali,2021.2.3,Win32,120.4819277,1.3834,,,75,0,75,0,1,,,,,,,,
,,"[""diamond"",""no_dis"",""hori"",""left"",[99999,99999],[0,-150]]",diamond,no_dis,hori,left,"[99999,99999]","[0,-150]",left,1,,,,,,001,2025-03-11_21h35.14.855,SL_sali,2021.2.3,Win32,120.4819277,0.8992,,,76,0,76,0,1,,,,,,,,
,,"[""diamond"",""no_dis"",""vert"",""up"",[99999,99999],[106,106]]",diamond,no_dis,vert,up,"[99999,99999]","[106,106]",up,1,,,,,,001,2025-03-11_21h35.14.855,SL_sali,2021.2.3,Win32,120.4819277,0.9345,,,77,0,77,0,1,,,,,,,,
,,"[""diamond"",""green"",""hori"",""left"",[0,-150],[150,0]]",diamond,green,hori,left,"[0,-150]","[150,0]",left,1,,,,,,001,2025-03-11_21h35.14.855,SL_sali,2021.2.3,Win32,120.4819277,1.0821,,,78,0,78,0,1,,,,,,,,
,,"[""diamond"",""no_dis"",""vert"",""up"",[99999,99999],[0,-150]]",diamond,no_dis,vert,up,"[99999,99999]","[0,-150]",up,1,,,,,,001,2025-03-11_21h35.14.855,SL_sali,2021.2.3,Win32,120.4819277,0.9342,,,79,0,79,0,1,,,,,,,,
,,"[""diamond"",""green"",""vert"",""up"",[-150,0],[0,-150]]",diamond,green,vert,up,"[-150,0]","[0,-150]",up,1,,,,,,001,2025-03-11_21h35.14.855,SL_sali,2021.2.3,Win32,120.4819277,0.8596,,,80,0,80,0,1,,,,,,,,
,,"[""circle"",""no_dis"",""hori"",""left"",[99999,99999],[106,106]]",circle,no_dis,hori,left,"[99999,99999]","[106,106]",left,1,,,,,,001,2025-03-11_21h35.14.855,SL_sali,2021.2.3,Win32,120.4819277,1.5485,,,81,0,81,0,1,,,,,,,,
,,"[""circle"",""red"",""hori"",""left"",[-106,106],[106,106]]",circle,red,hori,left,"[-106,106]","[106,106]",left,1,,,,,,001,2025-03-11_21h35.14.855,SL_sali,2021.2.3,Win32,120.4819277,0.7847,,,82,0,82,0,1,,,,,,,,
,,"[""circle"",""green"",""hori"",""left"",[106,106],[0,-150]]",circle,green,hori,left,"[106,106]","[0,-150]",left,1,,,,,,001,2025-03-11_21h35.14.855,SL_sali,2021.2.3,Win32,120.4819277,0.868,,,83,0,83,0,1,,,,,,,,
,,"[""diamond"",""red"",""hori"",""left"",[106,-106],[-106,106]]",diamond,red,hori,left,"[106,-106]","[-106,106]",left,1,,,,,,001,2025-03-11_21h35.14.855,SL_sali,2021.2.3,Win32,120.4819277,1.7539,,,84,0,84,0,1,,,,,,,,
,,"[""circle"",""no_dis"",""hori"",""left"",[99999,99999],[-106,-106]]",circle,no_dis,hori,left,"[99999,99999]","[-106,-106]",left,1,,,,,,001,2025-03-11_21h35.14.855,SL_sali,2021.2.3,Win32,120.4819277,1.0743,,,85,0,85,0,1,,,,,,,,
,,"[""circle"",""red"",""hori"",""left"",[0,-150],[-150,0]]",circle,red,hori,left,"[0,-150]","[-150,0]",left,1,,,,,,001,2025-03-11_21h35.14.855,SL_sali,2021.2.3,Win32,120.4819277,1.043,,,86,0,86,0,1,,,,,,,,
,,"[""circle"",""no_dis"",""vert"",""up"",[99999,99999],[150,0]]",circle,no_dis,vert,up,"[99999,99999]","[150,0]",up,1,,,,,,001,2025-03-11_21h35.14.855,SL_sali,2021.2.3,Win32,120.4819277,1.0753,,,87,0,87,0,1,,,,,,,,
,,"[""circle"",""green"",""hori"",""left"",[150,0],[-150,0]]",circle,green,hori,left,"[150,0]","[-150,0]",left,1,,,,,,001,2025-03-11_21h35.14.855,SL_sali,2021.2.3,Win32,120.4819277,0.7054,,,88,0,88,0,1,,,,,,,,
,,"[""diamond"",""no_dis"",""hori"",""left"",[99999,99999],[0,150]]",diamond,no_dis,hori,left,"[99999,99999]","[0,150]",left,1,,,,,,001,2025-03-11_21h35.14.855,SL_sali,2021.2.3,Win32,120.4819277,1.3433,,,89,0,89,0,1,,,,,,,,
,,"[""circle"",""green"",""vert"",""up"",[-106,106],[0,-150]]",circle,green,vert,up,"[-106,106]","[0,-150]",left,0,,,,,,001,2025-03-11_21h35.14.855,SL_sali,2021.2.3,Win32,120.4819277,2.0938,,,90,0,90,0,1,,,,,,,,
,,"[""diamond"",""red"",""vert"",""up"",[-106,106],[-150,0]]",diamond,red,vert,up,"[-106,106]","[-150,0]",up,1,,,,,,001,2025-03-11_21h35.14.855,SL_sali,2021.2.3,Win32,120.4819277,1.4818,,,91,0,91,0,1,,,,,,,,
,,"[""diamond"",""green"",""vert"",""up"",[150,0],[-150,0]]",diamond,green,vert,up,"[150,0]","[-150,0]",up,1,,,,,,001,2025-03-11_21h35.14.855,SL_sali,2021.2.3,Win32,120.4819277,0.752,,,92,0,92,0,1,,,,,,,,
,,"[""circle"",""green"",""vert"",""up"",[106,-106],[-150,0]]",circle,green,vert,up,"[106,-106]","[-150,0]",up,1,,,,,,001,2025-03-11_21h35.14.855,SL_sali,2021.2.3,Win32,120.4819277,1.4354,,,93,0,93,0,1,,,,,,,,
,,"[""diamond"",""no_dis"",""vert"",""up"",[99999,99999],[150,0]]",diamond,no_dis,vert,up,"[99999,99999]","[150,0]",up,1,,,,,,001,2025-03-11_21h35.14.855,SL_sali,2021.2.3,Win32,120.4819277,1.1681,,,94,0,94,0,1,,,,,,,,
,,"[""circle"",""red"",""hori"",""left"",[-150,0],[106,-106]]",circle,red,hori,left,"[-150,0]","[106,-106]",left,1,,,,,,001,2025-03-11_21h35.14.855,SL_sali,2021.2.3,Win32,120.4819277,0.8633,,,95,0,95,0,1,,,,,,,,
,,"[""diamond"",""red"",""hori"",""left"",[106,106],[0,-150]]",diamond,red,hori,left,"[106,106]","[0,-150]",left,1,,,,,,001,2025-03-11_21h35.14.855,SL_sali,2021.2.3,Win32,120.4819277,1.3308,,,96,0,96,0,1,,,,,,,,
,,"[""circle"",""green"",""hori"",""left"",[0,150],[0,-150]]",circle,green,hori,left,"[0,150]","[0,-150]",left,1,,,,,,001,2025-03-11_21h35.14.855,SL_sali,2021.2.3,Win32,120.4819277,0.8933,,,97,0,97,0,1,,,,,,,,
,,"[""circle"",""green"",""vert"",""up"",[-150,0],[150,0]]",circle,green,vert,up,"[-150,0]","[150,0]",up,1,,,,,,001,2025-03-11_21h35.14.855,SL_sali,2021.2.3,Win32,120.4819277,1.9181,,,98,0,98,0,1,,,,,,,,
,,"[""diamond"",""green"",""hori"",""left"",[-106,106],[106,106]]",diamond,green,hori,left,"[-106,106]","[106,106]",left,1,,,,,,001,2025-03-11_21h35.14.855,SL_sali,2021.2.3,Win32,120.4819277,1.5219,,,99,0,99,0,1,,,,,,,,
,,"[""diamond"",""red"",""hori"",""left"",[-106,-106],[0,-150]]",diamond,red,hori,left,"[-106,-106]","[0,-150]",left,1,,,,,,001,2025-03-11_21h35.14.855,SL_sali,2021.2.3,Win32,120.4819277,1.2032,,,100,0,100,0,1,,,,,,,,
,,"[""circle"",""no_dis"",""hori"",""left"",[99999,99999],[106,-106]]",circle,no_dis,hori,left,"[99999,99999]","[106,-106]",left,1,,,,,,001,2025-03-11_21h35.14.855,SL_sali,2021.2.3,Win32,120.4819277,0.8833,,,101,0,101,0,1,,,,,,,,
,,"[""diamond"",""red"",""vert"",""up"",[-150,0],[-106,-106]]",diamond,red,vert,up,"[-150,0]","[-106,-106]",up,1,,,,,,001,2025-03-11_21h35.14.855,SL_sali,2021.2.3,Win32,120.4819277,1.2652,,,102,0,102,0,1,,,,,,,,
,,"[""circle"",""green"",""vert"",""up"",[106,106],[106,-106]]",circle,green,vert,up,"[106,106]","[106,-106]",up,1,,,,,,001,2025-03-11_21h35.14.855,SL_sali,2021.2.3,Win32,120.4819277,1.0928,,,103,0,103,0,1,,,,,,,,
,,"[""circle"",""no_dis"",""vert"",""up"",[99999,99999],[-106,106]]",circle,no_dis,vert,up,"[99999,99999]","[-106,106]",up,1,,,,,,001,2025-03-11_21h35.14.855,SL_sali,2021.2.3,Win32,120.4819277,0.9833,,,104,0,104,0,1,,,,,,,,
,,"[""diamond"",""red"",""vert"",""up"",[0,-150],[-106,-106]]",diamond,red,vert,up,"[0,-150]","[-106,-106]",up,1,,,,,,001,2025-03-11_21h35.14.855,SL_sali,2021.2.3,Win32,120.4819277,1.1804,,,105,0,105,0,1,,,,,,,,
,,"[""circle"",""green"",""hori"",""left"",[0,150],[0,-150]]",circle,green,hori,left,"[0,150]","[0,-150]",left,1,,,,,,001,2025-03-11_21h35.14.855,SL_sali,2021.2.3,Win32,120.4819277,1.2524,,,106,0,106,0,1,,,,,,,,
,,"[""circle"",""red"",""vert"",""up"",[-106,106],[0,-150]]",circle,red,vert,up,"[-106,106]","[0,-150]",left,0,,,,,,001,2025-03-11_21h35.14.855,SL_sali,2021.2.3,Win32,120.4819277,0.8287,,,107,0,107,0,1,,,,,,,,
,,"[""diamond"",""red"",""vert"",""up"",[106,-106],[-150,0]]",diamond,red,vert,up,"[106,-106]","[-150,0]",up,1,,,,,,001,2025-03-11_21h35.14.855,SL_sali,2021.2.3,Win32,120.4819277,1.9498,,,108,0,108,0,1,,,,,,,,
,,"[""diamond"",""no_dis"",""hori"",""left"",[99999,99999],[-150,0]]",diamond,no_dis,hori,left,"[99999,99999]","[-150,0]",left,1,,,,,,001,2025-03-11_21h35.14.855,SL_sali,2021.2.3,Win32,120.4819277,1.2052,,,109,0,109,0,1,,,,,,,,
,,"[""diamond"",""green"",""hori"",""left"",[150,0],[-150,0]]",diamond,green,hori,left,"[150,0]","[-150,0]",up,0,,,,,,001,2025-03-11_21h35.14.855,SL_sali,2021.2.3,Win32,120.4819277,0.8301,,,110,0,110,0,1,,,,,,,,
,,"[""diamond"",""green"",""hori"",""left"",[-106,106],[106,106]]",diamond,green,hori,left,"[-106,106]","[106,106]",left,1,,,,,,001,2025-03-11_21h35.14.855,SL_sali,2021.2.3,Win32,120.4819277,1.0579,,,111,0,111,0,1,,,,,,,,
,,"[""circle"",""no_dis"",""vert"",""up"",[99999,99999],[0,-150]]",circle,no_dis,vert,up,"[99999,99999]","[0,-150]",up,1,,,,,,001,2025-03-11_21h35.14.855,SL_sali,2021.2.3,Win32,120.4819277,1.0168,,,112,0,112,0,1,,,,,,,,
,,"[""circle"",""green"",""hori"",""left"",[-106,106],[-106,-106]]",circle,green,hori,left,"[-106,106]","[-106,-106]",left,1,,,,,,001,2025-03-11_21h35.14.855,SL_sali,2021.2.3,Win32,120.4819277,0.9443,,,113,0,113,0,1,,,,,,,,
,,"[""circle"",""red"",""vert"",""up"",[-106,-106],[106,-106]]",circle,red,vert,up,"[-106,-106]","[106,-106]",up,1,,,,,,001,2025-03-11_21h35.14.855,SL_sali,2021.2.3,Win32,120.4819277,1.1603,,,114,0,114,0,1,,,,,,,,
,,"[""circle"",""red"",""hori"",""left"",[106,-106],[150,0]]",circle,red,hori,left,"[106,-106]","[150,0]",left,1,,,,,,001,2025-03-11_21h35.14.855,SL_sali,2021.2.3,Win32,120.4819277,0.8173,,,115,0,115,0,1,,,,,,,,
,,"[""diamond"",""no_dis"",""hori"",""left"",[99999,99999],[-106,106]]",diamond,no_dis,hori,left,"[99999,99999]","[-106,106]",left,1,,,,,,001,2025-03-11_21h35.14.855,SL_sali,2021.2.3,Win32,120.4819277,1.2426,,,116,0,116,0,1,,,,,,,,
,,"[""diamond"",""no_dis"",""hori"",""left"",[99999,99999],[-150,0]]",diamond,no_dis,hori,left,"[99999,99999]","[-150,0]",left,1,,,,,,001,2025-03-11_21h35.14.855,SL_sali,2021.2.3,Win32,120.4819277,2.1685,,,117,0,117,0,1,,,,,,,,
,,"[""diamond"",""red"",""vert"",""up"",[0,-150],[-106,-106]]",diamond,red,vert,up,"[0,-150]","[-106,-106]",up,1,,,,,,001,2025-03-11_21h35.14.855,SL_sali,2021.2.3,Win32,120.4819277,1.3516,,,118,0,118,0,1,,,,,,,,
,,"[""diamond"",""green"",""hori"",""left"",[106,106],[-106,-106]]",diamond,green,hori,left,"[106,106]","[-106,-106]",left,1,,,,,,001,2025-03-11_21h35.14.855,SL_sali,2021.2.3,Win32,120.4819277,0.9074,,,119,0,119,0,1,,,,,,,,
,,,,,,,,,,,,,,,,001,2025-03-11_21h35.14.855,SL_sali,2021.2.3,Win32,120.4819277,,,,,,,,,3,space,4.3324,2,0,2,0,1
,,"[""circle"",""green"",""hori"",""left"",[150,0],[106,-106]]",circle,green,hori,left,"[150,0]","[106,-106]",,0,,,,,,001,2025-03-11_21h35.14.855,SL_sali,2021.2.3,Win32,120.4819277,,,,0,0,0,0,1,,,,,,,,
,,"[""diamond"",""no_dis"",""vert"",""up"",[99999,99999],[106,106]]",diamond,no_dis,vert,up,"[99999,99999]","[106,106]",left,0,,,,,,001,2025-03-11_21h35.14.855,SL_sali,2021.2.3,Win32,120.4819277,1.2263,,,1,0,1,0,1,,,,,,,,
,,"[""diamond"",""green"",""vert"",""up"",[106,106],[-150,0]]",diamond,green,vert,up,"[106,106]","[-150,0]",up,1,,,,,,001,2025-03-11_21h35.14.855,SL_sali,2021.2.3,Win32,120.4819277,0.7941,,,2,0,2,0,1,,,,,,,,
,,"[""circle"",""red"",""hori"",""left"",[-106,106],[106,106]]",circle,red,hori,left,"[-106,106]","[106,106]",left,1,,,,,,001,2025-03-11_21h35.14.855,SL_sali,2021.2.3,Win32,120.4819277,1.1964,,,3,0,3,0,1,,,,,,,,
,,"[""circle"",""red"",""hori"",""left"",[0,150],[-106,-106]]",circle,red,hori,left,"[0,150]","[-106,-106]",left,1,,,,,,001,2025-03-11_21h35.14.855,SL_sali,2021.2.3,Win32,120.4819277,1.4623,,,4,0,4,0,1,,,,,,,,
,,"[""circle"",""no_dis"",""vert"",""up"",[99999,99999],[106,-106]]",circle,no_dis,vert,up,"[99999,99999]","[106,-106]",up,1,,,,,,001,2025-03-11_21h35.14.855,SL_sali,2021.2.3,Win32,120.4819277,0.9541,,,5,0,5,0,1,,,,,,,,
,,"[""diamond"",""green"",""vert"",""up"",[-150,0],[0,-150]]",diamond,green,vert,up,"[-150,0]","[0,-150]",up,1,,,,,,001,2025-03-11_21h35.14.855,SL_sali,2021.2.3,Win32,120.4819277,0.9589,,,6,0,6,0,1,,,,,,,,
,,"[""diamond"",""no_dis"",""vert"",""up"",[99999,99999],[0,150]]",diamond,no_dis,vert,up,"[99999,99999]","[0,150]",left,0,,,,,,001,2025-03-11_21h35.14.855,SL_sali,2021.2.3,Win32,120.4819277,1.5192,,,7,0,7,0,1,,,,,,,,
,,"[""diamond"",""no_dis"",""hori"",""left"",[99999,99999],[150,0]]",diamond,no_dis,hori,left,"[99999,99999]","[150,0]",left,1,,,,,,001,2025-03-11_21h35.14.855,SL_sali,2021.2.3,Win32,120.4819277,1.1991,,,8,0,8,0,1,,,,,,,,
,,"[""circle"",""green"",""vert"",""up"",[-106,106],[106,106]]",circle,green,vert,up,"[-106,106]","[106,106]",up,1,,,,,,001,2025-03-11_21h35.14.855,SL_sali,2021.2.3,Win32,120.4819277,2.2985,,,9,0,9,0,1,,,,,,,,
,,"[""diamond"",""red"",""hori"",""left"",[106,106],[0,-150]]",diamond,red,hori,left,"[106,106]","[0,-150]",left,1,,,,,,001,2025-03-11_21h35.14.855,SL_sali,2021.2.3,Win32,120.4819277,1.6217,,,10,0,10,0,1,,,,,,,,
,,"[""circle"",""red"",""hori"",""left"",[-106,106],[106,106]]",circle,red,hori,left,"[-106,106]","[106,106]",left,1,,,,,,001,2025-03-11_21h35.14.855,SL_sali,2021.2.3,Win32,120.4819277,0.9086,,,11,0,11,0,1,,,,,,,,
,,"[""circle"",""red"",""hori"",""left"",[-150,0],[106,-106]]",circle,red,hori,left,"[-150,0]","[106,-106]",left,1,,,,,,001,2025-03-11_21h35.14.855,SL_sali,2021.2.3,Win32,120.4819277,0.7755,,,12,0,12,0,1,,,,,,,,
,,"[""diamond"",""red"",""hori"",""left"",[-106,106],[-150,0]]",diamond,red,hori,left,"[-106,106]","[-150,0]",left,1,,,,,,001,2025-03-11_21h35.14.855,SL_sali,2021.2.3,Win32,120.4819277,1.4982,,,13,0,13,0,1,,,,,,,,
,,"[""circle"",""red"",""vert"",""up"",[-106,-106],[106,-106]]",circle,red,vert,up,"[-106,-106]","[106,-106]",up,1,,,,,,001,2025-03-11_21h35.14.855,SL_sali,2021.2.3,Win32,120.4819277,1.5503,,,14,0,14,0,1,,,,,,,,
,,"[""diamond"",""green"",""vert"",""up"",[-106,106],[150,0]]",diamond,green,vert,up,"[-106,106]","[150,0]",up,1,,,,,,001,2025-03-11_21h35.14.855,SL_sali,2021.2.3,Win32,120.4819277,1.1355,,,15,0,15,0,1,,,,,,,,
,,"[""circle"",""no_dis"",""vert"",""up"",[99999,99999],[106,-106]]",circle,no_dis,vert,up,"[99999,99999]","[106,-106]",up,1,,,,,,001,2025-03-11_21h35.14.855,SL_sali,2021.2.3,Win32,120.4819277,1.4828,,,16,0,16,0,1,,,,,,,,
,,"[""circle"",""green"",""vert"",""up"",[106,-106],[-106,106]]",circle,green,vert,up,"[106,-106]","[-106,106]",up,1,,,,,,001,2025-03-11_21h35.14.855,SL_sali,2021.2.3,Win32,120.4819277,2.3503,,,17,0,17,0,1,,,,,,,,
,,"[""diamond"",""no_dis"",""hori"",""left"",[99999,99999],[-150,0]]",diamond,no_dis,hori,left,"[99999,99999]","[-150,0]",left,1,,,,,,001,2025-03-11_21h35.14.855,SL_sali,2021.2.3,Win32,120.4819277,1.3328,,,18,0,18,0,1,,,,,,,,
,,"[""circle"",""red"",""hori"",""left"",[0,150],[106,-106]]",circle,red,hori,left,"[0,150]","[106,-106]",left,1,,,,,,001,2025-03-11_21h35.14.855,SL_sali,2021.2.3,Win32,120.4819277,1.0014,,,19,0,19,0,1,,,,,,,,
,,"[""diamond"",""green"",""vert"",""up"",[150,0],[-106,-106]]",diamond,green,vert,up,"[150,0]","[-106,-106]",up,1,,,,,,001,2025-03-11_21h35.14.855,SL_sali,2021.2.3,Win32,120.4819277,1.0251,,,20,0,20,0,1,,,,,,,,
,,"[""circle"",""red"",""vert"",""up"",[150,0],[-106,106]]",circle,red,vert,up,"[150,0]","[-106,106]",up,1,,,,,,001,2025-03-11_21h35.14.855,SL_sali,2021.2.3,Win32,120.4819277,1.3371,,,21,0,21,0,1,,,,,,,,
,,"[""circle"",""no_dis"",""vert"",""up"",[99999,99999],[-106,106]]",circle,no_dis,vert,up,"[99999,99999]","[-106,106]",up,1,,,,,,001,2025-03-11_21h35.14.855,SL_sali,2021.2.3,Win32,120.4819277,1.284,,,22,0,22,0,1,,,,,,,,
,,"[""circle"",""green"",""hori"",""left"",[106,106],[-106,-106]]",circle,green,hori,left,"[106,106]","[-106,-106]",left,1,,,,,,001,2025-03-11_21h35.14.855,SL_sali,2021.2.3,Win32,120.4819277,1.2569,,,23,0,23,0,1,,,,,,,,
,,"[""diamond"",""red"",""vert"",""up"",[0,150],[-106,106]]",diamond,red,vert,up,"[0,150]","[-106,106]",up,1,,,,,,001,2025-03-11_21h35.14.855,SL_sali,2021.2.3,Win32,120.4819277,1.1328,,,24,0,24,0,1,,,,,,,,
,,"[""circle"",""no_dis"",""hori"",""left"",[99999,99999],[150,0]]",circle,no_dis,hori,left,"[99999,99999]","[150,0]",left,1,,,,,,001,2025-03-11_21h35.14.855,SL_sali,2021.2.3,Win32,120.4819277,1.2394,,,25,0,25,0,1,,,,,,,,
,,"[""diamond"",""red"",""vert"",""up"",[-106,106],[106,-106]]",diamond,red,vert,up,"[-106,106]","[106,-106]",up,1,,,,,,001,2025-03-11_21h35.14.855,SL_sali,2021.2.3,Win32,120.4819277,0.8033,,,26,0,26,0,1,,,,,,,,
,,"[""diamond"",""no_dis"",""vert"",""up"",[99999,99999],[-106,-106]]",diamond,no_dis,vert,up,"[99999,99999]","[-106,-106]",up,1,,,,,,001,2025-03-11_21h35.14.855,SL_sali,2021.2.3,Win32,120.4819277,1.1592,,,27,0,27,0,1,,,,,,,,
,,"[""diamond"",""no_dis"",""vert"",""up"",[99999,99999],[0,-150]]",diamond,no_dis,vert,up,"[99999,99999]","[0,-150]",up,1,,,,,,001,2025-03-11_21h35.14.855,SL_sali,2021.2.3,Win32,120.4819277,1.0249,,,28,0,28,0,1,,,,,,,,
,,"[""diamond"",""red"",""hori"",""left"",[106,-106],[-106,106]]",diamond,red,hori,left,"[106,-106]","[-106,106]",up,0,,,,,,001,2025-03-11_21h35.14.855,SL_sali,2021.2.3,Win32,120.4819277,1.1902,,,29,0,29,0,1,,,,,,,,
,,"[""diamond"",""green"",""vert"",""up"",[150,0],[106,106]]",diamond,green,vert,up,"[150,0]","[106,106]",up,1,,,,,,001,2025-03-11_21h35.14.855,SL_sali,2021.2.3,Win32,120.4819277,1.1505,,,30,0,30,0,1,,,,,,,,
,,"[""diamond"",""red"",""hori"",""left"",[-106,-106],[0,-150]]",diamond,red,hori,left,"[-106,-106]","[0,-150]",left,1,,,,,,001,2025-03-11_21h35.14.855,SL_sali,2021.2.3,Win32,120.4819277,1.1631,,,31,0,31,0,1,,,,,,,,
,,"[""diamond"",""red"",""hori"",""left"",[-106,106],[106,106]]",diamond,red,hori,left,"[-106,106]","[106,106]",left,1,,,,,,001,2025-03-11_21h35.14.855,SL_sali,2021.2.3,Win32,120.4819277,1.3296,,,32,0,32,0,1,,,,,,,,
,,"[""circle"",""green"",""vert"",""up"",[-106,106],[0,-150]]",circle,green,vert,up,"[-106,106]","[0,-150]",up,1,,,,,,001,2025-03-11_21h35.14.855,SL_sali,2021.2.3,Win32,120.4819277,0.8747,,,33,0,33,0,1,,,,,,,,
,,"[""diamond"",""green"",""vert"",""up"",[150,0],[-106,-106]]",diamond,green,vert,up,"[150,0]","[-106,-106]",up,1,,,,,,001,2025-03-11_21h35.14.855,SL_sali,2021.2.3,Win32,120.4819277,0.7847,,,34,0,34,0,1,,,,,,,,
,,"[""diamond"",""no_dis"",""vert"",""up"",[99999,99999],[150,0]]",diamond,no_dis,vert,up,"[99999,99999]","[150,0]",up,1,,,,,,001,2025-03-11_21h35.14.855,SL_sali,2021.2.3,Win32,120.4819277,0.8644,,,35,0,35,0,1,,,,,,,,
,,"[""circle"",""red"",""hori"",""left"",[-150,0],[106,-106]]",circle,red,hori,left,"[-150,0]","[106,-106]",left,1,,,,,,001,2025-03-11_21h35.14.855,SL_sali,2021.2.3,Win32,120.4819277,0.7904,,,36,0,36,0,1,,,,,,,,
,,"[""circle"",""green"",""hori"",""left"",[0,150],[0,-150]]",circle,green,hori,left,"[0,150]","[0,-150]",left,1,,,,,,001,2025-03-11_21h35.14.855,SL_sali,2021.2.3,Win32,120.4819277,1.2989,,,37,0,37,0,1,,,,,,,,
,,"[""circle"",""red"",""vert"",""up"",[-106,106],[0,-150]]",circle,red,vert,up,"[-106,106]","[0,-150]",up,1,,,,,,001,2025-03-11_21h35.14.855,SL_sali,2021.2.3,Win32,120.4819277,0.7247,,,38,0,38,0,1,,,,,,,,
,,"[""circle"",""red"",""hori"",""left"",[0,150],[-106,-106]]",circle,red,hori,left,"[0,150]","[-106,-106]",left,1,,,,,,001,2025-03-11_21h35.14.855,SL_sali,2021.2.3,Win32,120.4819277,0.8701,,,39,0,39,0,1,,,,,,,,
,,"[""circle"",""no_dis"",""hori"",""left"",[99999,99999],[106,106]]",circle,no_dis,hori,left,"[99999,99999]","[106,106]",left,1,,,,,,001,2025-03-11_21h35.14.855,SL_sali,2021.2.3,Win32,120.4819277,0.7471,,,40,0,40,0,1,,,,,,,,
,,"[""diamond"",""green"",""hori"",""left"",[-106,106],[0,-150]]",diamond,green,hori,left,"[-106,106]","[0,-150]",left,1,,,,,,001,2025-03-11_21h35.14.855,SL_sali,2021.2.3,Win32,120.4819277,1.0258,,,41,0,41,0,1,,,,,,,,
,,"[""circle"",""green"",""vert"",""up"",[106,-106],[-150,0]]",circle,green,vert,up,"[106,-106]","[-150,0]",up,1,,,,,,001,2025-03-11_21h35.14.855,SL_sali,2021.2.3,Win32,120.4819277,0.8865,,,42,0,42,0,1,,,,,,,,
,,"[""diamond"",""green"",""vert"",""up"",[106,-106],[-106,-106]]",diamond,green,vert,up,"[106,-106]","[-106,-106]",up,1,,,,,,001,2025-03-11_21h35.14.855,SL_sali,2021.2.3,Win32,120.4819277,1.9238,,,43,0,43,0,1,,,,,,,,
,,"[""diamond"",""green"",""vert"",""up"",[150,0],[-150,0]]",diamond,green,vert,up,"[150,0]","[-150,0]",up,1,,,,,,001,2025-03-11_21h35.14.855,SL_sali,2021.2.3,Win32,120.4819277,1.0001,,,44,0,44,0,1,,,,,,,,
,,"[""diamond"",""red"",""hori"",""left"",[-106,106],[0,150]]",diamond,red,hori,left,"[-106,106]","[0,150]",left,1,,,,,,001,2025-03-11_21h35.14.855,SL_sali,2021.2.3,Win32,120.4819277,1.4113,,,45,0,45,0,1,,,,,,,,
,,"[""circle"",""green"",""hori"",""left"",[150,0],[-150,0]]",circle,green,hori,left,"[150,0]","[-150,0]",left,1,,,,,,001,2025-03-11_21h35.14.855,SL_sali,2021.2.3,Win32,120.4819277,1.2274,,,46,0,46,0,1,,,,,,,,
,,"[""circle"",""green"",""hori"",""left"",[106,106],[-150,0]]",circle,green,hori,left,"[106,106]","[-150,0]",left,1,,,,,,001,2025-03-11_21h35.14.855,SL_sali,2021.2.3,Win32,120.4819277,0.8186,,,47,0,47,0,1,,,,,,,,
,,"[""circle"",""green"",""hori"",""left"",[106,106],[0,-150]]",circle,green,hori,left,"[106,106]","[0,-150]",left,1,,,,,,001,2025-03-11_21h35.14.855,SL_sali,2021.2.3,Win32,120.4819277,0.7522,,,48,0,48,0,1,,,,,,,,
,,"[""diamond"",""green"",""hori"",""left"",[-106,106],[-150,0]]",diamond,green,hori,left,"[-106,106]","[-150,0]",left,1,,,,,,001,2025-03-11_21h35.14.855,SL_sali,2021.2.3,Win32,120.4819277,1.5402,,,49,0,49,0,1,,,,,,,,
,,"[""circle"",""green"",""vert"",""up"",[-106,106],[106,-106]]",circle,green,vert,up,"[-106,106]","[106,-106]",up,1,,,,,,001,2025-03-11_21h35.14.855,SL_sali,2021.2.3,Win32,120.4819277,1.1023,,,50,0,50,0,1,,,,,,,,
,,"[""circle"",""no_dis"",""hori"",""left"",[99999,99999],[-106,106]]",circle,no_dis,hori,left,"[99999,99999]","[-106,106]",left,1,,,,,,001,2025-03-11_21h35.14.855,SL_sali,2021.2.3,Win32,120.4819277,0.8611,,,51,0,51,0,1,,,,,,,,
,,"[""circle"",""green"",""hori"",""left"",[0,150],[0,-150]]",circle,green,hori,left,"[0,150]","[0,-150]",left,1,,,,,,001,2025-03-11_21h35.14.855,SL_sali,2021.2.3,Win32,120.4819277,0.7099,,,52,0,52,0,1,,,,,,,,
,,"[""circle"",""red"",""vert"",""up"",[-150,0],[106,-106]]",circle,red,vert,up,"[-150,0]","[106,-106]",up,1,,,,,,001,2025-03-11_21h35.14.855,SL_sali,2021.2.3,Win32,120.4819277,0.761,,,53,0,53,0,1,,,,,,,,
,,"[""diamond"",""red"",""hori"",""left"",[-106,106],[150,0]]",diamond,red,hori,left,"[-106,106]","[150,0]",left,1,,,,,,001,2025-03-11_21h35.14.855,SL_sali,2021.2.3,Win32,120.4819277,1.6829,,,54,0,54,0,1,,,,,,,,
,,"[""circle"",""green"",""hori"",""left"",[0,150],[-106,106]]",circle,green,hori,left,"[0,150]","[-106,106]",left,1,,,,,,001,2025-03-11_21h35.14.855,SL_sali,2021.2.3,Win32,120.4819277,0.9668,,,55,0,55,0,1,,,,,,,,
,,"[""circle"",""green"",""vert"",""up"",[-106,106],[106,-106]]",circle,green,vert,up,"[-106,106]","[106,-106]",up,1,,,,,,001,2025-03-11_21h35.14.855,SL_sali,2021.2.3,Win32,120.4819277,1.4198,,,56,0,56,0,1,,,,,,,,
,,"[""diamond"",""no_dis"",""vert"",""up"",[99999,99999],[0,-150]]",diamond,no_dis,vert,up,"[99999,99999]","[0,-150]",up,1,,,,,,001,2025-03-11_21h35.14.855,SL_sali,2021.2.3,Win32,120.4819277,0.9278,,,57,0,57,0,1,,,,,,,,
,,"[""diamond"",""no_dis"",""hori"",""left"",[99999,99999],[-150,0]]",diamond,no_dis,hori,left,"[99999,99999]","[-150,0]",left,1,,,,,,001,2025-03-11_21h35.14.855,SL_sali,2021.2.3,Win32,120.4819277,1.4758,,,58,0,58,0,1,,,,,,,,
,,"[""diamond"",""red"",""vert"",""up"",[-150,0],[-106,-106]]",diamond,red,vert,up,"[-150,0]","[-106,-106]",up,1,,,,,,001,2025-03-11_21h35.14.855,SL_sali,2021.2.3,Win32,120.4819277,1.7532,,,59,0,59,0,1,,,,,,,,
,,"[""circle"",""green"",""vert"",""up"",[-106,106],[-106,-106]]",circle,green,vert,up,"[-106,106]","[-106,-106]",up,1,,,,,,001,2025-03-11_21h35.14.855,SL_sali,2021.2.3,Win32,120.4819277,1.3185,,,60,0,60,0,1,,,,,,,,
,,"[""circle"",""red"",""hori"",""left"",[0,-150],[-150,0]]",circle,red,hori,left,"[0,-150]","[-150,0]",up,0,,,,,,001,2025-03-11_21h35.14.855,SL_sali,2021.2.3,Win32,120.4819277,0.9147,,,61,0,61,0,1,,,,,,,,
,,"[""circle"",""red"",""hori"",""left"",[106,-106],[150,0]]",circle,red,hori,left,"[106,-106]","[150,0]",left,1,,,,,,001,2025-03-11_21h35.14.855,SL_sali,2021.2.3,Win32,120.4819277,0.9058,,,62,0,62,0,1,,,,,,,,
,,"[""circle"",""no_dis"",""vert"",""up"",[99999,99999],[0,-150]]",circle,no_dis,vert,up,"[99999,99999]","[0,-150]",up,1,,,,,,001,2025-03-11_21h35.14.855,SL_sali,2021.2.3,Win32,120.4819277,0.7414,,,63,0,63,0,1,,,,,,,,
,,"[""diamond"",""no_dis"",""hori"",""left"",[99999,99999],[-106,106]]",diamond,no_dis,hori,left,"[99999,99999]","[-106,106]",left,1,,,,,,001,2025-03-11_21h35.14.855,SL_sali,2021.2.3,Win32,120.4819277,1.2656,,,64,0,64,0,1,,,,,,,,
,,"[""circle"",""no_dis"",""vert"",""up"",[99999,99999],[-106,106]]",circle,no_dis,vert,up,"[99999,99999]","[-106,106]",up,1,,,,,,001,2025-03-11_21h35.14.855,SL_sali,2021.2.3,Win32,120.4819277,0.7278,,,65,0,65,0,1,,,,,,,,
,,"[""circle"",""no_dis"",""vert"",""up"",[99999,99999],[0,150]]",circle,no_dis,vert,up,"[99999,99999]","[0,150]",up,1,,,,,,001,2025-03-11_21h35.14.855,SL_sali,2021.2.3,Win32,120.4819277,0.8157,,,66,0,66,0,1,,,,,,,,
,,"[""circle"",""no_dis"",""hori"",""left"",[99999,99999],[106,106]]",circle,no_dis,hori,left,"[99999,99999]","[106,106]",left,1,,,,,,001,2025-03-11_21h35.14.855,SL_sali,2021.2.3,Win32,120.4819277,0.7008,,,67,0,67,0,1,,,,,,,,
,,"[""circle"",""green"",""vert"",""up"",[-150,0],[150,0]]",circle,green,vert,up,"[-150,0]","[150,0]",up,1,,,,,,001,2025-03-11_21h35.14.855,SL_sali,2021.2.3,Win32,120.4819277,0.9946,,,68,0,68,0,1,,,,,,,,
,,"[""diamond"",""green"",""hori"",""left"",[-106,106],[106,106]]",diamond,green,hori,left,"[-106,106]","[106,106]",left,1,,,,,,001,2025-03-11_21h35.14.855,SL_sali,2021.2.3,Win32,120.4819277,1.2085,,,69,0,69,0,1,,,,,,,,
,,"[""circle"",""green"",""vert"",""up"",[106,106],[106,-106]]",circle,green,vert,up,"[106,106]","[106,-106]",up,1,,,,,,001,2025-03-11_21h35.14.855,SL_sali,2021.2.3,Win32,120.4819277,0.952,,,70,0,70,0,1,,,,,,,,
,,"[""circle"",""red"",""hori"",""left"",[106,106],[-106,-106]]",circle,red,hori,left,"[106,106]","[-106,-106]",left,1,,,,,,001,2025-03-11_21h35.14.855,SL_sali,2021.2.3,Win32,120.4819277,0.8783,,,71,0,71,0,1,,,,,,,,
,,"[""diamond"",""green"",""hori"",""left"",[-106,106],[106,106]]",diamond,green,hori,left,"[-106,106]","[106,106]",up,0,,,,,,001,2025-03-11_21h35.14.855,SL_sali,2021.2.3,Win32,120.4819277,0.8848,,,72,0,72,0,1,,,,,,,,
,,"[""diamond"",""red"",""vert"",""up"",[106,-106],[0,-150]]",diamond,red,vert,up,"[106,-106]","[0,-150]",up,1,,,,,,001,2025-03-11_21h35.14.855,SL_sali,2021.2.3,Win32,120.4819277,2.259,,,73,0,73,0,1,,,,,,,,
,,"[""diamond"",""red"",""vert"",""up"",[0,-150],[-106,-106]]",diamond,red,vert,up,"[0,-150]","[-106,-106]",left,0,,,,,,001,2025-03-11_21h35.14.855,SL_sali,2021.2.3,Win32,120.4819277,1.1207,,,74,0,74,0,1,,,,,,,,
,,"[""diamond"",""no_dis"",""hori"",""left"",[99999,99999],[-106,-106]]",diamond,no_dis,hori,left,"[99999,99999]","[-106,-106]",left,1,,,,,,001,2025-03-11_21h35.14.855,SL_sali,2021.2.3,Win32,120.4819277,1.0135,,,75,0,75,0,1,,,,,,,,
,,"[""circle"",""green"",""hori"",""left"",[-106,106],[-106,-106]]",circle,green,hori,left,"[-106,106]","[-106,-106]",left,1,,,,,,001,2025-03-11_21h35.14.855,SL_sali,2021.2.3,Win32,120.4819277,0.9757,,,76,0,76,0,1,,,,,,,,
,,"[""diamond"",""green"",""hori"",""left"",[-106,-106],[0,150]]",diamond,green,hori,left,"[-106,-106]","[0,150]",left,1,,,,,,001,2025-03-11_21h35.14.855,SL_sali,2021.2.3,Win32,120.4819277,1.8229,,,77,0,77,0,1,,,,,,,,
,,"[""circle"",""red"",""vert"",""up"",[-106,106],[106,-106]]",circle,red,vert,up,"[-106,106]","[106,-106]",up,1,,,,,,001,2025-03-11_21h35.14.855,SL_sali,2021.2.3,Win32,120.4819277,0.8391,,,78,0,78,0,1,,,,,,,,
,,"[""circle"",""red"",""vert"",""up"",[0,-150],[-106,106]]",circle,red,vert,up,"[0,-150]","[-106,106]",up,1,,,,,,001,2025-03-11_21h35.14.855,SL_sali,2021.2.3,Win32,120.4819277,1.0597,,,79,0,79,0,1,,,,,,,,
,,"[""diamond"",""no_dis"",""hori"",""left"",[99999,99999],[0,150]]",diamond,no_dis,hori,left,"[99999,99999]","[0,150]",left,1,,,,,,001,2025-03-11_21h35.14.855,SL_sali,2021.2.3,Win32,120.4819277,0.9936,,,80,0,80,0,1,,,,,,,,
,,"[""circle"",""green"",""vert"",""up"",[-106,-106],[-150,0]]",circle,green,vert,up,"[-106,-106]","[-150,0]",up,1,,,,,,001,2025-03-11_21h35.14.855,SL_sali,2021.2.3,Win32,120.4819277,1.6005,,,81,0,81,0,1,,,,,,,,
,,"[""diamond"",""no_dis"",""hori"",""left"",[99999,99999],[0,-150]]",diamond,no_dis,hori,left,"[99999,99999]","[0,-150]",left,1,,,,,,001,2025-03-11_21h35.14.855,SL_sali,2021.2.3,Win32,120.4819277,0.9792,,,82,0,82,0,1,,,,,,,,
,,"[""diamond"",""no_dis"",""hori"",""left"",[99999,99999],[-150,0]]",diamond,no_dis,hori,left,"[99999,99999]","[-150,0]",left,1,,,,,,001,2025-03-11_21h35.14.855,SL_sali,2021.2.3,Win32,120.4819277,1.083,,,83,0,83,0,1,,,,,,,,
,,"[""circle"",""no_dis"",""hori"",""left"",[99999,99999],[0,150]]",circle,no_dis,hori,left,"[99999,99999]","[0,150]",left,1,,,,,,001,2025-03-11_21h35.14.855,SL_sali,2021.2.3,Win32,120.4819277,2.2137,,,84,0,84,0,1,,,,,,,,
,,"[""diamond"",""red"",""hori"",""left"",[0,-150],[150,0]]",diamond,red,hori,left,"[0,-150]","[150,0]",left,1,,,,,,001,2025-03-11_21h35.14.855,SL_sali,2021.2.3,Win32,120.4819277,1.3,,,85,0,85,0,1,,,,,,,,
,,"[""diamond"",""red"",""vert"",""up"",[-106,-106],[0,-150]]",diamond,red,vert,up,"[-106,-106]","[0,-150]",up,1,,,,,,001,2025-03-11_21h35.14.855,SL_sali,2021.2.3,Win32,120.4819277,0.9678,,,86,0,86,0,1,,,,,,,,
,,"[""circle"",""no_dis"",""vert"",""up"",[99999,99999],[106,-106]]",circle,no_dis,vert,up,"[99999,99999]","[106,-106]",up,1,,,,,,001,2025-03-11_21h35.14.855,SL_sali,2021.2.3,Win32,120.4819277,0.8146,,,87,0,87,0,1,,,,,,,,
,,"[""circle"",""no_dis"",""vert"",""up"",[99999,99999],[0,-150]]",circle,no_dis,vert,up,"[99999,99999]","[0,-150]",up,1,,,,,,001,2025-03-11_21h35.14.855,SL_sali,2021.2.3,Win32,120.4819277,0.7918,,,88,0,88,0,1,,,,,,,,
