﻿key_resp.keys,key_resp.rt,trial_para,tar_shape,dis_color_condi,tar_line,cor_resp,dis_loc,tar_loc,resp.keys,resp.corr,trials.thisRepN,trials.thisTrialN,trials.thisN,trials.thisIndex,trials.ran,participant,date,expName,psychopyVersion,OS,frameRate,resp.rt,key_resp_2.keys,key_resp_2.rt,trials_2.thisRepN,trials_2.thisTrialN,trials_2.thisN,trials_2.thisIndex,trials_2.ran,block_num,key_resp_3.keys,key_resp_3.rt,trials_3.thisRepN,trials_3.thisTrialN,trials_3.thisN,trials_3.thisIndex,trials_3.ran
space,20.3177,"[""circle"",""green"",""hori"",""left"",[-150,0],[-106,106]]",circle,green,hori,left,"[-150,0]","[-106,106]",,0,0,0,0,0,1,001,2025-03-10_21h18.45.647,SL_sali,2021.2.3,Win32,60.60606061,,,,,,,,,,,,,,,,
,,"[""diamond"",""no_dis"",""vert"",""up"",[99999,99999],[106,-106]]",diamond,no_dis,vert,up,"[99999,99999]","[106,-106]",up,1,1,0,1,0,1,001,2025-03-10_21h18.45.647,SL_sali,2021.2.3,Win32,60.60606061,1.5291,,,,,,,,,,,,,,,
,,"[""circle"",""green"",""hori"",""left"",[-106,106],[-150,0]]",circle,green,hori,left,"[-106,106]","[-150,0]",,0,2,0,2,0,1,001,2025-03-10_21h18.45.647,SL_sali,2021.2.3,Win32,60.60606061,,,,,,,,,,,,,,,,
,,"[""diamond"",""no_dis"",""vert"",""up"",[99999,99999],[150,0]]",diamond,no_dis,vert,up,"[99999,99999]","[150,0]",up,1,3,0,3,0,1,001,2025-03-10_21h18.45.647,SL_sali,2021.2.3,Win32,60.60606061,1.6852,,,,,,,,,,,,,,,
,,"[""circle"",""no_dis"",""vert"",""up"",[99999,99999],[-150,0]]",circle,no_dis,vert,up,"[99999,99999]","[-150,0]",up,1,4,0,4,0,1,001,2025-03-10_21h18.45.647,SL_sali,2021.2.3,Win32,60.60606061,2.8663,,,,,,,,,,,,,,,
,,"[""circle"",""green"",""vert"",""up"",[-150,0],[106,-106]]",circle,green,vert,up,"[-150,0]","[106,-106]",up,1,5,0,5,0,1,001,2025-03-10_21h18.45.647,SL_sali,2021.2.3,Win32,60.60606061,1.4491,,,,,,,,,,,,,,,
,,"[""circle"",""green"",""vert"",""up"",[0,-150],[-106,-106]]",circle,green,vert,up,"[0,-150]","[-106,-106]",up,1,6,0,6,0,1,001,2025-03-10_21h18.45.647,SL_sali,2021.2.3,Win32,60.60606061,2.1167,,,,,,,,,,,,,,,
,,"[""diamond"",""red"",""hori"",""left"",[0,-150],[106,106]]",diamond,red,hori,left,"[0,-150]","[106,106]",,0,7,0,7,0,1,001,2025-03-10_21h18.45.647,SL_sali,2021.2.3,Win32,60.60606061,,,,,,,,,,,,,,,,
,,"[""circle"",""green"",""vert"",""up"",[106,106],[106,-106]]",circle,green,vert,up,"[106,106]","[106,-106]",up,1,8,0,8,0,1,001,2025-03-10_21h18.45.647,SL_sali,2021.2.3,Win32,60.60606061,1.7262,,,,,,,,,,,,,,,
,,"[""diamond"",""no_dis"",""vert"",""up"",[99999,99999],[106,106]]",diamond,no_dis,vert,up,"[99999,99999]","[106,106]",up,1,9,0,9,0,1,001,2025-03-10_21h18.45.647,SL_sali,2021.2.3,Win32,60.60606061,2.6396,,,,,,,,,,,,,,,
,,"[""circle"",""green"",""hori"",""left"",[-150,0],[-106,106]]",circle,green,hori,left,"[-150,0]","[-106,106]",left,1,,,,,,001,2025-03-10_21h18.45.647,SL_sali,2021.2.3,Win32,60.60606061,2.5371,space,6.0748,0,0,0,0,1,,,,,,,,
,,"[""diamond"",""no_dis"",""vert"",""up"",[99999,99999],[106,-106]]",diamond,no_dis,vert,up,"[99999,99999]","[106,-106]",up,1,,,,,,001,2025-03-10_21h18.45.647,SL_sali,2021.2.3,Win32,60.60606061,2.3598,,,1,0,1,0,1,,,,,,,,
,,"[""circle"",""green"",""hori"",""left"",[-106,106],[-150,0]]",circle,green,hori,left,"[-106,106]","[-150,0]",left,1,,,,,,001,2025-03-10_21h18.45.647,SL_sali,2021.2.3,Win32,60.60606061,1.4667,,,2,0,2,0,1,,,,,,,,
,,"[""diamond"",""no_dis"",""vert"",""up"",[99999,99999],[150,0]]",diamond,no_dis,vert,up,"[99999,99999]","[150,0]",up,1,,,,,,001,2025-03-10_21h18.45.647,SL_sali,2021.2.3,Win32,60.60606061,1.1998,,,3,0,3,0,1,,,,,,,,
,,"[""circle"",""no_dis"",""vert"",""up"",[99999,99999],[-150,0]]",circle,no_dis,vert,up,"[99999,99999]","[-150,0]",up,1,,,,,,001,2025-03-10_21h18.45.647,SL_sali,2021.2.3,Win32,60.60606061,1.0391,,,4,0,4,0,1,,,,,,,,
,,"[""circle"",""green"",""vert"",""up"",[-150,0],[106,-106]]",circle,green,vert,up,"[-150,0]","[106,-106]",up,1,,,,,,001,2025-03-10_21h18.45.647,SL_sali,2021.2.3,Win32,60.60606061,1.1891,,,5,0,5,0,1,,,,,,,,
,,"[""circle"",""green"",""vert"",""up"",[0,-150],[-106,-106]]",circle,green,vert,up,"[0,-150]","[-106,-106]",up,1,,,,,,001,2025-03-10_21h18.45.647,SL_sali,2021.2.3,Win32,60.60606061,1.1112,,,6,0,6,0,1,,,,,,,,
,,"[""diamond"",""red"",""hori"",""left"",[0,-150],[106,106]]",diamond,red,hori,left,"[0,-150]","[106,106]",left,1,,,,,,001,2025-03-10_21h18.45.647,SL_sali,2021.2.3,Win32,60.60606061,2.8039,,,7,0,7,0,1,,,,,,,,
,,"[""circle"",""green"",""vert"",""up"",[106,106],[106,-106]]",circle,green,vert,up,"[106,106]","[106,-106]",up,1,,,,,,001,2025-03-10_21h18.45.647,SL_sali,2021.2.3,Win32,60.60606061,2.3047,,,8,0,8,0,1,,,,,,,,
,,"[""diamond"",""no_dis"",""vert"",""up"",[99999,99999],[106,106]]",diamond,no_dis,vert,up,"[99999,99999]","[106,106]",left,0,,,,,,001,2025-03-10_21h18.45.647,SL_sali,2021.2.3,Win32,60.60606061,1.8698,,,9,0,9,0,1,,,,,,,,
,,"[""circle"",""red"",""hori"",""left"",[0,150],[-106,106]]",circle,red,hori,left,"[0,150]","[-106,106]",left,1,,,,,,001,2025-03-10_21h18.45.647,SL_sali,2021.2.3,Win32,60.60606061,2.7085,,,10,0,10,0,1,,,,,,,,
,,"[""circle"",""red"",""hori"",""left"",[-106,106],[0,150]]",circle,red,hori,left,"[-106,106]","[0,150]",left,1,,,,,,001,2025-03-10_21h18.45.647,SL_sali,2021.2.3,Win32,60.60606061,1.9372,,,11,0,11,0,1,,,,,,,,
,,"[""circle"",""no_dis"",""hori"",""left"",[99999,99999],[0,150]]",circle,no_dis,hori,left,"[99999,99999]","[0,150]",left,1,,,,,,001,2025-03-10_21h18.45.647,SL_sali,2021.2.3,Win32,60.60606061,1.5787,,,12,0,12,0,1,,,,,,,,
,,"[""diamond"",""no_dis"",""vert"",""up"",[99999,99999],[150,0]]",diamond,no_dis,vert,up,"[99999,99999]","[150,0]",up,1,,,,,,001,2025-03-10_21h18.45.647,SL_sali,2021.2.3,Win32,60.60606061,2.772,,,13,0,13,0,1,,,,,,,,
,,"[""circle"",""no_dis"",""vert"",""up"",[99999,99999],[106,106]]",circle,no_dis,vert,up,"[99999,99999]","[106,106]",up,1,,,,,,001,2025-03-10_21h18.45.647,SL_sali,2021.2.3,Win32,60.60606061,1.4684,,,14,0,14,0,1,,,,,,,,
,,"[""diamond"",""red"",""vert"",""up"",[106,-106],[150,0]]",diamond,red,vert,up,"[106,-106]","[150,0]",up,1,,,,,,001,2025-03-10_21h18.45.647,SL_sali,2021.2.3,Win32,60.60606061,2.6325,,,15,0,15,0,1,,,,,,,,
,,"[""diamond"",""no_dis"",""vert"",""up"",[99999,99999],[0,-150]]",diamond,no_dis,vert,up,"[99999,99999]","[0,-150]",up,1,,,,,,001,2025-03-10_21h18.45.647,SL_sali,2021.2.3,Win32,60.60606061,1.2335,,,16,0,16,0,1,,,,,,,,
,,"[""circle"",""green"",""hori"",""left"",[106,106],[-106,-106]]",circle,green,hori,left,"[106,106]","[-106,-106]",left,1,,,,,,001,2025-03-10_21h18.45.647,SL_sali,2021.2.3,Win32,60.60606061,1.817,,,17,0,17,0,1,,,,,,,,
,,"[""diamond"",""red"",""vert"",""up"",[-106,-106],[150,0]]",diamond,red,vert,up,"[-106,-106]","[150,0]",up,1,,,,,,001,2025-03-10_21h18.45.647,SL_sali,2021.2.3,Win32,60.60606061,1.3989,,,18,0,18,0,1,,,,,,,,
,,"[""diamond"",""no_dis"",""hori"",""left"",[99999,99999],[-106,-106]]",diamond,no_dis,hori,left,"[99999,99999]","[-106,-106]",left,1,,,,,,001,2025-03-10_21h18.45.647,SL_sali,2021.2.3,Win32,60.60606061,1.2793,,,19,0,19,0,1,,,,,,,,
,,"[""diamond"",""no_dis"",""hori"",""left"",[99999,99999],[-150,0]]",diamond,no_dis,hori,left,"[99999,99999]","[-150,0]",left,1,,,,,,001,2025-03-10_21h18.45.647,SL_sali,2021.2.3,Win32,60.60606061,1.4139,,,20,0,20,0,1,,,,,,,,
,,"[""circle"",""no_dis"",""hori"",""left"",[99999,99999],[-106,-106]]",circle,no_dis,hori,left,"[99999,99999]","[-106,-106]",left,1,,,,,,001,2025-03-10_21h18.45.647,SL_sali,2021.2.3,Win32,60.60606061,1.5785,,,21,0,21,0,1,,,,,,,,
,,"[""circle"",""red"",""hori"",""left"",[106,-106],[106,106]]",circle,red,hori,left,"[106,-106]","[106,106]",left,1,,,,,,001,2025-03-10_21h18.45.647,SL_sali,2021.2.3,Win32,60.60606061,2.4219,,,22,0,22,0,1,,,,,,,,
,,"[""diamond"",""red"",""vert"",""up"",[150,0],[106,-106]]",diamond,red,vert,up,"[150,0]","[106,-106]",up,1,,,,,,001,2025-03-10_21h18.45.647,SL_sali,2021.2.3,Win32,60.60606061,1.2853,,,23,0,23,0,1,,,,,,,,
,,"[""circle"",""no_dis"",""vert"",""up"",[99999,99999],[0,150]]",circle,no_dis,vert,up,"[99999,99999]","[0,150]",up,1,,,,,,001,2025-03-10_21h18.45.647,SL_sali,2021.2.3,Win32,60.60606061,1.3644,,,24,0,24,0,1,,,,,,,,
,,"[""circle"",""red"",""hori"",""left"",[-150,0],[106,-106]]",circle,red,hori,left,"[-150,0]","[106,-106]",left,1,,,,,,001,2025-03-10_21h18.45.647,SL_sali,2021.2.3,Win32,60.60606061,1.9716,,,25,0,25,0,1,,,,,,,,
,,"[""circle"",""green"",""hori"",""left"",[0,150],[150,0]]",circle,green,hori,left,"[0,150]","[150,0]",left,1,,,,,,001,2025-03-10_21h18.45.647,SL_sali,2021.2.3,Win32,60.60606061,0.9913,,,26,0,26,0,1,,,,,,,,
,,"[""diamond"",""green"",""vert"",""up"",[0,150],[106,106]]",diamond,green,vert,up,"[0,150]","[106,106]",up,1,,,,,,001,2025-03-10_21h18.45.647,SL_sali,2021.2.3,Win32,60.60606061,1.7393,,,27,0,27,0,1,,,,,,,,
,,"[""circle"",""red"",""vert"",""up"",[-106,-106],[-106,106]]",circle,red,vert,up,"[-106,-106]","[-106,106]",up,1,,,,,,001,2025-03-10_21h18.45.647,SL_sali,2021.2.3,Win32,60.60606061,2.0823,,,28,0,28,0,1,,,,,,,,
,,"[""diamond"",""no_dis"",""hori"",""left"",[99999,99999],[0,150]]",diamond,no_dis,hori,left,"[99999,99999]","[0,150]",left,1,,,,,,001,2025-03-10_21h18.45.647,SL_sali,2021.2.3,Win32,60.60606061,1.1174,,,29,0,29,0,1,,,,,,,,
,,"[""diamond"",""green"",""vert"",""up"",[-106,-106],[106,106]]",diamond,green,vert,up,"[-106,-106]","[106,106]",up,1,,,,,,001,2025-03-10_21h18.45.647,SL_sali,2021.2.3,Win32,60.60606061,1.3329,,,30,0,30,0,1,,,,,,,,
,,"[""circle"",""green"",""vert"",""up"",[-106,-106],[150,0]]",circle,green,vert,up,"[-106,-106]","[150,0]",up,1,,,,,,001,2025-03-10_21h18.45.647,SL_sali,2021.2.3,Win32,60.60606061,1.805,,,31,0,31,0,1,,,,,,,,
,,"[""diamond"",""green"",""vert"",""up"",[0,150],[150,0]]",diamond,green,vert,up,"[0,150]","[150,0]",up,1,,,,,,001,2025-03-10_21h18.45.647,SL_sali,2021.2.3,Win32,60.60606061,1.21,,,32,0,32,0,1,,,,,,,,
,,"[""circle"",""no_dis"",""vert"",""up"",[99999,99999],[-150,0]]",circle,no_dis,vert,up,"[99999,99999]","[-150,0]",up,1,,,,,,001,2025-03-10_21h18.45.647,SL_sali,2021.2.3,Win32,60.60606061,1.2828,,,33,0,33,0,1,,,,,,,,
,,"[""diamond"",""green"",""hori"",""left"",[0,150],[106,106]]",diamond,green,hori,left,"[0,150]","[106,106]",left,1,,,,,,001,2025-03-10_21h18.45.647,SL_sali,2021.2.3,Win32,60.60606061,1.5253,,,34,0,34,0,1,,,,,,,,
,,"[""diamond"",""red"",""vert"",""up"",[0,-150],[150,0]]",diamond,red,vert,up,"[0,-150]","[150,0]",up,1,,,,,,001,2025-03-10_21h18.45.647,SL_sali,2021.2.3,Win32,60.60606061,1.1996,,,35,0,35,0,1,,,,,,,,
,,"[""circle"",""red"",""hori"",""left"",[0,150],[106,106]]",circle,red,hori,left,"[0,150]","[106,106]",left,1,,,,,,001,2025-03-10_21h18.45.647,SL_sali,2021.2.3,Win32,60.60606061,1.6259,,,36,0,36,0,1,,,,,,,,
,,"[""circle"",""green"",""vert"",""up"",[0,150],[-150,0]]",circle,green,vert,up,"[0,150]","[-150,0]",up,1,,,,,,001,2025-03-10_21h18.45.647,SL_sali,2021.2.3,Win32,60.60606061,1.2086,,,37,0,37,0,1,,,,,,,,
,,"[""circle"",""green"",""hori"",""left"",[0,-150],[-150,0]]",circle,green,hori,left,"[0,-150]","[-150,0]",left,1,,,,,,001,2025-03-10_21h18.45.647,SL_sali,2021.2.3,Win32,60.60606061,1.1745,,,38,0,38,0,1,,,,,,,,
,,"[""diamond"",""green"",""vert"",""up"",[-106,-106],[150,0]]",diamond,green,vert,up,"[-106,-106]","[150,0]",up,1,,,,,,001,2025-03-10_21h18.45.647,SL_sali,2021.2.3,Win32,60.60606061,1.1999,,,39,0,39,0,1,,,,,,,,
,,"[""circle"",""green"",""vert"",""up"",[0,150],[-150,0]]",circle,green,vert,up,"[0,150]","[-150,0]",up,1,,,,,,001,2025-03-10_21h18.45.647,SL_sali,2021.2.3,Win32,60.60606061,1.4226,,,40,0,40,0,1,,,,,,,,
,,"[""circle"",""red"",""vert"",""up"",[0,-150],[-150,0]]",circle,red,vert,up,"[0,-150]","[-150,0]",up,1,,,,,,001,2025-03-10_21h18.45.647,SL_sali,2021.2.3,Win32,60.60606061,1.1118,,,41,0,41,0,1,,,,,,,,
,,"[""diamond"",""no_dis"",""hori"",""left"",[99999,99999],[-106,-106]]",diamond,no_dis,hori,left,"[99999,99999]","[-106,-106]",left,1,,,,,,001,2025-03-10_21h18.45.647,SL_sali,2021.2.3,Win32,60.60606061,2.2191,,,42,0,42,0,1,,,,,,,,
,,"[""circle"",""red"",""vert"",""up"",[-106,106],[-150,0]]",circle,red,vert,up,"[-106,106]","[-150,0]",up,1,,,,,,001,2025-03-10_21h18.45.647,SL_sali,2021.2.3,Win32,60.60606061,1.0637,,,43,0,43,0,1,,,,,,,,
,,"[""diamond"",""red"",""vert"",""up"",[0,150],[0,-150]]",diamond,red,vert,up,"[0,150]","[0,-150]",up,1,,,,,,001,2025-03-10_21h18.45.647,SL_sali,2021.2.3,Win32,60.60606061,1.7836,,,44,0,44,0,1,,,,,,,,
,,"[""diamond"",""red"",""vert"",""up"",[-150,0],[0,-150]]",diamond,red,vert,up,"[-150,0]","[0,-150]",up,1,,,,,,001,2025-03-10_21h18.45.647,SL_sali,2021.2.3,Win32,60.60606061,1.268,,,45,0,45,0,1,,,,,,,,
,,"[""circle"",""no_dis"",""hori"",""left"",[99999,99999],[0,-150]]",circle,no_dis,hori,left,"[99999,99999]","[0,-150]",left,1,,,,,,001,2025-03-10_21h18.45.647,SL_sali,2021.2.3,Win32,60.60606061,1.4662,,,46,0,46,0,1,,,,,,,,
,,"[""diamond"",""no_dis"",""vert"",""up"",[99999,99999],[-106,106]]",diamond,no_dis,vert,up,"[99999,99999]","[-106,106]",up,1,,,,,,001,2025-03-10_21h18.45.647,SL_sali,2021.2.3,Win32,60.60606061,2.1356,,,47,0,47,0,1,,,,,,,,
,,"[""circle"",""green"",""vert"",""up"",[150,0],[0,-150]]",circle,green,vert,up,"[150,0]","[0,-150]",up,1,,,,,,001,2025-03-10_21h18.45.647,SL_sali,2021.2.3,Win32,60.60606061,1.1698,,,48,0,48,0,1,,,,,,,,
,,"[""diamond"",""red"",""hori"",""left"",[-106,106],[0,150]]",diamond,red,hori,left,"[-106,106]","[0,150]",left,1,,,,,,001,2025-03-10_21h18.45.647,SL_sali,2021.2.3,Win32,60.60606061,1.7,,,49,0,49,0,1,,,,,,,,
,,"[""diamond"",""green"",""hori"",""left"",[106,106],[150,0]]",diamond,green,hori,left,"[106,106]","[150,0]",left,1,,,,,,001,2025-03-10_21h18.45.647,SL_sali,2021.2.3,Win32,60.60606061,1.3331,,,50,0,50,0,1,,,,,,,,
,,"[""diamond"",""no_dis"",""hori"",""left"",[99999,99999],[0,-150]]",diamond,no_dis,hori,left,"[99999,99999]","[0,-150]",left,1,,,,,,001,2025-03-10_21h18.45.647,SL_sali,2021.2.3,Win32,60.60606061,1.3688,,,51,0,51,0,1,,,,,,,,
,,"[""circle"",""green"",""vert"",""up"",[0,150],[0,-150]]",circle,green,vert,up,"[0,150]","[0,-150]",up,1,,,,,,001,2025-03-10_21h18.45.647,SL_sali,2021.2.3,Win32,60.60606061,1.1693,,,52,0,52,0,1,,,,,,,,
,,"[""circle"",""red"",""vert"",""up"",[0,150],[150,0]]",circle,red,vert,up,"[0,150]","[150,0]",up,1,,,,,,001,2025-03-10_21h18.45.647,SL_sali,2021.2.3,Win32,60.60606061,1.1963,,,53,0,53,0,1,,,,,,,,
,,"[""circle"",""red"",""vert"",""up"",[150,0],[106,106]]",circle,red,vert,up,"[150,0]","[106,106]",up,1,,,,,,001,2025-03-10_21h18.45.647,SL_sali,2021.2.3,Win32,60.60606061,0.8376,,,54,0,54,0,1,,,,,,,,
,,"[""diamond"",""green"",""vert"",""up"",[0,150],[-106,-106]]",diamond,green,vert,up,"[0,150]","[-106,-106]",up,1,,,,,,001,2025-03-10_21h18.45.647,SL_sali,2021.2.3,Win32,60.60606061,1.2625,,,55,0,55,0,1,,,,,,,,
,,"[""circle"",""no_dis"",""hori"",""left"",[99999,99999],[106,106]]",circle,no_dis,hori,left,"[99999,99999]","[106,106]",left,1,,,,,,001,2025-03-10_21h18.45.647,SL_sali,2021.2.3,Win32,60.60606061,1.1677,,,56,0,56,0,1,,,,,,,,
,,"[""diamond"",""red"",""vert"",""up"",[-106,-106],[0,-150]]",diamond,red,vert,up,"[-106,-106]","[0,-150]",up,1,,,,,,001,2025-03-10_21h18.45.647,SL_sali,2021.2.3,Win32,60.60606061,1.7627,,,57,0,57,0,1,,,,,,,,
,,"[""circle"",""no_dis"",""hori"",""left"",[99999,99999],[-106,106]]",circle,no_dis,hori,left,"[99999,99999]","[-106,106]",left,1,,,,,,001,2025-03-10_21h18.45.647,SL_sali,2021.2.3,Win32,60.60606061,0.8569,,,58,0,58,0,1,,,,,,,,
,,"[""circle"",""red"",""hori"",""left"",[0,150],[-150,0]]",circle,red,hori,left,"[0,150]","[-150,0]",left,1,,,,,,001,2025-03-10_21h18.45.647,SL_sali,2021.2.3,Win32,60.60606061,1.5642,,,59,0,59,0,1,,,,,,,,
,,"[""diamond"",""red"",""hori"",""left"",[0,150],[-150,0]]",diamond,red,hori,left,"[0,150]","[-150,0]",left,1,,,,,,001,2025-03-10_21h18.45.647,SL_sali,2021.2.3,Win32,60.60606061,1.2001,,,60,0,60,0,1,,,,,,,,
,,"[""circle"",""green"",""hori"",""left"",[106,106],[0,150]]",circle,green,hori,left,"[106,106]","[0,150]",left,1,,,,,,001,2025-03-10_21h18.45.647,SL_sali,2021.2.3,Win32,60.60606061,2.3835,,,61,0,61,0,1,,,,,,,,
,,"[""diamond"",""no_dis"",""vert"",""up"",[99999,99999],[-106,106]]",diamond,no_dis,vert,up,"[99999,99999]","[-106,106]",up,1,,,,,,001,2025-03-10_21h18.45.647,SL_sali,2021.2.3,Win32,60.60606061,1.4075,,,62,0,62,0,1,,,,,,,,
,,"[""diamond"",""green"",""hori"",""left"",[0,-150],[-106,-106]]",diamond,green,hori,left,"[0,-150]","[-106,-106]",left,1,,,,,,001,2025-03-10_21h18.45.647,SL_sali,2021.2.3,Win32,60.60606061,1.5567,,,63,0,63,0,1,,,,,,,,
,,"[""circle"",""no_dis"",""vert"",""up"",[99999,99999],[0,150]]",circle,no_dis,vert,up,"[99999,99999]","[0,150]",up,1,,,,,,001,2025-03-10_21h18.45.647,SL_sali,2021.2.3,Win32,60.60606061,2.387,,,64,0,64,0,1,,,,,,,,
,,"[""circle"",""no_dis"",""vert"",""up"",[99999,99999],[106,-106]]",circle,no_dis,vert,up,"[99999,99999]","[106,-106]",,0,,,,,,001,2025-03-10_21h18.45.647,SL_sali,2021.2.3,Win32,60.60606061,,,,65,0,65,0,1,,,,,,,,
,,"[""diamond"",""red"",""hori"",""left"",[-106,106],[-106,-106]]",diamond,red,hori,left,"[-106,106]","[-106,-106]",left,1,,,,,,001,2025-03-10_21h18.45.647,SL_sali,2021.2.3,Win32,60.60606061,2.0925,,,66,0,66,0,1,,,,,,,,
,,"[""circle"",""red"",""hori"",""left"",[0,150],[106,-106]]",circle,red,hori,left,"[0,150]","[106,-106]",left,1,,,,,,001,2025-03-10_21h18.45.647,SL_sali,2021.2.3,Win32,60.60606061,1.3292,,,67,0,67,0,1,,,,,,,,
,,"[""circle"",""no_dis"",""hori"",""left"",[99999,99999],[106,-106]]",circle,no_dis,hori,left,"[99999,99999]","[106,-106]",left,1,,,,,,001,2025-03-10_21h18.45.647,SL_sali,2021.2.3,Win32,60.60606061,1.4941,,,68,0,68,0,1,,,,,,,,
,,"[""circle"",""red"",""vert"",""up"",[150,0],[106,-106]]",circle,red,vert,up,"[150,0]","[106,-106]",up,1,,,,,,001,2025-03-10_21h18.45.647,SL_sali,2021.2.3,Win32,60.60606061,1.0798,,,69,0,69,0,1,,,,,,,,
,,"[""diamond"",""green"",""hori"",""left"",[106,106],[0,-150]]",diamond,green,hori,left,"[106,106]","[0,-150]",left,1,,,,,,001,2025-03-10_21h18.45.647,SL_sali,2021.2.3,Win32,60.60606061,1.0856,,,70,0,70,0,1,,,,,,,,
,,"[""diamond"",""green"",""vert"",""up"",[106,-106],[0,150]]",diamond,green,vert,up,"[106,-106]","[0,150]",up,1,,,,,,001,2025-03-10_21h18.45.647,SL_sali,2021.2.3,Win32,60.60606061,1.3149,,,71,0,71,0,1,,,,,,,,
,,"[""diamond"",""green"",""vert"",""up"",[106,106],[150,0]]",diamond,green,vert,up,"[106,106]","[150,0]",up,1,,,,,,001,2025-03-10_21h18.45.647,SL_sali,2021.2.3,Win32,60.60606061,2.3808,,,72,0,72,0,1,,,,,,,,
,,"[""circle"",""red"",""hori"",""left"",[-150,0],[0,-150]]",circle,red,hori,left,"[-150,0]","[0,-150]",left,1,,,,,,001,2025-03-10_21h18.45.647,SL_sali,2021.2.3,Win32,60.60606061,1.6618,,,73,0,73,0,1,,,,,,,,
,,"[""circle"",""no_dis"",""hori"",""left"",[99999,99999],[-106,106]]",circle,no_dis,hori,left,"[99999,99999]","[-106,106]",left,1,,,,,,001,2025-03-10_21h18.45.647,SL_sali,2021.2.3,Win32,60.60606061,0.9766,,,74,0,74,0,1,,,,,,,,
,,"[""diamond"",""green"",""hori"",""left"",[106,106],[-150,0]]",diamond,green,hori,left,"[106,106]","[-150,0]",left,1,,,,,,001,2025-03-10_21h18.45.647,SL_sali,2021.2.3,Win32,60.60606061,1.2429,,,75,0,75,0,1,,,,,,,,
,,"[""diamond"",""no_dis"",""hori"",""left"",[99999,99999],[0,150]]",diamond,no_dis,hori,left,"[99999,99999]","[0,150]",left,1,,,,,,001,2025-03-10_21h18.45.647,SL_sali,2021.2.3,Win32,60.60606061,1.102,,,76,0,76,0,1,,,,,,,,
,,"[""diamond"",""green"",""hori"",""left"",[150,0],[106,-106]]",diamond,green,hori,left,"[150,0]","[106,-106]",left,1,,,,,,001,2025-03-10_21h18.45.647,SL_sali,2021.2.3,Win32,60.60606061,1.1191,,,77,0,77,0,1,,,,,,,,
,,"[""circle"",""no_dis"",""hori"",""left"",[99999,99999],[106,106]]",circle,no_dis,hori,left,"[99999,99999]","[106,106]",left,1,,,,,,001,2025-03-10_21h18.45.647,SL_sali,2021.2.3,Win32,60.60606061,1.243,,,78,0,78,0,1,,,,,,,,
,,"[""circle"",""green"",""hori"",""left"",[150,0],[106,-106]]",circle,green,hori,left,"[150,0]","[106,-106]",left,1,,,,,,001,2025-03-10_21h18.45.647,SL_sali,2021.2.3,Win32,60.60606061,2.3029,,,79,0,79,0,1,,,,,,,,
,,"[""diamond"",""green"",""hori"",""left"",[0,-150],[106,106]]",diamond,green,hori,left,"[0,-150]","[106,106]",left,1,,,,,,001,2025-03-10_21h18.45.647,SL_sali,2021.2.3,Win32,60.60606061,1.9632,,,80,0,80,0,1,,,,,,,,
,,"[""diamond"",""no_dis"",""hori"",""left"",[99999,99999],[-106,-106]]",diamond,no_dis,hori,left,"[99999,99999]","[-106,-106]",left,1,,,,,,001,2025-03-10_21h18.45.647,SL_sali,2021.2.3,Win32,60.60606061,1.666,,,81,0,81,0,1,,,,,,,,
,,"[""diamond"",""green"",""hori"",""left"",[106,-106],[106,106]]",diamond,green,hori,left,"[106,-106]","[106,106]",left,1,,,,,,001,2025-03-10_21h18.45.647,SL_sali,2021.2.3,Win32,60.60606061,0.7405,,,82,0,82,0,1,,,,,,,,
,,"[""diamond"",""red"",""vert"",""up"",[-106,-106],[-106,106]]",diamond,red,vert,up,"[-106,-106]","[-106,106]",left,0,,,,,,001,2025-03-10_21h18.45.647,SL_sali,2021.2.3,Win32,60.60606061,1.163,,,83,0,83,0,1,,,,,,,,
,,"[""circle"",""red"",""hori"",""left"",[150,0],[-150,0]]",circle,red,hori,left,"[150,0]","[-150,0]",up,0,,,,,,001,2025-03-10_21h18.45.647,SL_sali,2021.2.3,Win32,60.60606061,1.2833,,,84,0,84,0,1,,,,,,,,
,,"[""circle"",""green"",""vert"",""up"",[106,-106],[150,0]]",circle,green,vert,up,"[106,-106]","[150,0]",up,1,,,,,,001,2025-03-10_21h18.45.647,SL_sali,2021.2.3,Win32,60.60606061,2.6009,,,85,0,85,0,1,,,,,,,,
,,"[""circle"",""no_dis"",""vert"",""up"",[99999,99999],[106,106]]",circle,no_dis,vert,up,"[99999,99999]","[106,106]",up,1,,,,,,001,2025-03-10_21h18.45.647,SL_sali,2021.2.3,Win32,60.60606061,0.9595,,,86,0,86,0,1,,,,,,,,
,,"[""circle"",""no_dis"",""hori"",""left"",[99999,99999],[150,0]]",circle,no_dis,hori,left,"[99999,99999]","[150,0]",left,1,,,,,,001,2025-03-10_21h18.45.647,SL_sali,2021.2.3,Win32,60.60606061,0.9902,,,87,0,87,0,1,,,,,,,,
,,"[""diamond"",""red"",""vert"",""up"",[0,150],[0,-150]]",diamond,red,vert,up,"[0,150]","[0,-150]",up,1,,,,,,001,2025-03-10_21h18.45.647,SL_sali,2021.2.3,Win32,60.60606061,1.6086,,,88,0,88,0,1,,,,,,,,
,,"[""diamond"",""no_dis"",""hori"",""left"",[99999,99999],[-150,0]]",diamond,no_dis,hori,left,"[99999,99999]","[-150,0]",left,1,,,,,,001,2025-03-10_21h18.45.647,SL_sali,2021.2.3,Win32,60.60606061,1.5431,,,89,0,89,0,1,,,,,,,,
,,"[""circle"",""red"",""vert"",""up"",[-106,106],[-150,0]]",circle,red,vert,up,"[-106,106]","[-150,0]",up,1,,,,,,001,2025-03-10_21h18.45.647,SL_sali,2021.2.3,Win32,60.60606061,1.8869,,,90,0,90,0,1,,,,,,,,
,,"[""circle"",""red"",""vert"",""up"",[-150,0],[150,0]]",circle,red,vert,up,"[-150,0]","[150,0]",up,1,,,,,,001,2025-03-10_21h18.45.647,SL_sali,2021.2.3,Win32,60.60606061,1.6509,,,91,0,91,0,1,,,,,,,,
,,"[""circle"",""green"",""hori"",""left"",[0,150],[-106,-106]]",circle,green,hori,left,"[0,150]","[-106,-106]",left,1,,,,,,001,2025-03-10_21h18.45.647,SL_sali,2021.2.3,Win32,60.60606061,1.3919,,,92,0,92,0,1,,,,,,,,
,,"[""circle"",""no_dis"",""vert"",""up"",[99999,99999],[106,-106]]",circle,no_dis,vert,up,"[99999,99999]","[106,-106]",up,1,,,,,,001,2025-03-10_21h18.45.647,SL_sali,2021.2.3,Win32,60.60606061,1.8535,,,93,0,93,0,1,,,,,,,,
,,"[""diamond"",""red"",""hori"",""left"",[150,0],[0,150]]",diamond,red,hori,left,"[150,0]","[0,150]",left,1,,,,,,001,2025-03-10_21h18.45.647,SL_sali,2021.2.3,Win32,60.60606061,1.8576,,,94,0,94,0,1,,,,,,,,
,,"[""diamond"",""red"",""hori"",""left"",[0,150],[-106,106]]",diamond,red,hori,left,"[0,150]","[-106,106]",left,1,,,,,,001,2025-03-10_21h18.45.647,SL_sali,2021.2.3,Win32,60.60606061,1.6009,,,95,0,95,0,1,,,,,,,,
,,"[""circle"",""green"",""hori"",""left"",[-150,0],[150,0]]",circle,green,hori,left,"[-150,0]","[150,0]",left,1,,,,,,001,2025-03-10_21h18.45.647,SL_sali,2021.2.3,Win32,60.60606061,1.3608,,,96,0,96,0,1,,,,,,,,
,,"[""circle"",""red"",""vert"",""up"",[-106,-106],[0,-150]]",circle,red,vert,up,"[-106,-106]","[0,-150]",up,1,,,,,,001,2025-03-10_21h18.45.647,SL_sali,2021.2.3,Win32,60.60606061,1.5164,,,97,0,97,0,1,,,,,,,,
,,"[""circle"",""no_dis"",""vert"",""up"",[99999,99999],[-106,106]]",circle,no_dis,vert,up,"[99999,99999]","[-106,106]",up,1,,,,,,001,2025-03-10_21h18.45.647,SL_sali,2021.2.3,Win32,60.60606061,1.7493,,,98,0,98,0,1,,,,,,,,
,,"[""circle"",""no_dis"",""vert"",""up"",[99999,99999],[-106,-106]]",circle,no_dis,vert,up,"[99999,99999]","[-106,-106]",up,1,,,,,,001,2025-03-10_21h18.45.647,SL_sali,2021.2.3,Win32,60.60606061,1.0011,,,99,0,99,0,1,,,,,,,,
,,"[""diamond"",""no_dis"",""vert"",""up"",[99999,99999],[-150,0]]",diamond,no_dis,vert,up,"[99999,99999]","[-150,0]",left,0,,,,,,001,2025-03-10_21h18.45.647,SL_sali,2021.2.3,Win32,60.60606061,1.483,,,100,0,100,0,1,,,,,,,,
,,"[""diamond"",""green"",""vert"",""up"",[0,-150],[150,0]]",diamond,green,vert,up,"[0,-150]","[150,0]",up,1,,,,,,001,2025-03-10_21h18.45.647,SL_sali,2021.2.3,Win32,60.60606061,1.5408,,,101,0,101,0,1,,,,,,,,
,,"[""diamond"",""red"",""hori"",""left"",[106,-106],[0,-150]]",diamond,red,hori,left,"[106,-106]","[0,-150]",left,1,,,,,,001,2025-03-10_21h18.45.647,SL_sali,2021.2.3,Win32,60.60606061,2.2163,,,102,0,102,0,1,,,,,,,,
,,"[""diamond"",""green"",""vert"",""up"",[0,150],[-106,106]]",diamond,green,vert,up,"[0,150]","[-106,106]",up,1,,,,,,001,2025-03-10_21h18.45.647,SL_sali,2021.2.3,Win32,60.60606061,1.3918,,,103,0,103,0,1,,,,,,,,
,,"[""diamond"",""no_dis"",""vert"",""up"",[99999,99999],[0,-150]]",diamond,no_dis,vert,up,"[99999,99999]","[0,-150]",up,1,,,,,,001,2025-03-10_21h18.45.647,SL_sali,2021.2.3,Win32,60.60606061,1.2016,,,104,0,104,0,1,,,,,,,,
,,"[""circle"",""no_dis"",""hori"",""left"",[99999,99999],[0,-150]]",circle,no_dis,hori,left,"[99999,99999]","[0,-150]",left,1,,,,,,001,2025-03-10_21h18.45.647,SL_sali,2021.2.3,Win32,60.60606061,1.3496,,,105,0,105,0,1,,,,,,,,
,,"[""diamond"",""green"",""hori"",""left"",[-150,0],[0,150]]",diamond,green,hori,left,"[-150,0]","[0,150]",left,1,,,,,,001,2025-03-10_21h18.45.647,SL_sali,2021.2.3,Win32,60.60606061,2.257,,,106,0,106,0,1,,,,,,,,
,,"[""circle"",""red"",""hori"",""left"",[0,150],[-106,-106]]",circle,red,hori,left,"[0,150]","[-106,-106]",left,1,,,,,,001,2025-03-10_21h18.45.647,SL_sali,2021.2.3,Win32,60.60606061,1.3711,,,107,0,107,0,1,,,,,,,,
,,"[""diamond"",""green"",""vert"",""up"",[0,150],[0,-150]]",diamond,green,vert,up,"[0,150]","[0,-150]",up,1,,,,,,001,2025-03-10_21h18.45.647,SL_sali,2021.2.3,Win32,60.60606061,1.6675,,,108,0,108,0,1,,,,,,,,
,,"[""diamond"",""no_dis"",""hori"",""left"",[99999,99999],[150,0]]",diamond,no_dis,hori,left,"[99999,99999]","[150,0]",left,1,,,,,,001,2025-03-10_21h18.45.647,SL_sali,2021.2.3,Win32,60.60606061,1.9911,,,109,0,109,0,1,,,,,,,,
,,"[""diamond"",""red"",""hori"",""left"",[0,150],[150,0]]",diamond,red,hori,left,"[0,150]","[150,0]",left,1,,,,,,001,2025-03-10_21h18.45.647,SL_sali,2021.2.3,Win32,60.60606061,2.0494,,,110,0,110,0,1,,,,,,,,
,,"[""diamond"",""green"",""hori"",""left"",[0,150],[0,-150]]",diamond,green,hori,left,"[0,150]","[0,-150]",left,1,,,,,,001,2025-03-10_21h18.45.647,SL_sali,2021.2.3,Win32,60.60606061,1.0012,,,111,0,111,0,1,,,,,,,,
,,"[""diamond"",""no_dis"",""vert"",""up"",[99999,99999],[150,0]]",diamond,no_dis,vert,up,"[99999,99999]","[150,0]",up,1,,,,,,001,2025-03-10_21h18.45.647,SL_sali,2021.2.3,Win32,60.60606061,1.0991,,,112,0,112,0,1,,,,,,,,
,,"[""diamond"",""no_dis"",""hori"",""left"",[99999,99999],[106,-106]]",diamond,no_dis,hori,left,"[99999,99999]","[106,-106]",left,1,,,,,,001,2025-03-10_21h18.45.647,SL_sali,2021.2.3,Win32,60.60606061,2.2545,,,113,0,113,0,1,,,,,,,,
,,"[""circle"",""red"",""vert"",""up"",[106,-106],[106,106]]",circle,red,vert,up,"[106,-106]","[106,106]",up,1,,,,,,001,2025-03-10_21h18.45.647,SL_sali,2021.2.3,Win32,60.60606061,1.4556,,,114,0,114,0,1,,,,,,,,
,,"[""diamond"",""red"",""hori"",""left"",[-106,106],[150,0]]",diamond,red,hori,left,"[-106,106]","[150,0]",left,1,,,,,,001,2025-03-10_21h18.45.647,SL_sali,2021.2.3,Win32,60.60606061,1.8676,,,115,0,115,0,1,,,,,,,,
,,"[""circle"",""green"",""hori"",""left"",[106,-106],[106,106]]",circle,green,hori,left,"[106,-106]","[106,106]",left,1,,,,,,001,2025-03-10_21h18.45.647,SL_sali,2021.2.3,Win32,60.60606061,1.6137,,,116,0,116,0,1,,,,,,,,
,,"[""diamond"",""red"",""hori"",""left"",[0,150],[106,106]]",diamond,red,hori,left,"[0,150]","[106,106]",left,1,,,,,,001,2025-03-10_21h18.45.647,SL_sali,2021.2.3,Win32,60.60606061,2.1409,,,117,0,117,0,1,,,,,,,,
,,"[""diamond"",""red"",""vert"",""up"",[106,106],[-106,-106]]",diamond,red,vert,up,"[106,106]","[-106,-106]",up,1,,,,,,001,2025-03-10_21h18.45.647,SL_sali,2021.2.3,Win32,60.60606061,1.2201,,,118,0,118,0,1,,,,,,,,
,,"[""circle"",""green"",""vert"",""up"",[-106,106],[-106,-106]]",circle,green,vert,up,"[-106,106]","[-106,-106]",up,1,,,,,,001,2025-03-10_21h18.45.647,SL_sali,2021.2.3,Win32,60.60606061,1.7171,,,119,0,119,0,1,,,,,,,,
,,,,,,,,,,,,,,,,001,2025-03-10_21h18.45.647,SL_sali,2021.2.3,Win32,60.60606061,,,,,,,,,1,space,47.0628,0,0,0,0,1
,,"[""circle"",""no_dis"",""hori"",""left"",[99999,99999],[106,106]]",circle,no_dis,hori,left,"[99999,99999]","[106,106]",left,1,,,,,,001,2025-03-10_21h18.45.647,SL_sali,2021.2.3,Win32,60.60606061,2.149,,,0,0,0,0,1,,,,,,,,
,,"[""diamond"",""no_dis"",""hori"",""left"",[99999,99999],[106,-106]]",diamond,no_dis,hori,left,"[99999,99999]","[106,-106]",left,1,,,,,,001,2025-03-10_21h18.45.647,SL_sali,2021.2.3,Win32,60.60606061,1.3518,,,1,0,1,0,1,,,,,,,,
,,"[""diamond"",""red"",""vert"",""up"",[-106,-106],[150,0]]",diamond,red,vert,up,"[-106,-106]","[150,0]",up,1,,,,,,001,2025-03-10_21h18.45.647,SL_sali,2021.2.3,Win32,60.60606061,2.1341,,,2,0,2,0,1,,,,,,,,
,,"[""circle"",""red"",""hori"",""left"",[-150,0],[0,-150]]",circle,red,hori,left,"[-150,0]","[0,-150]",left,1,,,,,,001,2025-03-10_21h18.45.647,SL_sali,2021.2.3,Win32,60.60606061,1.378,,,3,0,3,0,1,,,,,,,,
,,"[""circle"",""red"",""hori"",""left"",[150,0],[-150,0]]",circle,red,hori,left,"[150,0]","[-150,0]",left,1,,,,,,001,2025-03-10_21h18.45.647,SL_sali,2021.2.3,Win32,60.60606061,0.9671,,,4,0,4,0,1,,,,,,,,
,,"[""diamond"",""red"",""hori"",""left"",[-106,106],[-106,-106]]",diamond,red,hori,left,"[-106,106]","[-106,-106]",left,1,,,,,,001,2025-03-10_21h18.45.647,SL_sali,2021.2.3,Win32,60.60606061,1.3806,,,5,0,5,0,1,,,,,,,,
,,"[""circle"",""green"",""vert"",""up"",[-106,106],[-106,-106]]",circle,green,vert,up,"[-106,106]","[-106,-106]",up,1,,,,,,001,2025-03-10_21h18.45.647,SL_sali,2021.2.3,Win32,60.60606061,1.0648,,,6,0,6,0,1,,,,,,,,
,,"[""circle"",""no_dis"",""vert"",""up"",[99999,99999],[106,106]]",circle,no_dis,vert,up,"[99999,99999]","[106,106]",up,1,,,,,,001,2025-03-10_21h18.45.647,SL_sali,2021.2.3,Win32,60.60606061,1.4621,,,7,0,7,0,1,,,,,,,,
,,"[""diamond"",""green"",""vert"",""up"",[0,150],[-106,-106]]",diamond,green,vert,up,"[0,150]","[-106,-106]",up,1,,,,,,001,2025-03-10_21h18.45.647,SL_sali,2021.2.3,Win32,60.60606061,1.8191,,,8,0,8,0,1,,,,,,,,
,,"[""circle"",""red"",""vert"",""up"",[-150,0],[150,0]]",circle,red,vert,up,"[-150,0]","[150,0]",up,1,,,,,,001,2025-03-10_21h18.45.647,SL_sali,2021.2.3,Win32,60.60606061,1.2414,,,9,0,9,0,1,,,,,,,,
,,"[""diamond"",""red"",""vert"",""up"",[150,0],[106,-106]]",diamond,red,vert,up,"[150,0]","[106,-106]",up,1,,,,,,001,2025-03-10_21h18.45.647,SL_sali,2021.2.3,Win32,60.60606061,1.6003,,,10,0,10,0,1,,,,,,,,
,,"[""diamond"",""no_dis"",""hori"",""left"",[99999,99999],[-106,-106]]",diamond,no_dis,hori,left,"[99999,99999]","[-106,-106]",left,1,,,,,,001,2025-03-10_21h18.45.647,SL_sali,2021.2.3,Win32,60.60606061,1.6177,,,11,0,11,0,1,,,,,,,,
,,"[""circle"",""green"",""vert"",""up"",[106,106],[106,-106]]",circle,green,vert,up,"[106,106]","[106,-106]",up,1,,,,,,001,2025-03-10_21h18.45.647,SL_sali,2021.2.3,Win32,60.60606061,1.2514,,,12,0,12,0,1,,,,,,,,
,,"[""circle"",""no_dis"",""vert"",""up"",[99999,99999],[-150,0]]",circle,no_dis,vert,up,"[99999,99999]","[-150,0]",up,1,,,,,,001,2025-03-10_21h18.45.647,SL_sali,2021.2.3,Win32,60.60606061,1.3008,,,13,0,13,0,1,,,,,,,,
,,"[""diamond"",""green"",""vert"",""up"",[106,106],[150,0]]",diamond,green,vert,up,"[106,106]","[150,0]",up,1,,,,,,001,2025-03-10_21h18.45.647,SL_sali,2021.2.3,Win32,60.60606061,1.4355,,,14,0,14,0,1,,,,,,,,
,,"[""diamond"",""red"",""vert"",""up"",[106,106],[-106,-106]]",diamond,red,vert,up,"[106,106]","[-106,-106]",up,1,,,,,,001,2025-03-10_21h18.45.647,SL_sali,2021.2.3,Win32,60.60606061,1.6826,,,15,0,15,0,1,,,,,,,,
,,"[""circle"",""green"",""hori"",""left"",[106,106],[-106,-106]]",circle,green,hori,left,"[106,106]","[-106,-106]",left,1,,,,,,001,2025-03-10_21h18.45.647,SL_sali,2021.2.3,Win32,60.60606061,2.2817,,,16,0,16,0,1,,,,,,,,
,,"[""circle"",""red"",""vert"",""up"",[150,0],[106,106]]",circle,red,vert,up,"[150,0]","[106,106]",up,1,,,,,,001,2025-03-10_21h18.45.647,SL_sali,2021.2.3,Win32,60.60606061,2.0485,,,17,0,17,0,1,,,,,,,,
,,"[""circle"",""no_dis"",""hori"",""left"",[99999,99999],[-106,106]]",circle,no_dis,hori,left,"[99999,99999]","[-106,106]",left,1,,,,,,001,2025-03-10_21h18.45.647,SL_sali,2021.2.3,Win32,60.60606061,1.9494,,,18,0,18,0,1,,,,,,,,
,,"[""circle"",""no_dis"",""vert"",""up"",[99999,99999],[106,-106]]",circle,no_dis,vert,up,"[99999,99999]","[106,-106]",up,1,,,,,,001,2025-03-10_21h18.45.647,SL_sali,2021.2.3,Win32,60.60606061,0.9569,,,19,0,19,0,1,,,,,,,,
,,"[""circle"",""green"",""vert"",""up"",[-150,0],[106,-106]]",circle,green,vert,up,"[-150,0]","[106,-106]",up,1,,,,,,001,2025-03-10_21h18.45.647,SL_sali,2021.2.3,Win32,60.60606061,1.6503,,,20,0,20,0,1,,,,,,,,
,,"[""circle"",""red"",""vert"",""up"",[-106,106],[-150,0]]",circle,red,vert,up,"[-106,106]","[-150,0]",up,1,,,,,,001,2025-03-10_21h18.45.647,SL_sali,2021.2.3,Win32,60.60606061,1.4349,,,21,0,21,0,1,,,,,,,,
,,"[""diamond"",""no_dis"",""hori"",""left"",[99999,99999],[0,-150]]",diamond,no_dis,hori,left,"[99999,99999]","[0,-150]",left,1,,,,,,001,2025-03-10_21h18.45.647,SL_sali,2021.2.3,Win32,60.60606061,1.6042,,,22,0,22,0,1,,,,,,,,
,,"[""circle"",""green"",""vert"",""up"",[0,150],[0,-150]]",circle,green,vert,up,"[0,150]","[0,-150]",up,1,,,,,,001,2025-03-10_21h18.45.647,SL_sali,2021.2.3,Win32,60.60606061,1.4957,,,23,0,23,0,1,,,,,,,,
,,"[""circle"",""no_dis"",""hori"",""left"",[99999,99999],[0,150]]",circle,no_dis,hori,left,"[99999,99999]","[0,150]",left,1,,,,,,001,2025-03-10_21h18.45.647,SL_sali,2021.2.3,Win32,60.60606061,2.7493,,,24,0,24,0,1,,,,,,,,
,,"[""diamond"",""no_dis"",""hori"",""left"",[99999,99999],[0,150]]",diamond,no_dis,hori,left,"[99999,99999]","[0,150]",left,1,,,,,,001,2025-03-10_21h18.45.647,SL_sali,2021.2.3,Win32,60.60606061,1.8557,,,25,0,25,0,1,,,,,,,,
,,"[""diamond"",""green"",""hori"",""left"",[0,-150],[-106,-106]]",diamond,green,hori,left,"[0,-150]","[-106,-106]",left,1,,,,,,001,2025-03-10_21h18.45.647,SL_sali,2021.2.3,Win32,60.60606061,1.1227,,,26,0,26,0,1,,,,,,,,
,,"[""diamond"",""red"",""vert"",""up"",[0,150],[0,-150]]",diamond,red,vert,up,"[0,150]","[0,-150]",up,1,,,,,,001,2025-03-10_21h18.45.647,SL_sali,2021.2.3,Win32,60.60606061,1.2004,,,27,0,27,0,1,,,,,,,,
,,"[""diamond"",""no_dis"",""vert"",""up"",[99999,99999],[150,0]]",diamond,no_dis,vert,up,"[99999,99999]","[150,0]",up,1,,,,,,001,2025-03-10_21h18.45.647,SL_sali,2021.2.3,Win32,60.60606061,1.8498,,,28,0,28,0,1,,,,,,,,
,,"[""diamond"",""green"",""hori"",""left"",[106,106],[-150,0]]",diamond,green,hori,left,"[106,106]","[-150,0]",left,1,,,,,,001,2025-03-10_21h18.45.647,SL_sali,2021.2.3,Win32,60.60606061,1.3718,,,29,0,29,0,1,,,,,,,,
,,"[""circle"",""green"",""vert"",""up"",[0,150],[-150,0]]",circle,green,vert,up,"[0,150]","[-150,0]",up,1,,,,,,001,2025-03-10_21h18.45.647,SL_sali,2021.2.3,Win32,60.60606061,1.6956,,,30,0,30,0,1,,,,,,,,
,,"[""diamond"",""green"",""vert"",""up"",[0,150],[0,-150]]",diamond,green,vert,up,"[0,150]","[0,-150]",up,1,,,,,,001,2025-03-10_21h18.45.647,SL_sali,2021.2.3,Win32,60.60606061,1.0499,,,31,0,31,0,1,,,,,,,,
,,"[""diamond"",""no_dis"",""vert"",""up"",[99999,99999],[0,-150]]",diamond,no_dis,vert,up,"[99999,99999]","[0,-150]",up,1,,,,,,001,2025-03-10_21h18.45.647,SL_sali,2021.2.3,Win32,60.60606061,1.2495,,,32,0,32,0,1,,,,,,,,
,,"[""diamond"",""red"",""hori"",""left"",[0,150],[-106,106]]",diamond,red,hori,left,"[0,150]","[-106,106]",left,1,,,,,,001,2025-03-10_21h18.45.647,SL_sali,2021.2.3,Win32,60.60606061,1.9167,,,33,0,33,0,1,,,,,,,,
,,"[""diamond"",""red"",""hori"",""left"",[0,-150],[106,106]]",diamond,red,hori,left,"[0,-150]","[106,106]",left,1,,,,,,001,2025-03-10_21h18.45.647,SL_sali,2021.2.3,Win32,60.60606061,1.0169,,,34,0,34,0,1,,,,,,,,
,,"[""diamond"",""red"",""vert"",""up"",[106,-106],[150,0]]",diamond,red,vert,up,"[106,-106]","[150,0]",up,1,,,,,,001,2025-03-10_21h18.45.647,SL_sali,2021.2.3,Win32,60.60606061,1.3668,,,35,0,35,0,1,,,,,,,,
,,"[""circle"",""red"",""vert"",""up"",[-106,106],[-150,0]]",circle,red,vert,up,"[-106,106]","[-150,0]",up,1,,,,,,001,2025-03-10_21h18.45.647,SL_sali,2021.2.3,Win32,60.60606061,1.2271,,,36,0,36,0,1,,,,,,,,
,,"[""diamond"",""green"",""hori"",""left"",[0,150],[0,-150]]",diamond,green,hori,left,"[0,150]","[0,-150]",left,1,,,,,,001,2025-03-10_21h18.45.647,SL_sali,2021.2.3,Win32,60.60606061,0.972,,,37,0,37,0,1,,,,,,,,
,,"[""diamond"",""red"",""hori"",""left"",[-106,106],[150,0]]",diamond,red,hori,left,"[-106,106]","[150,0]",left,1,,,,,,001,2025-03-10_21h18.45.647,SL_sali,2021.2.3,Win32,60.60606061,1.0762,,,38,0,38,0,1,,,,,,,,
,,"[""diamond"",""green"",""hori"",""left"",[150,0],[106,-106]]",diamond,green,hori,left,"[150,0]","[106,-106]",left,1,,,,,,001,2025-03-10_21h18.45.647,SL_sali,2021.2.3,Win32,60.60606061,1.3336,,,39,0,39,0,1,,,,,,,,
,,"[""diamond"",""red"",""hori"",""left"",[-106,106],[0,150]]",diamond,red,hori,left,"[-106,106]","[0,150]",left,1,,,,,,001,2025-03-10_21h18.45.647,SL_sali,2021.2.3,Win32,60.60606061,1.6665,,,40,0,40,0,1,,,,,,,,
,,"[""circle"",""red"",""hori"",""left"",[0,150],[-150,0]]",circle,red,hori,left,"[0,150]","[-150,0]",left,1,,,,,,001,2025-03-10_21h18.45.647,SL_sali,2021.2.3,Win32,60.60606061,1.3158,,,41,0,41,0,1,,,,,,,,
,,"[""circle"",""no_dis"",""hori"",""left"",[99999,99999],[106,106]]",circle,no_dis,hori,left,"[99999,99999]","[106,106]",left,1,,,,,,001,2025-03-10_21h18.45.647,SL_sali,2021.2.3,Win32,60.60606061,1.3596,,,42,0,42,0,1,,,,,,,,
,,"[""circle"",""red"",""hori"",""left"",[-106,106],[0,150]]",circle,red,hori,left,"[-106,106]","[0,150]",left,1,,,,,,001,2025-03-10_21h18.45.647,SL_sali,2021.2.3,Win32,60.60606061,2.25,,,43,0,43,0,1,,,,,,,,
,,"[""circle"",""no_dis"",""vert"",""up"",[99999,99999],[-150,0]]",circle,no_dis,vert,up,"[99999,99999]","[-150,0]",up,1,,,,,,001,2025-03-10_21h18.45.647,SL_sali,2021.2.3,Win32,60.60606061,1.4581,,,44,0,44,0,1,,,,,,,,
,,"[""diamond"",""red"",""hori"",""left"",[0,150],[-150,0]]",diamond,red,hori,left,"[0,150]","[-150,0]",left,1,,,,,,001,2025-03-10_21h18.45.647,SL_sali,2021.2.3,Win32,60.60606061,1.5332,,,45,0,45,0,1,,,,,,,,
,,"[""circle"",""red"",""hori"",""left"",[0,150],[-106,106]]",circle,red,hori,left,"[0,150]","[-106,106]",left,1,,,,,,001,2025-03-10_21h18.45.647,SL_sali,2021.2.3,Win32,60.60606061,1.6325,,,46,0,46,0,1,,,,,,,,
,,"[""diamond"",""no_dis"",""vert"",""up"",[99999,99999],[106,106]]",diamond,no_dis,vert,up,"[99999,99999]","[106,106]",up,1,,,,,,001,2025-03-10_21h18.45.647,SL_sali,2021.2.3,Win32,60.60606061,0.8167,,,47,0,47,0,1,,,,,,,,
,,"[""circle"",""red"",""vert"",""up"",[-106,-106],[0,-150]]",circle,red,vert,up,"[-106,-106]","[0,-150]",up,1,,,,,,001,2025-03-10_21h18.45.647,SL_sali,2021.2.3,Win32,60.60606061,1.117,,,48,0,48,0,1,,,,,,,,
,,"[""diamond"",""red"",""hori"",""left"",[106,-106],[0,-150]]",diamond,red,hori,left,"[106,-106]","[0,-150]",left,1,,,,,,001,2025-03-10_21h18.45.647,SL_sali,2021.2.3,Win32,60.60606061,1.0667,,,49,0,49,0,1,,,,,,,,
,,"[""diamond"",""red"",""vert"",""up"",[0,-150],[150,0]]",diamond,red,vert,up,"[0,-150]","[150,0]",up,1,,,,,,001,2025-03-10_21h18.45.647,SL_sali,2021.2.3,Win32,60.60606061,0.9832,,,50,0,50,0,1,,,,,,,,
,,"[""circle"",""green"",""hori"",""left"",[106,106],[0,150]]",circle,green,hori,left,"[106,106]","[0,150]",left,1,,,,,,001,2025-03-10_21h18.45.647,SL_sali,2021.2.3,Win32,60.60606061,1.1167,,,51,0,51,0,1,,,,,,,,
,,"[""diamond"",""green"",""hori"",""left"",[0,-150],[106,106]]",diamond,green,hori,left,"[0,-150]","[106,106]",left,1,,,,,,001,2025-03-10_21h18.45.647,SL_sali,2021.2.3,Win32,60.60606061,1.126,,,52,0,52,0,1,,,,,,,,
,,"[""circle"",""red"",""hori"",""left"",[0,150],[106,-106]]",circle,red,hori,left,"[0,150]","[106,-106]",left,1,,,,,,001,2025-03-10_21h18.45.647,SL_sali,2021.2.3,Win32,60.60606061,1.4031,,,53,0,53,0,1,,,,,,,,
,,"[""circle"",""green"",""hori"",""left"",[0,150],[150,0]]",circle,green,hori,left,"[0,150]","[150,0]",left,1,,,,,,001,2025-03-10_21h18.45.647,SL_sali,2021.2.3,Win32,60.60606061,0.8155,,,54,0,54,0,1,,,,,,,,
,,"[""diamond"",""no_dis"",""vert"",""up"",[99999,99999],[-106,106]]",diamond,no_dis,vert,up,"[99999,99999]","[-106,106]",up,1,,,,,,001,2025-03-10_21h18.45.647,SL_sali,2021.2.3,Win32,60.60606061,1.0004,,,55,0,55,0,1,,,,,,,,
,,"[""circle"",""green"",""hori"",""left"",[106,-106],[106,106]]",circle,green,hori,left,"[106,-106]","[106,106]",left,1,,,,,,001,2025-03-10_21h18.45.647,SL_sali,2021.2.3,Win32,60.60606061,1.5482,,,56,0,56,0,1,,,,,,,,
,,"[""circle"",""green"",""vert"",""up"",[0,-150],[-106,-106]]",circle,green,vert,up,"[0,-150]","[-106,-106]",up,1,,,,,,001,2025-03-10_21h18.45.647,SL_sali,2021.2.3,Win32,60.60606061,1.4626,,,57,0,57,0,1,,,,,,,,
,,"[""circle"",""no_dis"",""vert"",""up"",[99999,99999],[106,106]]",circle,no_dis,vert,up,"[99999,99999]","[106,106]",up,1,,,,,,001,2025-03-10_21h18.45.647,SL_sali,2021.2.3,Win32,60.60606061,1.1674,,,58,0,58,0,1,,,,,,,,
,,"[""circle"",""green"",""vert"",""up"",[150,0],[0,-150]]",circle,green,vert,up,"[150,0]","[0,-150]",up,1,,,,,,001,2025-03-10_21h18.45.647,SL_sali,2021.2.3,Win32,60.60606061,1.08,,,59,0,59,0,1,,,,,,,,
,,"[""circle"",""green"",""vert"",""up"",[-106,-106],[150,0]]",circle,green,vert,up,"[-106,-106]","[150,0]",up,1,,,,,,001,2025-03-10_21h18.45.647,SL_sali,2021.2.3,Win32,60.60606061,0.8845,,,60,0,60,0,1,,,,,,,,
,,"[""diamond"",""green"",""vert"",""up"",[0,150],[150,0]]",diamond,green,vert,up,"[0,150]","[150,0]",up,1,,,,,,001,2025-03-10_21h18.45.647,SL_sali,2021.2.3,Win32,60.60606061,0.9999,,,61,0,61,0,1,,,,,,,,
,,"[""diamond"",""red"",""vert"",""up"",[-150,0],[0,-150]]",diamond,red,vert,up,"[-150,0]","[0,-150]",up,1,,,,,,001,2025-03-10_21h18.45.647,SL_sali,2021.2.3,Win32,60.60606061,1.4323,,,62,0,62,0,1,,,,,,,,
,,"[""diamond"",""no_dis"",""vert"",""up"",[99999,99999],[-106,106]]",diamond,no_dis,vert,up,"[99999,99999]","[-106,106]",up,1,,,,,,001,2025-03-10_21h18.45.647,SL_sali,2021.2.3,Win32,60.60606061,0.7978,,,63,0,63,0,1,,,,,,,,
,,"[""circle"",""no_dis"",""hori"",""left"",[99999,99999],[-106,106]]",circle,no_dis,hori,left,"[99999,99999]","[-106,106]",left,1,,,,,,001,2025-03-10_21h18.45.647,SL_sali,2021.2.3,Win32,60.60606061,1.371,,,64,0,64,0,1,,,,,,,,
,,"[""diamond"",""no_dis"",""hori"",""left"",[99999,99999],[-106,-106]]",diamond,no_dis,hori,left,"[99999,99999]","[-106,-106]",left,1,,,,,,001,2025-03-10_21h18.45.647,SL_sali,2021.2.3,Win32,60.60606061,1.2056,,,65,0,65,0,1,,,,,,,,
,,"[""diamond"",""red"",""vert"",""up"",[-106,-106],[-106,106]]",diamond,red,vert,up,"[-106,-106]","[-106,106]",up,1,,,,,,001,2025-03-10_21h18.45.647,SL_sali,2021.2.3,Win32,60.60606061,1.5342,,,66,0,66,0,1,,,,,,,,
,,"[""circle"",""no_dis"",""hori"",""left"",[99999,99999],[150,0]]",circle,no_dis,hori,left,"[99999,99999]","[150,0]",left,1,,,,,,001,2025-03-10_21h18.45.647,SL_sali,2021.2.3,Win32,60.60606061,0.8718,,,67,0,67,0,1,,,,,,,,
,,"[""diamond"",""no_dis"",""vert"",""up"",[99999,99999],[150,0]]",diamond,no_dis,vert,up,"[99999,99999]","[150,0]",up,1,,,,,,001,2025-03-10_21h18.45.647,SL_sali,2021.2.3,Win32,60.60606061,0.8591,,,68,0,68,0,1,,,,,,,,
,,"[""circle"",""green"",""hori"",""left"",[150,0],[106,-106]]",circle,green,hori,left,"[150,0]","[106,-106]",left,1,,,,,,001,2025-03-10_21h18.45.647,SL_sali,2021.2.3,Win32,60.60606061,1.1052,,,69,0,69,0,1,,,,,,,,
,,"[""circle"",""no_dis"",""vert"",""up"",[99999,99999],[0,150]]",circle,no_dis,vert,up,"[99999,99999]","[0,150]",up,1,,,,,,001,2025-03-10_21h18.45.647,SL_sali,2021.2.3,Win32,60.60606061,1.0226,,,70,0,70,0,1,,,,,,,,
,,"[""circle"",""no_dis"",""vert"",""up"",[99999,99999],[-106,106]]",circle,no_dis,vert,up,"[99999,99999]","[-106,106]",up,1,,,,,,001,2025-03-10_21h18.45.647,SL_sali,2021.2.3,Win32,60.60606061,0.8009,,,71,0,71,0,1,,,,,,,,
,,"[""circle"",""no_dis"",""vert"",""up"",[99999,99999],[106,-106]]",circle,no_dis,vert,up,"[99999,99999]","[106,-106]",up,1,,,,,,001,2025-03-10_21h18.45.647,SL_sali,2021.2.3,Win32,60.60606061,0.8999,,,72,0,72,0,1,,,,,,,,
,,"[""diamond"",""no_dis"",""vert"",""up"",[99999,99999],[106,-106]]",diamond,no_dis,vert,up,"[99999,99999]","[106,-106]",up,1,,,,,,001,2025-03-10_21h18.45.647,SL_sali,2021.2.3,Win32,60.60606061,1.118,,,73,0,73,0,1,,,,,,,,
,,"[""diamond"",""no_dis"",""vert"",""up"",[99999,99999],[150,0]]",diamond,no_dis,vert,up,"[99999,99999]","[150,0]",up,1,,,,,,001,2025-03-10_21h18.45.647,SL_sali,2021.2.3,Win32,60.60606061,1.1174,,,74,0,74,0,1,,,,,,,,
,,"[""diamond"",""green"",""vert"",""up"",[0,-150],[150,0]]",diamond,green,vert,up,"[0,-150]","[150,0]",up,1,,,,,,001,2025-03-10_21h18.45.647,SL_sali,2021.2.3,Win32,60.60606061,1.233,,,75,0,75,0,1,,,,,,,,
,,"[""diamond"",""no_dis"",""hori"",""left"",[99999,99999],[0,150]]",diamond,no_dis,hori,left,"[99999,99999]","[0,150]",left,1,,,,,,001,2025-03-10_21h18.45.647,SL_sali,2021.2.3,Win32,60.60606061,0.815,,,76,0,76,0,1,,,,,,,,
,,"[""diamond"",""red"",""hori"",""left"",[0,150],[150,0]]",diamond,red,hori,left,"[0,150]","[150,0]",left,1,,,,,,001,2025-03-10_21h18.45.647,SL_sali,2021.2.3,Win32,60.60606061,1.1636,,,77,0,77,0,1,,,,,,,,
,,"[""circle"",""no_dis"",""hori"",""left"",[99999,99999],[106,-106]]",circle,no_dis,hori,left,"[99999,99999]","[106,-106]",left,1,,,,,,001,2025-03-10_21h18.45.647,SL_sali,2021.2.3,Win32,60.60606061,2.1163,,,78,0,78,0,1,,,,,,,,
,,"[""circle"",""red"",""vert"",""up"",[106,-106],[106,106]]",circle,red,vert,up,"[106,-106]","[106,106]",up,1,,,,,,001,2025-03-10_21h18.45.647,SL_sali,2021.2.3,Win32,60.60606061,2.1499,,,79,0,79,0,1,,,,,,,,
,,"[""diamond"",""no_dis"",""vert"",""up"",[99999,99999],[-150,0]]",diamond,no_dis,vert,up,"[99999,99999]","[-150,0]",up,1,,,,,,001,2025-03-10_21h18.45.647,SL_sali,2021.2.3,Win32,60.60606061,1.1003,,,80,0,80,0,1,,,,,,,,
,,"[""diamond"",""no_dis"",""hori"",""left"",[99999,99999],[-106,-106]]",diamond,no_dis,hori,left,"[99999,99999]","[-106,-106]",left,1,,,,,,001,2025-03-10_21h18.45.647,SL_sali,2021.2.3,Win32,60.60606061,1.151,,,81,0,81,0,1,,,,,,,,
,,"[""diamond"",""red"",""vert"",""up"",[0,150],[0,-150]]",diamond,red,vert,up,"[0,150]","[0,-150]",up,1,,,,,,001,2025-03-10_21h18.45.647,SL_sali,2021.2.3,Win32,60.60606061,1.3669,,,82,0,82,0,1,,,,,,,,
,,"[""diamond"",""green"",""vert"",""up"",[0,150],[-106,106]]",diamond,green,vert,up,"[0,150]","[-106,106]",up,1,,,,,,001,2025-03-10_21h18.45.647,SL_sali,2021.2.3,Win32,60.60606061,1.2143,,,83,0,83,0,1,,,,,,,,
,,"[""circle"",""no_dis"",""hori"",""left"",[99999,99999],[-106,-106]]",circle,no_dis,hori,left,"[99999,99999]","[-106,-106]",left,1,,,,,,001,2025-03-10_21h18.45.647,SL_sali,2021.2.3,Win32,60.60606061,1.1309,,,84,0,84,0,1,,,,,,,,
,,"[""diamond"",""green"",""vert"",""up"",[106,-106],[0,150]]",diamond,green,vert,up,"[106,-106]","[0,150]",left,0,,,,,,001,2025-03-10_21h18.45.647,SL_sali,2021.2.3,Win32,60.60606061,0.8375,,,85,0,85,0,1,,,,,,,,
,,"[""circle"",""red"",""vert"",""up"",[150,0],[106,-106]]",circle,red,vert,up,"[150,0]","[106,-106]",up,1,,,,,,001,2025-03-10_21h18.45.647,SL_sali,2021.2.3,Win32,60.60606061,1.6839,,,86,0,86,0,1,,,,,,,,
,,"[""circle"",""green"",""hori"",""left"",[0,-150],[-150,0]]",circle,green,hori,left,"[0,-150]","[-150,0]",left,1,,,,,,001,2025-03-10_21h18.45.647,SL_sali,2021.2.3,Win32,60.60606061,1.1275,,,87,0,87,0,1,,,,,,,,
,,"[""circle"",""no_dis"",""vert"",""up"",[99999,99999],[-106,-106]]",circle,no_dis,vert,up,"[99999,99999]","[-106,-106]",up,1,,,,,,001,2025-03-10_21h18.45.647,SL_sali,2021.2.3,Win32,60.60606061,0.8492,,,88,0,88,0,1,,,,,,,,
,,"[""diamond"",""red"",""hori"",""left"",[0,150],[106,106]]",diamond,red,hori,left,"[0,150]","[106,106]",left,1,,,,,,001,2025-03-10_21h18.45.647,SL_sali,2021.2.3,Win32,60.60606061,1.928,,,89,0,89,0,1,,,,,,,,
,,"[""diamond"",""green"",""vert"",""up"",[-106,-106],[106,106]]",diamond,green,vert,up,"[-106,-106]","[106,106]",up,1,,,,,,001,2025-03-10_21h18.45.647,SL_sali,2021.2.3,Win32,60.60606061,1.0511,,,90,0,90,0,1,,,,,,,,
,,"[""circle"",""no_dis"",""vert"",""up"",[99999,99999],[0,150]]",circle,no_dis,vert,up,"[99999,99999]","[0,150]",up,1,,,,,,001,2025-03-10_21h18.45.647,SL_sali,2021.2.3,Win32,60.60606061,2.1377,,,91,0,91,0,1,,,,,,,,
,,"[""circle"",""green"",""vert"",""up"",[106,-106],[150,0]]",circle,green,vert,up,"[106,-106]","[150,0]",up,1,,,,,,001,2025-03-10_21h18.45.647,SL_sali,2021.2.3,Win32,60.60606061,1.3027,,,92,0,92,0,1,,,,,,,,
,,"[""diamond"",""no_dis"",""hori"",""left"",[99999,99999],[-150,0]]",diamond,no_dis,hori,left,"[99999,99999]","[-150,0]",left,1,,,,,,001,2025-03-10_21h18.45.647,SL_sali,2021.2.3,Win32,60.60606061,0.8005,,,93,0,93,0,1,,,,,,,,
,,"[""circle"",""no_dis"",""hori"",""left"",[99999,99999],[0,-150]]",circle,no_dis,hori,left,"[99999,99999]","[0,-150]",left,1,,,,,,001,2025-03-10_21h18.45.647,SL_sali,2021.2.3,Win32,60.60606061,1.62,,,94,0,94,0,1,,,,,,,,
,,"[""circle"",""red"",""hori"",""left"",[0,150],[-106,-106]]",circle,red,hori,left,"[0,150]","[-106,-106]",left,1,,,,,,001,2025-03-10_21h18.45.647,SL_sali,2021.2.3,Win32,60.60606061,1.3668,,,95,0,95,0,1,,,,,,,,
,,"[""diamond"",""green"",""vert"",""up"",[-106,-106],[150,0]]",diamond,green,vert,up,"[-106,-106]","[150,0]",up,1,,,,,,001,2025-03-10_21h18.45.647,SL_sali,2021.2.3,Win32,60.60606061,1.723,,,96,0,96,0,1,,,,,,,,
,,"[""diamond"",""green"",""hori"",""left"",[106,106],[0,-150]]",diamond,green,hori,left,"[106,106]","[0,-150]",left,1,,,,,,001,2025-03-10_21h18.45.647,SL_sali,2021.2.3,Win32,60.60606061,1.0839,,,97,0,97,0,1,,,,,,,,
,,"[""circle"",""green"",""hori"",""left"",[-150,0],[-106,106]]",circle,green,hori,left,"[-150,0]","[-106,106]",left,1,,,,,,001,2025-03-10_21h18.45.647,SL_sali,2021.2.3,Win32,60.60606061,2.5496,,,98,0,98,0,1,,,,,,,,
,,"[""circle"",""no_dis"",""hori"",""left"",[99999,99999],[0,-150]]",circle,no_dis,hori,left,"[99999,99999]","[0,-150]",left,1,,,,,,001,2025-03-10_21h18.45.647,SL_sali,2021.2.3,Win32,60.60606061,1.3744,,,99,0,99,0,1,,,,,,,,
,,"[""circle"",""red"",""vert"",""up"",[-106,-106],[-106,106]]",circle,red,vert,up,"[-106,-106]","[-106,106]",up,1,,,,,,001,2025-03-10_21h18.45.647,SL_sali,2021.2.3,Win32,60.60606061,1.0823,,,100,0,100,0,1,,,,,,,,
,,"[""diamond"",""green"",""hori"",""left"",[0,150],[106,106]]",diamond,green,hori,left,"[0,150]","[106,106]",left,1,,,,,,001,2025-03-10_21h18.45.647,SL_sali,2021.2.3,Win32,60.60606061,1.3347,,,101,0,101,0,1,,,,,,,,
,,"[""circle"",""red"",""hori"",""left"",[-150,0],[106,-106]]",circle,red,hori,left,"[-150,0]","[106,-106]",left,1,,,,,,001,2025-03-10_21h18.45.647,SL_sali,2021.2.3,Win32,60.60606061,1.4933,,,102,0,102,0,1,,,,,,,,
,,"[""circle"",""green"",""hori"",""left"",[-150,0],[150,0]]",circle,green,hori,left,"[-150,0]","[150,0]",left,1,,,,,,001,2025-03-10_21h18.45.647,SL_sali,2021.2.3,Win32,60.60606061,0.8375,,,103,0,103,0,1,,,,,,,,
,,"[""diamond"",""green"",""hori"",""left"",[106,106],[150,0]]",diamond,green,hori,left,"[106,106]","[150,0]",left,1,,,,,,001,2025-03-10_21h18.45.647,SL_sali,2021.2.3,Win32,60.60606061,1.1013,,,104,0,104,0,1,,,,,,,,
,,"[""diamond"",""no_dis"",""vert"",""up"",[99999,99999],[0,-150]]",diamond,no_dis,vert,up,"[99999,99999]","[0,-150]",up,1,,,,,,001,2025-03-10_21h18.45.647,SL_sali,2021.2.3,Win32,60.60606061,1.0167,,,105,0,105,0,1,,,,,,,,
,,"[""diamond"",""green"",""vert"",""up"",[0,150],[106,106]]",diamond,green,vert,up,"[0,150]","[106,106]",up,1,,,,,,001,2025-03-10_21h18.45.647,SL_sali,2021.2.3,Win32,60.60606061,0.7833,,,106,0,106,0,1,,,,,,,,
,,"[""diamond"",""red"",""vert"",""up"",[-106,-106],[0,-150]]",diamond,red,vert,up,"[-106,-106]","[0,-150]",up,1,,,,,,001,2025-03-10_21h18.45.647,SL_sali,2021.2.3,Win32,60.60606061,1.451,,,107,0,107,0,1,,,,,,,,
,,"[""circle"",""red"",""vert"",""up"",[0,-150],[-150,0]]",circle,red,vert,up,"[0,-150]","[-150,0]",up,1,,,,,,001,2025-03-10_21h18.45.647,SL_sali,2021.2.3,Win32,60.60606061,1.4753,,,108,0,108,0,1,,,,,,,,
,,"[""circle"",""red"",""vert"",""up"",[0,150],[150,0]]",circle,red,vert,up,"[0,150]","[150,0]",up,1,,,,,,001,2025-03-10_21h18.45.647,SL_sali,2021.2.3,Win32,60.60606061,0.7003,,,109,0,109,0,1,,,,,,,,
,,"[""diamond"",""green"",""hori"",""left"",[106,-106],[106,106]]",diamond,green,hori,left,"[106,-106]","[106,106]",left,1,,,,,,001,2025-03-10_21h18.45.647,SL_sali,2021.2.3,Win32,60.60606061,0.9193,,,110,0,110,0,1,,,,,,,,
,,"[""circle"",""red"",""hori"",""left"",[106,-106],[106,106]]",circle,red,hori,left,"[106,-106]","[106,106]",up,0,,,,,,001,2025-03-10_21h18.45.647,SL_sali,2021.2.3,Win32,60.60606061,1.1865,,,111,0,111,0,1,,,,,,,,
,,"[""diamond"",""red"",""hori"",""left"",[150,0],[0,150]]",diamond,red,hori,left,"[150,0]","[0,150]",left,1,,,,,,001,2025-03-10_21h18.45.647,SL_sali,2021.2.3,Win32,60.60606061,1.0481,,,112,0,112,0,1,,,,,,,,
,,"[""diamond"",""no_dis"",""hori"",""left"",[99999,99999],[-150,0]]",diamond,no_dis,hori,left,"[99999,99999]","[-150,0]",left,1,,,,,,001,2025-03-10_21h18.45.647,SL_sali,2021.2.3,Win32,60.60606061,0.7231,,,113,0,113,0,1,,,,,,,,
,,"[""circle"",""red"",""hori"",""left"",[0,150],[106,106]]",circle,red,hori,left,"[0,150]","[106,106]",up,0,,,,,,001,2025-03-10_21h18.45.647,SL_sali,2021.2.3,Win32,60.60606061,1.4181,,,114,0,114,0,1,,,,,,,,
,,"[""circle"",""green"",""hori"",""left"",[0,150],[-106,-106]]",circle,green,hori,left,"[0,150]","[-106,-106]",left,1,,,,,,001,2025-03-10_21h18.45.647,SL_sali,2021.2.3,Win32,60.60606061,1.5674,,,115,0,115,0,1,,,,,,,,
,,"[""circle"",""green"",""vert"",""up"",[0,150],[-150,0]]",circle,green,vert,up,"[0,150]","[-150,0]",up,1,,,,,,001,2025-03-10_21h18.45.647,SL_sali,2021.2.3,Win32,60.60606061,0.9969,,,116,0,116,0,1,,,,,,,,
,,"[""circle"",""green"",""hori"",""left"",[-106,106],[-150,0]]",circle,green,hori,left,"[-106,106]","[-150,0]",up,0,,,,,,001,2025-03-10_21h18.45.647,SL_sali,2021.2.3,Win32,60.60606061,0.7419,,,117,0,117,0,1,,,,,,,,
,,"[""diamond"",""no_dis"",""hori"",""left"",[99999,99999],[150,0]]",diamond,no_dis,hori,left,"[99999,99999]","[150,0]",left,1,,,,,,001,2025-03-10_21h18.45.647,SL_sali,2021.2.3,Win32,60.60606061,1.0021,,,118,0,118,0,1,,,,,,,,
,,"[""diamond"",""green"",""hori"",""left"",[-150,0],[0,150]]",diamond,green,hori,left,"[-150,0]","[0,150]",left,1,,,,,,001,2025-03-10_21h18.45.647,SL_sali,2021.2.3,Win32,60.60606061,1.316,,,119,0,119,0,1,,,,,,,,
,,,,,,,,,,,,,,,,001,2025-03-10_21h18.45.647,SL_sali,2021.2.3,Win32,60.60606061,,,,,,,,,2,space,195.32,1,0,1,0,1
,,"[""circle"",""red"",""hori"",""left"",[-150,0],[0,-150]]",circle,red,hori,left,"[-150,0]","[0,-150]",left,1,,,,,,001,2025-03-10_21h18.45.647,SL_sali,2021.2.3,Win32,60.60606061,1.2457,,,0,0,0,0,1,,,,,,,,
,,"[""circle"",""no_dis"",""vert"",""up"",[99999,99999],[106,106]]",circle,no_dis,vert,up,"[99999,99999]","[106,106]",up,1,,,,,,001,2025-03-10_21h18.45.647,SL_sali,2021.2.3,Win32,60.60606061,1.3504,,,1,0,1,0,1,,,,,,,,
,,"[""circle"",""no_dis"",""vert"",""up"",[99999,99999],[-106,-106]]",circle,no_dis,vert,up,"[99999,99999]","[-106,-106]",up,1,,,,,,001,2025-03-10_21h18.45.647,SL_sali,2021.2.3,Win32,60.60606061,0.848,,,2,0,2,0,1,,,,,,,,
,,"[""diamond"",""no_dis"",""hori"",""left"",[99999,99999],[0,-150]]",diamond,no_dis,hori,left,"[99999,99999]","[0,-150]",left,1,,,,,,001,2025-03-10_21h18.45.647,SL_sali,2021.2.3,Win32,60.60606061,0.9681,,,3,0,3,0,1,,,,,,,,
,,"[""circle"",""red"",""vert"",""up"",[106,-106],[106,106]]",circle,red,vert,up,"[106,-106]","[106,106]",up,1,,,,,,001,2025-03-10_21h18.45.647,SL_sali,2021.2.3,Win32,60.60606061,1.8835,,,4,0,4,0,1,,,,,,,,
,,"[""diamond"",""red"",""vert"",""up"",[0,-150],[150,0]]",diamond,red,vert,up,"[0,-150]","[150,0]",up,1,,,,,,001,2025-03-10_21h18.45.647,SL_sali,2021.2.3,Win32,60.60606061,0.8661,,,5,0,5,0,1,,,,,,,,
,,"[""circle"",""no_dis"",""hori"",""left"",[99999,99999],[-106,-106]]",circle,no_dis,hori,left,"[99999,99999]","[-106,-106]",left,1,,,,,,001,2025-03-10_21h18.45.647,SL_sali,2021.2.3,Win32,60.60606061,0.7278,,,6,0,6,0,1,,,,,,,,
,,"[""diamond"",""red"",""hori"",""left"",[0,150],[-106,106]]",diamond,red,hori,left,"[0,150]","[-106,106]",left,1,,,,,,001,2025-03-10_21h18.45.647,SL_sali,2021.2.3,Win32,60.60606061,2.4828,,,7,0,7,0,1,,,,,,,,
,,"[""circle"",""red"",""hori"",""left"",[106,-106],[106,106]]",circle,red,hori,left,"[106,-106]","[106,106]",left,1,,,,,,001,2025-03-10_21h18.45.647,SL_sali,2021.2.3,Win32,60.60606061,1.3168,,,8,0,8,0,1,,,,,,,,
,,"[""diamond"",""red"",""hori"",""left"",[150,0],[0,150]]",diamond,red,hori,left,"[150,0]","[0,150]",left,1,,,,,,001,2025-03-10_21h18.45.647,SL_sali,2021.2.3,Win32,60.60606061,1.3578,,,9,0,9,0,1,,,,,,,,
,,"[""diamond"",""red"",""vert"",""up"",[-150,0],[0,-150]]",diamond,red,vert,up,"[-150,0]","[0,-150]",up,1,,,,,,001,2025-03-10_21h18.45.647,SL_sali,2021.2.3,Win32,60.60606061,1.2037,,,10,0,10,0,1,,,,,,,,
,,"[""diamond"",""no_dis"",""vert"",""up"",[99999,99999],[0,-150]]",diamond,no_dis,vert,up,"[99999,99999]","[0,-150]",up,1,,,,,,001,2025-03-10_21h18.45.647,SL_sali,2021.2.3,Win32,60.60606061,0.9842,,,11,0,11,0,1,,,,,,,,
,,"[""diamond"",""no_dis"",""vert"",""up"",[99999,99999],[106,106]]",diamond,no_dis,vert,up,"[99999,99999]","[106,106]",up,1,,,,,,001,2025-03-10_21h18.45.647,SL_sali,2021.2.3,Win32,60.60606061,0.9504,,,12,0,12,0,1,,,,,,,,
,,"[""diamond"",""green"",""hori"",""left"",[0,150],[106,106]]",diamond,green,hori,left,"[0,150]","[106,106]",left,1,,,,,,001,2025-03-10_21h18.45.647,SL_sali,2021.2.3,Win32,60.60606061,1.6497,,,13,0,13,0,1,,,,,,,,
,,"[""diamond"",""no_dis"",""vert"",""up"",[99999,99999],[0,-150]]",diamond,no_dis,vert,up,"[99999,99999]","[0,-150]",up,1,,,,,,001,2025-03-10_21h18.45.647,SL_sali,2021.2.3,Win32,60.60606061,1.1164,,,14,0,14,0,1,,,,,,,,
,,"[""circle"",""red"",""vert"",""up"",[-106,-106],[-106,106]]",circle,red,vert,up,"[-106,-106]","[-106,106]",up,1,,,,,,001,2025-03-10_21h18.45.647,SL_sali,2021.2.3,Win32,60.60606061,1.6335,,,15,0,15,0,1,,,,,,,,
,,"[""diamond"",""green"",""hori"",""left"",[106,-106],[106,106]]",diamond,green,hori,left,"[106,-106]","[106,106]",left,1,,,,,,001,2025-03-10_21h18.45.647,SL_sali,2021.2.3,Win32,60.60606061,2.4341,,,16,0,16,0,1,,,,,,,,
,,"[""circle"",""red"",""hori"",""left"",[0,150],[106,-106]]",circle,red,hori,left,"[0,150]","[106,-106]",left,1,,,,,,001,2025-03-10_21h18.45.647,SL_sali,2021.2.3,Win32,60.60606061,0.9534,,,17,0,17,0,1,,,,,,,,
,,"[""diamond"",""red"",""vert"",""up"",[106,-106],[150,0]]",diamond,red,vert,up,"[106,-106]","[150,0]",up,1,,,,,,001,2025-03-10_21h18.45.647,SL_sali,2021.2.3,Win32,60.60606061,1.2337,,,18,0,18,0,1,,,,,,,,
,,"[""circle"",""red"",""hori"",""left"",[-150,0],[106,-106]]",circle,red,hori,left,"[-150,0]","[106,-106]",left,1,,,,,,001,2025-03-10_21h18.45.647,SL_sali,2021.2.3,Win32,60.60606061,1.9012,,,19,0,19,0,1,,,,,,,,
,,"[""diamond"",""green"",""hori"",""left"",[106,106],[150,0]]",diamond,green,hori,left,"[106,106]","[150,0]",left,1,,,,,,001,2025-03-10_21h18.45.647,SL_sali,2021.2.3,Win32,60.60606061,1.5167,,,20,0,20,0,1,,,,,,,,
,,"[""diamond"",""no_dis"",""hori"",""left"",[99999,99999],[-106,-106]]",diamond,no_dis,hori,left,"[99999,99999]","[-106,-106]",left,1,,,,,,001,2025-03-10_21h18.45.647,SL_sali,2021.2.3,Win32,60.60606061,0.9157,,,21,0,21,0,1,,,,,,,,
,,"[""circle"",""no_dis"",""vert"",""up"",[99999,99999],[0,150]]",circle,no_dis,vert,up,"[99999,99999]","[0,150]",up,1,,,,,,001,2025-03-10_21h18.45.647,SL_sali,2021.2.3,Win32,60.60606061,1.3835,,,22,0,22,0,1,,,,,,,,
,,"[""circle"",""no_dis"",""hori"",""left"",[99999,99999],[-106,106]]",circle,no_dis,hori,left,"[99999,99999]","[-106,106]",left,1,,,,,,001,2025-03-10_21h18.45.647,SL_sali,2021.2.3,Win32,60.60606061,0.933,,,23,0,23,0,1,,,,,,,,
,,"[""diamond"",""red"",""vert"",""up"",[-106,-106],[0,-150]]",diamond,red,vert,up,"[-106,-106]","[0,-150]",up,1,,,,,,001,2025-03-10_21h18.45.647,SL_sali,2021.2.3,Win32,60.60606061,1.6501,,,24,0,24,0,1,,,,,,,,
,,"[""circle"",""red"",""hori"",""left"",[-106,106],[0,150]]",circle,red,hori,left,"[-106,106]","[0,150]",left,1,,,,,,001,2025-03-10_21h18.45.647,SL_sali,2021.2.3,Win32,60.60606061,1.6789,,,25,0,25,0,1,,,,,,,,
,,"[""circle"",""green"",""vert"",""up"",[-106,106],[-106,-106]]",circle,green,vert,up,"[-106,106]","[-106,-106]",up,1,,,,,,001,2025-03-10_21h18.45.647,SL_sali,2021.2.3,Win32,60.60606061,0.9671,,,26,0,26,0,1,,,,,,,,
,,"[""circle"",""no_dis"",""hori"",""left"",[99999,99999],[106,-106]]",circle,no_dis,hori,left,"[99999,99999]","[106,-106]",left,1,,,,,,001,2025-03-10_21h18.45.647,SL_sali,2021.2.3,Win32,60.60606061,0.9551,,,27,0,27,0,1,,,,,,,,
,,"[""diamond"",""red"",""vert"",""up"",[-106,-106],[150,0]]",diamond,red,vert,up,"[-106,-106]","[150,0]",up,1,,,,,,001,2025-03-10_21h18.45.647,SL_sali,2021.2.3,Win32,60.60606061,0.8847,,,28,0,28,0,1,,,,,,,,
,,"[""circle"",""green"",""hori"",""left"",[106,-106],[106,106]]",circle,green,hori,left,"[106,-106]","[106,106]",left,1,,,,,,001,2025-03-10_21h18.45.647,SL_sali,2021.2.3,Win32,60.60606061,1.6498,,,29,0,29,0,1,,,,,,,,
,,"[""circle"",""no_dis"",""hori"",""left"",[99999,99999],[0,150]]",circle,no_dis,hori,left,"[99999,99999]","[0,150]",left,1,,,,,,001,2025-03-10_21h18.45.647,SL_sali,2021.2.3,Win32,60.60606061,1.176,,,30,0,30,0,1,,,,,,,,
,,"[""diamond"",""green"",""vert"",""up"",[106,-106],[0,150]]",diamond,green,vert,up,"[106,-106]","[0,150]",up,1,,,,,,001,2025-03-10_21h18.45.647,SL_sali,2021.2.3,Win32,60.60606061,1.1165,,,31,0,31,0,1,,,,,,,,
,,"[""circle"",""red"",""hori"",""left"",[0,150],[106,106]]",circle,red,hori,left,"[0,150]","[106,106]",left,1,,,,,,001,2025-03-10_21h18.45.647,SL_sali,2021.2.3,Win32,60.60606061,1.2014,,,32,0,32,0,1,,,,,,,,
,,"[""circle"",""no_dis"",""vert"",""up"",[99999,99999],[-150,0]]",circle,no_dis,vert,up,"[99999,99999]","[-150,0]",up,1,,,,,,001,2025-03-10_21h18.45.647,SL_sali,2021.2.3,Win32,60.60606061,1.4356,,,33,0,33,0,1,,,,,,,,
,,"[""diamond"",""green"",""vert"",""up"",[0,150],[-106,106]]",diamond,green,vert,up,"[0,150]","[-106,106]",up,1,,,,,,001,2025-03-10_21h18.45.647,SL_sali,2021.2.3,Win32,60.60606061,1.267,,,34,0,34,0,1,,,,,,,,
,,"[""diamond"",""green"",""vert"",""up"",[0,150],[150,0]]",diamond,green,vert,up,"[0,150]","[150,0]",up,1,,,,,,001,2025-03-10_21h18.45.647,SL_sali,2021.2.3,Win32,60.60606061,1.0001,,,35,0,35,0,1,,,,,,,,
,,"[""circle"",""green"",""hori"",""left"",[-150,0],[-106,106]]",circle,green,hori,left,"[-150,0]","[-106,106]",left,1,,,,,,001,2025-03-10_21h18.45.647,SL_sali,2021.2.3,Win32,60.60606061,1.0166,,,36,0,36,0,1,,,,,,,,
,,"[""diamond"",""red"",""vert"",""up"",[0,150],[0,-150]]",diamond,red,vert,up,"[0,150]","[0,-150]",up,1,,,,,,001,2025-03-10_21h18.45.647,SL_sali,2021.2.3,Win32,60.60606061,1.2683,,,37,0,37,0,1,,,,,,,,
,,"[""diamond"",""red"",""hori"",""left"",[0,-150],[106,106]]",diamond,red,hori,left,"[0,-150]","[106,106]",left,1,,,,,,001,2025-03-10_21h18.45.647,SL_sali,2021.2.3,Win32,60.60606061,1.4504,,,38,0,38,0,1,,,,,,,,
,,"[""circle"",""green"",""vert"",""up"",[0,150],[-150,0]]",circle,green,vert,up,"[0,150]","[-150,0]",up,1,,,,,,001,2025-03-10_21h18.45.647,SL_sali,2021.2.3,Win32,60.60606061,0.8163,,,39,0,39,0,1,,,,,,,,
,,"[""circle"",""no_dis"",""vert"",""up"",[99999,99999],[0,150]]",circle,no_dis,vert,up,"[99999,99999]","[0,150]",up,1,,,,,,001,2025-03-10_21h18.45.647,SL_sali,2021.2.3,Win32,60.60606061,0.7408,,,40,0,40,0,1,,,,,,,,
,,"[""circle"",""green"",""hori"",""left"",[0,150],[-106,-106]]",circle,green,hori,left,"[0,150]","[-106,-106]",left,1,,,,,,001,2025-03-10_21h18.45.647,SL_sali,2021.2.3,Win32,60.60606061,0.9849,,,41,0,41,0,1,,,,,,,,
,,"[""circle"",""green"",""hori"",""left"",[0,-150],[-150,0]]",circle,green,hori,left,"[0,-150]","[-150,0]",left,1,,,,,,001,2025-03-10_21h18.45.647,SL_sali,2021.2.3,Win32,60.60606061,1.0042,,,42,0,42,0,1,,,,,,,,
,,"[""circle"",""red"",""hori"",""left"",[150,0],[-150,0]]",circle,red,hori,left,"[150,0]","[-150,0]",left,1,,,,,,001,2025-03-10_21h18.45.647,SL_sali,2021.2.3,Win32,60.60606061,0.767,,,43,0,43,0,1,,,,,,,,
,,"[""diamond"",""no_dis"",""vert"",""up"",[99999,99999],[106,-106]]",diamond,no_dis,vert,up,"[99999,99999]","[106,-106]",up,1,,,,,,001,2025-03-10_21h18.45.647,SL_sali,2021.2.3,Win32,60.60606061,1.034,,,44,0,44,0,1,,,,,,,,
,,"[""circle"",""green"",""vert"",""up"",[150,0],[0,-150]]",circle,green,vert,up,"[150,0]","[0,-150]",up,1,,,,,,001,2025-03-10_21h18.45.647,SL_sali,2021.2.3,Win32,60.60606061,0.8467,,,45,0,45,0,1,,,,,,,,
,,"[""diamond"",""red"",""hori"",""left"",[-106,106],[-106,-106]]",diamond,red,hori,left,"[-106,106]","[-106,-106]",left,1,,,,,,001,2025-03-10_21h18.45.647,SL_sali,2021.2.3,Win32,60.60606061,0.8836,,,46,0,46,0,1,,,,,,,,
,,"[""diamond"",""green"",""vert"",""up"",[-106,-106],[150,0]]",diamond,green,vert,up,"[-106,-106]","[150,0]",up,1,,,,,,001,2025-03-10_21h18.45.647,SL_sali,2021.2.3,Win32,60.60606061,0.8748,,,47,0,47,0,1,,,,,,,,
,,"[""circle"",""red"",""vert"",""up"",[0,-150],[-150,0]]",circle,red,vert,up,"[0,-150]","[-150,0]",up,1,,,,,,001,2025-03-10_21h18.45.647,SL_sali,2021.2.3,Win32,60.60606061,1.0161,,,48,0,48,0,1,,,,,,,,
,,"[""circle"",""green"",""hori"",""left"",[150,0],[106,-106]]",circle,green,hori,left,"[150,0]","[106,-106]",left,1,,,,,,001,2025-03-10_21h18.45.647,SL_sali,2021.2.3,Win32,60.60606061,1.1919,,,49,0,49,0,1,,,,,,,,
,,"[""diamond"",""no_dis"",""vert"",""up"",[99999,99999],[150,0]]",diamond,no_dis,vert,up,"[99999,99999]","[150,0]",up,1,,,,,,001,2025-03-10_21h18.45.647,SL_sali,2021.2.3,Win32,60.60606061,1.3333,,,50,0,50,0,1,,,,,,,,
,,"[""diamond"",""red"",""hori"",""left"",[0,150],[106,106]]",diamond,red,hori,left,"[0,150]","[106,106]",left,1,,,,,,001,2025-03-10_21h18.45.647,SL_sali,2021.2.3,Win32,60.60606061,0.9337,,,51,0,51,0,1,,,,,,,,
,,"[""circle"",""green"",""vert"",""up"",[0,-150],[-106,-106]]",circle,green,vert,up,"[0,-150]","[-106,-106]",up,1,,,,,,001,2025-03-10_21h18.45.647,SL_sali,2021.2.3,Win32,60.60606061,1.0669,,,52,0,52,0,1,,,,,,,,
,,"[""diamond"",""green"",""vert"",""up"",[0,150],[0,-150]]",diamond,green,vert,up,"[0,150]","[0,-150]",up,1,,,,,,001,2025-03-10_21h18.45.647,SL_sali,2021.2.3,Win32,60.60606061,1.0828,,,53,0,53,0,1,,,,,,,,
,,"[""circle"",""no_dis"",""hori"",""left"",[99999,99999],[-106,106]]",circle,no_dis,hori,left,"[99999,99999]","[-106,106]",left,1,,,,,,001,2025-03-10_21h18.45.647,SL_sali,2021.2.3,Win32,60.60606061,1.1039,,,54,0,54,0,1,,,,,,,,
,,"[""diamond"",""no_dis"",""hori"",""left"",[99999,99999],[-150,0]]",diamond,no_dis,hori,left,"[99999,99999]","[-150,0]",left,1,,,,,,001,2025-03-10_21h18.45.647,SL_sali,2021.2.3,Win32,60.60606061,0.9201,,,55,0,55,0,1,,,,,,,,
,,"[""diamond"",""no_dis"",""hori"",""left"",[99999,99999],[-106,-106]]",diamond,no_dis,hori,left,"[99999,99999]","[-106,-106]",left,1,,,,,,001,2025-03-10_21h18.45.647,SL_sali,2021.2.3,Win32,60.60606061,0.7797,,,56,0,56,0,1,,,,,,,,
,,"[""diamond"",""red"",""vert"",""up"",[150,0],[106,-106]]",diamond,red,vert,up,"[150,0]","[106,-106]",up,1,,,,,,001,2025-03-10_21h18.45.647,SL_sali,2021.2.3,Win32,60.60606061,1.2306,,,57,0,57,0,1,,,,,,,,
,,"[""circle"",""green"",""vert"",""up"",[-150,0],[106,-106]]",circle,green,vert,up,"[-150,0]","[106,-106]",up,1,,,,,,001,2025-03-10_21h18.45.647,SL_sali,2021.2.3,Win32,60.60606061,0.9447,,,58,0,58,0,1,,,,,,,,
,,"[""circle"",""no_dis"",""hori"",""left"",[99999,99999],[106,106]]",circle,no_dis,hori,left,"[99999,99999]","[106,106]",left,1,,,,,,001,2025-03-10_21h18.45.647,SL_sali,2021.2.3,Win32,60.60606061,1.2214,,,59,0,59,0,1,,,,,,,,
,,"[""diamond"",""red"",""vert"",""up"",[-106,-106],[-106,106]]",diamond,red,vert,up,"[-106,-106]","[-106,106]",up,1,,,,,,001,2025-03-10_21h18.45.647,SL_sali,2021.2.3,Win32,60.60606061,1.4601,,,60,0,60,0,1,,,,,,,,
,,"[""diamond"",""no_dis"",""hori"",""left"",[99999,99999],[-106,-106]]",diamond,no_dis,hori,left,"[99999,99999]","[-106,-106]",left,1,,,,,,001,2025-03-10_21h18.45.647,SL_sali,2021.2.3,Win32,60.60606061,0.9095,,,61,0,61,0,1,,,,,,,,
,,"[""circle"",""green"",""hori"",""left"",[-150,0],[150,0]]",circle,green,hori,left,"[-150,0]","[150,0]",left,1,,,,,,001,2025-03-10_21h18.45.647,SL_sali,2021.2.3,Win32,60.60606061,0.9678,,,62,0,62,0,1,,,,,,,,
,,"[""circle"",""green"",""hori"",""left"",[0,150],[150,0]]",circle,green,hori,left,"[0,150]","[150,0]",left,1,,,,,,001,2025-03-10_21h18.45.647,SL_sali,2021.2.3,Win32,60.60606061,0.7448,,,63,0,63,0,1,,,,,,,,
,,"[""diamond"",""red"",""vert"",""up"",[106,106],[-106,-106]]",diamond,red,vert,up,"[106,106]","[-106,-106]",up,1,,,,,,001,2025-03-10_21h18.45.647,SL_sali,2021.2.3,Win32,60.60606061,1.3561,,,64,0,64,0,1,,,,,,,,
,,"[""circle"",""red"",""vert"",""up"",[-106,-106],[0,-150]]",circle,red,vert,up,"[-106,-106]","[0,-150]",up,1,,,,,,001,2025-03-10_21h18.45.647,SL_sali,2021.2.3,Win32,60.60606061,1.134,,,65,0,65,0,1,,,,,,,,
,,"[""circle"",""red"",""hori"",""left"",[0,150],[-106,-106]]",circle,red,hori,left,"[0,150]","[-106,-106]",left,1,,,,,,001,2025-03-10_21h18.45.647,SL_sali,2021.2.3,Win32,60.60606061,0.9172,,,66,0,66,0,1,,,,,,,,
,,"[""diamond"",""no_dis"",""vert"",""up"",[99999,99999],[150,0]]",diamond,no_dis,vert,up,"[99999,99999]","[150,0]",up,1,,,,,,001,2025-03-10_21h18.45.647,SL_sali,2021.2.3,Win32,60.60606061,1.2317,,,67,0,67,0,1,,,,,,,,
,,"[""diamond"",""no_dis"",""vert"",""up"",[99999,99999],[150,0]]",diamond,no_dis,vert,up,"[99999,99999]","[150,0]",up,1,,,,,,001,2025-03-10_21h18.45.647,SL_sali,2021.2.3,Win32,60.60606061,0.9323,,,68,0,68,0,1,,,,,,,,
,,"[""circle"",""red"",""vert"",""up"",[-106,106],[-150,0]]",circle,red,vert,up,"[-106,106]","[-150,0]",up,1,,,,,,001,2025-03-10_21h18.45.647,SL_sali,2021.2.3,Win32,60.60606061,1.284,,,69,0,69,0,1,,,,,,,,
,,"[""diamond"",""green"",""vert"",""up"",[0,-150],[150,0]]",diamond,green,vert,up,"[0,-150]","[150,0]",up,1,,,,,,001,2025-03-10_21h18.45.647,SL_sali,2021.2.3,Win32,60.60606061,0.9761,,,70,0,70,0,1,,,,,,,,
,,"[""circle"",""red"",""hori"",""left"",[0,150],[-150,0]]",circle,red,hori,left,"[0,150]","[-150,0]",left,1,,,,,,001,2025-03-10_21h18.45.647,SL_sali,2021.2.3,Win32,60.60606061,0.752,,,71,0,71,0,1,,,,,,,,
,,"[""diamond"",""green"",""hori"",""left"",[150,0],[106,-106]]",diamond,green,hori,left,"[150,0]","[106,-106]",left,1,,,,,,001,2025-03-10_21h18.45.647,SL_sali,2021.2.3,Win32,60.60606061,1.1659,,,72,0,72,0,1,,,,,,,,
,,"[""circle"",""red"",""vert"",""up"",[150,0],[106,106]]",circle,red,vert,up,"[150,0]","[106,106]",up,1,,,,,,001,2025-03-10_21h18.45.647,SL_sali,2021.2.3,Win32,60.60606061,1.1943,,,73,0,73,0,1,,,,,,,,
,,"[""diamond"",""green"",""hori"",""left"",[-150,0],[0,150]]",diamond,green,hori,left,"[-150,0]","[0,150]",left,1,,,,,,001,2025-03-10_21h18.45.647,SL_sali,2021.2.3,Win32,60.60606061,1.1077,,,74,0,74,0,1,,,,,,,,
,,"[""circle"",""no_dis"",""vert"",""up"",[99999,99999],[-150,0]]",circle,no_dis,vert,up,"[99999,99999]","[-150,0]",up,1,,,,,,001,2025-03-10_21h18.45.647,SL_sali,2021.2.3,Win32,60.60606061,1.0501,,,75,0,75,0,1,,,,,,,,
,,"[""circle"",""red"",""hori"",""left"",[0,150],[-106,106]]",circle,red,hori,left,"[0,150]","[-106,106]",left,1,,,,,,001,2025-03-10_21h18.45.647,SL_sali,2021.2.3,Win32,60.60606061,1.3705,,,76,0,76,0,1,,,,,,,,
,,"[""circle"",""red"",""vert"",""up"",[150,0],[106,-106]]",circle,red,vert,up,"[150,0]","[106,-106]",up,1,,,,,,001,2025-03-10_21h18.45.647,SL_sali,2021.2.3,Win32,60.60606061,1.0726,,,77,0,77,0,1,,,,,,,,
,,"[""circle"",""no_dis"",""vert"",""up"",[99999,99999],[-106,106]]",circle,no_dis,vert,up,"[99999,99999]","[-106,106]",up,1,,,,,,001,2025-03-10_21h18.45.647,SL_sali,2021.2.3,Win32,60.60606061,0.9366,,,78,0,78,0,1,,,,,,,,
,,"[""circle"",""red"",""vert"",""up"",[0,150],[150,0]]",circle,red,vert,up,"[0,150]","[150,0]",up,1,,,,,,001,2025-03-10_21h18.45.647,SL_sali,2021.2.3,Win32,60.60606061,0.7263,,,79,0,79,0,1,,,,,,,,
,,"[""diamond"",""red"",""hori"",""left"",[106,-106],[0,-150]]",diamond,red,hori,left,"[106,-106]","[0,-150]",left,1,,,,,,001,2025-03-10_21h18.45.647,SL_sali,2021.2.3,Win32,60.60606061,1.2393,,,80,0,80,0,1,,,,,,,,
,,"[""circle"",""green"",""vert"",""up"",[0,150],[-150,0]]",circle,green,vert,up,"[0,150]","[-150,0]",up,1,,,,,,001,2025-03-10_21h18.45.647,SL_sali,2021.2.3,Win32,60.60606061,0.9307,,,81,0,81,0,1,,,,,,,,
,,"[""diamond"",""green"",""vert"",""up"",[106,106],[150,0]]",diamond,green,vert,up,"[106,106]","[150,0]",up,1,,,,,,001,2025-03-10_21h18.45.647,SL_sali,2021.2.3,Win32,60.60606061,1.4333,,,82,0,82,0,1,,,,,,,,
,,"[""diamond"",""no_dis"",""hori"",""left"",[99999,99999],[150,0]]",diamond,no_dis,hori,left,"[99999,99999]","[150,0]",left,1,,,,,,001,2025-03-10_21h18.45.647,SL_sali,2021.2.3,Win32,60.60606061,0.968,,,83,0,83,0,1,,,,,,,,
,,"[""circle"",""no_dis"",""vert"",""up"",[99999,99999],[106,106]]",circle,no_dis,vert,up,"[99999,99999]","[106,106]",up,1,,,,,,001,2025-03-10_21h18.45.647,SL_sali,2021.2.3,Win32,60.60606061,1.1159,,,84,0,84,0,1,,,,,,,,
,,"[""circle"",""green"",""vert"",""up"",[106,-106],[150,0]]",circle,green,vert,up,"[106,-106]","[150,0]",up,1,,,,,,001,2025-03-10_21h18.45.647,SL_sali,2021.2.3,Win32,60.60606061,1.0501,,,85,0,85,0,1,,,,,,,,
,,"[""circle"",""no_dis"",""vert"",""up"",[99999,99999],[106,-106]]",circle,no_dis,vert,up,"[99999,99999]","[106,-106]",up,1,,,,,,001,2025-03-10_21h18.45.647,SL_sali,2021.2.3,Win32,60.60606061,1.1144,,,86,0,86,0,1,,,,,,,,
,,"[""diamond"",""green"",""hori"",""left"",[0,-150],[-106,-106]]",diamond,green,hori,left,"[0,-150]","[-106,-106]",left,1,,,,,,001,2025-03-10_21h18.45.647,SL_sali,2021.2.3,Win32,60.60606061,1.4856,,,87,0,87,0,1,,,,,,,,
,,"[""circle"",""red"",""vert"",""up"",[-150,0],[150,0]]",circle,red,vert,up,"[-150,0]","[150,0]",up,1,,,,,,001,2025-03-10_21h18.45.647,SL_sali,2021.2.3,Win32,60.60606061,1.2427,,,88,0,88,0,1,,,,,,,,
,,"[""circle"",""green"",""vert"",""up"",[106,106],[106,-106]]",circle,green,vert,up,"[106,106]","[106,-106]",up,1,,,,,,001,2025-03-10_21h18.45.647,SL_sali,2021.2.3,Win32,60.60606061,1.0336,,,89,0,89,0,1,,,,,,,,
,,"[""diamond"",""red"",""hori"",""left"",[0,150],[150,0]]",diamond,red,hori,left,"[0,150]","[150,0]",left,1,,,,,,001,2025-03-10_21h18.45.647,SL_sali,2021.2.3,Win32,60.60606061,0.9828,,,90,0,90,0,1,,,,,,,,
,,"[""circle"",""no_dis"",""hori"",""left"",[99999,99999],[150,0]]",circle,no_dis,hori,left,"[99999,99999]","[150,0]",left,1,,,,,,001,2025-03-10_21h18.45.647,SL_sali,2021.2.3,Win32,60.60606061,1.3827,,,91,0,91,0,1,,,,,,,,
,,"[""diamond"",""no_dis"",""vert"",""up"",[99999,99999],[-106,106]]",diamond,no_dis,vert,up,"[99999,99999]","[-106,106]",up,1,,,,,,001,2025-03-10_21h18.45.647,SL_sali,2021.2.3,Win32,60.60606061,0.9478,,,92,0,92,0,1,,,,,,,,
,,"[""diamond"",""no_dis"",""vert"",""up"",[99999,99999],[-106,106]]",diamond,no_dis,vert,up,"[99999,99999]","[-106,106]",up,1,,,,,,001,2025-03-10_21h18.45.647,SL_sali,2021.2.3,Win32,60.60606061,0.7338,,,93,0,93,0,1,,,,,,,,
,,"[""diamond"",""no_dis"",""hori"",""left"",[99999,99999],[-150,0]]",diamond,no_dis,hori,left,"[99999,99999]","[-150,0]",left,1,,,,,,001,2025-03-10_21h18.45.647,SL_sali,2021.2.3,Win32,60.60606061,0.7493,,,94,0,94,0,1,,,,,,,,
,,"[""diamond"",""red"",""hori"",""left"",[0,150],[-150,0]]",diamond,red,hori,left,"[0,150]","[-150,0]",left,1,,,,,,001,2025-03-10_21h18.45.647,SL_sali,2021.2.3,Win32,60.60606061,0.7843,,,95,0,95,0,1,,,,,,,,
,,"[""diamond"",""red"",""vert"",""up"",[0,150],[0,-150]]",diamond,red,vert,up,"[0,150]","[0,-150]",up,1,,,,,,001,2025-03-10_21h18.45.647,SL_sali,2021.2.3,Win32,60.60606061,1.1342,,,96,0,96,0,1,,,,,,,,
,,"[""diamond"",""green"",""hori"",""left"",[0,-150],[106,106]]",diamond,green,hori,left,"[0,-150]","[106,106]",left,1,,,,,,001,2025-03-10_21h18.45.647,SL_sali,2021.2.3,Win32,60.60606061,0.7833,,,97,0,97,0,1,,,,,,,,
,,"[""circle"",""green"",""hori"",""left"",[106,106],[0,150]]",circle,green,hori,left,"[106,106]","[0,150]",left,1,,,,,,001,2025-03-10_21h18.45.647,SL_sali,2021.2.3,Win32,60.60606061,1.4,,,98,0,98,0,1,,,,,,,,
,,"[""circle"",""no_dis"",""vert"",""up"",[99999,99999],[106,-106]]",circle,no_dis,vert,up,"[99999,99999]","[106,-106]",up,1,,,,,,001,2025-03-10_21h18.45.647,SL_sali,2021.2.3,Win32,60.60606061,1.1006,,,99,0,99,0,1,,,,,,,,
,,"[""diamond"",""no_dis"",""hori"",""left"",[99999,99999],[106,-106]]",diamond,no_dis,hori,left,"[99999,99999]","[106,-106]",left,1,,,,,,001,2025-03-10_21h18.45.647,SL_sali,2021.2.3,Win32,60.60606061,1.7506,,,100,0,100,0,1,,,,,,,,
,,"[""diamond"",""green"",""hori"",""left"",[0,150],[0,-150]]",diamond,green,hori,left,"[0,150]","[0,-150]",left,1,,,,,,001,2025-03-10_21h18.45.647,SL_sali,2021.2.3,Win32,60.60606061,0.9332,,,101,0,101,0,1,,,,,,,,
,,"[""circle"",""green"",""hori"",""left"",[106,106],[-106,-106]]",circle,green,hori,left,"[106,106]","[-106,-106]",left,1,,,,,,001,2025-03-10_21h18.45.647,SL_sali,2021.2.3,Win32,60.60606061,0.9683,,,102,0,102,0,1,,,,,,,,
,,"[""diamond"",""green"",""hori"",""left"",[106,106],[0,-150]]",diamond,green,hori,left,"[106,106]","[0,-150]",left,1,,,,,,001,2025-03-10_21h18.45.647,SL_sali,2021.2.3,Win32,60.60606061,1.0496,,,103,0,103,0,1,,,,,,,,
,,"[""circle"",""green"",""vert"",""up"",[-106,-106],[150,0]]",circle,green,vert,up,"[-106,-106]","[150,0]",up,1,,,,,,001,2025-03-10_21h18.45.647,SL_sali,2021.2.3,Win32,60.60606061,0.8228,,,104,0,104,0,1,,,,,,,,
,,"[""diamond"",""green"",""vert"",""up"",[-106,-106],[106,106]]",diamond,green,vert,up,"[-106,-106]","[106,106]",up,1,,,,,,001,2025-03-10_21h18.45.647,SL_sali,2021.2.3,Win32,60.60606061,1.0665,,,105,0,105,0,1,,,,,,,,
,,"[""diamond"",""green"",""vert"",""up"",[0,150],[-106,-106]]",diamond,green,vert,up,"[0,150]","[-106,-106]",up,1,,,,,,001,2025-03-10_21h18.45.647,SL_sali,2021.2.3,Win32,60.60606061,0.8917,,,106,0,106,0,1,,,,,,,,
,,"[""circle"",""no_dis"",""hori"",""left"",[99999,99999],[0,-150]]",circle,no_dis,hori,left,"[99999,99999]","[0,-150]",left,1,,,,,,001,2025-03-10_21h18.45.647,SL_sali,2021.2.3,Win32,60.60606061,0.7948,,,107,0,107,0,1,,,,,,,,
,,"[""diamond"",""green"",""vert"",""up"",[0,150],[106,106]]",diamond,green,vert,up,"[0,150]","[106,106]",up,1,,,,,,001,2025-03-10_21h18.45.647,SL_sali,2021.2.3,Win32,60.60606061,1.1818,,,108,0,108,0,1,,,,,,,,
,,"[""diamond"",""no_dis"",""hori"",""left"",[99999,99999],[0,150]]",diamond,no_dis,hori,left,"[99999,99999]","[0,150]",left,1,,,,,,001,2025-03-10_21h18.45.647,SL_sali,2021.2.3,Win32,60.60606061,1.7029,,,109,0,109,0,1,,,,,,,,
,,"[""circle"",""green"",""hori"",""left"",[-106,106],[-150,0]]",circle,green,hori,left,"[-106,106]","[-150,0]",left,1,,,,,,001,2025-03-10_21h18.45.647,SL_sali,2021.2.3,Win32,60.60606061,1.1166,,,110,0,110,0,1,,,,,,,,
,,"[""circle"",""green"",""vert"",""up"",[0,150],[0,-150]]",circle,green,vert,up,"[0,150]","[0,-150]",up,1,,,,,,001,2025-03-10_21h18.45.647,SL_sali,2021.2.3,Win32,60.60606061,0.8257,,,111,0,111,0,1,,,,,,,,
,,"[""diamond"",""no_dis"",""vert"",""up"",[99999,99999],[-150,0]]",diamond,no_dis,vert,up,"[99999,99999]","[-150,0]",up,1,,,,,,001,2025-03-10_21h18.45.647,SL_sali,2021.2.3,Win32,60.60606061,1.1829,,,112,0,112,0,1,,,,,,,,
,,"[""diamond"",""green"",""hori"",""left"",[106,106],[-150,0]]",diamond,green,hori,left,"[106,106]","[-150,0]",left,1,,,,,,001,2025-03-10_21h18.45.647,SL_sali,2021.2.3,Win32,60.60606061,1.0672,,,113,0,113,0,1,,,,,,,,
,,"[""circle"",""red"",""vert"",""up"",[-106,106],[-150,0]]",circle,red,vert,up,"[-106,106]","[-150,0]",up,1,,,,,,001,2025-03-10_21h18.45.647,SL_sali,2021.2.3,Win32,60.60606061,1.4595,,,114,0,114,0,1,,,,,,,,
,,"[""diamond"",""red"",""hori"",""left"",[-106,106],[0,150]]",diamond,red,hori,left,"[-106,106]","[0,150]",left,1,,,,,,001,2025-03-10_21h18.45.647,SL_sali,2021.2.3,Win32,60.60606061,0.9227,,,115,0,115,0,1,,,,,,,,
,,"[""diamond"",""red"",""hori"",""left"",[-106,106],[150,0]]",diamond,red,hori,left,"[-106,106]","[150,0]",left,1,,,,,,001,2025-03-10_21h18.45.647,SL_sali,2021.2.3,Win32,60.60606061,1.0348,,,116,0,116,0,1,,,,,,,,
,,"[""circle"",""no_dis"",""hori"",""left"",[99999,99999],[106,106]]",circle,no_dis,hori,left,"[99999,99999]","[106,106]",left,1,,,,,,001,2025-03-10_21h18.45.647,SL_sali,2021.2.3,Win32,60.60606061,0.7998,,,117,0,117,0,1,,,,,,,,
,,"[""circle"",""no_dis"",""hori"",""left"",[99999,99999],[0,-150]]",circle,no_dis,hori,left,"[99999,99999]","[0,-150]",left,1,,,,,,001,2025-03-10_21h18.45.647,SL_sali,2021.2.3,Win32,60.60606061,0.75,,,118,0,118,0,1,,,,,,,,
,,"[""diamond"",""no_dis"",""hori"",""left"",[99999,99999],[0,150]]",diamond,no_dis,hori,left,"[99999,99999]","[0,150]",left,1,,,,,,001,2025-03-10_21h18.45.647,SL_sali,2021.2.3,Win32,60.60606061,1.1497,,,119,0,119,0,1,,,,,,,,
,,,,,,,,,,,,,,,,001,2025-03-10_21h18.45.647,SL_sali,2021.2.3,Win32,60.60606061,,,,,,,,,3,space,60.6139,2,0,2,0,1
,,"[""circle"",""green"",""vert"",""up"",[150,0],[0,-150]]",circle,green,vert,up,"[150,0]","[0,-150]",up,1,,,,,,001,2025-03-10_21h18.45.647,SL_sali,2021.2.3,Win32,60.60606061,1.4333,,,0,0,0,0,1,,,,,,,,
,,"[""circle"",""green"",""vert"",""up"",[106,106],[106,-106]]",circle,green,vert,up,"[106,106]","[106,-106]",up,1,,,,,,001,2025-03-10_21h18.45.647,SL_sali,2021.2.3,Win32,60.60606061,1.3501,,,1,0,1,0,1,,,,,,,,
,,"[""diamond"",""red"",""vert"",""up"",[0,150],[0,-150]]",diamond,red,vert,up,"[0,150]","[0,-150]",up,1,,,,,,001,2025-03-10_21h18.45.647,SL_sali,2021.2.3,Win32,60.60606061,1.1665,,,2,0,2,0,1,,,,,,,,
,,"[""circle"",""red"",""vert"",""up"",[150,0],[106,-106]]",circle,red,vert,up,"[150,0]","[106,-106]",up,1,,,,,,001,2025-03-10_21h18.45.647,SL_sali,2021.2.3,Win32,60.60606061,1.1232,,,3,0,3,0,1,,,,,,,,
,,"[""circle"",""red"",""vert"",""up"",[150,0],[106,106]]",circle,red,vert,up,"[150,0]","[106,106]",up,1,,,,,,001,2025-03-10_21h18.45.647,SL_sali,2021.2.3,Win32,60.60606061,1.1335,,,4,0,4,0,1,,,,,,,,
,,"[""diamond"",""no_dis"",""vert"",""up"",[99999,99999],[150,0]]",diamond,no_dis,vert,up,"[99999,99999]","[150,0]",up,1,,,,,,001,2025-03-10_21h18.45.647,SL_sali,2021.2.3,Win32,60.60606061,1.1286,,,5,0,5,0,1,,,,,,,,
,,"[""circle"",""no_dis"",""vert"",""up"",[99999,99999],[-106,-106]]",circle,no_dis,vert,up,"[99999,99999]","[-106,-106]",up,1,,,,,,001,2025-03-10_21h18.45.647,SL_sali,2021.2.3,Win32,60.60606061,0.8671,,,6,0,6,0,1,,,,,,,,
,,"[""diamond"",""green"",""hori"",""left"",[106,-106],[106,106]]",diamond,green,hori,left,"[106,-106]","[106,106]",left,1,,,,,,001,2025-03-10_21h18.45.647,SL_sali,2021.2.3,Win32,60.60606061,1.4985,,,7,0,7,0,1,,,,,,,,
,,"[""circle"",""red"",""vert"",""up"",[-106,-106],[-106,106]]",circle,red,vert,up,"[-106,-106]","[-106,106]",up,1,,,,,,001,2025-03-10_21h18.45.647,SL_sali,2021.2.3,Win32,60.60606061,1.3001,,,8,0,8,0,1,,,,,,,,
,,"[""circle"",""green"",""vert"",""up"",[0,150],[0,-150]]",circle,green,vert,up,"[0,150]","[0,-150]",up,1,,,,,,001,2025-03-10_21h18.45.647,SL_sali,2021.2.3,Win32,60.60606061,0.8438,,,9,0,9,0,1,,,,,,,,
,,"[""circle"",""green"",""vert"",""up"",[-106,106],[-106,-106]]",circle,green,vert,up,"[-106,106]","[-106,-106]",up,1,,,,,,001,2025-03-10_21h18.45.647,SL_sali,2021.2.3,Win32,60.60606061,0.7992,,,10,0,10,0,1,,,,,,,,
,,"[""diamond"",""green"",""hori"",""left"",[150,0],[106,-106]]",diamond,green,hori,left,"[150,0]","[106,-106]",left,1,,,,,,001,2025-03-10_21h18.45.647,SL_sali,2021.2.3,Win32,60.60606061,0.9493,,,11,0,11,0,1,,,,,,,,
,,"[""circle"",""green"",""hori"",""left"",[0,150],[150,0]]",circle,green,hori,left,"[0,150]","[150,0]",left,1,,,,,,001,2025-03-10_21h18.45.647,SL_sali,2021.2.3,Win32,60.60606061,0.6667,,,12,0,12,0,1,,,,,,,,
,,"[""diamond"",""red"",""vert"",""up"",[-106,-106],[-106,106]]",diamond,red,vert,up,"[-106,-106]","[-106,106]",up,1,,,,,,001,2025-03-10_21h18.45.647,SL_sali,2021.2.3,Win32,60.60606061,0.8,,,13,0,13,0,1,,,,,,,,
,,"[""circle"",""no_dis"",""vert"",""up"",[99999,99999],[106,-106]]",circle,no_dis,vert,up,"[99999,99999]","[106,-106]",up,1,,,,,,001,2025-03-10_21h18.45.647,SL_sali,2021.2.3,Win32,60.60606061,0.8176,,,14,0,14,0,1,,,,,,,,
,,"[""diamond"",""green"",""hori"",""left"",[0,150],[0,-150]]",diamond,green,hori,left,"[0,150]","[0,-150]",left,1,,,,,,001,2025-03-10_21h18.45.647,SL_sali,2021.2.3,Win32,60.60606061,0.8493,,,15,0,15,0,1,,,,,,,,
,,"[""diamond"",""no_dis"",""hori"",""left"",[99999,99999],[-106,-106]]",diamond,no_dis,hori,left,"[99999,99999]","[-106,-106]",left,1,,,,,,001,2025-03-10_21h18.45.647,SL_sali,2021.2.3,Win32,60.60606061,0.8668,,,16,0,16,0,1,,,,,,,,
,,"[""diamond"",""no_dis"",""hori"",""left"",[99999,99999],[150,0]]",diamond,no_dis,hori,left,"[99999,99999]","[150,0]",left,1,,,,,,001,2025-03-10_21h18.45.647,SL_sali,2021.2.3,Win32,60.60606061,0.7839,,,17,0,17,0,1,,,,,,,,
,,"[""circle"",""red"",""hori"",""left"",[-106,106],[0,150]]",circle,red,hori,left,"[-106,106]","[0,150]",left,1,,,,,,001,2025-03-10_21h18.45.647,SL_sali,2021.2.3,Win32,60.60606061,1.155,,,18,0,18,0,1,,,,,,,,
,,"[""diamond"",""red"",""vert"",""up"",[0,-150],[150,0]]",diamond,red,vert,up,"[0,-150]","[150,0]",up,1,,,,,,001,2025-03-10_21h18.45.647,SL_sali,2021.2.3,Win32,60.60606061,1.0165,,,19,0,19,0,1,,,,,,,,
,,"[""circle"",""no_dis"",""hori"",""left"",[99999,99999],[-106,106]]",circle,no_dis,hori,left,"[99999,99999]","[-106,106]",left,1,,,,,,001,2025-03-10_21h18.45.647,SL_sali,2021.2.3,Win32,60.60606061,1.2663,,,20,0,20,0,1,,,,,,,,
,,"[""circle"",""no_dis"",""hori"",""left"",[99999,99999],[-106,-106]]",circle,no_dis,hori,left,"[99999,99999]","[-106,-106]",left,1,,,,,,001,2025-03-10_21h18.45.647,SL_sali,2021.2.3,Win32,60.60606061,0.6193,,,21,0,21,0,1,,,,,,,,
,,"[""diamond"",""green"",""vert"",""up"",[0,150],[0,-150]]",diamond,green,vert,up,"[0,150]","[0,-150]",up,1,,,,,,001,2025-03-10_21h18.45.647,SL_sali,2021.2.3,Win32,60.60606061,0.9251,,,22,0,22,0,1,,,,,,,,
,,"[""circle"",""red"",""hori"",""left"",[-150,0],[0,-150]]",circle,red,hori,left,"[-150,0]","[0,-150]",left,1,,,,,,001,2025-03-10_21h18.45.647,SL_sali,2021.2.3,Win32,60.60606061,0.9427,,,23,0,23,0,1,,,,,,,,
,,"[""circle"",""green"",""vert"",""up"",[0,150],[-150,0]]",circle,green,vert,up,"[0,150]","[-150,0]",up,1,,,,,,001,2025-03-10_21h18.45.647,SL_sali,2021.2.3,Win32,60.60606061,1.0458,,,24,0,24,0,1,,,,,,,,
,,"[""diamond"",""red"",""vert"",""up"",[0,150],[0,-150]]",diamond,red,vert,up,"[0,150]","[0,-150]",up,1,,,,,,001,2025-03-10_21h18.45.647,SL_sali,2021.2.3,Win32,60.60606061,1.0502,,,25,0,25,0,1,,,,,,,,
,,"[""diamond"",""red"",""vert"",""up"",[150,0],[106,-106]]",diamond,red,vert,up,"[150,0]","[106,-106]",up,1,,,,,,001,2025-03-10_21h18.45.647,SL_sali,2021.2.3,Win32,60.60606061,0.9686,,,26,0,26,0,1,,,,,,,,
,,"[""diamond"",""green"",""vert"",""up"",[-106,-106],[150,0]]",diamond,green,vert,up,"[-106,-106]","[150,0]",up,1,,,,,,001,2025-03-10_21h18.45.647,SL_sali,2021.2.3,Win32,60.60606061,1.0993,,,27,0,27,0,1,,,,,,,,
,,"[""diamond"",""red"",""hori"",""left"",[106,-106],[0,-150]]",diamond,red,hori,left,"[106,-106]","[0,-150]",left,1,,,,,,001,2025-03-10_21h18.45.647,SL_sali,2021.2.3,Win32,60.60606061,1.7339,,,28,0,28,0,1,,,,,,,,
,,"[""diamond"",""green"",""vert"",""up"",[0,150],[-106,-106]]",diamond,green,vert,up,"[0,150]","[-106,-106]",up,1,,,,,,001,2025-03-10_21h18.45.647,SL_sali,2021.2.3,Win32,60.60606061,0.8978,,,29,0,29,0,1,,,,,,,,
,,"[""diamond"",""red"",""hori"",""left"",[-106,106],[-106,-106]]",diamond,red,hori,left,"[-106,106]","[-106,-106]",left,1,,,,,,001,2025-03-10_21h18.45.647,SL_sali,2021.2.3,Win32,60.60606061,0.9565,,,30,0,30,0,1,,,,,,,,
,,"[""circle"",""green"",""vert"",""up"",[-150,0],[106,-106]]",circle,green,vert,up,"[-150,0]","[106,-106]",up,1,,,,,,001,2025-03-10_21h18.45.647,SL_sali,2021.2.3,Win32,60.60606061,0.954,,,31,0,31,0,1,,,,,,,,
,,"[""diamond"",""no_dis"",""vert"",""up"",[99999,99999],[0,-150]]",diamond,no_dis,vert,up,"[99999,99999]","[0,-150]",up,1,,,,,,001,2025-03-10_21h18.45.647,SL_sali,2021.2.3,Win32,60.60606061,0.9651,,,32,0,32,0,1,,,,,,,,
,,"[""circle"",""green"",""hori"",""left"",[-150,0],[150,0]]",circle,green,hori,left,"[-150,0]","[150,0]",left,1,,,,,,001,2025-03-10_21h18.45.647,SL_sali,2021.2.3,Win32,60.60606061,1.1336,,,33,0,33,0,1,,,,,,,,
,,"[""diamond"",""red"",""hori"",""left"",[-106,106],[150,0]]",diamond,red,hori,left,"[-106,106]","[150,0]",left,1,,,,,,001,2025-03-10_21h18.45.647,SL_sali,2021.2.3,Win32,60.60606061,1.5324,,,34,0,34,0,1,,,,,,,,
,,"[""circle"",""green"",""vert"",""up"",[0,-150],[-106,-106]]",circle,green,vert,up,"[0,-150]","[-106,-106]",up,1,,,,,,001,2025-03-10_21h18.45.647,SL_sali,2021.2.3,Win32,60.60606061,0.9241,,,35,0,35,0,1,,,,,,,,
,,"[""circle"",""red"",""vert"",""up"",[-106,106],[-150,0]]",circle,red,vert,up,"[-106,106]","[-150,0]",up,1,,,,,,001,2025-03-10_21h18.45.647,SL_sali,2021.2.3,Win32,60.60606061,0.9844,,,36,0,36,0,1,,,,,,,,
,,"[""diamond"",""no_dis"",""hori"",""left"",[99999,99999],[-150,0]]",diamond,no_dis,hori,left,"[99999,99999]","[-150,0]",left,1,,,,,,001,2025-03-10_21h18.45.647,SL_sali,2021.2.3,Win32,60.60606061,0.9002,,,37,0,37,0,1,,,,,,,,
,,"[""circle"",""red"",""hori"",""left"",[0,150],[106,106]]",circle,red,hori,left,"[0,150]","[106,106]",left,1,,,,,,001,2025-03-10_21h18.45.647,SL_sali,2021.2.3,Win32,60.60606061,1.3664,,,38,0,38,0,1,,,,,,,,
,,"[""diamond"",""green"",""vert"",""up"",[0,-150],[150,0]]",diamond,green,vert,up,"[0,-150]","[150,0]",up,1,,,,,,001,2025-03-10_21h18.45.647,SL_sali,2021.2.3,Win32,60.60606061,1.0332,,,39,0,39,0,1,,,,,,,,
,,"[""diamond"",""green"",""vert"",""up"",[0,150],[106,106]]",diamond,green,vert,up,"[0,150]","[106,106]",up,1,,,,,,001,2025-03-10_21h18.45.647,SL_sali,2021.2.3,Win32,60.60606061,0.7513,,,40,0,40,0,1,,,,,,,,
,,"[""diamond"",""red"",""vert"",""up"",[-150,0],[0,-150]]",diamond,red,vert,up,"[-150,0]","[0,-150]",up,1,,,,,,001,2025-03-10_21h18.45.647,SL_sali,2021.2.3,Win32,60.60606061,1.0799,,,41,0,41,0,1,,,,,,,,
,,"[""circle"",""red"",""vert"",""up"",[0,-150],[-150,0]]",circle,red,vert,up,"[0,-150]","[-150,0]",up,1,,,,,,001,2025-03-10_21h18.45.647,SL_sali,2021.2.3,Win32,60.60606061,0.9871,,,42,0,42,0,1,,,,,,,,
,,"[""diamond"",""red"",""vert"",""up"",[106,-106],[150,0]]",diamond,red,vert,up,"[106,-106]","[150,0]",up,1,,,,,,001,2025-03-10_21h18.45.647,SL_sali,2021.2.3,Win32,60.60606061,1.0676,,,43,0,43,0,1,,,,,,,,
,,"[""circle"",""red"",""vert"",""up"",[-106,106],[-150,0]]",circle,red,vert,up,"[-106,106]","[-150,0]",up,1,,,,,,001,2025-03-10_21h18.45.647,SL_sali,2021.2.3,Win32,60.60606061,0.9488,,,44,0,44,0,1,,,,,,,,
,,"[""circle"",""red"",""hori"",""left"",[0,150],[-150,0]]",circle,red,hori,left,"[0,150]","[-150,0]",left,1,,,,,,001,2025-03-10_21h18.45.647,SL_sali,2021.2.3,Win32,60.60606061,0.9823,,,45,0,45,0,1,,,,,,,,
,,"[""circle"",""no_dis"",""hori"",""left"",[99999,99999],[0,150]]",circle,no_dis,hori,left,"[99999,99999]","[0,150]",left,1,,,,,,001,2025-03-10_21h18.45.647,SL_sali,2021.2.3,Win32,60.60606061,1.2525,,,46,0,46,0,1,,,,,,,,
,,"[""diamond"",""red"",""vert"",""up"",[106,106],[-106,-106]]",diamond,red,vert,up,"[106,106]","[-106,-106]",up,1,,,,,,001,2025-03-10_21h18.45.647,SL_sali,2021.2.3,Win32,60.60606061,1.2715,,,47,0,47,0,1,,,,,,,,
,,"[""diamond"",""green"",""vert"",""up"",[106,106],[150,0]]",diamond,green,vert,up,"[106,106]","[150,0]",up,1,,,,,,001,2025-03-10_21h18.45.647,SL_sali,2021.2.3,Win32,60.60606061,0.789,,,48,0,48,0,1,,,,,,,,
,,"[""circle"",""red"",""vert"",""up"",[106,-106],[106,106]]",circle,red,vert,up,"[106,-106]","[106,106]",up,1,,,,,,001,2025-03-10_21h18.45.647,SL_sali,2021.2.3,Win32,60.60606061,0.8343,,,49,0,49,0,1,,,,,,,,
,,"[""diamond"",""green"",""vert"",""up"",[0,150],[150,0]]",diamond,green,vert,up,"[0,150]","[150,0]",up,1,,,,,,001,2025-03-10_21h18.45.647,SL_sali,2021.2.3,Win32,60.60606061,0.7568,,,50,0,50,0,1,,,,,,,,
,,"[""circle"",""green"",""hori"",""left"",[-150,0],[-106,106]]",circle,green,hori,left,"[-150,0]","[-106,106]",left,1,,,,,,001,2025-03-10_21h18.45.647,SL_sali,2021.2.3,Win32,60.60606061,1.0315,,,51,0,51,0,1,,,,,,,,
,,"[""diamond"",""no_dis"",""vert"",""up"",[99999,99999],[-106,106]]",diamond,no_dis,vert,up,"[99999,99999]","[-106,106]",up,1,,,,,,001,2025-03-10_21h18.45.647,SL_sali,2021.2.3,Win32,60.60606061,1.0491,,,52,0,52,0,1,,,,,,,,
,,"[""diamond"",""no_dis"",""hori"",""left"",[99999,99999],[-106,-106]]",diamond,no_dis,hori,left,"[99999,99999]","[-106,-106]",left,1,,,,,,001,2025-03-10_21h18.45.647,SL_sali,2021.2.3,Win32,60.60606061,0.8673,,,53,0,53,0,1,,,,,,,,
,,"[""circle"",""no_dis"",""hori"",""left"",[99999,99999],[150,0]]",circle,no_dis,hori,left,"[99999,99999]","[150,0]",left,1,,,,,,001,2025-03-10_21h18.45.647,SL_sali,2021.2.3,Win32,60.60606061,1.149,,,54,0,54,0,1,,,,,,,,
,,"[""diamond"",""no_dis"",""hori"",""left"",[99999,99999],[-106,-106]]",diamond,no_dis,hori,left,"[99999,99999]","[-106,-106]",left,1,,,,,,001,2025-03-10_21h18.45.647,SL_sali,2021.2.3,Win32,60.60606061,0.7996,,,55,0,55,0,1,,,,,,,,
,,"[""circle"",""red"",""vert"",""up"",[0,150],[150,0]]",circle,red,vert,up,"[0,150]","[150,0]",up,1,,,,,,001,2025-03-10_21h18.45.647,SL_sali,2021.2.3,Win32,60.60606061,1.1004,,,56,0,56,0,1,,,,,,,,
,,"[""diamond"",""no_dis"",""vert"",""up"",[99999,99999],[150,0]]",diamond,no_dis,vert,up,"[99999,99999]","[150,0]",up,1,,,,,,001,2025-03-10_21h18.45.647,SL_sali,2021.2.3,Win32,60.60606061,1.2503,,,57,0,57,0,1,,,,,,,,
,,"[""circle"",""green"",""hori"",""left"",[0,150],[-106,-106]]",circle,green,hori,left,"[0,150]","[-106,-106]",left,1,,,,,,001,2025-03-10_21h18.45.647,SL_sali,2021.2.3,Win32,60.60606061,0.9226,,,58,0,58,0,1,,,,,,,,
,,"[""diamond"",""red"",""hori"",""left"",[0,-150],[106,106]]",diamond,red,hori,left,"[0,-150]","[106,106]",left,1,,,,,,001,2025-03-10_21h18.45.647,SL_sali,2021.2.3,Win32,60.60606061,1.3139,,,59,0,59,0,1,,,,,,,,
,,"[""diamond"",""green"",""hori"",""left"",[106,106],[0,-150]]",diamond,green,hori,left,"[106,106]","[0,-150]",left,1,,,,,,001,2025-03-10_21h18.45.647,SL_sali,2021.2.3,Win32,60.60606061,1.0509,,,60,0,60,0,1,,,,,,,,
,,"[""circle"",""no_dis"",""vert"",""up"",[99999,99999],[-150,0]]",circle,no_dis,vert,up,"[99999,99999]","[-150,0]",up,1,,,,,,001,2025-03-10_21h18.45.647,SL_sali,2021.2.3,Win32,60.60606061,0.9167,,,61,0,61,0,1,,,,,,,,
,,"[""circle"",""no_dis"",""vert"",""up"",[99999,99999],[-106,106]]",circle,no_dis,vert,up,"[99999,99999]","[-106,106]",up,1,,,,,,001,2025-03-10_21h18.45.647,SL_sali,2021.2.3,Win32,60.60606061,1.0217,,,62,0,62,0,1,,,,,,,,
,,"[""diamond"",""no_dis"",""vert"",""up"",[99999,99999],[150,0]]",diamond,no_dis,vert,up,"[99999,99999]","[150,0]",up,1,,,,,,001,2025-03-10_21h18.45.647,SL_sali,2021.2.3,Win32,60.60606061,1.2696,,,63,0,63,0,1,,,,,,,,
,,"[""circle"",""red"",""hori"",""left"",[-150,0],[106,-106]]",circle,red,hori,left,"[-150,0]","[106,-106]",left,1,,,,,,001,2025-03-10_21h18.45.647,SL_sali,2021.2.3,Win32,60.60606061,0.9825,,,64,0,64,0,1,,,,,,,,
,,"[""diamond"",""no_dis"",""vert"",""up"",[99999,99999],[106,-106]]",diamond,no_dis,vert,up,"[99999,99999]","[106,-106]",up,1,,,,,,001,2025-03-10_21h18.45.647,SL_sali,2021.2.3,Win32,60.60606061,0.9781,,,65,0,65,0,1,,,,,,,,
,,"[""circle"",""no_dis"",""hori"",""left"",[99999,99999],[106,106]]",circle,no_dis,hori,left,"[99999,99999]","[106,106]",left,1,,,,,,001,2025-03-10_21h18.45.647,SL_sali,2021.2.3,Win32,60.60606061,0.9218,,,66,0,66,0,1,,,,,,,,
,,"[""circle"",""no_dis"",""hori"",""left"",[99999,99999],[0,-150]]",circle,no_dis,hori,left,"[99999,99999]","[0,-150]",left,1,,,,,,001,2025-03-10_21h18.45.647,SL_sali,2021.2.3,Win32,60.60606061,0.8002,,,67,0,67,0,1,,,,,,,,
,,"[""circle"",""green"",""vert"",""up"",[106,-106],[150,0]]",circle,green,vert,up,"[106,-106]","[150,0]",up,1,,,,,,001,2025-03-10_21h18.45.647,SL_sali,2021.2.3,Win32,60.60606061,0.8072,,,68,0,68,0,1,,,,,,,,
,,"[""diamond"",""green"",""vert"",""up"",[-106,-106],[106,106]]",diamond,green,vert,up,"[-106,-106]","[106,106]",up,1,,,,,,001,2025-03-10_21h18.45.647,SL_sali,2021.2.3,Win32,60.60606061,1.123,,,69,0,69,0,1,,,,,,,,
,,"[""diamond"",""red"",""hori"",""left"",[0,150],[-150,0]]",diamond,red,hori,left,"[0,150]","[-150,0]",left,1,,,,,,001,2025-03-10_21h18.45.647,SL_sali,2021.2.3,Win32,60.60606061,1.1838,,,70,0,70,0,1,,,,,,,,
,,"[""circle"",""green"",""hori"",""left"",[-106,106],[-150,0]]",circle,green,hori,left,"[-106,106]","[-150,0]",left,1,,,,,,001,2025-03-10_21h18.45.647,SL_sali,2021.2.3,Win32,60.60606061,0.9835,,,71,0,71,0,1,,,,,,,,
,,"[""circle"",""red"",""hori"",""left"",[0,150],[106,-106]]",circle,red,hori,left,"[0,150]","[106,-106]",left,1,,,,,,001,2025-03-10_21h18.45.647,SL_sali,2021.2.3,Win32,60.60606061,0.9332,,,72,0,72,0,1,,,,,,,,
,,"[""diamond"",""red"",""hori"",""left"",[0,150],[150,0]]",diamond,red,hori,left,"[0,150]","[150,0]",left,1,,,,,,001,2025-03-10_21h18.45.647,SL_sali,2021.2.3,Win32,60.60606061,0.821,,,73,0,73,0,1,,,,,,,,
,,"[""diamond"",""green"",""hori"",""left"",[0,150],[106,106]]",diamond,green,hori,left,"[0,150]","[106,106]",left,1,,,,,,001,2025-03-10_21h18.45.647,SL_sali,2021.2.3,Win32,60.60606061,1.0183,,,74,0,74,0,1,,,,,,,,
,,"[""circle"",""no_dis"",""vert"",""up"",[99999,99999],[-150,0]]",circle,no_dis,vert,up,"[99999,99999]","[-150,0]",up,1,,,,,,001,2025-03-10_21h18.45.647,SL_sali,2021.2.3,Win32,60.60606061,1.4037,,,75,0,75,0,1,,,,,,,,
,,"[""circle"",""red"",""hori"",""left"",[106,-106],[106,106]]",circle,red,hori,left,"[106,-106]","[106,106]",left,1,,,,,,001,2025-03-10_21h18.45.647,SL_sali,2021.2.3,Win32,60.60606061,1.1333,,,76,0,76,0,1,,,,,,,,
,,"[""diamond"",""no_dis"",""hori"",""left"",[99999,99999],[106,-106]]",diamond,no_dis,hori,left,"[99999,99999]","[106,-106]",left,1,,,,,,001,2025-03-10_21h18.45.647,SL_sali,2021.2.3,Win32,60.60606061,1.1824,,,77,0,77,0,1,,,,,,,,
,,"[""circle"",""green"",""vert"",""up"",[-106,-106],[150,0]]",circle,green,vert,up,"[-106,-106]","[150,0]",up,1,,,,,,001,2025-03-10_21h18.45.647,SL_sali,2021.2.3,Win32,60.60606061,1.135,,,78,0,78,0,1,,,,,,,,
,,"[""diamond"",""green"",""vert"",""up"",[0,150],[-106,106]]",diamond,green,vert,up,"[0,150]","[-106,106]",up,1,,,,,,001,2025-03-10_21h18.45.647,SL_sali,2021.2.3,Win32,60.60606061,0.9512,,,79,0,79,0,1,,,,,,,,
,,"[""diamond"",""no_dis"",""vert"",""up"",[99999,99999],[106,106]]",diamond,no_dis,vert,up,"[99999,99999]","[106,106]",up,1,,,,,,001,2025-03-10_21h18.45.647,SL_sali,2021.2.3,Win32,60.60606061,0.8738,,,80,0,80,0,1,,,,,,,,
,,"[""circle"",""green"",""hori"",""left"",[0,-150],[-150,0]]",circle,green,hori,left,"[0,-150]","[-150,0]",left,1,,,,,,001,2025-03-10_21h18.45.647,SL_sali,2021.2.3,Win32,60.60606061,1.0669,,,81,0,81,0,1,,,,,,,,
,,"[""diamond"",""red"",""vert"",""up"",[-106,-106],[0,-150]]",diamond,red,vert,up,"[-106,-106]","[0,-150]",up,1,,,,,,001,2025-03-10_21h18.45.647,SL_sali,2021.2.3,Win32,60.60606061,0.9848,,,82,0,82,0,1,,,,,,,,
,,"[""circle"",""no_dis"",""hori"",""left"",[99999,99999],[106,-106]]",circle,no_dis,hori,left,"[99999,99999]","[106,-106]",left,1,,,,,,001,2025-03-10_21h18.45.647,SL_sali,2021.2.3,Win32,60.60606061,0.7672,,,83,0,83,0,1,,,,,,,,
,,"[""diamond"",""no_dis"",""vert"",""up"",[99999,99999],[-150,0]]",diamond,no_dis,vert,up,"[99999,99999]","[-150,0]",up,1,,,,,,001,2025-03-10_21h18.45.647,SL_sali,2021.2.3,Win32,60.60606061,1.1011,,,84,0,84,0,1,,,,,,,,
,,"[""circle"",""no_dis"",""vert"",""up"",[99999,99999],[106,-106]]",circle,no_dis,vert,up,"[99999,99999]","[106,-106]",up,1,,,,,,001,2025-03-10_21h18.45.647,SL_sali,2021.2.3,Win32,60.60606061,1.0662,,,85,0,85,0,1,,,,,,,,
,,"[""circle"",""no_dis"",""hori"",""left"",[99999,99999],[-106,106]]",circle,no_dis,hori,left,"[99999,99999]","[-106,106]",left,1,,,,,,001,2025-03-10_21h18.45.647,SL_sali,2021.2.3,Win32,60.60606061,0.9003,,,86,0,86,0,1,,,,,,,,
,,"[""diamond"",""no_dis"",""hori"",""left"",[99999,99999],[-150,0]]",diamond,no_dis,hori,left,"[99999,99999]","[-150,0]",left,1,,,,,,001,2025-03-10_21h18.45.647,SL_sali,2021.2.3,Win32,60.60606061,1.1499,,,87,0,87,0,1,,,,,,,,
,,"[""circle"",""green"",""hori"",""left"",[106,106],[-106,-106]]",circle,green,hori,left,"[106,106]","[-106,-106]",left,1,,,,,,001,2025-03-10_21h18.45.647,SL_sali,2021.2.3,Win32,60.60606061,0.7408,,,88,0,88,0,1,,,,,,,,
,,"[""diamond"",""no_dis"",""vert"",""up"",[99999,99999],[-106,106]]",diamond,no_dis,vert,up,"[99999,99999]","[-106,106]",up,1,,,,,,001,2025-03-10_21h18.45.647,SL_sali,2021.2.3,Win32,60.60606061,0.8412,,,89,0,89,0,1,,,,,,,,
,,"[""circle"",""no_dis"",""vert"",""up"",[99999,99999],[0,150]]",circle,no_dis,vert,up,"[99999,99999]","[0,150]",up,1,,,,,,001,2025-03-10_21h18.45.647,SL_sali,2021.2.3,Win32,60.60606061,1.1003,,,90,0,90,0,1,,,,,,,,
,,"[""diamond"",""green"",""hori"",""left"",[-150,0],[0,150]]",diamond,green,hori,left,"[-150,0]","[0,150]",left,1,,,,,,001,2025-03-10_21h18.45.647,SL_sali,2021.2.3,Win32,60.60606061,1.2083,,,91,0,91,0,1,,,,,,,,
