﻿key_resp.keys,key_resp.rt,trial_para,tar_shape,dis_color_condi,tar_line,cor_resp,dis_loc,tar_loc,resp.keys,resp.corr,resp.rt,trials.thisRepN,trials.thisTrialN,trials.thisN,trials.thisIndex,trials.ran,participant,date,expName,psychopyVersion,OS,frameRate,key_resp_2.keys,key_resp_2.rt,trials_2.thisRepN,trials_2.thisTrialN,trials_2.thisN,trials_2.thisIndex,trials_2.ran,block_num,key_resp_3.keys,key_resp_3.rt,trials_3.thisRepN,trials_3.thisTrialN,trials_3.thisN,trials_3.thisIndex,trials_3.ran
space,63.0031,"[""circle"",""red"",""hori"",""left"",[0,-150],[-106,106]]",circle,red,hori,left,"[0,-150]","[-106,106]",up,0,1.9085,0,0,0,0,1,001,2025-03-11_21h02.39.603,SL_sali,2021.2.3,Win32,59.88023952,,,,,,,,,,,,,,,
,,"[""diamond"",""green"",""hori"",""left"",[106,106],[-106,106]]",diamond,green,hori,left,"[106,106]","[-106,106]",up,0,2.2938,1,0,1,0,1,001,2025-03-11_21h02.39.603,SL_sali,2021.2.3,Win32,59.88023952,,,,,,,,,,,,,,,
,,"[""diamond"",""red"",""hori"",""left"",[150,0],[-106,-106]]",diamond,red,hori,left,"[150,0]","[-106,-106]",,0,,2,0,2,0,1,001,2025-03-11_21h02.39.603,SL_sali,2021.2.3,Win32,59.88023952,,,,,,,,,,,,,,,
,,"[""circle"",""red"",""vert"",""up"",[150,0],[106,106]]",circle,red,vert,up,"[150,0]","[106,106]",,0,,3,0,3,0,1,001,2025-03-11_21h02.39.603,SL_sali,2021.2.3,Win32,59.88023952,,,,,,,,,,,,,,,
,,"[""circle"",""red"",""hori"",""left"",[0,-150],[-106,-106]]",circle,red,hori,left,"[0,-150]","[-106,-106]",left,1,2.1001,4,0,4,0,1,001,2025-03-11_21h02.39.603,SL_sali,2021.2.3,Win32,59.88023952,,,,,,,,,,,,,,,
,,"[""diamond"",""red"",""hori"",""left"",[-106,-106],[0,150]]",diamond,red,hori,left,"[-106,-106]","[0,150]",up,0,1.6332,5,0,5,0,1,001,2025-03-11_21h02.39.603,SL_sali,2021.2.3,Win32,59.88023952,,,,,,,,,,,,,,,
,,"[""circle"",""red"",""vert"",""up"",[-150,0],[106,-106]]",circle,red,vert,up,"[-150,0]","[106,-106]",left,0,2.4498,6,0,6,0,1,001,2025-03-11_21h02.39.603,SL_sali,2021.2.3,Win32,59.88023952,,,,,,,,,,,,,,,
,,"[""diamond"",""green"",""vert"",""up"",[150,0],[106,-106]]",diamond,green,vert,up,"[150,0]","[106,-106]",up,1,1.4833,7,0,7,0,1,001,2025-03-11_21h02.39.603,SL_sali,2021.2.3,Win32,59.88023952,,,,,,,,,,,,,,,
,,"[""circle"",""no_dis"",""vert"",""up"",[99999,99999],[150,0]]",circle,no_dis,vert,up,"[99999,99999]","[150,0]",up,1,2.0395,8,0,8,0,1,001,2025-03-11_21h02.39.603,SL_sali,2021.2.3,Win32,59.88023952,,,,,,,,,,,,,,,
,,"[""diamond"",""red"",""vert"",""up"",[106,-106],[150,0]]",diamond,red,vert,up,"[106,-106]","[150,0]",left,0,1.3995,9,0,9,0,1,001,2025-03-11_21h02.39.603,SL_sali,2021.2.3,Win32,59.88023952,,,,,,,,,,,,,,,
,,"[""circle"",""red"",""hori"",""left"",[0,-150],[-106,106]]",circle,red,hori,left,"[0,-150]","[-106,106]",left,1,1.6571,,,,,,001,2025-03-11_21h02.39.603,SL_sali,2021.2.3,Win32,59.88023952,space,22.8352,0,0,0,0,1,,,,,,,,
,,"[""diamond"",""green"",""hori"",""left"",[106,106],[-106,106]]",diamond,green,hori,left,"[106,106]","[-106,106]",left,1,2.2131,,,,,,001,2025-03-11_21h02.39.603,SL_sali,2021.2.3,Win32,59.88023952,,,1,0,1,0,1,,,,,,,,
,,"[""diamond"",""red"",""hori"",""left"",[150,0],[-106,-106]]",diamond,red,hori,left,"[150,0]","[-106,-106]",left,1,2.8054,,,,,,001,2025-03-11_21h02.39.603,SL_sali,2021.2.3,Win32,59.88023952,,,2,0,2,0,1,,,,,,,,
,,"[""circle"",""red"",""vert"",""up"",[150,0],[106,106]]",circle,red,vert,up,"[150,0]","[106,106]",up,1,2.4142,,,,,,001,2025-03-11_21h02.39.603,SL_sali,2021.2.3,Win32,59.88023952,,,3,0,3,0,1,,,,,,,,
,,"[""circle"",""red"",""hori"",""left"",[0,-150],[-106,-106]]",circle,red,hori,left,"[0,-150]","[-106,-106]",left,1,2.0994,,,,,,001,2025-03-11_21h02.39.603,SL_sali,2021.2.3,Win32,59.88023952,,,4,0,4,0,1,,,,,,,,
,,"[""diamond"",""red"",""hori"",""left"",[-106,-106],[0,150]]",diamond,red,hori,left,"[-106,-106]","[0,150]",left,1,2.2509,,,,,,001,2025-03-11_21h02.39.603,SL_sali,2021.2.3,Win32,59.88023952,,,5,0,5,0,1,,,,,,,,
,,"[""circle"",""red"",""vert"",""up"",[-150,0],[106,-106]]",circle,red,vert,up,"[-150,0]","[106,-106]",up,1,2.4494,,,,,,001,2025-03-11_21h02.39.603,SL_sali,2021.2.3,Win32,59.88023952,,,6,0,6,0,1,,,,,,,,
,,"[""diamond"",""green"",""vert"",""up"",[150,0],[106,-106]]",diamond,green,vert,up,"[150,0]","[106,-106]",up,1,2.3492,,,,,,001,2025-03-11_21h02.39.603,SL_sali,2021.2.3,Win32,59.88023952,,,7,0,7,0,1,,,,,,,,
,,"[""circle"",""no_dis"",""vert"",""up"",[99999,99999],[150,0]]",circle,no_dis,vert,up,"[99999,99999]","[150,0]",up,1,1.9236,,,,,,001,2025-03-11_21h02.39.603,SL_sali,2021.2.3,Win32,59.88023952,,,8,0,8,0,1,,,,,,,,
,,"[""diamond"",""red"",""vert"",""up"",[106,-106],[150,0]]",diamond,red,vert,up,"[106,-106]","[150,0]",left,0,1.5303,,,,,,001,2025-03-11_21h02.39.603,SL_sali,2021.2.3,Win32,59.88023952,,,9,0,9,0,1,,,,,,,,
,,"[""circle"",""green"",""hori"",""left"",[-106,-106],[0,-150]]",circle,green,hori,left,"[-106,-106]","[0,-150]",left,1,2.0999,,,,,,001,2025-03-11_21h02.39.603,SL_sali,2021.2.3,Win32,59.88023952,,,10,0,10,0,1,,,,,,,,
,,"[""circle"",""red"",""vert"",""up"",[-106,-106],[0,150]]",circle,red,vert,up,"[-106,-106]","[0,150]",up,1,1.7891,,,,,,001,2025-03-11_21h02.39.603,SL_sali,2021.2.3,Win32,59.88023952,,,11,0,11,0,1,,,,,,,,
,,"[""circle"",""green"",""vert"",""up"",[150,0],[106,-106]]",circle,green,vert,up,"[150,0]","[106,-106]",up,1,2.3368,,,,,,001,2025-03-11_21h02.39.603,SL_sali,2021.2.3,Win32,59.88023952,,,12,0,12,0,1,,,,,,,,
,,"[""circle"",""no_dis"",""vert"",""up"",[99999,99999],[106,106]]",circle,no_dis,vert,up,"[99999,99999]","[106,106]",up,1,1.3198,,,,,,001,2025-03-11_21h02.39.603,SL_sali,2021.2.3,Win32,59.88023952,,,13,0,13,0,1,,,,,,,,
,,"[""diamond"",""green"",""hori"",""left"",[150,0],[-150,0]]",diamond,green,hori,left,"[150,0]","[-150,0]",left,1,1.2164,,,,,,001,2025-03-11_21h02.39.603,SL_sali,2021.2.3,Win32,59.88023952,,,14,0,14,0,1,,,,,,,,
,,"[""diamond"",""green"",""hori"",""left"",[150,0],[0,-150]]",diamond,green,hori,left,"[150,0]","[0,-150]",left,1,1.2501,,,,,,001,2025-03-11_21h02.39.603,SL_sali,2021.2.3,Win32,59.88023952,,,15,0,15,0,1,,,,,,,,
,,"[""circle"",""no_dis"",""vert"",""up"",[99999,99999],[106,-106]]",circle,no_dis,vert,up,"[99999,99999]","[106,-106]",up,1,1.4195,,,,,,001,2025-03-11_21h02.39.603,SL_sali,2021.2.3,Win32,59.88023952,,,16,0,16,0,1,,,,,,,,
,,"[""diamond"",""green"",""vert"",""up"",[150,0],[106,-106]]",diamond,green,vert,up,"[150,0]","[106,-106]",up,1,1.4871,,,,,,001,2025-03-11_21h02.39.603,SL_sali,2021.2.3,Win32,59.88023952,,,17,0,17,0,1,,,,,,,,
,,"[""circle"",""no_dis"",""vert"",""up"",[99999,99999],[150,0]]",circle,no_dis,vert,up,"[99999,99999]","[150,0]",up,1,1.6224,,,,,,001,2025-03-11_21h02.39.603,SL_sali,2021.2.3,Win32,59.88023952,,,18,0,18,0,1,,,,,,,,
,,"[""diamond"",""green"",""vert"",""up"",[0,-150],[0,150]]",diamond,green,vert,up,"[0,-150]","[0,150]",up,1,1.7485,,,,,,001,2025-03-11_21h02.39.603,SL_sali,2021.2.3,Win32,59.88023952,,,19,0,19,0,1,,,,,,,,
,,"[""circle"",""no_dis"",""vert"",""up"",[99999,99999],[106,-106]]",circle,no_dis,vert,up,"[99999,99999]","[106,-106]",up,1,1.237,,,,,,001,2025-03-11_21h02.39.603,SL_sali,2021.2.3,Win32,59.88023952,,,20,0,20,0,1,,,,,,,,
,,"[""circle"",""red"",""vert"",""up"",[150,0],[0,-150]]",circle,red,vert,up,"[150,0]","[0,-150]",up,1,1.2515,,,,,,001,2025-03-11_21h02.39.603,SL_sali,2021.2.3,Win32,59.88023952,,,21,0,21,0,1,,,,,,,,
,,"[""diamond"",""no_dis"",""vert"",""up"",[99999,99999],[106,106]]",diamond,no_dis,vert,up,"[99999,99999]","[106,106]",left,0,1.7337,,,,,,001,2025-03-11_21h02.39.603,SL_sali,2021.2.3,Win32,59.88023952,,,22,0,22,0,1,,,,,,,,
,,"[""diamond"",""red"",""hori"",""left"",[150,0],[-106,-106]]",diamond,red,hori,left,"[150,0]","[-106,-106]",left,1,1.3414,,,,,,001,2025-03-11_21h02.39.603,SL_sali,2021.2.3,Win32,59.88023952,,,23,0,23,0,1,,,,,,,,
,,"[""diamond"",""no_dis"",""hori"",""left"",[99999,99999],[-106,106]]",diamond,no_dis,hori,left,"[99999,99999]","[-106,106]",left,1,0.8245,,,,,,001,2025-03-11_21h02.39.603,SL_sali,2021.2.3,Win32,59.88023952,,,24,0,24,0,1,,,,,,,,
,,"[""diamond"",""green"",""hori"",""left"",[106,-106],[-106,106]]",diamond,green,hori,left,"[106,-106]","[-106,106]",left,1,1.3976,,,,,,001,2025-03-11_21h02.39.603,SL_sali,2021.2.3,Win32,59.88023952,,,25,0,25,0,1,,,,,,,,
,,"[""diamond"",""no_dis"",""vert"",""up"",[99999,99999],[-106,106]]",diamond,no_dis,vert,up,"[99999,99999]","[-106,106]",up,1,1.1814,,,,,,001,2025-03-11_21h02.39.603,SL_sali,2021.2.3,Win32,59.88023952,,,26,0,26,0,1,,,,,,,,
,,"[""circle"",""red"",""hori"",""left"",[106,106],[106,-106]]",circle,red,hori,left,"[106,106]","[106,-106]",left,1,1.4322,,,,,,001,2025-03-11_21h02.39.603,SL_sali,2021.2.3,Win32,59.88023952,,,27,0,27,0,1,,,,,,,,
,,"[""diamond"",""red"",""vert"",""up"",[-106,-106],[0,-150]]",diamond,red,vert,up,"[-106,-106]","[0,-150]",up,1,1.4832,,,,,,001,2025-03-11_21h02.39.603,SL_sali,2021.2.3,Win32,59.88023952,,,28,0,28,0,1,,,,,,,,
,,"[""circle"",""green"",""hori"",""left"",[-106,-106],[150,0]]",circle,green,hori,left,"[-106,-106]","[150,0]",left,1,1.416,,,,,,001,2025-03-11_21h02.39.603,SL_sali,2021.2.3,Win32,59.88023952,,,29,0,29,0,1,,,,,,,,
,,"[""circle"",""no_dis"",""vert"",""up"",[99999,99999],[150,0]]",circle,no_dis,vert,up,"[99999,99999]","[150,0]",up,1,1.0713,,,,,,001,2025-03-11_21h02.39.603,SL_sali,2021.2.3,Win32,59.88023952,,,30,0,30,0,1,,,,,,,,
,,"[""circle"",""red"",""hori"",""left"",[0,-150],[-106,-106]]",circle,red,hori,left,"[0,-150]","[-106,-106]",left,1,1.0993,,,,,,001,2025-03-11_21h02.39.603,SL_sali,2021.2.3,Win32,59.88023952,,,31,0,31,0,1,,,,,,,,
,,"[""diamond"",""green"",""hori"",""left"",[150,0],[0,150]]",diamond,green,hori,left,"[150,0]","[0,150]",up,0,1.4493,,,,,,001,2025-03-11_21h02.39.603,SL_sali,2021.2.3,Win32,59.88023952,,,32,0,32,0,1,,,,,,,,
,,"[""diamond"",""no_dis"",""vert"",""up"",[99999,99999],[-106,106]]",diamond,no_dis,vert,up,"[99999,99999]","[-106,106]",left,0,1.8588,,,,,,001,2025-03-11_21h02.39.603,SL_sali,2021.2.3,Win32,59.88023952,,,33,0,33,0,1,,,,,,,,
,,"[""diamond"",""red"",""hori"",""left"",[0,150],[150,0]]",diamond,red,hori,left,"[0,150]","[150,0]",left,1,1.2799,,,,,,001,2025-03-11_21h02.39.603,SL_sali,2021.2.3,Win32,59.88023952,,,34,0,34,0,1,,,,,,,,
,,"[""circle"",""green"",""vert"",""up"",[-150,0],[0,150]]",circle,green,vert,up,"[-150,0]","[0,150]",up,1,1.2217,,,,,,001,2025-03-11_21h02.39.603,SL_sali,2021.2.3,Win32,59.88023952,,,35,0,35,0,1,,,,,,,,
,,"[""diamond"",""green"",""vert"",""up"",[106,-106],[-106,106]]",diamond,green,vert,up,"[106,-106]","[-106,106]",up,1,1.302,,,,,,001,2025-03-11_21h02.39.603,SL_sali,2021.2.3,Win32,59.88023952,,,36,0,36,0,1,,,,,,,,
,,"[""circle"",""no_dis"",""hori"",""left"",[99999,99999],[0,150]]",circle,no_dis,hori,left,"[99999,99999]","[0,150]",left,1,1.9311,,,,,,001,2025-03-11_21h02.39.603,SL_sali,2021.2.3,Win32,59.88023952,,,37,0,37,0,1,,,,,,,,
,,"[""circle"",""red"",""hori"",""left"",[106,-106],[0,-150]]",circle,red,hori,left,"[106,-106]","[0,-150]",left,1,2.2052,,,,,,001,2025-03-11_21h02.39.603,SL_sali,2021.2.3,Win32,59.88023952,,,38,0,38,0,1,,,,,,,,
,,"[""circle"",""no_dis"",""hori"",""left"",[99999,99999],[106,-106]]",circle,no_dis,hori,left,"[99999,99999]","[106,-106]",left,1,1.0984,,,,,,001,2025-03-11_21h02.39.603,SL_sali,2021.2.3,Win32,59.88023952,,,39,0,39,0,1,,,,,,,,
,,"[""circle"",""green"",""vert"",""up"",[150,0],[106,106]]",circle,green,vert,up,"[150,0]","[106,106]",up,1,1.1094,,,,,,001,2025-03-11_21h02.39.603,SL_sali,2021.2.3,Win32,59.88023952,,,40,0,40,0,1,,,,,,,,
,,"[""diamond"",""no_dis"",""hori"",""left"",[99999,99999],[0,150]]",diamond,no_dis,hori,left,"[99999,99999]","[0,150]",left,1,1.6407,,,,,,001,2025-03-11_21h02.39.603,SL_sali,2021.2.3,Win32,59.88023952,,,41,0,41,0,1,,,,,,,,
,,"[""circle"",""no_dis"",""vert"",""up"",[99999,99999],[0,-150]]",circle,no_dis,vert,up,"[99999,99999]","[0,-150]",up,1,1.1704,,,,,,001,2025-03-11_21h02.39.603,SL_sali,2021.2.3,Win32,59.88023952,,,42,0,42,0,1,,,,,,,,
,,"[""diamond"",""red"",""hori"",""left"",[106,106],[106,-106]]",diamond,red,hori,left,"[106,106]","[106,-106]",left,1,1.6078,,,,,,001,2025-03-11_21h02.39.603,SL_sali,2021.2.3,Win32,59.88023952,,,43,0,43,0,1,,,,,,,,
,,"[""diamond"",""red"",""vert"",""up"",[0,-150],[150,0]]",diamond,red,vert,up,"[0,-150]","[150,0]",up,1,1.3998,,,,,,001,2025-03-11_21h02.39.603,SL_sali,2021.2.3,Win32,59.88023952,,,44,0,44,0,1,,,,,,,,
,,"[""circle"",""no_dis"",""vert"",""up"",[99999,99999],[106,106]]",circle,no_dis,vert,up,"[99999,99999]","[106,106]",up,1,1.9883,,,,,,001,2025-03-11_21h02.39.603,SL_sali,2021.2.3,Win32,59.88023952,,,45,0,45,0,1,,,,,,,,
,,"[""diamond"",""green"",""vert"",""up"",[-106,106],[106,106]]",diamond,green,vert,up,"[-106,106]","[106,106]",up,1,1.2174,,,,,,001,2025-03-11_21h02.39.603,SL_sali,2021.2.3,Win32,59.88023952,,,46,0,46,0,1,,,,,,,,
,,"[""diamond"",""red"",""vert"",""up"",[-150,0],[106,106]]",diamond,red,vert,up,"[-150,0]","[106,106]",up,1,1.1557,,,,,,001,2025-03-11_21h02.39.603,SL_sali,2021.2.3,Win32,59.88023952,,,47,0,47,0,1,,,,,,,,
,,"[""diamond"",""red"",""vert"",""up"",[-150,0],[150,0]]",diamond,red,vert,up,"[-150,0]","[150,0]",up,1,0.9698,,,,,,001,2025-03-11_21h02.39.603,SL_sali,2021.2.3,Win32,59.88023952,,,48,0,48,0,1,,,,,,,,
,,"[""circle"",""green"",""vert"",""up"",[-106,-106],[0,-150]]",circle,green,vert,up,"[-106,-106]","[0,-150]",up,1,1.9724,,,,,,001,2025-03-11_21h02.39.603,SL_sali,2021.2.3,Win32,59.88023952,,,49,0,49,0,1,,,,,,,,
,,"[""diamond"",""red"",""vert"",""up"",[150,0],[-150,0]]",diamond,red,vert,up,"[150,0]","[-150,0]",up,1,1.2381,,,,,,001,2025-03-11_21h02.39.603,SL_sali,2021.2.3,Win32,59.88023952,,,50,0,50,0,1,,,,,,,,
,,"[""diamond"",""no_dis"",""hori"",""left"",[99999,99999],[-106,106]]",diamond,no_dis,hori,left,"[99999,99999]","[-106,106]",left,1,1.478,,,,,,001,2025-03-11_21h02.39.603,SL_sali,2021.2.3,Win32,59.88023952,,,51,0,51,0,1,,,,,,,,
,,"[""circle"",""red"",""vert"",""up"",[106,106],[106,-106]]",circle,red,vert,up,"[106,106]","[106,-106]",up,1,1.0167,,,,,,001,2025-03-11_21h02.39.603,SL_sali,2021.2.3,Win32,59.88023952,,,52,0,52,0,1,,,,,,,,
,,"[""diamond"",""red"",""hori"",""left"",[0,-150],[106,-106]]",diamond,red,hori,left,"[0,-150]","[106,-106]",up,0,1.4977,,,,,,001,2025-03-11_21h02.39.603,SL_sali,2021.2.3,Win32,59.88023952,,,53,0,53,0,1,,,,,,,,
,,"[""circle"",""green"",""hori"",""left"",[150,0],[-106,-106]]",circle,green,hori,left,"[150,0]","[-106,-106]",left,1,1.7502,,,,,,001,2025-03-11_21h02.39.603,SL_sali,2021.2.3,Win32,59.88023952,,,54,0,54,0,1,,,,,,,,
,,"[""diamond"",""red"",""vert"",""up"",[-106,106],[150,0]]",diamond,red,vert,up,"[-106,106]","[150,0]",up,1,1.8872,,,,,,001,2025-03-11_21h02.39.603,SL_sali,2021.2.3,Win32,59.88023952,,,55,0,55,0,1,,,,,,,,
,,"[""circle"",""green"",""hori"",""left"",[106,106],[150,0]]",circle,green,hori,left,"[106,106]","[150,0]",left,1,1.0986,,,,,,001,2025-03-11_21h02.39.603,SL_sali,2021.2.3,Win32,59.88023952,,,56,0,56,0,1,,,,,,,,
,,"[""diamond"",""green"",""vert"",""up"",[-150,0],[106,106]]",diamond,green,vert,up,"[-150,0]","[106,106]",up,1,1.282,,,,,,001,2025-03-11_21h02.39.603,SL_sali,2021.2.3,Win32,59.88023952,,,57,0,57,0,1,,,,,,,,
,,"[""diamond"",""no_dis"",""hori"",""left"",[99999,99999],[-150,0]]",diamond,no_dis,hori,left,"[99999,99999]","[-150,0]",left,1,1.5004,,,,,,001,2025-03-11_21h02.39.603,SL_sali,2021.2.3,Win32,59.88023952,,,58,0,58,0,1,,,,,,,,
,,"[""diamond"",""red"",""hori"",""left"",[-150,0],[0,-150]]",diamond,red,hori,left,"[-150,0]","[0,-150]",left,1,1.4978,,,,,,001,2025-03-11_21h02.39.603,SL_sali,2021.2.3,Win32,59.88023952,,,59,0,59,0,1,,,,,,,,
,,"[""diamond"",""green"",""vert"",""up"",[106,-106],[0,-150]]",diamond,green,vert,up,"[106,-106]","[0,-150]",up,1,1.8829,,,,,,001,2025-03-11_21h02.39.603,SL_sali,2021.2.3,Win32,59.88023952,,,60,0,60,0,1,,,,,,,,
,,"[""diamond"",""no_dis"",""hori"",""left"",[99999,99999],[-106,-106]]",diamond,no_dis,hori,left,"[99999,99999]","[-106,-106]",left,1,1.316,,,,,,001,2025-03-11_21h02.39.603,SL_sali,2021.2.3,Win32,59.88023952,,,61,0,61,0,1,,,,,,,,
,,"[""circle"",""red"",""vert"",""up"",[150,0],[-106,106]]",circle,red,vert,up,"[150,0]","[-106,106]",up,1,1.3257,,,,,,001,2025-03-11_21h02.39.603,SL_sali,2021.2.3,Win32,59.88023952,,,62,0,62,0,1,,,,,,,,
,,"[""diamond"",""green"",""vert"",""up"",[0,-150],[0,150]]",diamond,green,vert,up,"[0,-150]","[0,150]",up,1,1.2753,,,,,,001,2025-03-11_21h02.39.603,SL_sali,2021.2.3,Win32,59.88023952,,,63,0,63,0,1,,,,,,,,
,,"[""diamond"",""no_dis"",""hori"",""left"",[99999,99999],[-150,0]]",diamond,no_dis,hori,left,"[99999,99999]","[-150,0]",left,1,1.5494,,,,,,001,2025-03-11_21h02.39.603,SL_sali,2021.2.3,Win32,59.88023952,,,64,0,64,0,1,,,,,,,,
,,"[""circle"",""green"",""hori"",""left"",[150,0],[106,106]]",circle,green,hori,left,"[150,0]","[106,106]",left,1,2.5587,,,,,,001,2025-03-11_21h02.39.603,SL_sali,2021.2.3,Win32,59.88023952,,,65,0,65,0,1,,,,,,,,
,,"[""diamond"",""no_dis"",""hori"",""left"",[99999,99999],[106,-106]]",diamond,no_dis,hori,left,"[99999,99999]","[106,-106]",up,0,1.6986,,,,,,001,2025-03-11_21h02.39.603,SL_sali,2021.2.3,Win32,59.88023952,,,66,0,66,0,1,,,,,,,,
,,"[""circle"",""green"",""vert"",""up"",[106,106],[0,150]]",circle,green,vert,up,"[106,106]","[0,150]",up,1,1.2854,,,,,,001,2025-03-11_21h02.39.603,SL_sali,2021.2.3,Win32,59.88023952,,,67,0,67,0,1,,,,,,,,
,,"[""circle"",""no_dis"",""hori"",""left"",[99999,99999],[-106,-106]]",circle,no_dis,hori,left,"[99999,99999]","[-106,-106]",left,1,1.2919,,,,,,001,2025-03-11_21h02.39.603,SL_sali,2021.2.3,Win32,59.88023952,,,68,0,68,0,1,,,,,,,,
,,"[""circle"",""green"",""vert"",""up"",[106,-106],[-150,0]]",circle,green,vert,up,"[106,-106]","[-150,0]",up,1,1.2993,,,,,,001,2025-03-11_21h02.39.603,SL_sali,2021.2.3,Win32,59.88023952,,,69,0,69,0,1,,,,,,,,
,,"[""circle"",""red"",""vert"",""up"",[0,150],[150,0]]",circle,red,vert,up,"[0,150]","[150,0]",up,1,1.0176,,,,,,001,2025-03-11_21h02.39.603,SL_sali,2021.2.3,Win32,59.88023952,,,70,0,70,0,1,,,,,,,,
,,"[""circle"",""red"",""hori"",""left"",[-150,0],[106,-106]]",circle,red,hori,left,"[-150,0]","[106,-106]",up,0,1.3733,,,,,,001,2025-03-11_21h02.39.603,SL_sali,2021.2.3,Win32,59.88023952,,,71,0,71,0,1,,,,,,,,
,,"[""circle"",""green"",""hori"",""left"",[-106,106],[0,150]]",circle,green,hori,left,"[-106,106]","[0,150]",left,1,1.2094,,,,,,001,2025-03-11_21h02.39.603,SL_sali,2021.2.3,Win32,59.88023952,,,72,0,72,0,1,,,,,,,,
,,"[""diamond"",""green"",""hori"",""left"",[150,0],[106,106]]",diamond,green,hori,left,"[150,0]","[106,106]",left,1,1.5247,,,,,,001,2025-03-11_21h02.39.603,SL_sali,2021.2.3,Win32,59.88023952,,,73,0,73,0,1,,,,,,,,
,,"[""circle"",""no_dis"",""hori"",""left"",[99999,99999],[150,0]]",circle,no_dis,hori,left,"[99999,99999]","[150,0]",left,1,0.8884,,,,,,001,2025-03-11_21h02.39.603,SL_sali,2021.2.3,Win32,59.88023952,,,74,0,74,0,1,,,,,,,,
,,"[""circle"",""no_dis"",""hori"",""left"",[99999,99999],[-106,-106]]",circle,no_dis,hori,left,"[99999,99999]","[-106,-106]",left,1,1.0908,,,,,,001,2025-03-11_21h02.39.603,SL_sali,2021.2.3,Win32,59.88023952,,,75,0,75,0,1,,,,,,,,
,,"[""diamond"",""red"",""vert"",""up"",[150,0],[106,106]]",diamond,red,vert,up,"[150,0]","[106,106]",up,1,1.3484,,,,,,001,2025-03-11_21h02.39.603,SL_sali,2021.2.3,Win32,59.88023952,,,76,0,76,0,1,,,,,,,,
,,"[""circle"",""red"",""hori"",""left"",[150,0],[-106,106]]",circle,red,hori,left,"[150,0]","[-106,106]",up,0,1.05,,,,,,001,2025-03-11_21h02.39.603,SL_sali,2021.2.3,Win32,59.88023952,,,77,0,77,0,1,,,,,,,,
,,"[""diamond"",""no_dis"",""vert"",""up"",[99999,99999],[-150,0]]",diamond,no_dis,vert,up,"[99999,99999]","[-150,0]",up,1,1.2473,,,,,,001,2025-03-11_21h02.39.603,SL_sali,2021.2.3,Win32,59.88023952,,,78,0,78,0,1,,,,,,,,
,,"[""diamond"",""no_dis"",""vert"",""up"",[99999,99999],[-106,-106]]",diamond,no_dis,vert,up,"[99999,99999]","[-106,-106]",up,1,1.83,,,,,,001,2025-03-11_21h02.39.603,SL_sali,2021.2.3,Win32,59.88023952,,,79,0,79,0,1,,,,,,,,
,,"[""circle"",""green"",""vert"",""up"",[150,0],[-150,0]]",circle,green,vert,up,"[150,0]","[-150,0]",up,1,1.3193,,,,,,001,2025-03-11_21h02.39.603,SL_sali,2021.2.3,Win32,59.88023952,,,80,0,80,0,1,,,,,,,,
,,"[""circle"",""no_dis"",""vert"",""up"",[99999,99999],[0,150]]",circle,no_dis,vert,up,"[99999,99999]","[0,150]",up,1,0.966,,,,,,001,2025-03-11_21h02.39.603,SL_sali,2021.2.3,Win32,59.88023952,,,81,0,81,0,1,,,,,,,,
,,"[""circle"",""red"",""vert"",""up"",[150,0],[106,106]]",circle,red,vert,up,"[150,0]","[106,106]",up,1,1.6376,,,,,,001,2025-03-11_21h02.39.603,SL_sali,2021.2.3,Win32,59.88023952,,,82,0,82,0,1,,,,,,,,
,,"[""circle"",""red"",""vert"",""up"",[150,0],[-106,-106]]",circle,red,vert,up,"[150,0]","[-106,-106]",up,1,0.9528,,,,,,001,2025-03-11_21h02.39.603,SL_sali,2021.2.3,Win32,59.88023952,,,83,0,83,0,1,,,,,,,,
,,"[""diamond"",""green"",""hori"",""left"",[0,150],[-106,106]]",diamond,green,hori,left,"[0,150]","[-106,106]",left,1,1.0469,,,,,,001,2025-03-11_21h02.39.603,SL_sali,2021.2.3,Win32,59.88023952,,,84,0,84,0,1,,,,,,,,
,,"[""diamond"",""no_dis"",""vert"",""up"",[99999,99999],[0,-150]]",diamond,no_dis,vert,up,"[99999,99999]","[0,-150]",up,1,1.0081,,,,,,001,2025-03-11_21h02.39.603,SL_sali,2021.2.3,Win32,59.88023952,,,85,0,85,0,1,,,,,,,,
,,"[""circle"",""no_dis"",""hori"",""left"",[99999,99999],[106,-106]]",circle,no_dis,hori,left,"[99999,99999]","[106,-106]",left,1,1.5017,,,,,,001,2025-03-11_21h02.39.603,SL_sali,2021.2.3,Win32,59.88023952,,,86,0,86,0,1,,,,,,,,
,,"[""circle"",""no_dis"",""vert"",""up"",[99999,99999],[0,-150]]",circle,no_dis,vert,up,"[99999,99999]","[0,-150]",up,1,1.0684,,,,,,001,2025-03-11_21h02.39.603,SL_sali,2021.2.3,Win32,59.88023952,,,87,0,87,0,1,,,,,,,,
,,"[""diamond"",""no_dis"",""hori"",""left"",[99999,99999],[150,0]]",diamond,no_dis,hori,left,"[99999,99999]","[150,0]",left,1,1.5326,,,,,,001,2025-03-11_21h02.39.603,SL_sali,2021.2.3,Win32,59.88023952,,,88,0,88,0,1,,,,,,,,
,,"[""circle"",""green"",""hori"",""left"",[0,150],[-106,-106]]",circle,green,hori,left,"[0,150]","[-106,-106]",left,1,1.1813,,,,,,001,2025-03-11_21h02.39.603,SL_sali,2021.2.3,Win32,59.88023952,,,89,0,89,0,1,,,,,,,,
,,"[""diamond"",""no_dis"",""vert"",""up"",[99999,99999],[0,-150]]",diamond,no_dis,vert,up,"[99999,99999]","[0,-150]",up,1,1.4561,,,,,,001,2025-03-11_21h02.39.603,SL_sali,2021.2.3,Win32,59.88023952,,,90,0,90,0,1,,,,,,,,
,,"[""diamond"",""no_dis"",""hori"",""left"",[99999,99999],[-106,-106]]",diamond,no_dis,hori,left,"[99999,99999]","[-106,-106]",up,0,1.154,,,,,,001,2025-03-11_21h02.39.603,SL_sali,2021.2.3,Win32,59.88023952,,,91,0,91,0,1,,,,,,,,
,,"[""circle"",""green"",""vert"",""up"",[-106,106],[0,-150]]",circle,green,vert,up,"[-106,106]","[0,-150]",up,1,1.4158,,,,,,001,2025-03-11_21h02.39.603,SL_sali,2021.2.3,Win32,59.88023952,,,92,0,92,0,1,,,,,,,,
,,"[""circle"",""green"",""hori"",""left"",[150,0],[106,106]]",circle,green,hori,left,"[150,0]","[106,106]",left,1,1.1328,,,,,,001,2025-03-11_21h02.39.603,SL_sali,2021.2.3,Win32,59.88023952,,,93,0,93,0,1,,,,,,,,
,,"[""diamond"",""green"",""vert"",""up"",[0,150],[-106,-106]]",diamond,green,vert,up,"[0,150]","[-106,-106]",up,1,1.0903,,,,,,001,2025-03-11_21h02.39.603,SL_sali,2021.2.3,Win32,59.88023952,,,94,0,94,0,1,,,,,,,,
,,"[""diamond"",""green"",""hori"",""left"",[0,150],[106,-106]]",diamond,green,hori,left,"[0,150]","[106,-106]",left,1,1.1472,,,,,,001,2025-03-11_21h02.39.603,SL_sali,2021.2.3,Win32,59.88023952,,,95,0,95,0,1,,,,,,,,
,,"[""diamond"",""green"",""hori"",""left"",[-106,-106],[0,-150]]",diamond,green,hori,left,"[-106,-106]","[0,-150]",left,1,1.3931,,,,,,001,2025-03-11_21h02.39.603,SL_sali,2021.2.3,Win32,59.88023952,,,96,0,96,0,1,,,,,,,,
,,"[""circle"",""no_dis"",""hori"",""left"",[99999,99999],[-150,0]]",circle,no_dis,hori,left,"[99999,99999]","[-150,0]",left,1,1.277,,,,,,001,2025-03-11_21h02.39.603,SL_sali,2021.2.3,Win32,59.88023952,,,97,0,97,0,1,,,,,,,,
,,"[""diamond"",""red"",""hori"",""left"",[0,-150],[106,-106]]",diamond,red,hori,left,"[0,-150]","[106,-106]",up,0,1.5271,,,,,,001,2025-03-11_21h02.39.603,SL_sali,2021.2.3,Win32,59.88023952,,,98,0,98,0,1,,,,,,,,
,,"[""circle"",""green"",""hori"",""left"",[106,106],[150,0]]",circle,green,hori,left,"[106,106]","[150,0]",left,1,2.0263,,,,,,001,2025-03-11_21h02.39.603,SL_sali,2021.2.3,Win32,59.88023952,,,99,0,99,0,1,,,,,,,,
,,"[""diamond"",""red"",""vert"",""up"",[-106,-106],[-150,0]]",diamond,red,vert,up,"[-106,-106]","[-150,0]",up,1,1.3311,,,,,,001,2025-03-11_21h02.39.603,SL_sali,2021.2.3,Win32,59.88023952,,,100,0,100,0,1,,,,,,,,
,,"[""circle"",""green"",""vert"",""up"",[106,106],[106,-106]]",circle,green,vert,up,"[106,106]","[106,-106]",up,1,1.2157,,,,,,001,2025-03-11_21h02.39.603,SL_sali,2021.2.3,Win32,59.88023952,,,101,0,101,0,1,,,,,,,,
,,"[""circle"",""red"",""hori"",""left"",[150,0],[106,106]]",circle,red,hori,left,"[150,0]","[106,106]",left,1,1.2271,,,,,,001,2025-03-11_21h02.39.603,SL_sali,2021.2.3,Win32,59.88023952,,,102,0,102,0,1,,,,,,,,
,,"[""circle"",""no_dis"",""hori"",""left"",[99999,99999],[0,-150]]",circle,no_dis,hori,left,"[99999,99999]","[0,-150]",left,1,0.7164,,,,,,001,2025-03-11_21h02.39.603,SL_sali,2021.2.3,Win32,59.88023952,,,103,0,103,0,1,,,,,,,,
,,"[""diamond"",""no_dis"",""vert"",""up"",[99999,99999],[0,150]]",diamond,no_dis,vert,up,"[99999,99999]","[0,150]",up,1,0.997,,,,,,001,2025-03-11_21h02.39.603,SL_sali,2021.2.3,Win32,59.88023952,,,104,0,104,0,1,,,,,,,,
,,"[""circle"",""green"",""hori"",""left"",[-106,106],[0,-150]]",circle,green,hori,left,"[-106,106]","[0,-150]",left,1,1.4153,,,,,,001,2025-03-11_21h02.39.603,SL_sali,2021.2.3,Win32,59.88023952,,,105,0,105,0,1,,,,,,,,
,,"[""circle"",""red"",""vert"",""up"",[-106,106],[106,-106]]",circle,red,vert,up,"[-106,106]","[106,-106]",up,1,1.0175,,,,,,001,2025-03-11_21h02.39.603,SL_sali,2021.2.3,Win32,59.88023952,,,106,0,106,0,1,,,,,,,,
,,"[""diamond"",""no_dis"",""vert"",""up"",[99999,99999],[-150,0]]",diamond,no_dis,vert,up,"[99999,99999]","[-150,0]",up,1,1.8399,,,,,,001,2025-03-11_21h02.39.603,SL_sali,2021.2.3,Win32,59.88023952,,,107,0,107,0,1,,,,,,,,
,,"[""diamond"",""red"",""vert"",""up"",[-150,0],[0,-150]]",diamond,red,vert,up,"[-150,0]","[0,-150]",up,1,1.0973,,,,,,001,2025-03-11_21h02.39.603,SL_sali,2021.2.3,Win32,59.88023952,,,108,0,108,0,1,,,,,,,,
,,"[""circle"",""no_dis"",""hori"",""left"",[99999,99999],[106,106]]",circle,no_dis,hori,left,"[99999,99999]","[106,106]",left,1,0.8656,,,,,,001,2025-03-11_21h02.39.603,SL_sali,2021.2.3,Win32,59.88023952,,,109,0,109,0,1,,,,,,,,
,,"[""diamond"",""no_dis"",""vert"",""up"",[99999,99999],[-106,106]]",diamond,no_dis,vert,up,"[99999,99999]","[-106,106]",up,1,0.8516,,,,,,001,2025-03-11_21h02.39.603,SL_sali,2021.2.3,Win32,59.88023952,,,110,0,110,0,1,,,,,,,,
,,"[""circle"",""no_dis"",""hori"",""left"",[99999,99999],[0,150]]",circle,no_dis,hori,left,"[99999,99999]","[0,150]",left,1,0.7832,,,,,,001,2025-03-11_21h02.39.603,SL_sali,2021.2.3,Win32,59.88023952,,,111,0,111,0,1,,,,,,,,
,,"[""circle"",""red"",""hori"",""left"",[0,150],[150,0]]",circle,red,hori,left,"[0,150]","[150,0]",left,1,1.1713,,,,,,001,2025-03-11_21h02.39.603,SL_sali,2021.2.3,Win32,59.88023952,,,112,0,112,0,1,,,,,,,,
,,"[""diamond"",""red"",""hori"",""left"",[-106,106],[-150,0]]",diamond,red,hori,left,"[-106,106]","[-150,0]",left,1,1.5887,,,,,,001,2025-03-11_21h02.39.603,SL_sali,2021.2.3,Win32,59.88023952,,,113,0,113,0,1,,,,,,,,
,,"[""diamond"",""no_dis"",""hori"",""left"",[99999,99999],[106,106]]",diamond,no_dis,hori,left,"[99999,99999]","[106,106]",left,1,1.048,,,,,,001,2025-03-11_21h02.39.603,SL_sali,2021.2.3,Win32,59.88023952,,,114,0,114,0,1,,,,,,,,
,,"[""diamond"",""green"",""vert"",""up"",[106,-106],[106,106]]",diamond,green,vert,up,"[106,-106]","[106,106]",up,1,0.9644,,,,,,001,2025-03-11_21h02.39.603,SL_sali,2021.2.3,Win32,59.88023952,,,115,0,115,0,1,,,,,,,,
,,"[""diamond"",""green"",""hori"",""left"",[0,150],[-150,0]]",diamond,green,hori,left,"[0,150]","[-150,0]",left,1,1.2979,,,,,,001,2025-03-11_21h02.39.603,SL_sali,2021.2.3,Win32,59.88023952,,,116,0,116,0,1,,,,,,,,
,,"[""circle"",""red"",""hori"",""left"",[-106,106],[-150,0]]",circle,red,hori,left,"[-106,106]","[-150,0]",left,1,0.9036,,,,,,001,2025-03-11_21h02.39.603,SL_sali,2021.2.3,Win32,59.88023952,,,117,0,117,0,1,,,,,,,,
,,"[""diamond"",""red"",""hori"",""left"",[150,0],[-106,-106]]",diamond,red,hori,left,"[150,0]","[-106,-106]",left,1,1.3231,,,,,,001,2025-03-11_21h02.39.603,SL_sali,2021.2.3,Win32,59.88023952,,,118,0,118,0,1,,,,,,,,
,,"[""circle"",""green"",""vert"",""up"",[106,-106],[-106,106]]",circle,green,vert,up,"[106,-106]","[-106,106]",up,1,1.1574,,,,,,001,2025-03-11_21h02.39.603,SL_sali,2021.2.3,Win32,59.88023952,,,119,0,119,0,1,,,,,,,,
,,,,,,,,,,,,,,,,,001,2025-03-11_21h02.39.603,SL_sali,2021.2.3,Win32,59.88023952,,,,,,,,1,space,82.2919,0,0,0,0,1
,,"[""circle"",""green"",""vert"",""up"",[-106,-106],[0,-150]]",circle,green,vert,up,"[-106,-106]","[0,-150]",left,0,0.9571,,,,,,001,2025-03-11_21h02.39.603,SL_sali,2021.2.3,Win32,59.88023952,,,0,0,0,0,1,,,,,,,,
,,"[""diamond"",""green"",""vert"",""up"",[0,150],[-106,-106]]",diamond,green,vert,up,"[0,150]","[-106,-106]",up,1,1.1859,,,,,,001,2025-03-11_21h02.39.603,SL_sali,2021.2.3,Win32,59.88023952,,,1,0,1,0,1,,,,,,,,
,,"[""diamond"",""no_dis"",""hori"",""left"",[99999,99999],[-150,0]]",diamond,no_dis,hori,left,"[99999,99999]","[-150,0]",left,1,0.957,,,,,,001,2025-03-11_21h02.39.603,SL_sali,2021.2.3,Win32,59.88023952,,,2,0,2,0,1,,,,,,,,
,,"[""circle"",""red"",""hori"",""left"",[-150,0],[106,-106]]",circle,red,hori,left,"[-150,0]","[106,-106]",left,1,1.182,,,,,,001,2025-03-11_21h02.39.603,SL_sali,2021.2.3,Win32,59.88023952,,,3,0,3,0,1,,,,,,,,
,,"[""diamond"",""red"",""vert"",""up"",[-106,-106],[-150,0]]",diamond,red,vert,up,"[-106,-106]","[-150,0]",up,1,1.1482,,,,,,001,2025-03-11_21h02.39.603,SL_sali,2021.2.3,Win32,59.88023952,,,4,0,4,0,1,,,,,,,,
,,"[""circle"",""red"",""hori"",""left"",[106,106],[106,-106]]",circle,red,hori,left,"[106,106]","[106,-106]",left,1,1.4164,,,,,,001,2025-03-11_21h02.39.603,SL_sali,2021.2.3,Win32,59.88023952,,,5,0,5,0,1,,,,,,,,
,,"[""diamond"",""no_dis"",""vert"",""up"",[99999,99999],[-106,-106]]",diamond,no_dis,vert,up,"[99999,99999]","[-106,-106]",up,1,1.1304,,,,,,001,2025-03-11_21h02.39.603,SL_sali,2021.2.3,Win32,59.88023952,,,6,0,6,0,1,,,,,,,,
,,"[""circle"",""green"",""hori"",""left"",[-106,106],[0,-150]]",circle,green,hori,left,"[-106,106]","[0,-150]",left,1,0.866,,,,,,001,2025-03-11_21h02.39.603,SL_sali,2021.2.3,Win32,59.88023952,,,7,0,7,0,1,,,,,,,,
,,"[""diamond"",""green"",""hori"",""left"",[150,0],[0,150]]",diamond,green,hori,left,"[150,0]","[0,150]",up,0,0.7489,,,,,,001,2025-03-11_21h02.39.603,SL_sali,2021.2.3,Win32,59.88023952,,,8,0,8,0,1,,,,,,,,
,,"[""diamond"",""green"",""hori"",""left"",[150,0],[-150,0]]",diamond,green,hori,left,"[150,0]","[-150,0]",left,1,0.987,,,,,,001,2025-03-11_21h02.39.603,SL_sali,2021.2.3,Win32,59.88023952,,,9,0,9,0,1,,,,,,,,
,,"[""diamond"",""no_dis"",""hori"",""left"",[99999,99999],[-106,106]]",diamond,no_dis,hori,left,"[99999,99999]","[-106,106]",left,1,0.9575,,,,,,001,2025-03-11_21h02.39.603,SL_sali,2021.2.3,Win32,59.88023952,,,10,0,10,0,1,,,,,,,,
,,"[""circle"",""no_dis"",""hori"",""left"",[99999,99999],[0,150]]",circle,no_dis,hori,left,"[99999,99999]","[0,150]",left,1,0.7323,,,,,,001,2025-03-11_21h02.39.603,SL_sali,2021.2.3,Win32,59.88023952,,,11,0,11,0,1,,,,,,,,
,,"[""circle"",""green"",""vert"",""up"",[150,0],[-150,0]]",circle,green,vert,up,"[150,0]","[-150,0]",up,1,0.989,,,,,,001,2025-03-11_21h02.39.603,SL_sali,2021.2.3,Win32,59.88023952,,,12,0,12,0,1,,,,,,,,
,,"[""diamond"",""no_dis"",""vert"",""up"",[99999,99999],[-150,0]]",diamond,no_dis,vert,up,"[99999,99999]","[-150,0]",up,1,0.9586,,,,,,001,2025-03-11_21h02.39.603,SL_sali,2021.2.3,Win32,59.88023952,,,13,0,13,0,1,,,,,,,,
,,"[""circle"",""no_dis"",""vert"",""up"",[99999,99999],[150,0]]",circle,no_dis,vert,up,"[99999,99999]","[150,0]",up,1,0.799,,,,,,001,2025-03-11_21h02.39.603,SL_sali,2021.2.3,Win32,59.88023952,,,14,0,14,0,1,,,,,,,,
,,"[""diamond"",""red"",""hori"",""left"",[0,150],[150,0]]",diamond,red,hori,left,"[0,150]","[150,0]",left,1,1.2815,,,,,,001,2025-03-11_21h02.39.603,SL_sali,2021.2.3,Win32,59.88023952,,,15,0,15,0,1,,,,,,,,
,,"[""diamond"",""red"",""vert"",""up"",[-150,0],[150,0]]",diamond,red,vert,up,"[-150,0]","[150,0]",up,1,0.974,,,,,,001,2025-03-11_21h02.39.603,SL_sali,2021.2.3,Win32,59.88023952,,,16,0,16,0,1,,,,,,,,
,,"[""circle"",""green"",""vert"",""up"",[150,0],[106,-106]]",circle,green,vert,up,"[150,0]","[106,-106]",up,1,0.8723,,,,,,001,2025-03-11_21h02.39.603,SL_sali,2021.2.3,Win32,59.88023952,,,17,0,17,0,1,,,,,,,,
,,"[""diamond"",""red"",""vert"",""up"",[150,0],[-150,0]]",diamond,red,vert,up,"[150,0]","[-150,0]",up,1,1.1485,,,,,,001,2025-03-11_21h02.39.603,SL_sali,2021.2.3,Win32,59.88023952,,,18,0,18,0,1,,,,,,,,
,,"[""diamond"",""no_dis"",""vert"",""up"",[99999,99999],[0,-150]]",diamond,no_dis,vert,up,"[99999,99999]","[0,-150]",up,1,1.0831,,,,,,001,2025-03-11_21h02.39.603,SL_sali,2021.2.3,Win32,59.88023952,,,19,0,19,0,1,,,,,,,,
,,"[""diamond"",""red"",""hori"",""left"",[150,0],[-106,-106]]",diamond,red,hori,left,"[150,0]","[-106,-106]",left,1,1.1645,,,,,,001,2025-03-11_21h02.39.603,SL_sali,2021.2.3,Win32,59.88023952,,,20,0,20,0,1,,,,,,,,
,,"[""circle"",""green"",""vert"",""up"",[150,0],[106,106]]",circle,green,vert,up,"[150,0]","[106,106]",up,1,0.7843,,,,,,001,2025-03-11_21h02.39.603,SL_sali,2021.2.3,Win32,59.88023952,,,21,0,21,0,1,,,,,,,,
,,"[""circle"",""red"",""vert"",""up"",[0,150],[150,0]]",circle,red,vert,up,"[0,150]","[150,0]",up,1,1.0858,,,,,,001,2025-03-11_21h02.39.603,SL_sali,2021.2.3,Win32,59.88023952,,,22,0,22,0,1,,,,,,,,
,,"[""diamond"",""green"",""vert"",""up"",[106,-106],[106,106]]",diamond,green,vert,up,"[106,-106]","[106,106]",up,1,0.7987,,,,,,001,2025-03-11_21h02.39.603,SL_sali,2021.2.3,Win32,59.88023952,,,23,0,23,0,1,,,,,,,,
,,"[""diamond"",""green"",""vert"",""up"",[150,0],[106,-106]]",diamond,green,vert,up,"[150,0]","[106,-106]",left,0,1.5309,,,,,,001,2025-03-11_21h02.39.603,SL_sali,2021.2.3,Win32,59.88023952,,,24,0,24,0,1,,,,,,,,
,,"[""diamond"",""no_dis"",""vert"",""up"",[99999,99999],[-106,106]]",diamond,no_dis,vert,up,"[99999,99999]","[-106,106]",up,1,0.7976,,,,,,001,2025-03-11_21h02.39.603,SL_sali,2021.2.3,Win32,59.88023952,,,25,0,25,0,1,,,,,,,,
,,"[""circle"",""green"",""vert"",""up"",[106,-106],[-150,0]]",circle,green,vert,up,"[106,-106]","[-150,0]",up,1,0.9919,,,,,,001,2025-03-11_21h02.39.603,SL_sali,2021.2.3,Win32,59.88023952,,,26,0,26,0,1,,,,,,,,
,,"[""circle"",""no_dis"",""hori"",""left"",[99999,99999],[-106,-106]]",circle,no_dis,hori,left,"[99999,99999]","[-106,-106]",left,1,1.5157,,,,,,001,2025-03-11_21h02.39.603,SL_sali,2021.2.3,Win32,59.88023952,,,27,0,27,0,1,,,,,,,,
,,"[""circle"",""no_dis"",""hori"",""left"",[99999,99999],[106,-106]]",circle,no_dis,hori,left,"[99999,99999]","[106,-106]",left,1,0.7222,,,,,,001,2025-03-11_21h02.39.603,SL_sali,2021.2.3,Win32,59.88023952,,,28,0,28,0,1,,,,,,,,
,,"[""diamond"",""no_dis"",""hori"",""left"",[99999,99999],[-106,-106]]",diamond,no_dis,hori,left,"[99999,99999]","[-106,-106]",left,1,1.2576,,,,,,001,2025-03-11_21h02.39.603,SL_sali,2021.2.3,Win32,59.88023952,,,29,0,29,0,1,,,,,,,,
,,"[""circle"",""no_dis"",""hori"",""left"",[99999,99999],[-150,0]]",circle,no_dis,hori,left,"[99999,99999]","[-150,0]",left,1,0.851,,,,,,001,2025-03-11_21h02.39.603,SL_sali,2021.2.3,Win32,59.88023952,,,30,0,30,0,1,,,,,,,,
,,"[""diamond"",""red"",""vert"",""up"",[106,-106],[150,0]]",diamond,red,vert,up,"[106,-106]","[150,0]",up,1,1.5397,,,,,,001,2025-03-11_21h02.39.603,SL_sali,2021.2.3,Win32,59.88023952,,,31,0,31,0,1,,,,,,,,
,,"[""diamond"",""no_dis"",""vert"",""up"",[99999,99999],[-106,106]]",diamond,no_dis,vert,up,"[99999,99999]","[-106,106]",up,1,0.9977,,,,,,001,2025-03-11_21h02.39.603,SL_sali,2021.2.3,Win32,59.88023952,,,32,0,32,0,1,,,,,,,,
,,"[""diamond"",""green"",""vert"",""up"",[150,0],[106,-106]]",diamond,green,vert,up,"[150,0]","[106,-106]",up,1,1.5192,,,,,,001,2025-03-11_21h02.39.603,SL_sali,2021.2.3,Win32,59.88023952,,,33,0,33,0,1,,,,,,,,
,,"[""circle"",""green"",""hori"",""left"",[-106,-106],[0,-150]]",circle,green,hori,left,"[-106,-106]","[0,-150]",left,1,0.9846,,,,,,001,2025-03-11_21h02.39.603,SL_sali,2021.2.3,Win32,59.88023952,,,34,0,34,0,1,,,,,,,,
,,"[""circle"",""red"",""hori"",""left"",[0,-150],[-106,-106]]",circle,red,hori,left,"[0,-150]","[-106,-106]",left,1,0.7868,,,,,,001,2025-03-11_21h02.39.603,SL_sali,2021.2.3,Win32,59.88023952,,,35,0,35,0,1,,,,,,,,
,,"[""diamond"",""red"",""hori"",""left"",[150,0],[-106,-106]]",diamond,red,hori,left,"[150,0]","[-106,-106]",left,1,1.1603,,,,,,001,2025-03-11_21h02.39.603,SL_sali,2021.2.3,Win32,59.88023952,,,36,0,36,0,1,,,,,,,,
,,"[""circle"",""no_dis"",""vert"",""up"",[99999,99999],[0,-150]]",circle,no_dis,vert,up,"[99999,99999]","[0,-150]",up,1,0.7242,,,,,,001,2025-03-11_21h02.39.603,SL_sali,2021.2.3,Win32,59.88023952,,,37,0,37,0,1,,,,,,,,
,,"[""circle"",""no_dis"",""hori"",""left"",[99999,99999],[106,-106]]",circle,no_dis,hori,left,"[99999,99999]","[106,-106]",left,1,0.6853,,,,,,001,2025-03-11_21h02.39.603,SL_sali,2021.2.3,Win32,59.88023952,,,38,0,38,0,1,,,,,,,,
,,"[""circle"",""red"",""hori"",""left"",[0,-150],[-106,-106]]",circle,red,hori,left,"[0,-150]","[-106,-106]",left,1,1.4601,,,,,,001,2025-03-11_21h02.39.603,SL_sali,2021.2.3,Win32,59.88023952,,,39,0,39,0,1,,,,,,,,
,,"[""circle"",""red"",""vert"",""up"",[150,0],[-106,106]]",circle,red,vert,up,"[150,0]","[-106,106]",up,1,0.7671,,,,,,001,2025-03-11_21h02.39.603,SL_sali,2021.2.3,Win32,59.88023952,,,40,0,40,0,1,,,,,,,,
,,"[""diamond"",""green"",""vert"",""up"",[106,-106],[0,-150]]",diamond,green,vert,up,"[106,-106]","[0,-150]",up,1,1.2983,,,,,,001,2025-03-11_21h02.39.603,SL_sali,2021.2.3,Win32,59.88023952,,,41,0,41,0,1,,,,,,,,
,,"[""circle"",""red"",""hori"",""left"",[150,0],[106,106]]",circle,red,hori,left,"[150,0]","[106,106]",left,1,1.2209,,,,,,001,2025-03-11_21h02.39.603,SL_sali,2021.2.3,Win32,59.88023952,,,42,0,42,0,1,,,,,,,,
,,"[""diamond"",""green"",""vert"",""up"",[-106,106],[106,106]]",diamond,green,vert,up,"[-106,106]","[106,106]",up,1,0.9387,,,,,,001,2025-03-11_21h02.39.603,SL_sali,2021.2.3,Win32,59.88023952,,,43,0,43,0,1,,,,,,,,
,,"[""diamond"",""no_dis"",""hori"",""left"",[99999,99999],[106,-106]]",diamond,no_dis,hori,left,"[99999,99999]","[106,-106]",left,1,1.0028,,,,,,001,2025-03-11_21h02.39.603,SL_sali,2021.2.3,Win32,59.88023952,,,44,0,44,0,1,,,,,,,,
,,"[""diamond"",""green"",""hori"",""left"",[106,106],[-106,106]]",diamond,green,hori,left,"[106,106]","[-106,106]",left,1,0.9434,,,,,,001,2025-03-11_21h02.39.603,SL_sali,2021.2.3,Win32,59.88023952,,,45,0,45,0,1,,,,,,,,
,,"[""circle"",""no_dis"",""hori"",""left"",[99999,99999],[0,150]]",circle,no_dis,hori,left,"[99999,99999]","[0,150]",left,1,1.0079,,,,,,001,2025-03-11_21h02.39.603,SL_sali,2021.2.3,Win32,59.88023952,,,46,0,46,0,1,,,,,,,,
,,"[""circle"",""red"",""vert"",""up"",[-150,0],[106,-106]]",circle,red,vert,up,"[-150,0]","[106,-106]",up,1,0.8517,,,,,,001,2025-03-11_21h02.39.603,SL_sali,2021.2.3,Win32,59.88023952,,,47,0,47,0,1,,,,,,,,
,,"[""diamond"",""no_dis"",""vert"",""up"",[99999,99999],[-106,106]]",diamond,no_dis,vert,up,"[99999,99999]","[-106,106]",up,1,0.6231,,,,,,001,2025-03-11_21h02.39.603,SL_sali,2021.2.3,Win32,59.88023952,,,48,0,48,0,1,,,,,,,,
,,"[""circle"",""no_dis"",""hori"",""left"",[99999,99999],[150,0]]",circle,no_dis,hori,left,"[99999,99999]","[150,0]",left,1,1.0084,,,,,,001,2025-03-11_21h02.39.603,SL_sali,2021.2.3,Win32,59.88023952,,,49,0,49,0,1,,,,,,,,
,,"[""diamond"",""no_dis"",""vert"",""up"",[99999,99999],[-150,0]]",diamond,no_dis,vert,up,"[99999,99999]","[-150,0]",up,1,1.0064,,,,,,001,2025-03-11_21h02.39.603,SL_sali,2021.2.3,Win32,59.88023952,,,50,0,50,0,1,,,,,,,,
,,"[""circle"",""green"",""vert"",""up"",[106,106],[0,150]]",circle,green,vert,up,"[106,106]","[0,150]",up,1,0.9239,,,,,,001,2025-03-11_21h02.39.603,SL_sali,2021.2.3,Win32,59.88023952,,,51,0,51,0,1,,,,,,,,
,,"[""diamond"",""green"",""hori"",""left"",[0,150],[106,-106]]",diamond,green,hori,left,"[0,150]","[106,-106]",left,1,1.1322,,,,,,001,2025-03-11_21h02.39.603,SL_sali,2021.2.3,Win32,59.88023952,,,52,0,52,0,1,,,,,,,,
,,"[""diamond"",""red"",""vert"",""up"",[-150,0],[0,-150]]",diamond,red,vert,up,"[-150,0]","[0,-150]",up,1,1.1005,,,,,,001,2025-03-11_21h02.39.603,SL_sali,2021.2.3,Win32,59.88023952,,,53,0,53,0,1,,,,,,,,
,,"[""circle"",""green"",""hori"",""left"",[106,106],[150,0]]",circle,green,hori,left,"[106,106]","[150,0]",left,1,1.0706,,,,,,001,2025-03-11_21h02.39.603,SL_sali,2021.2.3,Win32,59.88023952,,,54,0,54,0,1,,,,,,,,
,,"[""diamond"",""red"",""vert"",""up"",[-106,-106],[0,-150]]",diamond,red,vert,up,"[-106,-106]","[0,-150]",up,1,1.0312,,,,,,001,2025-03-11_21h02.39.603,SL_sali,2021.2.3,Win32,59.88023952,,,55,0,55,0,1,,,,,,,,
,,"[""circle"",""no_dis"",""vert"",""up"",[99999,99999],[106,106]]",circle,no_dis,vert,up,"[99999,99999]","[106,106]",up,1,0.7228,,,,,,001,2025-03-11_21h02.39.603,SL_sali,2021.2.3,Win32,59.88023952,,,56,0,56,0,1,,,,,,,,
,,"[""circle"",""red"",""hori"",""left"",[106,-106],[0,-150]]",circle,red,hori,left,"[106,-106]","[0,-150]",left,1,0.8588,,,,,,001,2025-03-11_21h02.39.603,SL_sali,2021.2.3,Win32,59.88023952,,,57,0,57,0,1,,,,,,,,
,,"[""circle"",""green"",""hori"",""left"",[150,0],[106,106]]",circle,green,hori,left,"[150,0]","[106,106]",left,1,0.7241,,,,,,001,2025-03-11_21h02.39.603,SL_sali,2021.2.3,Win32,59.88023952,,,58,0,58,0,1,,,,,,,,
,,"[""circle"",""green"",""hori"",""left"",[106,106],[150,0]]",circle,green,hori,left,"[106,106]","[150,0]",left,1,0.6578,,,,,,001,2025-03-11_21h02.39.603,SL_sali,2021.2.3,Win32,59.88023952,,,59,0,59,0,1,,,,,,,,
,,"[""diamond"",""no_dis"",""hori"",""left"",[99999,99999],[-150,0]]",diamond,no_dis,hori,left,"[99999,99999]","[-150,0]",left,1,0.8528,,,,,,001,2025-03-11_21h02.39.603,SL_sali,2021.2.3,Win32,59.88023952,,,60,0,60,0,1,,,,,,,,
,,"[""circle"",""green"",""hori"",""left"",[0,150],[-106,-106]]",circle,green,hori,left,"[0,150]","[-106,-106]",left,1,0.9724,,,,,,001,2025-03-11_21h02.39.603,SL_sali,2021.2.3,Win32,59.88023952,,,61,0,61,0,1,,,,,,,,
,,"[""circle"",""red"",""hori"",""left"",[0,-150],[-106,106]]",circle,red,hori,left,"[0,-150]","[-106,106]",left,1,0.718,,,,,,001,2025-03-11_21h02.39.603,SL_sali,2021.2.3,Win32,59.88023952,,,62,0,62,0,1,,,,,,,,
,,"[""diamond"",""green"",""hori"",""left"",[150,0],[106,106]]",diamond,green,hori,left,"[150,0]","[106,106]",left,1,1.0658,,,,,,001,2025-03-11_21h02.39.603,SL_sali,2021.2.3,Win32,59.88023952,,,63,0,63,0,1,,,,,,,,
,,"[""diamond"",""red"",""hori"",""left"",[106,106],[106,-106]]",diamond,red,hori,left,"[106,106]","[106,-106]",up,0,1.1481,,,,,,001,2025-03-11_21h02.39.603,SL_sali,2021.2.3,Win32,59.88023952,,,64,0,64,0,1,,,,,,,,
,,"[""diamond"",""red"",""hori"",""left"",[0,-150],[106,-106]]",diamond,red,hori,left,"[0,-150]","[106,-106]",left,1,1.0097,,,,,,001,2025-03-11_21h02.39.603,SL_sali,2021.2.3,Win32,59.88023952,,,65,0,65,0,1,,,,,,,,
,,"[""diamond"",""red"",""hori"",""left"",[-150,0],[0,-150]]",diamond,red,hori,left,"[-150,0]","[0,-150]",left,1,0.9358,,,,,,001,2025-03-11_21h02.39.603,SL_sali,2021.2.3,Win32,59.88023952,,,66,0,66,0,1,,,,,,,,
,,"[""diamond"",""green"",""vert"",""up"",[0,-150],[0,150]]",diamond,green,vert,up,"[0,-150]","[0,150]",up,1,0.9491,,,,,,001,2025-03-11_21h02.39.603,SL_sali,2021.2.3,Win32,59.88023952,,,67,0,67,0,1,,,,,,,,
,,"[""diamond"",""green"",""hori"",""left"",[150,0],[0,-150]]",diamond,green,hori,left,"[150,0]","[0,-150]",left,1,1.1687,,,,,,001,2025-03-11_21h02.39.603,SL_sali,2021.2.3,Win32,59.88023952,,,68,0,68,0,1,,,,,,,,
,,"[""diamond"",""red"",""vert"",""up"",[0,-150],[150,0]]",diamond,red,vert,up,"[0,-150]","[150,0]",up,1,1.1324,,,,,,001,2025-03-11_21h02.39.603,SL_sali,2021.2.3,Win32,59.88023952,,,69,0,69,0,1,,,,,,,,
,,"[""diamond"",""no_dis"",""hori"",""left"",[99999,99999],[-106,106]]",diamond,no_dis,hori,left,"[99999,99999]","[-106,106]",left,1,0.674,,,,,,001,2025-03-11_21h02.39.603,SL_sali,2021.2.3,Win32,59.88023952,,,70,0,70,0,1,,,,,,,,
,,"[""diamond"",""no_dis"",""vert"",""up"",[99999,99999],[0,-150]]",diamond,no_dis,vert,up,"[99999,99999]","[0,-150]",up,1,0.747,,,,,,001,2025-03-11_21h02.39.603,SL_sali,2021.2.3,Win32,59.88023952,,,71,0,71,0,1,,,,,,,,
,,"[""circle"",""no_dis"",""hori"",""left"",[99999,99999],[0,-150]]",circle,no_dis,hori,left,"[99999,99999]","[0,-150]",left,1,0.933,,,,,,001,2025-03-11_21h02.39.603,SL_sali,2021.2.3,Win32,59.88023952,,,72,0,72,0,1,,,,,,,,
,,"[""diamond"",""green"",""vert"",""up"",[0,-150],[0,150]]",diamond,green,vert,up,"[0,-150]","[0,150]",up,1,0.9167,,,,,,001,2025-03-11_21h02.39.603,SL_sali,2021.2.3,Win32,59.88023952,,,73,0,73,0,1,,,,,,,,
,,"[""circle"",""green"",""hori"",""left"",[-106,106],[0,150]]",circle,green,hori,left,"[-106,106]","[0,150]",left,1,0.9682,,,,,,001,2025-03-11_21h02.39.603,SL_sali,2021.2.3,Win32,59.88023952,,,74,0,74,0,1,,,,,,,,
,,"[""circle"",""green"",""hori"",""left"",[150,0],[106,106]]",circle,green,hori,left,"[150,0]","[106,106]",left,1,0.6554,,,,,,001,2025-03-11_21h02.39.603,SL_sali,2021.2.3,Win32,59.88023952,,,75,0,75,0,1,,,,,,,,
,,"[""diamond"",""no_dis"",""hori"",""left"",[99999,99999],[0,150]]",diamond,no_dis,hori,left,"[99999,99999]","[0,150]",left,1,0.9181,,,,,,001,2025-03-11_21h02.39.603,SL_sali,2021.2.3,Win32,59.88023952,,,76,0,76,0,1,,,,,,,,
,,"[""diamond"",""green"",""hori"",""left"",[106,-106],[-106,106]]",diamond,green,hori,left,"[106,-106]","[-106,106]",left,1,0.8839,,,,,,001,2025-03-11_21h02.39.603,SL_sali,2021.2.3,Win32,59.88023952,,,77,0,77,0,1,,,,,,,,
,,"[""diamond"",""no_dis"",""vert"",""up"",[99999,99999],[0,150]]",diamond,no_dis,vert,up,"[99999,99999]","[0,150]",up,1,0.7561,,,,,,001,2025-03-11_21h02.39.603,SL_sali,2021.2.3,Win32,59.88023952,,,78,0,78,0,1,,,,,,,,
,,"[""circle"",""red"",""vert"",""up"",[-106,-106],[0,150]]",circle,red,vert,up,"[-106,-106]","[0,150]",left,0,1.0665,,,,,,001,2025-03-11_21h02.39.603,SL_sali,2021.2.3,Win32,59.88023952,,,79,0,79,0,1,,,,,,,,
,,"[""circle"",""green"",""vert"",""up"",[106,106],[106,-106]]",circle,green,vert,up,"[106,106]","[106,-106]",up,1,0.7795,,,,,,001,2025-03-11_21h02.39.603,SL_sali,2021.2.3,Win32,59.88023952,,,80,0,80,0,1,,,,,,,,
,,"[""circle"",""red"",""vert"",""up"",[150,0],[106,106]]",circle,red,vert,up,"[150,0]","[106,106]",up,1,0.7229,,,,,,001,2025-03-11_21h02.39.603,SL_sali,2021.2.3,Win32,59.88023952,,,81,0,81,0,1,,,,,,,,
,,"[""diamond"",""red"",""vert"",""up"",[-150,0],[106,106]]",diamond,red,vert,up,"[-150,0]","[106,106]",up,1,0.9838,,,,,,001,2025-03-11_21h02.39.603,SL_sali,2021.2.3,Win32,59.88023952,,,82,0,82,0,1,,,,,,,,
,,"[""circle"",""no_dis"",""vert"",""up"",[99999,99999],[150,0]]",circle,no_dis,vert,up,"[99999,99999]","[150,0]",up,1,0.7535,,,,,,001,2025-03-11_21h02.39.603,SL_sali,2021.2.3,Win32,59.88023952,,,83,0,83,0,1,,,,,,,,
,,"[""diamond"",""red"",""hori"",""left"",[150,0],[-106,-106]]",diamond,red,hori,left,"[150,0]","[-106,-106]",left,1,1.0517,,,,,,001,2025-03-11_21h02.39.603,SL_sali,2021.2.3,Win32,59.88023952,,,84,0,84,0,1,,,,,,,,
,,"[""diamond"",""green"",""vert"",""up"",[-150,0],[106,106]]",diamond,green,vert,up,"[-150,0]","[106,106]",up,1,0.8158,,,,,,001,2025-03-11_21h02.39.603,SL_sali,2021.2.3,Win32,59.88023952,,,85,0,85,0,1,,,,,,,,
,,"[""circle"",""no_dis"",""vert"",""up"",[99999,99999],[0,150]]",circle,no_dis,vert,up,"[99999,99999]","[0,150]",up,1,0.601,,,,,,001,2025-03-11_21h02.39.603,SL_sali,2021.2.3,Win32,59.88023952,,,86,0,86,0,1,,,,,,,,
,,"[""diamond"",""red"",""hori"",""left"",[-106,-106],[0,150]]",diamond,red,hori,left,"[-106,-106]","[0,150]",up,0,0.9736,,,,,,001,2025-03-11_21h02.39.603,SL_sali,2021.2.3,Win32,59.88023952,,,87,0,87,0,1,,,,,,,,
,,"[""circle"",""red"",""hori"",""left"",[150,0],[-106,106]]",circle,red,hori,left,"[150,0]","[-106,106]",left,1,1.2492,,,,,,001,2025-03-11_21h02.39.603,SL_sali,2021.2.3,Win32,59.88023952,,,88,0,88,0,1,,,,,,,,
,,"[""circle"",""green"",""vert"",""up"",[-106,106],[0,-150]]",circle,green,vert,up,"[-106,106]","[0,-150]",up,1,0.8168,,,,,,001,2025-03-11_21h02.39.603,SL_sali,2021.2.3,Win32,59.88023952,,,89,0,89,0,1,,,,,,,,
,,"[""diamond"",""no_dis"",""hori"",""left"",[99999,99999],[106,106]]",diamond,no_dis,hori,left,"[99999,99999]","[106,106]",left,1,1.134,,,,,,001,2025-03-11_21h02.39.603,SL_sali,2021.2.3,Win32,59.88023952,,,90,0,90,0,1,,,,,,,,
,,"[""circle"",""green"",""hori"",""left"",[-106,-106],[150,0]]",circle,green,hori,left,"[-106,-106]","[150,0]",left,1,1.0672,,,,,,001,2025-03-11_21h02.39.603,SL_sali,2021.2.3,Win32,59.88023952,,,91,0,91,0,1,,,,,,,,
,,"[""circle"",""no_dis"",""vert"",""up"",[99999,99999],[0,-150]]",circle,no_dis,vert,up,"[99999,99999]","[0,-150]",up,1,0.791,,,,,,001,2025-03-11_21h02.39.603,SL_sali,2021.2.3,Win32,59.88023952,,,92,0,92,0,1,,,,,,,,
,,"[""circle"",""no_dis"",""hori"",""left"",[99999,99999],[106,106]]",circle,no_dis,hori,left,"[99999,99999]","[106,106]",up,0,0.9506,,,,,,001,2025-03-11_21h02.39.603,SL_sali,2021.2.3,Win32,59.88023952,,,93,0,93,0,1,,,,,,,,
,,"[""circle"",""red"",""vert"",""up"",[106,106],[106,-106]]",circle,red,vert,up,"[106,106]","[106,-106]",up,1,1.4494,,,,,,001,2025-03-11_21h02.39.603,SL_sali,2021.2.3,Win32,59.88023952,,,94,0,94,0,1,,,,,,,,
,,"[""circle"",""no_dis"",""vert"",""up"",[99999,99999],[150,0]]",circle,no_dis,vert,up,"[99999,99999]","[150,0]",up,1,1.6001,,,,,,001,2025-03-11_21h02.39.603,SL_sali,2021.2.3,Win32,59.88023952,,,95,0,95,0,1,,,,,,,,
,,"[""circle"",""green"",""vert"",""up"",[106,-106],[-106,106]]",circle,green,vert,up,"[106,-106]","[-106,106]",up,1,0.8338,,,,,,001,2025-03-11_21h02.39.603,SL_sali,2021.2.3,Win32,59.88023952,,,96,0,96,0,1,,,,,,,,
,,"[""diamond"",""red"",""hori"",""left"",[-106,106],[-150,0]]",diamond,red,hori,left,"[-106,106]","[-150,0]",left,1,1.137,,,,,,001,2025-03-11_21h02.39.603,SL_sali,2021.2.3,Win32,59.88023952,,,97,0,97,0,1,,,,,,,,
,,"[""diamond"",""no_dis"",""hori"",""left"",[99999,99999],[150,0]]",diamond,no_dis,hori,left,"[99999,99999]","[150,0]",left,1,0.7839,,,,,,001,2025-03-11_21h02.39.603,SL_sali,2021.2.3,Win32,59.88023952,,,98,0,98,0,1,,,,,,,,
,,"[""diamond"",""red"",""vert"",""up"",[-106,106],[150,0]]",diamond,red,vert,up,"[-106,106]","[150,0]",up,1,1.133,,,,,,001,2025-03-11_21h02.39.603,SL_sali,2021.2.3,Win32,59.88023952,,,99,0,99,0,1,,,,,,,,
,,"[""circle"",""red"",""vert"",""up"",[150,0],[106,106]]",circle,red,vert,up,"[150,0]","[106,106]",up,1,1.0114,,,,,,001,2025-03-11_21h02.39.603,SL_sali,2021.2.3,Win32,59.88023952,,,100,0,100,0,1,,,,,,,,
,,"[""circle"",""red"",""hori"",""left"",[-106,106],[-150,0]]",circle,red,hori,left,"[-106,106]","[-150,0]",left,1,0.9831,,,,,,001,2025-03-11_21h02.39.603,SL_sali,2021.2.3,Win32,59.88023952,,,101,0,101,0,1,,,,,,,,
,,"[""diamond"",""green"",""hori"",""left"",[-106,-106],[0,-150]]",diamond,green,hori,left,"[-106,-106]","[0,-150]",left,1,1.2334,,,,,,001,2025-03-11_21h02.39.603,SL_sali,2021.2.3,Win32,59.88023952,,,102,0,102,0,1,,,,,,,,
,,"[""circle"",""red"",""vert"",""up"",[150,0],[0,-150]]",circle,red,vert,up,"[150,0]","[0,-150]",up,1,0.8662,,,,,,001,2025-03-11_21h02.39.603,SL_sali,2021.2.3,Win32,59.88023952,,,103,0,103,0,1,,,,,,,,
,,"[""circle"",""red"",""vert"",""up"",[-106,106],[106,-106]]",circle,red,vert,up,"[-106,106]","[106,-106]",up,1,0.7175,,,,,,001,2025-03-11_21h02.39.603,SL_sali,2021.2.3,Win32,59.88023952,,,104,0,104,0,1,,,,,,,,
,,"[""diamond"",""no_dis"",""vert"",""up"",[99999,99999],[106,106]]",diamond,no_dis,vert,up,"[99999,99999]","[106,106]",up,1,1.2077,,,,,,001,2025-03-11_21h02.39.603,SL_sali,2021.2.3,Win32,59.88023952,,,105,0,105,0,1,,,,,,,,
,,"[""diamond"",""green"",""vert"",""up"",[106,-106],[-106,106]]",diamond,green,vert,up,"[106,-106]","[-106,106]",up,1,0.8496,,,,,,001,2025-03-11_21h02.39.603,SL_sali,2021.2.3,Win32,59.88023952,,,106,0,106,0,1,,,,,,,,
,,"[""diamond"",""red"",""vert"",""up"",[150,0],[106,106]]",diamond,red,vert,up,"[150,0]","[106,106]",up,1,0.7163,,,,,,001,2025-03-11_21h02.39.603,SL_sali,2021.2.3,Win32,59.88023952,,,107,0,107,0,1,,,,,,,,
,,"[""circle"",""no_dis"",""vert"",""up"",[99999,99999],[106,-106]]",circle,no_dis,vert,up,"[99999,99999]","[106,-106]",left,0,1.1499,,,,,,001,2025-03-11_21h02.39.603,SL_sali,2021.2.3,Win32,59.88023952,,,108,0,108,0,1,,,,,,,,
,,"[""circle"",""green"",""hori"",""left"",[150,0],[-106,-106]]",circle,green,hori,left,"[150,0]","[-106,-106]",left,1,1.0506,,,,,,001,2025-03-11_21h02.39.603,SL_sali,2021.2.3,Win32,59.88023952,,,109,0,109,0,1,,,,,,,,
,,"[""circle"",""no_dis"",""vert"",""up"",[99999,99999],[106,-106]]",circle,no_dis,vert,up,"[99999,99999]","[106,-106]",up,1,0.7105,,,,,,001,2025-03-11_21h02.39.603,SL_sali,2021.2.3,Win32,59.88023952,,,110,0,110,0,1,,,,,,,,
,,"[""circle"",""red"",""hori"",""left"",[0,150],[150,0]]",circle,red,hori,left,"[0,150]","[150,0]",left,1,0.9787,,,,,,001,2025-03-11_21h02.39.603,SL_sali,2021.2.3,Win32,59.88023952,,,111,0,111,0,1,,,,,,,,
,,"[""circle"",""no_dis"",""vert"",""up"",[99999,99999],[106,106]]",circle,no_dis,vert,up,"[99999,99999]","[106,106]",up,1,0.6826,,,,,,001,2025-03-11_21h02.39.603,SL_sali,2021.2.3,Win32,59.88023952,,,112,0,112,0,1,,,,,,,,
,,"[""diamond"",""green"",""hori"",""left"",[0,150],[-150,0]]",diamond,green,hori,left,"[0,150]","[-150,0]",left,1,0.9122,,,,,,001,2025-03-11_21h02.39.603,SL_sali,2021.2.3,Win32,59.88023952,,,113,0,113,0,1,,,,,,,,
,,"[""circle"",""no_dis"",""hori"",""left"",[99999,99999],[-106,-106]]",circle,no_dis,hori,left,"[99999,99999]","[-106,-106]",left,1,1.0298,,,,,,001,2025-03-11_21h02.39.603,SL_sali,2021.2.3,Win32,59.88023952,,,114,0,114,0,1,,,,,,,,
,,"[""circle"",""red"",""vert"",""up"",[150,0],[-106,-106]]",circle,red,vert,up,"[150,0]","[-106,-106]",up,1,0.8325,,,,,,001,2025-03-11_21h02.39.603,SL_sali,2021.2.3,Win32,59.88023952,,,115,0,115,0,1,,,,,,,,
,,"[""diamond"",""red"",""hori"",""left"",[0,-150],[106,-106]]",diamond,red,hori,left,"[0,-150]","[106,-106]",left,1,1.0336,,,,,,001,2025-03-11_21h02.39.603,SL_sali,2021.2.3,Win32,59.88023952,,,116,0,116,0,1,,,,,,,,
,,"[""diamond"",""no_dis"",""hori"",""left"",[99999,99999],[-106,-106]]",diamond,no_dis,hori,left,"[99999,99999]","[-106,-106]",left,1,1.1687,,,,,,001,2025-03-11_21h02.39.603,SL_sali,2021.2.3,Win32,59.88023952,,,117,0,117,0,1,,,,,,,,
,,"[""circle"",""green"",""vert"",""up"",[-150,0],[0,150]]",circle,green,vert,up,"[-150,0]","[0,150]",up,1,0.803,,,,,,001,2025-03-11_21h02.39.603,SL_sali,2021.2.3,Win32,59.88023952,,,118,0,118,0,1,,,,,,,,
,,"[""diamond"",""green"",""hori"",""left"",[0,150],[-106,106]]",diamond,green,hori,left,"[0,150]","[-106,106]",left,1,1.5501,,,,,,001,2025-03-11_21h02.39.603,SL_sali,2021.2.3,Win32,59.88023952,,,119,0,119,0,1,,,,,,,,
,,,,,,,,,,,,,,,,,001,2025-03-11_21h02.39.603,SL_sali,2021.2.3,Win32,59.88023952,,,,,,,,2,space,1.4491,1,0,1,0,1
,,"[""diamond"",""red"",""hori"",""left"",[-106,106],[-150,0]]",diamond,red,hori,left,"[-106,106]","[-150,0]",left,1,1.4669,,,,,,001,2025-03-11_21h02.39.603,SL_sali,2021.2.3,Win32,59.88023952,,,0,0,0,0,1,,,,,,,,
,,"[""diamond"",""no_dis"",""vert"",""up"",[99999,99999],[0,150]]",diamond,no_dis,vert,up,"[99999,99999]","[0,150]",up,1,0.6836,,,,,,001,2025-03-11_21h02.39.603,SL_sali,2021.2.3,Win32,59.88023952,,,1,0,1,0,1,,,,,,,,
,,"[""circle"",""green"",""vert"",""up"",[-106,-106],[0,-150]]",circle,green,vert,up,"[-106,-106]","[0,-150]",up,1,0.8399,,,,,,001,2025-03-11_21h02.39.603,SL_sali,2021.2.3,Win32,59.88023952,,,2,0,2,0,1,,,,,,,,
,,"[""circle"",""red"",""vert"",""up"",[0,150],[150,0]]",circle,red,vert,up,"[0,150]","[150,0]",up,1,0.9048,,,,,,001,2025-03-11_21h02.39.603,SL_sali,2021.2.3,Win32,59.88023952,,,3,0,3,0,1,,,,,,,,
,,"[""diamond"",""no_dis"",""vert"",""up"",[99999,99999],[0,-150]]",diamond,no_dis,vert,up,"[99999,99999]","[0,-150]",left,0,0.8197,,,,,,001,2025-03-11_21h02.39.603,SL_sali,2021.2.3,Win32,59.88023952,,,4,0,4,0,1,,,,,,,,
,,"[""circle"",""no_dis"",""hori"",""left"",[99999,99999],[0,150]]",circle,no_dis,hori,left,"[99999,99999]","[0,150]",left,1,1.2354,,,,,,001,2025-03-11_21h02.39.603,SL_sali,2021.2.3,Win32,59.88023952,,,5,0,5,0,1,,,,,,,,
,,"[""circle"",""green"",""hori"",""left"",[106,106],[150,0]]",circle,green,hori,left,"[106,106]","[150,0]",left,1,0.7094,,,,,,001,2025-03-11_21h02.39.603,SL_sali,2021.2.3,Win32,59.88023952,,,6,0,6,0,1,,,,,,,,
,,"[""diamond"",""green"",""hori"",""left"",[150,0],[0,-150]]",diamond,green,hori,left,"[150,0]","[0,-150]",left,1,1.0753,,,,,,001,2025-03-11_21h02.39.603,SL_sali,2021.2.3,Win32,59.88023952,,,7,0,7,0,1,,,,,,,,
,,"[""circle"",""red"",""hori"",""left"",[106,-106],[0,-150]]",circle,red,hori,left,"[106,-106]","[0,-150]",left,1,0.7455,,,,,,001,2025-03-11_21h02.39.603,SL_sali,2021.2.3,Win32,59.88023952,,,8,0,8,0,1,,,,,,,,
,,"[""circle"",""no_dis"",""vert"",""up"",[99999,99999],[0,-150]]",circle,no_dis,vert,up,"[99999,99999]","[0,-150]",up,1,0.8209,,,,,,001,2025-03-11_21h02.39.603,SL_sali,2021.2.3,Win32,59.88023952,,,9,0,9,0,1,,,,,,,,
,,"[""diamond"",""no_dis"",""hori"",""left"",[99999,99999],[0,150]]",diamond,no_dis,hori,left,"[99999,99999]","[0,150]",left,1,1.2458,,,,,,001,2025-03-11_21h02.39.603,SL_sali,2021.2.3,Win32,59.88023952,,,10,0,10,0,1,,,,,,,,
,,"[""diamond"",""no_dis"",""vert"",""up"",[99999,99999],[-106,106]]",diamond,no_dis,vert,up,"[99999,99999]","[-106,106]",up,1,0.7894,,,,,,001,2025-03-11_21h02.39.603,SL_sali,2021.2.3,Win32,59.88023952,,,11,0,11,0,1,,,,,,,,
,,"[""diamond"",""green"",""vert"",""up"",[-150,0],[106,106]]",diamond,green,vert,up,"[-150,0]","[106,106]",up,1,1.1329,,,,,,001,2025-03-11_21h02.39.603,SL_sali,2021.2.3,Win32,59.88023952,,,12,0,12,0,1,,,,,,,,
,,"[""diamond"",""no_dis"",""vert"",""up"",[99999,99999],[-106,106]]",diamond,no_dis,vert,up,"[99999,99999]","[-106,106]",up,1,0.5998,,,,,,001,2025-03-11_21h02.39.603,SL_sali,2021.2.3,Win32,59.88023952,,,13,0,13,0,1,,,,,,,,
,,"[""diamond"",""green"",""hori"",""left"",[150,0],[106,106]]",diamond,green,hori,left,"[150,0]","[106,106]",left,1,0.8959,,,,,,001,2025-03-11_21h02.39.603,SL_sali,2021.2.3,Win32,59.88023952,,,14,0,14,0,1,,,,,,,,
,,"[""diamond"",""red"",""vert"",""up"",[0,-150],[150,0]]",diamond,red,vert,up,"[0,-150]","[150,0]",up,1,1.0531,,,,,,001,2025-03-11_21h02.39.603,SL_sali,2021.2.3,Win32,59.88023952,,,15,0,15,0,1,,,,,,,,
,,"[""circle"",""red"",""vert"",""up"",[-106,106],[106,-106]]",circle,red,vert,up,"[-106,106]","[106,-106]",up,1,0.8828,,,,,,001,2025-03-11_21h02.39.603,SL_sali,2021.2.3,Win32,59.88023952,,,16,0,16,0,1,,,,,,,,
,,"[""diamond"",""green"",""vert"",""up"",[150,0],[106,-106]]",diamond,green,vert,up,"[150,0]","[106,-106]",up,1,0.9402,,,,,,001,2025-03-11_21h02.39.603,SL_sali,2021.2.3,Win32,59.88023952,,,17,0,17,0,1,,,,,,,,
,,"[""circle"",""green"",""hori"",""left"",[150,0],[106,106]]",circle,green,hori,left,"[150,0]","[106,106]",left,1,1.9826,,,,,,001,2025-03-11_21h02.39.603,SL_sali,2021.2.3,Win32,59.88023952,,,18,0,18,0,1,,,,,,,,
,,"[""diamond"",""red"",""vert"",""up"",[-150,0],[150,0]]",diamond,red,vert,up,"[-150,0]","[150,0]",up,1,1.1453,,,,,,001,2025-03-11_21h02.39.603,SL_sali,2021.2.3,Win32,59.88023952,,,19,0,19,0,1,,,,,,,,
,,"[""circle"",""green"",""vert"",""up"",[-106,106],[0,-150]]",circle,green,vert,up,"[-106,106]","[0,-150]",up,1,0.7696,,,,,,001,2025-03-11_21h02.39.603,SL_sali,2021.2.3,Win32,59.88023952,,,20,0,20,0,1,,,,,,,,
,,"[""circle"",""red"",""hori"",""left"",[0,-150],[-106,-106]]",circle,red,hori,left,"[0,-150]","[-106,-106]",left,1,1.0861,,,,,,001,2025-03-11_21h02.39.603,SL_sali,2021.2.3,Win32,59.88023952,,,21,0,21,0,1,,,,,,,,
,,"[""circle"",""no_dis"",""hori"",""left"",[99999,99999],[106,-106]]",circle,no_dis,hori,left,"[99999,99999]","[106,-106]",left,1,0.6171,,,,,,001,2025-03-11_21h02.39.603,SL_sali,2021.2.3,Win32,59.88023952,,,22,0,22,0,1,,,,,,,,
,,"[""diamond"",""green"",""hori"",""left"",[106,106],[-106,106]]",diamond,green,hori,left,"[106,106]","[-106,106]",left,1,0.9452,,,,,,001,2025-03-11_21h02.39.603,SL_sali,2021.2.3,Win32,59.88023952,,,23,0,23,0,1,,,,,,,,
,,"[""diamond"",""red"",""vert"",""up"",[-150,0],[0,-150]]",diamond,red,vert,up,"[-150,0]","[0,-150]",up,1,1.1715,,,,,,001,2025-03-11_21h02.39.603,SL_sali,2021.2.3,Win32,59.88023952,,,24,0,24,0,1,,,,,,,,
,,"[""circle"",""no_dis"",""hori"",""left"",[99999,99999],[-106,-106]]",circle,no_dis,hori,left,"[99999,99999]","[-106,-106]",left,1,0.7528,,,,,,001,2025-03-11_21h02.39.603,SL_sali,2021.2.3,Win32,59.88023952,,,25,0,25,0,1,,,,,,,,
,,"[""diamond"",""green"",""hori"",""left"",[150,0],[0,150]]",diamond,green,hori,left,"[150,0]","[0,150]",left,1,1.0224,,,,,,001,2025-03-11_21h02.39.603,SL_sali,2021.2.3,Win32,59.88023952,,,26,0,26,0,1,,,,,,,,
,,"[""diamond"",""no_dis"",""vert"",""up"",[99999,99999],[-150,0]]",diamond,no_dis,vert,up,"[99999,99999]","[-150,0]",up,1,1.0283,,,,,,001,2025-03-11_21h02.39.603,SL_sali,2021.2.3,Win32,59.88023952,,,27,0,27,0,1,,,,,,,,
,,"[""circle"",""no_dis"",""hori"",""left"",[99999,99999],[106,-106]]",circle,no_dis,hori,left,"[99999,99999]","[106,-106]",left,1,0.684,,,,,,001,2025-03-11_21h02.39.603,SL_sali,2021.2.3,Win32,59.88023952,,,28,0,28,0,1,,,,,,,,
,,"[""diamond"",""green"",""hori"",""left"",[150,0],[-150,0]]",diamond,green,hori,left,"[150,0]","[-150,0]",left,1,0.917,,,,,,001,2025-03-11_21h02.39.603,SL_sali,2021.2.3,Win32,59.88023952,,,29,0,29,0,1,,,,,,,,
,,"[""diamond"",""no_dis"",""hori"",""left"",[99999,99999],[-150,0]]",diamond,no_dis,hori,left,"[99999,99999]","[-150,0]",left,1,0.6236,,,,,,001,2025-03-11_21h02.39.603,SL_sali,2021.2.3,Win32,59.88023952,,,30,0,30,0,1,,,,,,,,
,,"[""diamond"",""green"",""vert"",""up"",[-106,106],[106,106]]",diamond,green,vert,up,"[-106,106]","[106,106]",up,1,1.0503,,,,,,001,2025-03-11_21h02.39.603,SL_sali,2021.2.3,Win32,59.88023952,,,31,0,31,0,1,,,,,,,,
,,"[""circle"",""red"",""hori"",""left"",[-106,106],[-150,0]]",circle,red,hori,left,"[-106,106]","[-150,0]",left,1,1.1099,,,,,,001,2025-03-11_21h02.39.603,SL_sali,2021.2.3,Win32,59.88023952,,,32,0,32,0,1,,,,,,,,
,,"[""circle"",""no_dis"",""hori"",""left"",[99999,99999],[106,106]]",circle,no_dis,hori,left,"[99999,99999]","[106,106]",left,1,0.6218,,,,,,001,2025-03-11_21h02.39.603,SL_sali,2021.2.3,Win32,59.88023952,,,33,0,33,0,1,,,,,,,,
,,"[""diamond"",""green"",""vert"",""up"",[150,0],[106,-106]]",diamond,green,vert,up,"[150,0]","[106,-106]",up,1,1.0835,,,,,,001,2025-03-11_21h02.39.603,SL_sali,2021.2.3,Win32,59.88023952,,,34,0,34,0,1,,,,,,,,
,,"[""circle"",""green"",""vert"",""up"",[106,106],[106,-106]]",circle,green,vert,up,"[106,106]","[106,-106]",left,0,1.3451,,,,,,001,2025-03-11_21h02.39.603,SL_sali,2021.2.3,Win32,59.88023952,,,35,0,35,0,1,,,,,,,,
,,"[""circle"",""no_dis"",""vert"",""up"",[99999,99999],[106,106]]",circle,no_dis,vert,up,"[99999,99999]","[106,106]",up,1,1.2079,,,,,,001,2025-03-11_21h02.39.603,SL_sali,2021.2.3,Win32,59.88023952,,,36,0,36,0,1,,,,,,,,
,,"[""circle"",""green"",""hori"",""left"",[0,150],[-106,-106]]",circle,green,hori,left,"[0,150]","[-106,-106]",left,1,0.9177,,,,,,001,2025-03-11_21h02.39.603,SL_sali,2021.2.3,Win32,59.88023952,,,37,0,37,0,1,,,,,,,,
,,"[""circle"",""red"",""hori"",""left"",[0,150],[150,0]]",circle,red,hori,left,"[0,150]","[150,0]",left,1,0.723,,,,,,001,2025-03-11_21h02.39.603,SL_sali,2021.2.3,Win32,59.88023952,,,38,0,38,0,1,,,,,,,,
,,"[""circle"",""red"",""vert"",""up"",[-106,-106],[0,150]]",circle,red,vert,up,"[-106,-106]","[0,150]",up,1,1.0333,,,,,,001,2025-03-11_21h02.39.603,SL_sali,2021.2.3,Win32,59.88023952,,,39,0,39,0,1,,,,,,,,
,,"[""circle"",""red"",""hori"",""left"",[106,106],[106,-106]]",circle,red,hori,left,"[106,106]","[106,-106]",left,1,0.7829,,,,,,001,2025-03-11_21h02.39.603,SL_sali,2021.2.3,Win32,59.88023952,,,40,0,40,0,1,,,,,,,,
,,"[""diamond"",""red"",""vert"",""up"",[-106,-106],[-150,0]]",diamond,red,vert,up,"[-106,-106]","[-150,0]",up,1,0.9551,,,,,,001,2025-03-11_21h02.39.603,SL_sali,2021.2.3,Win32,59.88023952,,,41,0,41,0,1,,,,,,,,
,,"[""circle"",""green"",""vert"",""up"",[106,-106],[-150,0]]",circle,green,vert,up,"[106,-106]","[-150,0]",up,1,1.8862,,,,,,001,2025-03-11_21h02.39.603,SL_sali,2021.2.3,Win32,59.88023952,,,42,0,42,0,1,,,,,,,,
,,"[""circle"",""green"",""hori"",""left"",[150,0],[106,106]]",circle,green,hori,left,"[150,0]","[106,106]",left,1,0.7495,,,,,,001,2025-03-11_21h02.39.603,SL_sali,2021.2.3,Win32,59.88023952,,,43,0,43,0,1,,,,,,,,
,,"[""circle"",""red"",""hori"",""left"",[150,0],[106,106]]",circle,red,hori,left,"[150,0]","[106,106]",left,1,0.5992,,,,,,001,2025-03-11_21h02.39.603,SL_sali,2021.2.3,Win32,59.88023952,,,44,0,44,0,1,,,,,,,,
,,"[""diamond"",""red"",""vert"",""up"",[-106,-106],[0,-150]]",diamond,red,vert,up,"[-106,-106]","[0,-150]",up,1,0.9447,,,,,,001,2025-03-11_21h02.39.603,SL_sali,2021.2.3,Win32,59.88023952,,,45,0,45,0,1,,,,,,,,
,,"[""circle"",""red"",""vert"",""up"",[150,0],[-106,-106]]",circle,red,vert,up,"[150,0]","[-106,-106]",left,0,0.7999,,,,,,001,2025-03-11_21h02.39.603,SL_sali,2021.2.3,Win32,59.88023952,,,46,0,46,0,1,,,,,,,,
,,"[""circle"",""red"",""hori"",""left"",[0,-150],[-106,106]]",circle,red,hori,left,"[0,-150]","[-106,106]",left,1,0.7997,,,,,,001,2025-03-11_21h02.39.603,SL_sali,2021.2.3,Win32,59.88023952,,,47,0,47,0,1,,,,,,,,
,,"[""circle"",""no_dis"",""hori"",""left"",[99999,99999],[-150,0]]",circle,no_dis,hori,left,"[99999,99999]","[-150,0]",left,1,0.589,,,,,,001,2025-03-11_21h02.39.603,SL_sali,2021.2.3,Win32,59.88023952,,,48,0,48,0,1,,,,,,,,
,,"[""diamond"",""green"",""vert"",""up"",[0,150],[-106,-106]]",diamond,green,vert,up,"[0,150]","[-106,-106]",up,1,0.955,,,,,,001,2025-03-11_21h02.39.603,SL_sali,2021.2.3,Win32,59.88023952,,,49,0,49,0,1,,,,,,,,
,,"[""circle"",""no_dis"",""vert"",""up"",[99999,99999],[0,-150]]",circle,no_dis,vert,up,"[99999,99999]","[0,-150]",up,1,0.9424,,,,,,001,2025-03-11_21h02.39.603,SL_sali,2021.2.3,Win32,59.88023952,,,50,0,50,0,1,,,,,,,,
,,"[""circle"",""no_dis"",""vert"",""up"",[99999,99999],[106,106]]",circle,no_dis,vert,up,"[99999,99999]","[106,106]",up,1,0.6057,,,,,,001,2025-03-11_21h02.39.603,SL_sali,2021.2.3,Win32,59.88023952,,,51,0,51,0,1,,,,,,,,
,,"[""circle"",""red"",""vert"",""up"",[150,0],[106,106]]",circle,red,vert,up,"[150,0]","[106,106]",up,1,0.7374,,,,,,001,2025-03-11_21h02.39.603,SL_sali,2021.2.3,Win32,59.88023952,,,52,0,52,0,1,,,,,,,,
,,"[""diamond"",""no_dis"",""hori"",""left"",[99999,99999],[-106,106]]",diamond,no_dis,hori,left,"[99999,99999]","[-106,106]",left,1,1.5439,,,,,,001,2025-03-11_21h02.39.603,SL_sali,2021.2.3,Win32,59.88023952,,,53,0,53,0,1,,,,,,,,
,,"[""circle"",""no_dis"",""hori"",""left"",[99999,99999],[0,150]]",circle,no_dis,hori,left,"[99999,99999]","[0,150]",left,1,1.2164,,,,,,001,2025-03-11_21h02.39.603,SL_sali,2021.2.3,Win32,59.88023952,,,54,0,54,0,1,,,,,,,,
,,"[""diamond"",""no_dis"",""hori"",""left"",[99999,99999],[-106,-106]]",diamond,no_dis,hori,left,"[99999,99999]","[-106,-106]",left,1,1.2324,,,,,,001,2025-03-11_21h02.39.603,SL_sali,2021.2.3,Win32,59.88023952,,,55,0,55,0,1,,,,,,,,
,,"[""diamond"",""red"",""hori"",""left"",[-106,-106],[0,150]]",diamond,red,hori,left,"[-106,-106]","[0,150]",left,1,1.1119,,,,,,001,2025-03-11_21h02.39.603,SL_sali,2021.2.3,Win32,59.88023952,,,56,0,56,0,1,,,,,,,,
,,"[""circle"",""red"",""hori"",""left"",[0,-150],[-106,-106]]",circle,red,hori,left,"[0,-150]","[-106,-106]",left,1,0.9325,,,,,,001,2025-03-11_21h02.39.603,SL_sali,2021.2.3,Win32,59.88023952,,,57,0,57,0,1,,,,,,,,
,,"[""diamond"",""no_dis"",""vert"",""up"",[99999,99999],[0,-150]]",diamond,no_dis,vert,up,"[99999,99999]","[0,-150]",up,1,0.9667,,,,,,001,2025-03-11_21h02.39.603,SL_sali,2021.2.3,Win32,59.88023952,,,58,0,58,0,1,,,,,,,,
,,"[""diamond"",""green"",""hori"",""left"",[106,-106],[-106,106]]",diamond,green,hori,left,"[106,-106]","[-106,106]",left,1,1.2496,,,,,,001,2025-03-11_21h02.39.603,SL_sali,2021.2.3,Win32,59.88023952,,,59,0,59,0,1,,,,,,,,
,,"[""diamond"",""green"",""vert"",""up"",[0,-150],[0,150]]",diamond,green,vert,up,"[0,-150]","[0,150]",up,1,0.7391,,,,,,001,2025-03-11_21h02.39.603,SL_sali,2021.2.3,Win32,59.88023952,,,60,0,60,0,1,,,,,,,,
,,"[""diamond"",""green"",""hori"",""left"",[0,150],[-106,106]]",diamond,green,hori,left,"[0,150]","[-106,106]",left,1,1.0168,,,,,,001,2025-03-11_21h02.39.603,SL_sali,2021.2.3,Win32,59.88023952,,,61,0,61,0,1,,,,,,,,
,,"[""circle"",""green"",""vert"",""up"",[150,0],[-150,0]]",circle,green,vert,up,"[150,0]","[-150,0]",up,1,0.7838,,,,,,001,2025-03-11_21h02.39.603,SL_sali,2021.2.3,Win32,59.88023952,,,62,0,62,0,1,,,,,,,,
,,"[""diamond"",""no_dis"",""hori"",""left"",[99999,99999],[-106,-106]]",diamond,no_dis,hori,left,"[99999,99999]","[-106,-106]",left,1,1.5769,,,,,,001,2025-03-11_21h02.39.603,SL_sali,2021.2.3,Win32,59.88023952,,,63,0,63,0,1,,,,,,,,
,,"[""diamond"",""green"",""vert"",""up"",[106,-106],[0,-150]]",diamond,green,vert,up,"[106,-106]","[0,-150]",up,1,1.0504,,,,,,001,2025-03-11_21h02.39.603,SL_sali,2021.2.3,Win32,59.88023952,,,64,0,64,0,1,,,,,,,,
,,"[""diamond"",""red"",""hori"",""left"",[150,0],[-106,-106]]",diamond,red,hori,left,"[150,0]","[-106,-106]",left,1,0.8499,,,,,,001,2025-03-11_21h02.39.603,SL_sali,2021.2.3,Win32,59.88023952,,,65,0,65,0,1,,,,,,,,
,,"[""diamond"",""no_dis"",""vert"",""up"",[99999,99999],[-106,-106]]",diamond,no_dis,vert,up,"[99999,99999]","[-106,-106]",up,1,0.9333,,,,,,001,2025-03-11_21h02.39.603,SL_sali,2021.2.3,Win32,59.88023952,,,66,0,66,0,1,,,,,,,,
,,"[""circle"",""green"",""hori"",""left"",[-106,-106],[150,0]]",circle,green,hori,left,"[-106,-106]","[150,0]",left,1,1.3002,,,,,,001,2025-03-11_21h02.39.603,SL_sali,2021.2.3,Win32,59.88023952,,,67,0,67,0,1,,,,,,,,
,,"[""diamond"",""green"",""hori"",""left"",[-106,-106],[0,-150]]",diamond,green,hori,left,"[-106,-106]","[0,-150]",left,1,1.4669,,,,,,001,2025-03-11_21h02.39.603,SL_sali,2021.2.3,Win32,59.88023952,,,68,0,68,0,1,,,,,,,,
,,"[""diamond"",""red"",""hori"",""left"",[106,106],[106,-106]]",diamond,red,hori,left,"[106,106]","[106,-106]",left,1,1.0348,,,,,,001,2025-03-11_21h02.39.603,SL_sali,2021.2.3,Win32,59.88023952,,,69,0,69,0,1,,,,,,,,
,,"[""diamond"",""red"",""hori"",""left"",[0,-150],[106,-106]]",diamond,red,hori,left,"[0,-150]","[106,-106]",left,1,1.1024,,,,,,001,2025-03-11_21h02.39.603,SL_sali,2021.2.3,Win32,59.88023952,,,70,0,70,0,1,,,,,,,,
,,"[""circle"",""no_dis"",""vert"",""up"",[99999,99999],[106,-106]]",circle,no_dis,vert,up,"[99999,99999]","[106,-106]",up,1,1.0502,,,,,,001,2025-03-11_21h02.39.603,SL_sali,2021.2.3,Win32,59.88023952,,,71,0,71,0,1,,,,,,,,
,,"[""circle"",""green"",""vert"",""up"",[-150,0],[0,150]]",circle,green,vert,up,"[-150,0]","[0,150]",up,1,0.6792,,,,,,001,2025-03-11_21h02.39.603,SL_sali,2021.2.3,Win32,59.88023952,,,72,0,72,0,1,,,,,,,,
,,"[""diamond"",""red"",""hori"",""left"",[0,-150],[106,-106]]",diamond,red,hori,left,"[0,-150]","[106,-106]",left,1,1.1449,,,,,,001,2025-03-11_21h02.39.603,SL_sali,2021.2.3,Win32,59.88023952,,,73,0,73,0,1,,,,,,,,
,,"[""diamond"",""red"",""vert"",""up"",[-150,0],[106,106]]",diamond,red,vert,up,"[-150,0]","[106,106]",up,1,0.9535,,,,,,001,2025-03-11_21h02.39.603,SL_sali,2021.2.3,Win32,59.88023952,,,74,0,74,0,1,,,,,,,,
,,"[""diamond"",""red"",""hori"",""left"",[150,0],[-106,-106]]",diamond,red,hori,left,"[150,0]","[-106,-106]",left,1,0.8574,,,,,,001,2025-03-11_21h02.39.603,SL_sali,2021.2.3,Win32,59.88023952,,,75,0,75,0,1,,,,,,,,
,,"[""circle"",""green"",""vert"",""up"",[106,106],[0,150]]",circle,green,vert,up,"[106,106]","[0,150]",left,0,1.0834,,,,,,001,2025-03-11_21h02.39.603,SL_sali,2021.2.3,Win32,59.88023952,,,76,0,76,0,1,,,,,,,,
,,"[""circle"",""no_dis"",""vert"",""up"",[99999,99999],[150,0]]",circle,no_dis,vert,up,"[99999,99999]","[150,0]",up,1,0.7348,,,,,,001,2025-03-11_21h02.39.603,SL_sali,2021.2.3,Win32,59.88023952,,,77,0,77,0,1,,,,,,,,
,,"[""diamond"",""green"",""vert"",""up"",[106,-106],[-106,106]]",diamond,green,vert,up,"[106,-106]","[-106,106]",up,1,0.7838,,,,,,001,2025-03-11_21h02.39.603,SL_sali,2021.2.3,Win32,59.88023952,,,78,0,78,0,1,,,,,,,,
,,"[""circle"",""green"",""vert"",""up"",[150,0],[106,-106]]",circle,green,vert,up,"[150,0]","[106,-106]",up,1,0.8001,,,,,,001,2025-03-11_21h02.39.603,SL_sali,2021.2.3,Win32,59.88023952,,,79,0,79,0,1,,,,,,,,
,,"[""circle"",""red"",""vert"",""up"",[150,0],[106,106]]",circle,red,vert,up,"[150,0]","[106,106]",up,1,0.5407,,,,,,001,2025-03-11_21h02.39.603,SL_sali,2021.2.3,Win32,59.88023952,,,80,0,80,0,1,,,,,,,,
,,"[""diamond"",""red"",""vert"",""up"",[150,0],[-150,0]]",diamond,red,vert,up,"[150,0]","[-150,0]",left,0,0.8405,,,,,,001,2025-03-11_21h02.39.603,SL_sali,2021.2.3,Win32,59.88023952,,,81,0,81,0,1,,,,,,,,
,,"[""diamond"",""no_dis"",""hori"",""left"",[99999,99999],[150,0]]",diamond,no_dis,hori,left,"[99999,99999]","[150,0]",left,1,0.9719,,,,,,001,2025-03-11_21h02.39.603,SL_sali,2021.2.3,Win32,59.88023952,,,82,0,82,0,1,,,,,,,,
,,"[""diamond"",""red"",""vert"",""up"",[150,0],[106,106]]",diamond,red,vert,up,"[150,0]","[106,106]",up,1,1.9678,,,,,,001,2025-03-11_21h02.39.603,SL_sali,2021.2.3,Win32,59.88023952,,,83,0,83,0,1,,,,,,,,
,,"[""circle"",""green"",""hori"",""left"",[106,106],[150,0]]",circle,green,hori,left,"[106,106]","[150,0]",left,1,1.885,,,,,,001,2025-03-11_21h02.39.603,SL_sali,2021.2.3,Win32,59.88023952,,,84,0,84,0,1,,,,,,,,
,,"[""diamond"",""no_dis"",""vert"",""up"",[99999,99999],[-150,0]]",diamond,no_dis,vert,up,"[99999,99999]","[-150,0]",up,1,1.0169,,,,,,001,2025-03-11_21h02.39.603,SL_sali,2021.2.3,Win32,59.88023952,,,85,0,85,0,1,,,,,,,,
,,"[""circle"",""red"",""vert"",""up"",[-150,0],[106,-106]]",circle,red,vert,up,"[-150,0]","[106,-106]",up,1,1.6863,,,,,,001,2025-03-11_21h02.39.603,SL_sali,2021.2.3,Win32,59.88023952,,,86,0,86,0,1,,,,,,,,
,,"[""circle"",""no_dis"",""hori"",""left"",[99999,99999],[0,-150]]",circle,no_dis,hori,left,"[99999,99999]","[0,-150]",left,1,1.1799,,,,,,001,2025-03-11_21h02.39.603,SL_sali,2021.2.3,Win32,59.88023952,,,87,0,87,0,1,,,,,,,,
,,"[""diamond"",""red"",""vert"",""up"",[-106,106],[150,0]]",diamond,red,vert,up,"[-106,106]","[150,0]",up,1,0.9496,,,,,,001,2025-03-11_21h02.39.603,SL_sali,2021.2.3,Win32,59.88023952,,,88,0,88,0,1,,,,,,,,
,,"[""diamond"",""red"",""vert"",""up"",[106,-106],[150,0]]",diamond,red,vert,up,"[106,-106]","[150,0]",up,1,1.167,,,,,,001,2025-03-11_21h02.39.603,SL_sali,2021.2.3,Win32,59.88023952,,,89,0,89,0,1,,,,,,,,
,,"[""diamond"",""no_dis"",""hori"",""left"",[99999,99999],[106,-106]]",diamond,no_dis,hori,left,"[99999,99999]","[106,-106]",left,1,0.8504,,,,,,001,2025-03-11_21h02.39.603,SL_sali,2021.2.3,Win32,59.88023952,,,90,0,90,0,1,,,,,,,,
,,"[""circle"",""green"",""vert"",""up"",[150,0],[106,106]]",circle,green,vert,up,"[150,0]","[106,106]",up,1,0.8834,,,,,,001,2025-03-11_21h02.39.603,SL_sali,2021.2.3,Win32,59.88023952,,,91,0,91,0,1,,,,,,,,
,,"[""circle"",""red"",""vert"",""up"",[106,106],[106,-106]]",circle,red,vert,up,"[106,106]","[106,-106]",left,0,1.2591,,,,,,001,2025-03-11_21h02.39.603,SL_sali,2021.2.3,Win32,59.88023952,,,92,0,92,0,1,,,,,,,,
,,"[""circle"",""no_dis"",""vert"",""up"",[99999,99999],[106,-106]]",circle,no_dis,vert,up,"[99999,99999]","[106,-106]",up,1,0.7832,,,,,,001,2025-03-11_21h02.39.603,SL_sali,2021.2.3,Win32,59.88023952,,,93,0,93,0,1,,,,,,,,
,,"[""circle"",""red"",""hori"",""left"",[150,0],[-106,106]]",circle,red,hori,left,"[150,0]","[-106,106]",left,1,0.7665,,,,,,001,2025-03-11_21h02.39.603,SL_sali,2021.2.3,Win32,59.88023952,,,94,0,94,0,1,,,,,,,,
,,"[""diamond"",""red"",""hori"",""left"",[0,150],[150,0]]",diamond,red,hori,left,"[0,150]","[150,0]",left,1,1.0332,,,,,,001,2025-03-11_21h02.39.603,SL_sali,2021.2.3,Win32,59.88023952,,,95,0,95,0,1,,,,,,,,
,,"[""diamond"",""red"",""hori"",""left"",[-150,0],[0,-150]]",diamond,red,hori,left,"[-150,0]","[0,-150]",left,1,1.2178,,,,,,001,2025-03-11_21h02.39.603,SL_sali,2021.2.3,Win32,59.88023952,,,96,0,96,0,1,,,,,,,,
,,"[""circle"",""green"",""hori"",""left"",[150,0],[-106,-106]]",circle,green,hori,left,"[150,0]","[-106,-106]",left,1,0.8009,,,,,,001,2025-03-11_21h02.39.603,SL_sali,2021.2.3,Win32,59.88023952,,,97,0,97,0,1,,,,,,,,
,,"[""diamond"",""no_dis"",""hori"",""left"",[99999,99999],[-106,106]]",diamond,no_dis,hori,left,"[99999,99999]","[-106,106]",left,1,0.6865,,,,,,001,2025-03-11_21h02.39.603,SL_sali,2021.2.3,Win32,59.88023952,,,98,0,98,0,1,,,,,,,,
,,"[""circle"",""no_dis"",""vert"",""up"",[99999,99999],[150,0]]",circle,no_dis,vert,up,"[99999,99999]","[150,0]",up,1,0.7333,,,,,,001,2025-03-11_21h02.39.603,SL_sali,2021.2.3,Win32,59.88023952,,,99,0,99,0,1,,,,,,,,
,,"[""circle"",""no_dis"",""vert"",""up"",[99999,99999],[150,0]]",circle,no_dis,vert,up,"[99999,99999]","[150,0]",up,1,0.5502,,,,,,001,2025-03-11_21h02.39.603,SL_sali,2021.2.3,Win32,59.88023952,,,100,0,100,0,1,,,,,,,,
,,"[""diamond"",""green"",""hori"",""left"",[0,150],[106,-106]]",diamond,green,hori,left,"[0,150]","[106,-106]",left,1,1.0006,,,,,,001,2025-03-11_21h02.39.603,SL_sali,2021.2.3,Win32,59.88023952,,,101,0,101,0,1,,,,,,,,
,,"[""circle"",""no_dis"",""hori"",""left"",[99999,99999],[150,0]]",circle,no_dis,hori,left,"[99999,99999]","[150,0]",left,1,0.6227,,,,,,001,2025-03-11_21h02.39.603,SL_sali,2021.2.3,Win32,59.88023952,,,102,0,102,0,1,,,,,,,,
,,"[""diamond"",""green"",""hori"",""left"",[0,150],[-150,0]]",diamond,green,hori,left,"[0,150]","[-150,0]",left,1,0.9767,,,,,,001,2025-03-11_21h02.39.603,SL_sali,2021.2.3,Win32,59.88023952,,,103,0,103,0,1,,,,,,,,
,,"[""circle"",""no_dis"",""hori"",""left"",[99999,99999],[-106,-106]]",circle,no_dis,hori,left,"[99999,99999]","[-106,-106]",left,1,1.2668,,,,,,001,2025-03-11_21h02.39.603,SL_sali,2021.2.3,Win32,59.88023952,,,104,0,104,0,1,,,,,,,,
,,"[""diamond"",""no_dis"",""vert"",""up"",[99999,99999],[-106,106]]",diamond,no_dis,vert,up,"[99999,99999]","[-106,106]",up,1,0.7001,,,,,,001,2025-03-11_21h02.39.603,SL_sali,2021.2.3,Win32,59.88023952,,,105,0,105,0,1,,,,,,,,
,,"[""circle"",""green"",""hori"",""left"",[-106,-106],[0,-150]]",circle,green,hori,left,"[-106,-106]","[0,-150]",left,1,0.9666,,,,,,001,2025-03-11_21h02.39.603,SL_sali,2021.2.3,Win32,59.88023952,,,106,0,106,0,1,,,,,,,,
,,"[""diamond"",""no_dis"",""hori"",""left"",[99999,99999],[-150,0]]",diamond,no_dis,hori,left,"[99999,99999]","[-150,0]",left,1,0.9771,,,,,,001,2025-03-11_21h02.39.603,SL_sali,2021.2.3,Win32,59.88023952,,,107,0,107,0,1,,,,,,,,
,,"[""circle"",""green"",""hori"",""left"",[-106,106],[0,-150]]",circle,green,hori,left,"[-106,106]","[0,-150]",left,1,0.8105,,,,,,001,2025-03-11_21h02.39.603,SL_sali,2021.2.3,Win32,59.88023952,,,108,0,108,0,1,,,,,,,,
,,"[""circle"",""green"",""vert"",""up"",[106,-106],[-106,106]]",circle,green,vert,up,"[106,-106]","[-106,106]",up,1,0.7003,,,,,,001,2025-03-11_21h02.39.603,SL_sali,2021.2.3,Win32,59.88023952,,,109,0,109,0,1,,,,,,,,
,,"[""circle"",""no_dis"",""vert"",""up"",[99999,99999],[0,150]]",circle,no_dis,vert,up,"[99999,99999]","[0,150]",up,1,0.7831,,,,,,001,2025-03-11_21h02.39.603,SL_sali,2021.2.3,Win32,59.88023952,,,110,0,110,0,1,,,,,,,,
,,"[""circle"",""red"",""vert"",""up"",[150,0],[0,-150]]",circle,red,vert,up,"[150,0]","[0,-150]",up,1,0.7676,,,,,,001,2025-03-11_21h02.39.603,SL_sali,2021.2.3,Win32,59.88023952,,,111,0,111,0,1,,,,,,,,
,,"[""diamond"",""no_dis"",""vert"",""up"",[99999,99999],[106,106]]",diamond,no_dis,vert,up,"[99999,99999]","[106,106]",up,1,1.1675,,,,,,001,2025-03-11_21h02.39.603,SL_sali,2021.2.3,Win32,59.88023952,,,112,0,112,0,1,,,,,,,,
,,"[""diamond"",""green"",""vert"",""up"",[106,-106],[106,106]]",diamond,green,vert,up,"[106,-106]","[106,106]",up,1,1.741,,,,,,001,2025-03-11_21h02.39.603,SL_sali,2021.2.3,Win32,59.88023952,,,113,0,113,0,1,,,,,,,,
,,"[""diamond"",""green"",""vert"",""up"",[0,-150],[0,150]]",diamond,green,vert,up,"[0,-150]","[0,150]",up,1,0.6787,,,,,,001,2025-03-11_21h02.39.603,SL_sali,2021.2.3,Win32,59.88023952,,,114,0,114,0,1,,,,,,,,
,,"[""diamond"",""no_dis"",""hori"",""left"",[99999,99999],[106,106]]",diamond,no_dis,hori,left,"[99999,99999]","[106,106]",left,1,0.875,,,,,,001,2025-03-11_21h02.39.603,SL_sali,2021.2.3,Win32,59.88023952,,,115,0,115,0,1,,,,,,,,
,,"[""circle"",""red"",""vert"",""up"",[150,0],[-106,106]]",circle,red,vert,up,"[150,0]","[-106,106]",up,1,1.1834,,,,,,001,2025-03-11_21h02.39.603,SL_sali,2021.2.3,Win32,59.88023952,,,116,0,116,0,1,,,,,,,,
,,"[""circle"",""green"",""hori"",""left"",[-106,106],[0,150]]",circle,green,hori,left,"[-106,106]","[0,150]",left,1,1.2267,,,,,,001,2025-03-11_21h02.39.603,SL_sali,2021.2.3,Win32,59.88023952,,,117,0,117,0,1,,,,,,,,
,,"[""diamond"",""red"",""hori"",""left"",[150,0],[-106,-106]]",diamond,red,hori,left,"[150,0]","[-106,-106]",left,1,1.1669,,,,,,001,2025-03-11_21h02.39.603,SL_sali,2021.2.3,Win32,59.88023952,,,118,0,118,0,1,,,,,,,,
,,"[""circle"",""red"",""hori"",""left"",[-150,0],[106,-106]]",circle,red,hori,left,"[-150,0]","[106,-106]",left,1,1.317,,,,,,001,2025-03-11_21h02.39.603,SL_sali,2021.2.3,Win32,59.88023952,,,119,0,119,0,1,,,,,,,,
,,,,,,,,,,,,,,,,,001,2025-03-11_21h02.39.603,SL_sali,2021.2.3,Win32,59.88023952,,,,,,,,3,space,1.5057,2,0,2,0,1
,,"[""diamond"",""no_dis"",""vert"",""up"",[99999,99999],[-150,0]]",diamond,no_dis,vert,up,"[99999,99999]","[-150,0]",up,1,0.6507,,,,,,001,2025-03-11_21h02.39.603,SL_sali,2021.2.3,Win32,59.88023952,,,0,0,0,0,1,,,,,,,,
,,"[""diamond"",""no_dis"",""hori"",""left"",[99999,99999],[-150,0]]",diamond,no_dis,hori,left,"[99999,99999]","[-150,0]",left,1,1.1447,,,,,,001,2025-03-11_21h02.39.603,SL_sali,2021.2.3,Win32,59.88023952,,,1,0,1,0,1,,,,,,,,
,,"[""diamond"",""green"",""hori"",""left"",[150,0],[0,150]]",diamond,green,hori,left,"[150,0]","[0,150]",left,1,0.9504,,,,,,001,2025-03-11_21h02.39.603,SL_sali,2021.2.3,Win32,59.88023952,,,2,0,2,0,1,,,,,,,,
,,"[""diamond"",""green"",""vert"",""up"",[150,0],[106,-106]]",diamond,green,vert,up,"[150,0]","[106,-106]",up,1,1.121,,,,,,001,2025-03-11_21h02.39.603,SL_sali,2021.2.3,Win32,59.88023952,,,3,0,3,0,1,,,,,,,,
,,"[""diamond"",""no_dis"",""hori"",""left"",[99999,99999],[-106,106]]",diamond,no_dis,hori,left,"[99999,99999]","[-106,106]",left,1,0.5779,,,,,,001,2025-03-11_21h02.39.603,SL_sali,2021.2.3,Win32,59.88023952,,,4,0,4,0,1,,,,,,,,
,,"[""circle"",""green"",""vert"",""up"",[106,106],[106,-106]]",circle,green,vert,up,"[106,106]","[106,-106]",up,1,0.8499,,,,,,001,2025-03-11_21h02.39.603,SL_sali,2021.2.3,Win32,59.88023952,,,5,0,5,0,1,,,,,,,,
,,"[""circle"",""green"",""hori"",""left"",[-106,-106],[150,0]]",circle,green,hori,left,"[-106,-106]","[150,0]",left,1,1.1667,,,,,,001,2025-03-11_21h02.39.603,SL_sali,2021.2.3,Win32,59.88023952,,,6,0,6,0,1,,,,,,,,
,,"[""circle"",""red"",""vert"",""up"",[150,0],[106,106]]",circle,red,vert,up,"[150,0]","[106,106]",up,1,0.6001,,,,,,001,2025-03-11_21h02.39.603,SL_sali,2021.2.3,Win32,59.88023952,,,7,0,7,0,1,,,,,,,,
,,"[""circle"",""green"",""vert"",""up"",[-150,0],[0,150]]",circle,green,vert,up,"[-150,0]","[0,150]",up,1,0.6699,,,,,,001,2025-03-11_21h02.39.603,SL_sali,2021.2.3,Win32,59.88023952,,,8,0,8,0,1,,,,,,,,
,,"[""circle"",""green"",""hori"",""left"",[-106,106],[0,150]]",circle,green,hori,left,"[-106,106]","[0,150]",left,1,1.0087,,,,,,001,2025-03-11_21h02.39.603,SL_sali,2021.2.3,Win32,59.88023952,,,9,0,9,0,1,,,,,,,,
,,"[""circle"",""no_dis"",""vert"",""up"",[99999,99999],[150,0]]",circle,no_dis,vert,up,"[99999,99999]","[150,0]",up,1,1.1382,,,,,,001,2025-03-11_21h02.39.603,SL_sali,2021.2.3,Win32,59.88023952,,,10,0,10,0,1,,,,,,,,
,,"[""circle"",""no_dis"",""vert"",""up"",[99999,99999],[106,-106]]",circle,no_dis,vert,up,"[99999,99999]","[106,-106]",up,1,0.5837,,,,,,001,2025-03-11_21h02.39.603,SL_sali,2021.2.3,Win32,59.88023952,,,11,0,11,0,1,,,,,,,,
,,"[""diamond"",""green"",""vert"",""up"",[0,-150],[0,150]]",diamond,green,vert,up,"[0,-150]","[0,150]",up,1,1.0563,,,,,,001,2025-03-11_21h02.39.603,SL_sali,2021.2.3,Win32,59.88023952,,,12,0,12,0,1,,,,,,,,
,,"[""diamond"",""no_dis"",""hori"",""left"",[99999,99999],[-150,0]]",diamond,no_dis,hori,left,"[99999,99999]","[-150,0]",left,1,0.7662,,,,,,001,2025-03-11_21h02.39.603,SL_sali,2021.2.3,Win32,59.88023952,,,13,0,13,0,1,,,,,,,,
,,"[""diamond"",""green"",""vert"",""up"",[0,150],[-106,-106]]",diamond,green,vert,up,"[0,150]","[-106,-106]",up,1,1.0991,,,,,,001,2025-03-11_21h02.39.603,SL_sali,2021.2.3,Win32,59.88023952,,,14,0,14,0,1,,,,,,,,
,,"[""diamond"",""green"",""vert"",""up"",[106,-106],[0,-150]]",diamond,green,vert,up,"[106,-106]","[0,-150]",up,1,0.8291,,,,,,001,2025-03-11_21h02.39.603,SL_sali,2021.2.3,Win32,59.88023952,,,15,0,15,0,1,,,,,,,,
,,"[""diamond"",""red"",""vert"",""up"",[150,0],[-150,0]]",diamond,red,vert,up,"[150,0]","[-150,0]",up,1,0.7337,,,,,,001,2025-03-11_21h02.39.603,SL_sali,2021.2.3,Win32,59.88023952,,,16,0,16,0,1,,,,,,,,
,,"[""circle"",""red"",""hori"",""left"",[106,106],[106,-106]]",circle,red,hori,left,"[106,106]","[106,-106]",left,1,1.4223,,,,,,001,2025-03-11_21h02.39.603,SL_sali,2021.2.3,Win32,59.88023952,,,17,0,17,0,1,,,,,,,,
,,"[""circle"",""red"",""hori"",""left"",[150,0],[-106,106]]",circle,red,hori,left,"[150,0]","[-106,106]",left,1,0.6752,,,,,,001,2025-03-11_21h02.39.603,SL_sali,2021.2.3,Win32,59.88023952,,,18,0,18,0,1,,,,,,,,
,,"[""circle"",""red"",""vert"",""up"",[150,0],[106,106]]",circle,red,vert,up,"[150,0]","[106,106]",up,1,0.6043,,,,,,001,2025-03-11_21h02.39.603,SL_sali,2021.2.3,Win32,59.88023952,,,19,0,19,0,1,,,,,,,,
,,"[""diamond"",""red"",""vert"",""up"",[0,-150],[150,0]]",diamond,red,vert,up,"[0,-150]","[150,0]",up,1,0.8495,,,,,,001,2025-03-11_21h02.39.603,SL_sali,2021.2.3,Win32,59.88023952,,,20,0,20,0,1,,,,,,,,
,,"[""diamond"",""red"",""vert"",""up"",[-106,106],[150,0]]",diamond,red,vert,up,"[-106,106]","[150,0]",up,1,0.8031,,,,,,001,2025-03-11_21h02.39.603,SL_sali,2021.2.3,Win32,59.88023952,,,21,0,21,0,1,,,,,,,,
,,"[""circle"",""red"",""vert"",""up"",[0,150],[150,0]]",circle,red,vert,up,"[0,150]","[150,0]",up,1,0.9008,,,,,,001,2025-03-11_21h02.39.603,SL_sali,2021.2.3,Win32,59.88023952,,,22,0,22,0,1,,,,,,,,
,,"[""diamond"",""green"",""vert"",""up"",[106,-106],[106,106]]",diamond,green,vert,up,"[106,-106]","[106,106]",up,1,0.7866,,,,,,001,2025-03-11_21h02.39.603,SL_sali,2021.2.3,Win32,59.88023952,,,23,0,23,0,1,,,,,,,,
,,"[""diamond"",""red"",""vert"",""up"",[106,-106],[150,0]]",diamond,red,vert,up,"[106,-106]","[150,0]",up,1,0.6542,,,,,,001,2025-03-11_21h02.39.603,SL_sali,2021.2.3,Win32,59.88023952,,,24,0,24,0,1,,,,,,,,
,,"[""circle"",""green"",""vert"",""up"",[106,-106],[-150,0]]",circle,green,vert,up,"[106,-106]","[-150,0]",up,1,1.036,,,,,,001,2025-03-11_21h02.39.603,SL_sali,2021.2.3,Win32,59.88023952,,,25,0,25,0,1,,,,,,,,
,,"[""diamond"",""no_dis"",""hori"",""left"",[99999,99999],[150,0]]",diamond,no_dis,hori,left,"[99999,99999]","[150,0]",left,1,0.9173,,,,,,001,2025-03-11_21h02.39.603,SL_sali,2021.2.3,Win32,59.88023952,,,26,0,26,0,1,,,,,,,,
,,"[""circle"",""red"",""hori"",""left"",[0,150],[150,0]]",circle,red,hori,left,"[0,150]","[150,0]",left,1,0.7931,,,,,,001,2025-03-11_21h02.39.603,SL_sali,2021.2.3,Win32,59.88023952,,,27,0,27,0,1,,,,,,,,
,,"[""circle"",""red"",""hori"",""left"",[106,-106],[0,-150]]",circle,red,hori,left,"[106,-106]","[0,-150]",left,1,0.9501,,,,,,001,2025-03-11_21h02.39.603,SL_sali,2021.2.3,Win32,59.88023952,,,28,0,28,0,1,,,,,,,,
,,"[""circle"",""red"",""vert"",""up"",[-150,0],[106,-106]]",circle,red,vert,up,"[-150,0]","[106,-106]",up,1,0.968,,,,,,001,2025-03-11_21h02.39.603,SL_sali,2021.2.3,Win32,59.88023952,,,29,0,29,0,1,,,,,,,,
,,"[""diamond"",""no_dis"",""vert"",""up"",[99999,99999],[-106,106]]",diamond,no_dis,vert,up,"[99999,99999]","[-106,106]",up,1,0.6333,,,,,,001,2025-03-11_21h02.39.603,SL_sali,2021.2.3,Win32,59.88023952,,,30,0,30,0,1,,,,,,,,
,,"[""circle"",""red"",""hori"",""left"",[150,0],[106,106]]",circle,red,hori,left,"[150,0]","[106,106]",left,1,0.8004,,,,,,001,2025-03-11_21h02.39.603,SL_sali,2021.2.3,Win32,59.88023952,,,31,0,31,0,1,,,,,,,,
,,"[""diamond"",""no_dis"",""vert"",""up"",[99999,99999],[106,106]]",diamond,no_dis,vert,up,"[99999,99999]","[106,106]",left,0,0.7341,,,,,,001,2025-03-11_21h02.39.603,SL_sali,2021.2.3,Win32,59.88023952,,,32,0,32,0,1,,,,,,,,
,,"[""diamond"",""green"",""hori"",""left"",[0,150],[-106,106]]",diamond,green,hori,left,"[0,150]","[-106,106]",left,1,0.8545,,,,,,001,2025-03-11_21h02.39.603,SL_sali,2021.2.3,Win32,59.88023952,,,33,0,33,0,1,,,,,,,,
,,"[""diamond"",""red"",""hori"",""left"",[106,106],[106,-106]]",diamond,red,hori,left,"[106,106]","[106,-106]",left,1,1.0175,,,,,,001,2025-03-11_21h02.39.603,SL_sali,2021.2.3,Win32,59.88023952,,,34,0,34,0,1,,,,,,,,
,,"[""circle"",""red"",""vert"",""up"",[-106,-106],[0,150]]",circle,red,vert,up,"[-106,-106]","[0,150]",up,1,0.8544,,,,,,001,2025-03-11_21h02.39.603,SL_sali,2021.2.3,Win32,59.88023952,,,35,0,35,0,1,,,,,,,,
,,"[""circle"",""no_dis"",""vert"",""up"",[99999,99999],[0,150]]",circle,no_dis,vert,up,"[99999,99999]","[0,150]",up,1,0.6007,,,,,,001,2025-03-11_21h02.39.603,SL_sali,2021.2.3,Win32,59.88023952,,,36,0,36,0,1,,,,,,,,
,,"[""diamond"",""red"",""vert"",""up"",[-150,0],[150,0]]",diamond,red,vert,up,"[-150,0]","[150,0]",up,1,0.9007,,,,,,001,2025-03-11_21h02.39.603,SL_sali,2021.2.3,Win32,59.88023952,,,37,0,37,0,1,,,,,,,,
,,"[""diamond"",""no_dis"",""vert"",""up"",[99999,99999],[-106,-106]]",diamond,no_dis,vert,up,"[99999,99999]","[-106,-106]",up,1,0.9406,,,,,,001,2025-03-11_21h02.39.603,SL_sali,2021.2.3,Win32,59.88023952,,,38,0,38,0,1,,,,,,,,
,,"[""diamond"",""red"",""hori"",""left"",[-106,106],[-150,0]]",diamond,red,hori,left,"[-106,106]","[-150,0]",left,1,0.9504,,,,,,001,2025-03-11_21h02.39.603,SL_sali,2021.2.3,Win32,59.88023952,,,39,0,39,0,1,,,,,,,,
,,"[""diamond"",""green"",""hori"",""left"",[150,0],[-150,0]]",diamond,green,hori,left,"[150,0]","[-150,0]",left,1,0.7998,,,,,,001,2025-03-11_21h02.39.603,SL_sali,2021.2.3,Win32,59.88023952,,,40,0,40,0,1,,,,,,,,
,,"[""diamond"",""red"",""hori"",""left"",[150,0],[-106,-106]]",diamond,red,hori,left,"[150,0]","[-106,-106]",left,1,0.9004,,,,,,001,2025-03-11_21h02.39.603,SL_sali,2021.2.3,Win32,59.88023952,,,41,0,41,0,1,,,,,,,,
,,"[""circle"",""no_dis"",""vert"",""up"",[99999,99999],[106,-106]]",circle,no_dis,vert,up,"[99999,99999]","[106,-106]",up,1,0.9337,,,,,,001,2025-03-11_21h02.39.603,SL_sali,2021.2.3,Win32,59.88023952,,,42,0,42,0,1,,,,,,,,
,,"[""circle"",""green"",""hori"",""left"",[-106,-106],[0,-150]]",circle,green,hori,left,"[-106,-106]","[0,-150]",up,0,0.9504,,,,,,001,2025-03-11_21h02.39.603,SL_sali,2021.2.3,Win32,59.88023952,,,43,0,43,0,1,,,,,,,,
,,"[""circle"",""no_dis"",""hori"",""left"",[99999,99999],[0,150]]",circle,no_dis,hori,left,"[99999,99999]","[0,150]",left,1,0.6756,,,,,,001,2025-03-11_21h02.39.603,SL_sali,2021.2.3,Win32,59.88023952,,,44,0,44,0,1,,,,,,,,
,,"[""circle"",""no_dis"",""vert"",""up"",[99999,99999],[150,0]]",circle,no_dis,vert,up,"[99999,99999]","[150,0]",up,1,0.6405,,,,,,001,2025-03-11_21h02.39.603,SL_sali,2021.2.3,Win32,59.88023952,,,45,0,45,0,1,,,,,,,,
,,"[""diamond"",""red"",""hori"",""left"",[-106,-106],[0,150]]",diamond,red,hori,left,"[-106,-106]","[0,150]",left,1,1.1362,,,,,,001,2025-03-11_21h02.39.603,SL_sali,2021.2.3,Win32,59.88023952,,,46,0,46,0,1,,,,,,,,
,,"[""diamond"",""green"",""vert"",""up"",[106,-106],[-106,106]]",diamond,green,vert,up,"[106,-106]","[-106,106]",left,0,1.7868,,,,,,001,2025-03-11_21h02.39.603,SL_sali,2021.2.3,Win32,59.88023952,,,47,0,47,0,1,,,,,,,,
,,"[""circle"",""red"",""vert"",""up"",[150,0],[-106,106]]",circle,red,vert,up,"[150,0]","[-106,106]",up,1,1.7863,,,,,,001,2025-03-11_21h02.39.603,SL_sali,2021.2.3,Win32,59.88023952,,,48,0,48,0,1,,,,,,,,
,,"[""circle"",""red"",""hori"",""left"",[0,-150],[-106,-106]]",circle,red,hori,left,"[0,-150]","[-106,-106]",left,1,1.2046,,,,,,001,2025-03-11_21h02.39.603,SL_sali,2021.2.3,Win32,59.88023952,,,49,0,49,0,1,,,,,,,,
,,"[""circle"",""red"",""hori"",""left"",[0,-150],[-106,106]]",circle,red,hori,left,"[0,-150]","[-106,106]",left,1,0.5345,,,,,,001,2025-03-11_21h02.39.603,SL_sali,2021.2.3,Win32,59.88023952,,,50,0,50,0,1,,,,,,,,
,,"[""diamond"",""no_dis"",""hori"",""left"",[99999,99999],[106,106]]",diamond,no_dis,hori,left,"[99999,99999]","[106,106]",left,1,0.9989,,,,,,001,2025-03-11_21h02.39.603,SL_sali,2021.2.3,Win32,59.88023952,,,51,0,51,0,1,,,,,,,,
,,"[""circle"",""green"",""vert"",""up"",[150,0],[106,106]]",circle,green,vert,up,"[150,0]","[106,106]",up,1,1.067,,,,,,001,2025-03-11_21h02.39.603,SL_sali,2021.2.3,Win32,59.88023952,,,52,0,52,0,1,,,,,,,,
,,"[""diamond"",""red"",""hori"",""left"",[150,0],[-106,-106]]",diamond,red,hori,left,"[150,0]","[-106,-106]",left,1,1.1224,,,,,,001,2025-03-11_21h02.39.603,SL_sali,2021.2.3,Win32,59.88023952,,,53,0,53,0,1,,,,,,,,
,,"[""diamond"",""red"",""hori"",""left"",[-150,0],[0,-150]]",diamond,red,hori,left,"[-150,0]","[0,-150]",left,1,1.4231,,,,,,001,2025-03-11_21h02.39.603,SL_sali,2021.2.3,Win32,59.88023952,,,54,0,54,0,1,,,,,,,,
,,"[""circle"",""no_dis"",""vert"",""up"",[99999,99999],[0,-150]]",circle,no_dis,vert,up,"[99999,99999]","[0,-150]",up,1,1.0899,,,,,,001,2025-03-11_21h02.39.603,SL_sali,2021.2.3,Win32,59.88023952,,,55,0,55,0,1,,,,,,,,
,,"[""diamond"",""green"",""vert"",""up"",[-150,0],[106,106]]",diamond,green,vert,up,"[-150,0]","[106,106]",up,1,0.8334,,,,,,001,2025-03-11_21h02.39.603,SL_sali,2021.2.3,Win32,59.88023952,,,56,0,56,0,1,,,,,,,,
,,"[""diamond"",""no_dis"",""hori"",""left"",[99999,99999],[0,150]]",diamond,no_dis,hori,left,"[99999,99999]","[0,150]",up,0,0.9338,,,,,,001,2025-03-11_21h02.39.603,SL_sali,2021.2.3,Win32,59.88023952,,,57,0,57,0,1,,,,,,,,
,,"[""diamond"",""no_dis"",""hori"",""left"",[99999,99999],[-106,-106]]",diamond,no_dis,hori,left,"[99999,99999]","[-106,-106]",left,1,0.8667,,,,,,001,2025-03-11_21h02.39.603,SL_sali,2021.2.3,Win32,59.88023952,,,58,0,58,0,1,,,,,,,,
,,"[""circle"",""green"",""vert"",""up"",[150,0],[-150,0]]",circle,green,vert,up,"[150,0]","[-150,0]",up,1,1.3613,,,,,,001,2025-03-11_21h02.39.603,SL_sali,2021.2.3,Win32,59.88023952,,,59,0,59,0,1,,,,,,,,
,,"[""diamond"",""no_dis"",""vert"",""up"",[99999,99999],[-106,106]]",diamond,no_dis,vert,up,"[99999,99999]","[-106,106]",up,1,0.6324,,,,,,001,2025-03-11_21h02.39.603,SL_sali,2021.2.3,Win32,59.88023952,,,60,0,60,0,1,,,,,,,,
,,"[""circle"",""no_dis"",""hori"",""left"",[99999,99999],[150,0]]",circle,no_dis,hori,left,"[99999,99999]","[150,0]",left,1,0.7394,,,,,,001,2025-03-11_21h02.39.603,SL_sali,2021.2.3,Win32,59.88023952,,,61,0,61,0,1,,,,,,,,
,,"[""circle"",""red"",""hori"",""left"",[-150,0],[106,-106]]",circle,red,hori,left,"[-150,0]","[106,-106]",left,1,0.804,,,,,,001,2025-03-11_21h02.39.603,SL_sali,2021.2.3,Win32,59.88023952,,,62,0,62,0,1,,,,,,,,
,,"[""diamond"",""green"",""hori"",""left"",[0,150],[-150,0]]",diamond,green,hori,left,"[0,150]","[-150,0]",left,1,0.8767,,,,,,001,2025-03-11_21h02.39.603,SL_sali,2021.2.3,Win32,59.88023952,,,63,0,63,0,1,,,,,,,,
,,"[""diamond"",""green"",""hori"",""left"",[0,150],[106,-106]]",diamond,green,hori,left,"[0,150]","[106,-106]",left,1,1.0932,,,,,,001,2025-03-11_21h02.39.603,SL_sali,2021.2.3,Win32,59.88023952,,,64,0,64,0,1,,,,,,,,
,,"[""diamond"",""no_dis"",""vert"",""up"",[99999,99999],[-106,106]]",diamond,no_dis,vert,up,"[99999,99999]","[-106,106]",up,1,1.3043,,,,,,001,2025-03-11_21h02.39.603,SL_sali,2021.2.3,Win32,59.88023952,,,65,0,65,0,1,,,,,,,,
,,"[""diamond"",""no_dis"",""vert"",""up"",[99999,99999],[0,-150]]",diamond,no_dis,vert,up,"[99999,99999]","[0,-150]",up,1,0.8095,,,,,,001,2025-03-11_21h02.39.603,SL_sali,2021.2.3,Win32,59.88023952,,,66,0,66,0,1,,,,,,,,
,,"[""circle"",""green"",""hori"",""left"",[0,150],[-106,-106]]",circle,green,hori,left,"[0,150]","[-106,-106]",left,1,0.9834,,,,,,001,2025-03-11_21h02.39.603,SL_sali,2021.2.3,Win32,59.88023952,,,67,0,67,0,1,,,,,,,,
,,"[""circle"",""no_dis"",""hori"",""left"",[99999,99999],[106,-106]]",circle,no_dis,hori,left,"[99999,99999]","[106,-106]",left,1,0.5661,,,,,,001,2025-03-11_21h02.39.603,SL_sali,2021.2.3,Win32,59.88023952,,,68,0,68,0,1,,,,,,,,
,,"[""circle"",""no_dis"",""hori"",""left"",[99999,99999],[106,106]]",circle,no_dis,hori,left,"[99999,99999]","[106,106]",left,1,0.5999,,,,,,001,2025-03-11_21h02.39.603,SL_sali,2021.2.3,Win32,59.88023952,,,69,0,69,0,1,,,,,,,,
,,"[""circle"",""no_dis"",""hori"",""left"",[99999,99999],[-106,-106]]",circle,no_dis,hori,left,"[99999,99999]","[-106,-106]",left,1,0.7003,,,,,,001,2025-03-11_21h02.39.603,SL_sali,2021.2.3,Win32,59.88023952,,,70,0,70,0,1,,,,,,,,
,,"[""circle"",""no_dis"",""hori"",""left"",[99999,99999],[-106,-106]]",circle,no_dis,hori,left,"[99999,99999]","[-106,-106]",left,1,0.5506,,,,,,001,2025-03-11_21h02.39.603,SL_sali,2021.2.3,Win32,59.88023952,,,71,0,71,0,1,,,,,,,,
,,"[""diamond"",""no_dis"",""vert"",""up"",[99999,99999],[-150,0]]",diamond,no_dis,vert,up,"[99999,99999]","[-150,0]",up,1,0.655,,,,,,001,2025-03-11_21h02.39.603,SL_sali,2021.2.3,Win32,59.88023952,,,72,0,72,0,1,,,,,,,,
,,"[""diamond"",""red"",""hori"",""left"",[0,-150],[106,-106]]",diamond,red,hori,left,"[0,-150]","[106,-106]",left,1,0.5996,,,,,,001,2025-03-11_21h02.39.603,SL_sali,2021.2.3,Win32,59.88023952,,,73,0,73,0,1,,,,,,,,
,,"[""diamond"",""green"",""hori"",""left"",[150,0],[106,106]]",diamond,green,hori,left,"[150,0]","[106,106]",up,0,0.9336,,,,,,001,2025-03-11_21h02.39.603,SL_sali,2021.2.3,Win32,59.88023952,,,74,0,74,0,1,,,,,,,,
,,"[""diamond"",""red"",""hori"",""left"",[150,0],[-106,-106]]",diamond,red,hori,left,"[150,0]","[-106,-106]",left,1,0.7266,,,,,,001,2025-03-11_21h02.39.603,SL_sali,2021.2.3,Win32,59.88023952,,,75,0,75,0,1,,,,,,,,
,,"[""diamond"",""red"",""hori"",""left"",[0,-150],[106,-106]]",diamond,red,hori,left,"[0,-150]","[106,-106]",left,1,0.6768,,,,,,001,2025-03-11_21h02.39.603,SL_sali,2021.2.3,Win32,59.88023952,,,76,0,76,0,1,,,,,,,,
,,"[""diamond"",""no_dis"",""hori"",""left"",[99999,99999],[106,-106]]",diamond,no_dis,hori,left,"[99999,99999]","[106,-106]",left,1,0.6505,,,,,,001,2025-03-11_21h02.39.603,SL_sali,2021.2.3,Win32,59.88023952,,,77,0,77,0,1,,,,,,,,
,,"[""diamond"",""green"",""vert"",""up"",[150,0],[106,-106]]",diamond,green,vert,up,"[150,0]","[106,-106]",up,1,1.0072,,,,,,001,2025-03-11_21h02.39.603,SL_sali,2021.2.3,Win32,59.88023952,,,78,0,78,0,1,,,,,,,,
,,"[""circle"",""red"",""vert"",""up"",[-106,106],[106,-106]]",circle,red,vert,up,"[-106,106]","[106,-106]",up,1,0.7917,,,,,,001,2025-03-11_21h02.39.603,SL_sali,2021.2.3,Win32,59.88023952,,,79,0,79,0,1,,,,,,,,
,,"[""diamond"",""no_dis"",""hori"",""left"",[99999,99999],[-106,-106]]",diamond,no_dis,hori,left,"[99999,99999]","[-106,-106]",left,1,0.9574,,,,,,001,2025-03-11_21h02.39.603,SL_sali,2021.2.3,Win32,59.88023952,,,80,0,80,0,1,,,,,,,,
,,"[""circle"",""green"",""vert"",""up"",[106,-106],[-106,106]]",circle,green,vert,up,"[106,-106]","[-106,106]",up,1,0.7665,,,,,,001,2025-03-11_21h02.39.603,SL_sali,2021.2.3,Win32,59.88023952,,,81,0,81,0,1,,,,,,,,
,,"[""diamond"",""red"",""vert"",""up"",[-106,-106],[0,-150]]",diamond,red,vert,up,"[-106,-106]","[0,-150]",up,1,1.0171,,,,,,001,2025-03-11_21h02.39.603,SL_sali,2021.2.3,Win32,59.88023952,,,82,0,82,0,1,,,,,,,,
,,"[""circle"",""no_dis"",""hori"",""left"",[99999,99999],[-150,0]]",circle,no_dis,hori,left,"[99999,99999]","[-150,0]",left,1,0.7854,,,,,,001,2025-03-11_21h02.39.603,SL_sali,2021.2.3,Win32,59.88023952,,,83,0,83,0,1,,,,,,,,
,,"[""diamond"",""green"",""hori"",""left"",[-106,-106],[0,-150]]",diamond,green,hori,left,"[-106,-106]","[0,-150]",left,1,1.2003,,,,,,001,2025-03-11_21h02.39.603,SL_sali,2021.2.3,Win32,59.88023952,,,84,0,84,0,1,,,,,,,,
,,"[""diamond"",""red"",""vert"",""up"",[-150,0],[106,106]]",diamond,red,vert,up,"[-150,0]","[106,106]",up,1,1.3333,,,,,,001,2025-03-11_21h02.39.603,SL_sali,2021.2.3,Win32,59.88023952,,,85,0,85,0,1,,,,,,,,
,,"[""circle"",""no_dis"",""vert"",""up"",[99999,99999],[150,0]]",circle,no_dis,vert,up,"[99999,99999]","[150,0]",left,0,0.8671,,,,,,001,2025-03-11_21h02.39.603,SL_sali,2021.2.3,Win32,59.88023952,,,86,0,86,0,1,,,,,,,,
,,"[""circle"",""no_dis"",""vert"",""up"",[99999,99999],[106,106]]",circle,no_dis,vert,up,"[99999,99999]","[106,106]",up,1,0.6187,,,,,,001,2025-03-11_21h02.39.603,SL_sali,2021.2.3,Win32,59.88023952,,,87,0,87,0,1,,,,,,,,
,,"[""circle"",""red"",""vert"",""up"",[106,106],[106,-106]]",circle,red,vert,up,"[106,106]","[106,-106]",up,1,0.7336,,,,,,001,2025-03-11_21h02.39.603,SL_sali,2021.2.3,Win32,59.88023952,,,88,0,88,0,1,,,,,,,,
,,"[""diamond"",""green"",""hori"",""left"",[106,-106],[-106,106]]",diamond,green,hori,left,"[106,-106]","[-106,106]",left,1,0.7165,,,,,,001,2025-03-11_21h02.39.603,SL_sali,2021.2.3,Win32,59.88023952,,,89,0,89,0,1,,,,,,,,
,,"[""circle"",""green"",""vert"",""up"",[150,0],[106,-106]]",circle,green,vert,up,"[150,0]","[106,-106]",up,1,0.8334,,,,,,001,2025-03-11_21h02.39.603,SL_sali,2021.2.3,Win32,59.88023952,,,90,0,90,0,1,,,,,,,,
