﻿key_resp.keys,key_resp.rt,trial_para,tar_shape,dis_color_condi,tar_line,cor_resp,dis_loc,tar_loc,resp.keys,resp.corr,resp.rt,trials.thisRepN,trials.thisTrialN,trials.thisN,trials.thisIndex,trials.ran,participant,date,expName,psychopyVersion,OS,frameRate,key_resp_2.keys,key_resp_2.rt,trials_2.thisRepN,trials_2.thisTrialN,trials_2.thisN,trials_2.thisIndex,trials_2.ran,block_num,key_resp_3.keys,key_resp_3.rt,trials_3.thisRepN,trials_3.thisTrialN,trials_3.thisN,trials_3.thisIndex,trials_3.ran
space,36.2695,"[""diamond"",""no_dis"",""vert"",""up"",[99999,99999],[-106,-106]]",diamond,no_dis,vert,up,"[99999,99999]","[-106,-106]",left,0,1.889,0,0,0,0,1,001,2025-03-10_19h43.02.428,SL_sali,2021.2.3,Win32,119.047619,,,,,,,,,,,,,,,
,,"[""circle"",""red"",""hori"",""left"",[150,0],[106,106]]",circle,red,hori,left,"[150,0]","[106,106]",left,1,2.1595,1,0,1,0,1,001,2025-03-10_19h43.02.428,SL_sali,2021.2.3,Win32,119.047619,,,,,,,,,,,,,,,
,,"[""diamond"",""no_dis"",""hori"",""left"",[99999,99999],[-106,-106]]",diamond,no_dis,hori,left,"[99999,99999]","[-106,-106]",left,1,1.5926,2,0,2,0,1,001,2025-03-10_19h43.02.428,SL_sali,2021.2.3,Win32,119.047619,,,,,,,,,,,,,,,
,,"[""circle"",""no_dis"",""vert"",""up"",[99999,99999],[106,-106]]",circle,no_dis,vert,up,"[99999,99999]","[106,-106]",up,1,1.3232,3,0,3,0,1,001,2025-03-10_19h43.02.428,SL_sali,2021.2.3,Win32,119.047619,,,,,,,,,,,,,,,
,,"[""circle"",""green"",""vert"",""up"",[-150,0],[106,-106]]",circle,green,vert,up,"[-150,0]","[106,-106]",up,1,1.9802,4,0,4,0,1,001,2025-03-10_19h43.02.428,SL_sali,2021.2.3,Win32,119.047619,,,,,,,,,,,,,,,
,,"[""circle"",""red"",""hori"",""left"",[-150,0],[106,106]]",circle,red,hori,left,"[-150,0]","[106,106]",left,1,1.2861,5,0,5,0,1,001,2025-03-10_19h43.02.428,SL_sali,2021.2.3,Win32,119.047619,,,,,,,,,,,,,,,
,,"[""circle"",""no_dis"",""vert"",""up"",[99999,99999],[0,-150]]",circle,no_dis,vert,up,"[99999,99999]","[0,-150]",up,1,1.0255,6,0,6,0,1,001,2025-03-10_19h43.02.428,SL_sali,2021.2.3,Win32,119.047619,,,,,,,,,,,,,,,
,,"[""diamond"",""no_dis"",""vert"",""up"",[99999,99999],[106,106]]",diamond,no_dis,vert,up,"[99999,99999]","[106,106]",left,0,0.9573,7,0,7,0,1,001,2025-03-10_19h43.02.428,SL_sali,2021.2.3,Win32,119.047619,,,,,,,,,,,,,,,
,,"[""circle"",""no_dis"",""hori"",""left"",[99999,99999],[106,-106]]",circle,no_dis,hori,left,"[99999,99999]","[106,-106]",up,0,1.1755,8,0,8,0,1,001,2025-03-10_19h43.02.428,SL_sali,2021.2.3,Win32,119.047619,,,,,,,,,,,,,,,
,,"[""diamond"",""no_dis"",""vert"",""up"",[99999,99999],[0,150]]",diamond,no_dis,vert,up,"[99999,99999]","[0,150]",up,1,1.0328,9,0,9,0,1,001,2025-03-10_19h43.02.428,SL_sali,2021.2.3,Win32,119.047619,,,,,,,,,,,,,,,
,,"[""diamond"",""no_dis"",""vert"",""up"",[99999,99999],[-106,-106]]",diamond,no_dis,vert,up,"[99999,99999]","[-106,-106]",up,1,1.0655,,,,,,001,2025-03-10_19h43.02.428,SL_sali,2021.2.3,Win32,119.047619,space,3.2675,0,0,0,0,1,,,,,,,,
,,"[""circle"",""red"",""hori"",""left"",[150,0],[106,106]]",circle,red,hori,left,"[150,0]","[106,106]",left,1,1.0913,,,,,,001,2025-03-10_19h43.02.428,SL_sali,2021.2.3,Win32,119.047619,,,1,0,1,0,1,,,,,,,,
,,"[""diamond"",""no_dis"",""hori"",""left"",[99999,99999],[-106,-106]]",diamond,no_dis,hori,left,"[99999,99999]","[-106,-106]",left,1,1.2413,,,,,,001,2025-03-10_19h43.02.428,SL_sali,2021.2.3,Win32,119.047619,,,2,0,2,0,1,,,,,,,,
,,"[""circle"",""no_dis"",""vert"",""up"",[99999,99999],[106,-106]]",circle,no_dis,vert,up,"[99999,99999]","[106,-106]",up,1,1.0942,,,,,,001,2025-03-10_19h43.02.428,SL_sali,2021.2.3,Win32,119.047619,,,3,0,3,0,1,,,,,,,,
,,"[""circle"",""green"",""vert"",""up"",[-150,0],[106,-106]]",circle,green,vert,up,"[-150,0]","[106,-106]",up,1,1.4337,,,,,,001,2025-03-10_19h43.02.428,SL_sali,2021.2.3,Win32,119.047619,,,4,0,4,0,1,,,,,,,,
,,"[""circle"",""red"",""hori"",""left"",[-150,0],[106,106]]",circle,red,hori,left,"[-150,0]","[106,106]",left,1,1.9937,,,,,,001,2025-03-10_19h43.02.428,SL_sali,2021.2.3,Win32,119.047619,,,5,0,5,0,1,,,,,,,,
,,"[""circle"",""no_dis"",""vert"",""up"",[99999,99999],[0,-150]]",circle,no_dis,vert,up,"[99999,99999]","[0,-150]",up,1,1.3477,,,,,,001,2025-03-10_19h43.02.428,SL_sali,2021.2.3,Win32,119.047619,,,6,0,6,0,1,,,,,,,,
,,"[""diamond"",""no_dis"",""vert"",""up"",[99999,99999],[106,106]]",diamond,no_dis,vert,up,"[99999,99999]","[106,106]",up,1,1.4836,,,,,,001,2025-03-10_19h43.02.428,SL_sali,2021.2.3,Win32,119.047619,,,7,0,7,0,1,,,,,,,,
,,"[""circle"",""no_dis"",""hori"",""left"",[99999,99999],[106,-106]]",circle,no_dis,hori,left,"[99999,99999]","[106,-106]",left,1,1.1961,,,,,,001,2025-03-10_19h43.02.428,SL_sali,2021.2.3,Win32,119.047619,,,8,0,8,0,1,,,,,,,,
,,"[""diamond"",""no_dis"",""vert"",""up"",[99999,99999],[0,150]]",diamond,no_dis,vert,up,"[99999,99999]","[0,150]",up,1,1.0353,,,,,,001,2025-03-10_19h43.02.428,SL_sali,2021.2.3,Win32,119.047619,,,9,0,9,0,1,,,,,,,,
,,"[""diamond"",""red"",""vert"",""up"",[0,150],[-106,106]]",diamond,red,vert,up,"[0,150]","[-106,106]",up,1,2.5252,,,,,,001,2025-03-10_19h43.02.428,SL_sali,2021.2.3,Win32,119.047619,,,10,0,10,0,1,,,,,,,,
,,"[""diamond"",""red"",""hori"",""left"",[0,150],[-106,106]]",diamond,red,hori,left,"[0,150]","[-106,106]",left,1,2.2446,,,,,,001,2025-03-10_19h43.02.428,SL_sali,2021.2.3,Win32,119.047619,,,11,0,11,0,1,,,,,,,,
,,"[""diamond"",""red"",""hori"",""left"",[-150,0],[106,106]]",diamond,red,hori,left,"[-150,0]","[106,106]",left,1,1.9329,,,,,,001,2025-03-10_19h43.02.428,SL_sali,2021.2.3,Win32,119.047619,,,12,0,12,0,1,,,,,,,,
,,"[""diamond"",""no_dis"",""vert"",""up"",[99999,99999],[-106,106]]",diamond,no_dis,vert,up,"[99999,99999]","[-106,106]",up,1,1.6208,,,,,,001,2025-03-10_19h43.02.428,SL_sali,2021.2.3,Win32,119.047619,,,13,0,13,0,1,,,,,,,,
,,"[""diamond"",""green"",""hori"",""left"",[-150,0],[0,-150]]",diamond,green,hori,left,"[-150,0]","[0,-150]",left,1,1.4833,,,,,,001,2025-03-10_19h43.02.428,SL_sali,2021.2.3,Win32,119.047619,,,14,0,14,0,1,,,,,,,,
,,"[""diamond"",""red"",""hori"",""left"",[106,106],[-106,106]]",diamond,red,hori,left,"[106,106]","[-106,106]",left,1,1.992,,,,,,001,2025-03-10_19h43.02.428,SL_sali,2021.2.3,Win32,119.047619,,,15,0,15,0,1,,,,,,,,
,,"[""circle"",""no_dis"",""hori"",""left"",[99999,99999],[150,0]]",circle,no_dis,hori,left,"[99999,99999]","[150,0]",left,1,0.6546,,,,,,001,2025-03-10_19h43.02.428,SL_sali,2021.2.3,Win32,119.047619,,,16,0,16,0,1,,,,,,,,
,,"[""circle"",""red"",""vert"",""up"",[0,150],[-106,106]]",circle,red,vert,up,"[0,150]","[-106,106]",up,1,1.4527,,,,,,001,2025-03-10_19h43.02.428,SL_sali,2021.2.3,Win32,119.047619,,,17,0,17,0,1,,,,,,,,
,,"[""diamond"",""green"",""hori"",""left"",[-106,106],[0,150]]",diamond,green,hori,left,"[-106,106]","[0,150]",left,1,1.4001,,,,,,001,2025-03-10_19h43.02.428,SL_sali,2021.2.3,Win32,119.047619,,,18,0,18,0,1,,,,,,,,
,,"[""diamond"",""no_dis"",""hori"",""left"",[99999,99999],[106,106]]",diamond,no_dis,hori,left,"[99999,99999]","[106,106]",left,1,0.7835,,,,,,001,2025-03-10_19h43.02.428,SL_sali,2021.2.3,Win32,119.047619,,,19,0,19,0,1,,,,,,,,
,,"[""circle"",""red"",""vert"",""up"",[-106,106],[106,106]]",circle,red,vert,up,"[-106,106]","[106,106]",up,1,1.3926,,,,,,001,2025-03-10_19h43.02.428,SL_sali,2021.2.3,Win32,119.047619,,,20,0,20,0,1,,,,,,,,
,,"[""diamond"",""no_dis"",""vert"",""up"",[99999,99999],[-150,0]]",diamond,no_dis,vert,up,"[99999,99999]","[-150,0]",up,1,1.256,,,,,,001,2025-03-10_19h43.02.428,SL_sali,2021.2.3,Win32,119.047619,,,21,0,21,0,1,,,,,,,,
,,"[""diamond"",""no_dis"",""hori"",""left"",[99999,99999],[-150,0]]",diamond,no_dis,hori,left,"[99999,99999]","[-150,0]",left,1,1.0085,,,,,,001,2025-03-10_19h43.02.428,SL_sali,2021.2.3,Win32,119.047619,,,22,0,22,0,1,,,,,,,,
,,"[""diamond"",""green"",""vert"",""up"",[-106,-106],[106,106]]",diamond,green,vert,up,"[-106,-106]","[106,106]",up,1,1.6587,,,,,,001,2025-03-10_19h43.02.428,SL_sali,2021.2.3,Win32,119.047619,,,23,0,23,0,1,,,,,,,,
,,"[""circle"",""green"",""hori"",""left"",[-150,0],[106,106]]",circle,green,hori,left,"[-150,0]","[106,106]",left,1,1.1842,,,,,,001,2025-03-10_19h43.02.428,SL_sali,2021.2.3,Win32,119.047619,,,24,0,24,0,1,,,,,,,,
,,"[""diamond"",""red"",""hori"",""left"",[0,-150],[106,106]]",diamond,red,hori,left,"[0,-150]","[106,106]",left,1,1.2378,,,,,,001,2025-03-10_19h43.02.428,SL_sali,2021.2.3,Win32,119.047619,,,25,0,25,0,1,,,,,,,,
,,"[""circle"",""red"",""hori"",""left"",[-150,0],[0,150]]",circle,red,hori,left,"[-150,0]","[0,150]",left,1,1.7007,,,,,,001,2025-03-10_19h43.02.428,SL_sali,2021.2.3,Win32,119.047619,,,26,0,26,0,1,,,,,,,,
,,"[""circle"",""green"",""vert"",""up"",[106,-106],[150,0]]",circle,green,vert,up,"[106,-106]","[150,0]",up,1,1.2951,,,,,,001,2025-03-10_19h43.02.428,SL_sali,2021.2.3,Win32,119.047619,,,27,0,27,0,1,,,,,,,,
,,"[""circle"",""red"",""hori"",""left"",[-150,0],[-106,106]]",circle,red,hori,left,"[-150,0]","[-106,106]",left,1,1.2863,,,,,,001,2025-03-10_19h43.02.428,SL_sali,2021.2.3,Win32,119.047619,,,28,0,28,0,1,,,,,,,,
,,"[""diamond"",""green"",""hori"",""left"",[-150,0],[-106,-106]]",diamond,green,hori,left,"[-150,0]","[-106,-106]",left,1,1.2253,,,,,,001,2025-03-10_19h43.02.428,SL_sali,2021.2.3,Win32,119.047619,,,29,0,29,0,1,,,,,,,,
,,"[""circle"",""green"",""vert"",""up"",[106,106],[150,0]]",circle,green,vert,up,"[106,106]","[150,0]",up,1,1.4941,,,,,,001,2025-03-10_19h43.02.428,SL_sali,2021.2.3,Win32,119.047619,,,30,0,30,0,1,,,,,,,,
,,"[""diamond"",""no_dis"",""hori"",""left"",[99999,99999],[106,106]]",diamond,no_dis,hori,left,"[99999,99999]","[106,106]",left,1,0.6832,,,,,,001,2025-03-10_19h43.02.428,SL_sali,2021.2.3,Win32,119.047619,,,31,0,31,0,1,,,,,,,,
,,"[""diamond"",""no_dis"",""hori"",""left"",[99999,99999],[-106,106]]",diamond,no_dis,hori,left,"[99999,99999]","[-106,106]",left,1,1.0339,,,,,,001,2025-03-10_19h43.02.428,SL_sali,2021.2.3,Win32,119.047619,,,32,0,32,0,1,,,,,,,,
,,"[""diamond"",""green"",""vert"",""up"",[-106,-106],[-150,0]]",diamond,green,vert,up,"[-106,-106]","[-150,0]",up,1,1.6084,,,,,,001,2025-03-10_19h43.02.428,SL_sali,2021.2.3,Win32,119.047619,,,33,0,33,0,1,,,,,,,,
,,"[""diamond"",""green"",""hori"",""left"",[-150,0],[0,-150]]",diamond,green,hori,left,"[-150,0]","[0,-150]",left,1,0.8195,,,,,,001,2025-03-10_19h43.02.428,SL_sali,2021.2.3,Win32,119.047619,,,34,0,34,0,1,,,,,,,,
,,"[""circle"",""red"",""vert"",""up"",[0,-150],[106,-106]]",circle,red,vert,up,"[0,-150]","[106,-106]",up,1,1.136,,,,,,001,2025-03-10_19h43.02.428,SL_sali,2021.2.3,Win32,119.047619,,,35,0,35,0,1,,,,,,,,
,,"[""circle"",""red"",""vert"",""up"",[-150,0],[-106,106]]",circle,red,vert,up,"[-150,0]","[-106,106]",up,1,1.436,,,,,,001,2025-03-10_19h43.02.428,SL_sali,2021.2.3,Win32,119.047619,,,36,0,36,0,1,,,,,,,,
,,"[""circle"",""green"",""vert"",""up"",[-106,-106],[-106,106]]",circle,green,vert,up,"[-106,-106]","[-106,106]",up,1,1.0668,,,,,,001,2025-03-10_19h43.02.428,SL_sali,2021.2.3,Win32,119.047619,,,37,0,37,0,1,,,,,,,,
,,"[""circle"",""red"",""vert"",""up"",[-150,0],[0,150]]",circle,red,vert,up,"[-150,0]","[0,150]",up,1,1.1507,,,,,,001,2025-03-10_19h43.02.428,SL_sali,2021.2.3,Win32,119.047619,,,38,0,38,0,1,,,,,,,,
,,"[""circle"",""red"",""vert"",""up"",[-106,106],[0,-150]]",circle,red,vert,up,"[-106,106]","[0,-150]",up,1,1.4245,,,,,,001,2025-03-10_19h43.02.428,SL_sali,2021.2.3,Win32,119.047619,,,39,0,39,0,1,,,,,,,,
,,"[""circle"",""green"",""hori"",""left"",[-150,0],[-106,-106]]",circle,green,hori,left,"[-150,0]","[-106,-106]",left,1,0.9305,,,,,,001,2025-03-10_19h43.02.428,SL_sali,2021.2.3,Win32,119.047619,,,40,0,40,0,1,,,,,,,,
,,"[""circle"",""green"",""hori"",""left"",[0,150],[0,-150]]",circle,green,hori,left,"[0,150]","[0,-150]",left,1,0.8004,,,,,,001,2025-03-10_19h43.02.428,SL_sali,2021.2.3,Win32,119.047619,,,41,0,41,0,1,,,,,,,,
,,"[""circle"",""red"",""hori"",""left"",[-106,-106],[150,0]]",circle,red,hori,left,"[-106,-106]","[150,0]",up,0,1.3505,,,,,,001,2025-03-10_19h43.02.428,SL_sali,2021.2.3,Win32,119.047619,,,42,0,42,0,1,,,,,,,,
,,"[""circle"",""no_dis"",""hori"",""left"",[99999,99999],[0,-150]]",circle,no_dis,hori,left,"[99999,99999]","[0,-150]",left,1,0.9198,,,,,,001,2025-03-10_19h43.02.428,SL_sali,2021.2.3,Win32,119.047619,,,43,0,43,0,1,,,,,,,,
,,"[""diamond"",""red"",""hori"",""left"",[0,-150],[-150,0]]",diamond,red,hori,left,"[0,-150]","[-150,0]",left,1,1.0123,,,,,,001,2025-03-10_19h43.02.428,SL_sali,2021.2.3,Win32,119.047619,,,44,0,44,0,1,,,,,,,,
,,"[""diamond"",""red"",""vert"",""up"",[0,-150],[-150,0]]",diamond,red,vert,up,"[0,-150]","[-150,0]",up,1,1.1168,,,,,,001,2025-03-10_19h43.02.428,SL_sali,2021.2.3,Win32,119.047619,,,45,0,45,0,1,,,,,,,,
,,"[""circle"",""red"",""hori"",""left"",[-106,-106],[0,-150]]",circle,red,hori,left,"[-106,-106]","[0,-150]",left,1,1.9751,,,,,,001,2025-03-10_19h43.02.428,SL_sali,2021.2.3,Win32,119.047619,,,46,0,46,0,1,,,,,,,,
,,"[""circle"",""green"",""hori"",""left"",[0,150],[-106,-106]]",circle,green,hori,left,"[0,150]","[-106,-106]",left,1,2.167,,,,,,001,2025-03-10_19h43.02.428,SL_sali,2021.2.3,Win32,119.047619,,,47,0,47,0,1,,,,,,,,
,,"[""diamond"",""green"",""hori"",""left"",[106,-106],[0,150]]",diamond,green,hori,left,"[106,-106]","[0,150]",left,1,0.9836,,,,,,001,2025-03-10_19h43.02.428,SL_sali,2021.2.3,Win32,119.047619,,,48,0,48,0,1,,,,,,,,
,,"[""diamond"",""green"",""vert"",""up"",[106,-106],[0,-150]]",diamond,green,vert,up,"[106,-106]","[0,-150]",up,1,1.0748,,,,,,001,2025-03-10_19h43.02.428,SL_sali,2021.2.3,Win32,119.047619,,,49,0,49,0,1,,,,,,,,
,,"[""circle"",""no_dis"",""hori"",""left"",[99999,99999],[150,0]]",circle,no_dis,hori,left,"[99999,99999]","[150,0]",up,0,1.1835,,,,,,001,2025-03-10_19h43.02.428,SL_sali,2021.2.3,Win32,119.047619,,,50,0,50,0,1,,,,,,,,
,,"[""circle"",""green"",""vert"",""up"",[-150,0],[106,106]]",circle,green,vert,up,"[-150,0]","[106,106]",up,1,1.2269,,,,,,001,2025-03-10_19h43.02.428,SL_sali,2021.2.3,Win32,119.047619,,,51,0,51,0,1,,,,,,,,
,,"[""diamond"",""green"",""vert"",""up"",[-150,0],[0,150]]",diamond,green,vert,up,"[-150,0]","[0,150]",up,1,1.425,,,,,,001,2025-03-10_19h43.02.428,SL_sali,2021.2.3,Win32,119.047619,,,52,0,52,0,1,,,,,,,,
,,"[""diamond"",""green"",""hori"",""left"",[0,-150],[0,150]]",diamond,green,hori,left,"[0,-150]","[0,150]",left,1,0.8166,,,,,,001,2025-03-10_19h43.02.428,SL_sali,2021.2.3,Win32,119.047619,,,53,0,53,0,1,,,,,,,,
,,"[""circle"",""no_dis"",""hori"",""left"",[99999,99999],[-106,-106]]",circle,no_dis,hori,left,"[99999,99999]","[-106,-106]",left,1,0.9724,,,,,,001,2025-03-10_19h43.02.428,SL_sali,2021.2.3,Win32,119.047619,,,54,0,54,0,1,,,,,,,,
,,"[""diamond"",""no_dis"",""vert"",""up"",[99999,99999],[-150,0]]",diamond,no_dis,vert,up,"[99999,99999]","[-150,0]",up,1,0.9504,,,,,,001,2025-03-10_19h43.02.428,SL_sali,2021.2.3,Win32,119.047619,,,55,0,55,0,1,,,,,,,,
,,"[""diamond"",""red"",""vert"",""up"",[-150,0],[150,0]]",diamond,red,vert,up,"[-150,0]","[150,0]",up,1,1.958,,,,,,001,2025-03-10_19h43.02.428,SL_sali,2021.2.3,Win32,119.047619,,,56,0,56,0,1,,,,,,,,
,,"[""diamond"",""green"",""vert"",""up"",[-106,106],[106,106]]",diamond,green,vert,up,"[-106,106]","[106,106]",up,1,1.0835,,,,,,001,2025-03-10_19h43.02.428,SL_sali,2021.2.3,Win32,119.047619,,,57,0,57,0,1,,,,,,,,
,,"[""diamond"",""red"",""hori"",""left"",[106,-106],[0,150]]",diamond,red,hori,left,"[106,-106]","[0,150]",left,1,2.0215,,,,,,001,2025-03-10_19h43.02.428,SL_sali,2021.2.3,Win32,119.047619,,,58,0,58,0,1,,,,,,,,
,,"[""circle"",""no_dis"",""hori"",""left"",[99999,99999],[-150,0]]",circle,no_dis,hori,left,"[99999,99999]","[-150,0]",left,1,1.0296,,,,,,001,2025-03-10_19h43.02.428,SL_sali,2021.2.3,Win32,119.047619,,,59,0,59,0,1,,,,,,,,
,,"[""diamond"",""red"",""vert"",""up"",[0,150],[106,106]]",diamond,red,vert,up,"[0,150]","[106,106]",up,1,1.4909,,,,,,001,2025-03-10_19h43.02.428,SL_sali,2021.2.3,Win32,119.047619,,,60,0,60,0,1,,,,,,,,
,,"[""diamond"",""red"",""hori"",""left"",[-150,0],[-106,-106]]",diamond,red,hori,left,"[-150,0]","[-106,-106]",left,1,1.9037,,,,,,001,2025-03-10_19h43.02.428,SL_sali,2021.2.3,Win32,119.047619,,,61,0,61,0,1,,,,,,,,
,,"[""diamond"",""red"",""vert"",""up"",[0,-150],[106,106]]",diamond,red,vert,up,"[0,-150]","[106,106]",up,1,1.1261,,,,,,001,2025-03-10_19h43.02.428,SL_sali,2021.2.3,Win32,119.047619,,,62,0,62,0,1,,,,,,,,
,,"[""diamond"",""no_dis"",""hori"",""left"",[99999,99999],[0,150]]",diamond,no_dis,hori,left,"[99999,99999]","[0,150]",left,1,0.8337,,,,,,001,2025-03-10_19h43.02.428,SL_sali,2021.2.3,Win32,119.047619,,,63,0,63,0,1,,,,,,,,
,,"[""circle"",""red"",""hori"",""left"",[106,-106],[-106,106]]",circle,red,hori,left,"[106,-106]","[-106,106]",left,1,1.2446,,,,,,001,2025-03-10_19h43.02.428,SL_sali,2021.2.3,Win32,119.047619,,,64,0,64,0,1,,,,,,,,
,,"[""diamond"",""no_dis"",""hori"",""left"",[99999,99999],[0,150]]",diamond,no_dis,hori,left,"[99999,99999]","[0,150]",left,1,0.8752,,,,,,001,2025-03-10_19h43.02.428,SL_sali,2021.2.3,Win32,119.047619,,,65,0,65,0,1,,,,,,,,
,,"[""circle"",""green"",""vert"",""up"",[106,-106],[0,-150]]",circle,green,vert,up,"[106,-106]","[0,-150]",up,1,1.7837,,,,,,001,2025-03-10_19h43.02.428,SL_sali,2021.2.3,Win32,119.047619,,,66,0,66,0,1,,,,,,,,
,,"[""diamond"",""red"",""vert"",""up"",[106,-106],[0,-150]]",diamond,red,vert,up,"[106,-106]","[0,-150]",up,1,1.1419,,,,,,001,2025-03-10_19h43.02.428,SL_sali,2021.2.3,Win32,119.047619,,,67,0,67,0,1,,,,,,,,
,,"[""circle"",""no_dis"",""vert"",""up"",[99999,99999],[150,0]]",circle,no_dis,vert,up,"[99999,99999]","[150,0]",up,1,0.9453,,,,,,001,2025-03-10_19h43.02.428,SL_sali,2021.2.3,Win32,119.047619,,,68,0,68,0,1,,,,,,,,
,,"[""circle"",""no_dis"",""hori"",""left"",[99999,99999],[106,106]]",circle,no_dis,hori,left,"[99999,99999]","[106,106]",left,1,1.8337,,,,,,001,2025-03-10_19h43.02.428,SL_sali,2021.2.3,Win32,119.047619,,,69,0,69,0,1,,,,,,,,
,,"[""circle"",""green"",""hori"",""left"",[-150,0],[106,106]]",circle,green,hori,left,"[-150,0]","[106,106]",left,1,0.7815,,,,,,001,2025-03-10_19h43.02.428,SL_sali,2021.2.3,Win32,119.047619,,,70,0,70,0,1,,,,,,,,
,,"[""circle"",""no_dis"",""vert"",""up"",[99999,99999],[-150,0]]",circle,no_dis,vert,up,"[99999,99999]","[-150,0]",up,1,1.2889,,,,,,001,2025-03-10_19h43.02.428,SL_sali,2021.2.3,Win32,119.047619,,,71,0,71,0,1,,,,,,,,
,,"[""circle"",""red"",""vert"",""up"",[150,0],[-106,106]]",circle,red,vert,up,"[150,0]","[-106,106]",up,1,1.3564,,,,,,001,2025-03-10_19h43.02.428,SL_sali,2021.2.3,Win32,119.047619,,,72,0,72,0,1,,,,,,,,
,,"[""diamond"",""no_dis"",""vert"",""up"",[99999,99999],[106,106]]",diamond,no_dis,vert,up,"[99999,99999]","[106,106]",up,1,0.8844,,,,,,001,2025-03-10_19h43.02.428,SL_sali,2021.2.3,Win32,119.047619,,,73,0,73,0,1,,,,,,,,
,,"[""circle"",""green"",""vert"",""up"",[106,106],[0,-150]]",circle,green,vert,up,"[106,106]","[0,-150]",up,1,1.7071,,,,,,001,2025-03-10_19h43.02.428,SL_sali,2021.2.3,Win32,119.047619,,,74,0,74,0,1,,,,,,,,
,,"[""circle"",""red"",""vert"",""up"",[0,-150],[-106,106]]",circle,red,vert,up,"[0,-150]","[-106,106]",up,1,1.5818,,,,,,001,2025-03-10_19h43.02.428,SL_sali,2021.2.3,Win32,119.047619,,,75,0,75,0,1,,,,,,,,
,,"[""diamond"",""green"",""hori"",""left"",[106,106],[0,150]]",diamond,green,hori,left,"[106,106]","[0,150]",left,1,1.1224,,,,,,001,2025-03-10_19h43.02.428,SL_sali,2021.2.3,Win32,119.047619,,,76,0,76,0,1,,,,,,,,
,,"[""circle"",""green"",""hori"",""left"",[106,106],[-150,0]]",circle,green,hori,left,"[106,106]","[-150,0]",left,1,1.0006,,,,,,001,2025-03-10_19h43.02.428,SL_sali,2021.2.3,Win32,119.047619,,,77,0,77,0,1,,,,,,,,
,,"[""diamond"",""green"",""vert"",""up"",[-150,0],[150,0]]",diamond,green,vert,up,"[-150,0]","[150,0]",up,1,0.936,,,,,,001,2025-03-10_19h43.02.428,SL_sali,2021.2.3,Win32,119.047619,,,78,0,78,0,1,,,,,,,,
,,"[""diamond"",""red"",""vert"",""up"",[-106,106],[0,150]]",diamond,red,vert,up,"[-106,106]","[0,150]",up,1,1.6531,,,,,,001,2025-03-10_19h43.02.428,SL_sali,2021.2.3,Win32,119.047619,,,79,0,79,0,1,,,,,,,,
,,"[""circle"",""no_dis"",""hori"",""left"",[99999,99999],[106,-106]]",circle,no_dis,hori,left,"[99999,99999]","[106,-106]",left,1,1.2921,,,,,,001,2025-03-10_19h43.02.428,SL_sali,2021.2.3,Win32,119.047619,,,80,0,80,0,1,,,,,,,,
,,"[""diamond"",""green"",""vert"",""up"",[150,0],[0,150]]",diamond,green,vert,up,"[150,0]","[0,150]",up,1,1.3046,,,,,,001,2025-03-10_19h43.02.428,SL_sali,2021.2.3,Win32,119.047619,,,81,0,81,0,1,,,,,,,,
,,"[""diamond"",""no_dis"",""vert"",""up"",[99999,99999],[-106,-106]]",diamond,no_dis,vert,up,"[99999,99999]","[-106,-106]",up,1,0.7793,,,,,,001,2025-03-10_19h43.02.428,SL_sali,2021.2.3,Win32,119.047619,,,82,0,82,0,1,,,,,,,,
,,"[""circle"",""no_dis"",""hori"",""left"",[99999,99999],[0,-150]]",circle,no_dis,hori,left,"[99999,99999]","[0,-150]",left,1,0.7639,,,,,,001,2025-03-10_19h43.02.428,SL_sali,2021.2.3,Win32,119.047619,,,83,0,83,0,1,,,,,,,,
,,"[""circle"",""no_dis"",""vert"",""up"",[99999,99999],[0,150]]",circle,no_dis,vert,up,"[99999,99999]","[0,150]",up,1,0.9814,,,,,,001,2025-03-10_19h43.02.428,SL_sali,2021.2.3,Win32,119.047619,,,84,0,84,0,1,,,,,,,,
,,"[""circle"",""green"",""vert"",""up"",[-106,106],[-150,0]]",circle,green,vert,up,"[-106,106]","[-150,0]",left,0,1.2134,,,,,,001,2025-03-10_19h43.02.428,SL_sali,2021.2.3,Win32,119.047619,,,85,0,85,0,1,,,,,,,,
,,"[""diamond"",""red"",""vert"",""up"",[106,-106],[106,106]]",diamond,red,vert,up,"[106,-106]","[106,106]",up,1,1.3874,,,,,,001,2025-03-10_19h43.02.428,SL_sali,2021.2.3,Win32,119.047619,,,86,0,86,0,1,,,,,,,,
,,"[""circle"",""no_dis"",""vert"",""up"",[99999,99999],[150,0]]",circle,no_dis,vert,up,"[99999,99999]","[150,0]",left,0,0.9233,,,,,,001,2025-03-10_19h43.02.428,SL_sali,2021.2.3,Win32,119.047619,,,87,0,87,0,1,,,,,,,,
,,"[""circle"",""green"",""vert"",""up"",[-150,0],[0,150]]",circle,green,vert,up,"[-150,0]","[0,150]",up,1,0.9492,,,,,,001,2025-03-10_19h43.02.428,SL_sali,2021.2.3,Win32,119.047619,,,88,0,88,0,1,,,,,,,,
,,"[""circle"",""no_dis"",""vert"",""up"",[99999,99999],[-106,-106]]",circle,no_dis,vert,up,"[99999,99999]","[-106,-106]",up,1,1.0081,,,,,,001,2025-03-10_19h43.02.428,SL_sali,2021.2.3,Win32,119.047619,,,89,0,89,0,1,,,,,,,,
,,"[""diamond"",""green"",""vert"",""up"",[0,-150],[-150,0]]",diamond,green,vert,up,"[0,-150]","[-150,0]",up,1,1.3045,,,,,,001,2025-03-10_19h43.02.428,SL_sali,2021.2.3,Win32,119.047619,,,90,0,90,0,1,,,,,,,,
,,"[""diamond"",""green"",""hori"",""left"",[150,0],[0,150]]",diamond,green,hori,left,"[150,0]","[0,150]",left,1,0.9289,,,,,,001,2025-03-10_19h43.02.428,SL_sali,2021.2.3,Win32,119.047619,,,91,0,91,0,1,,,,,,,,
,,"[""circle"",""green"",""vert"",""up"",[106,106],[0,150]]",circle,green,vert,up,"[106,106]","[0,150]",up,1,0.7551,,,,,,001,2025-03-10_19h43.02.428,SL_sali,2021.2.3,Win32,119.047619,,,92,0,92,0,1,,,,,,,,
,,"[""circle"",""red"",""hori"",""left"",[150,0],[-150,0]]",circle,red,hori,left,"[150,0]","[-150,0]",left,1,2.2576,,,,,,001,2025-03-10_19h43.02.428,SL_sali,2021.2.3,Win32,119.047619,,,93,0,93,0,1,,,,,,,,
,,"[""circle"",""no_dis"",""vert"",""up"",[99999,99999],[0,-150]]",circle,no_dis,vert,up,"[99999,99999]","[0,-150]",up,1,1.3473,,,,,,001,2025-03-10_19h43.02.428,SL_sali,2021.2.3,Win32,119.047619,,,94,0,94,0,1,,,,,,,,
,,"[""circle"",""red"",""hori"",""left"",[-150,0],[150,0]]",circle,red,hori,left,"[-150,0]","[150,0]",left,1,2.1078,,,,,,001,2025-03-10_19h43.02.428,SL_sali,2021.2.3,Win32,119.047619,,,95,0,95,0,1,,,,,,,,
,,"[""circle"",""no_dis"",""vert"",""up"",[99999,99999],[0,150]]",circle,no_dis,vert,up,"[99999,99999]","[0,150]",up,1,0.9751,,,,,,001,2025-03-10_19h43.02.428,SL_sali,2021.2.3,Win32,119.047619,,,96,0,96,0,1,,,,,,,,
,,"[""circle"",""red"",""vert"",""up"",[-150,0],[0,-150]]",circle,red,vert,up,"[-150,0]","[0,-150]",up,1,1.6478,,,,,,001,2025-03-10_19h43.02.428,SL_sali,2021.2.3,Win32,119.047619,,,97,0,97,0,1,,,,,,,,
,,"[""circle"",""green"",""hori"",""left"",[150,0],[0,150]]",circle,green,hori,left,"[150,0]","[0,150]",left,1,0.9145,,,,,,001,2025-03-10_19h43.02.428,SL_sali,2021.2.3,Win32,119.047619,,,98,0,98,0,1,,,,,,,,
,,"[""diamond"",""green"",""vert"",""up"",[-150,0],[106,106]]",diamond,green,vert,up,"[-150,0]","[106,106]",,0,,,,,,,001,2025-03-10_19h43.02.428,SL_sali,2021.2.3,Win32,119.047619,,,99,0,99,0,1,,,,,,,,
,,"[""circle"",""green"",""hori"",""left"",[150,0],[106,-106]]",circle,green,hori,left,"[150,0]","[106,-106]",left,1,0.9001,,,,,,001,2025-03-10_19h43.02.428,SL_sali,2021.2.3,Win32,119.047619,,,100,0,100,0,1,,,,,,,,
,,"[""diamond"",""no_dis"",""hori"",""left"",[99999,99999],[106,-106]]",diamond,no_dis,hori,left,"[99999,99999]","[106,-106]",left,1,1.7049,,,,,,001,2025-03-10_19h43.02.428,SL_sali,2021.2.3,Win32,119.047619,,,101,0,101,0,1,,,,,,,,
,,"[""diamond"",""green"",""hori"",""left"",[-106,-106],[-150,0]]",diamond,green,hori,left,"[-106,-106]","[-150,0]",left,1,0.8792,,,,,,001,2025-03-10_19h43.02.428,SL_sali,2021.2.3,Win32,119.047619,,,102,0,102,0,1,,,,,,,,
,,"[""diamond"",""red"",""vert"",""up"",[-106,-106],[0,150]]",diamond,red,vert,up,"[-106,-106]","[0,150]",up,1,0.829,,,,,,001,2025-03-10_19h43.02.428,SL_sali,2021.2.3,Win32,119.047619,,,103,0,103,0,1,,,,,,,,
,,"[""diamond"",""red"",""hori"",""left"",[-106,106],[150,0]]",diamond,red,hori,left,"[-106,106]","[150,0]",left,1,1.658,,,,,,001,2025-03-10_19h43.02.428,SL_sali,2021.2.3,Win32,119.047619,,,104,0,104,0,1,,,,,,,,
,,"[""diamond"",""no_dis"",""hori"",""left"",[99999,99999],[-106,106]]",diamond,no_dis,hori,left,"[99999,99999]","[-106,106]",left,1,1.5074,,,,,,001,2025-03-10_19h43.02.428,SL_sali,2021.2.3,Win32,119.047619,,,105,0,105,0,1,,,,,,,,
,,"[""circle"",""red"",""vert"",""up"",[-150,0],[-106,-106]]",circle,red,vert,up,"[-150,0]","[-106,-106]",up,1,2.2251,,,,,,001,2025-03-10_19h43.02.428,SL_sali,2021.2.3,Win32,119.047619,,,106,0,106,0,1,,,,,,,,
,,"[""diamond"",""no_dis"",""hori"",""left"",[99999,99999],[-106,106]]",diamond,no_dis,hori,left,"[99999,99999]","[-106,106]",left,1,1.3753,,,,,,001,2025-03-10_19h43.02.428,SL_sali,2021.2.3,Win32,119.047619,,,107,0,107,0,1,,,,,,,,
,,"[""circle"",""no_dis"",""hori"",""left"",[99999,99999],[106,-106]]",circle,no_dis,hori,left,"[99999,99999]","[106,-106]",left,1,1.7997,,,,,,001,2025-03-10_19h43.02.428,SL_sali,2021.2.3,Win32,119.047619,,,108,0,108,0,1,,,,,,,,
,,"[""circle"",""red"",""hori"",""left"",[106,106],[0,150]]",circle,red,hori,left,"[106,106]","[0,150]",left,1,1.153,,,,,,001,2025-03-10_19h43.02.428,SL_sali,2021.2.3,Win32,119.047619,,,109,0,109,0,1,,,,,,,,
,,"[""circle"",""green"",""hori"",""left"",[-106,-106],[0,-150]]",circle,green,hori,left,"[-106,-106]","[0,-150]",left,1,0.7922,,,,,,001,2025-03-10_19h43.02.428,SL_sali,2021.2.3,Win32,119.047619,,,110,0,110,0,1,,,,,,,,
,,"[""diamond"",""green"",""vert"",""up"",[0,150],[150,0]]",diamond,green,vert,up,"[0,150]","[150,0]",up,1,1.4332,,,,,,001,2025-03-10_19h43.02.428,SL_sali,2021.2.3,Win32,119.047619,,,111,0,111,0,1,,,,,,,,
,,"[""diamond"",""red"",""hori"",""left"",[150,0],[0,-150]]",diamond,red,hori,left,"[150,0]","[0,-150]",left,1,1.5889,,,,,,001,2025-03-10_19h43.02.428,SL_sali,2021.2.3,Win32,119.047619,,,112,0,112,0,1,,,,,,,,
,,"[""diamond"",""red"",""vert"",""up"",[-150,0],[-106,106]]",diamond,red,vert,up,"[-150,0]","[-106,106]",up,1,1.2365,,,,,,001,2025-03-10_19h43.02.428,SL_sali,2021.2.3,Win32,119.047619,,,113,0,113,0,1,,,,,,,,
,,"[""diamond"",""no_dis"",""vert"",""up"",[99999,99999],[150,0]]",diamond,no_dis,vert,up,"[99999,99999]","[150,0]",up,1,0.7276,,,,,,001,2025-03-10_19h43.02.428,SL_sali,2021.2.3,Win32,119.047619,,,114,0,114,0,1,,,,,,,,
,,"[""circle"",""green"",""hori"",""left"",[0,150],[150,0]]",circle,green,hori,left,"[0,150]","[150,0]",left,1,0.9419,,,,,,001,2025-03-10_19h43.02.428,SL_sali,2021.2.3,Win32,119.047619,,,115,0,115,0,1,,,,,,,,
,,"[""diamond"",""red"",""hori"",""left"",[106,106],[0,-150]]",diamond,red,hori,left,"[106,106]","[0,-150]",left,1,1.2335,,,,,,001,2025-03-10_19h43.02.428,SL_sali,2021.2.3,Win32,119.047619,,,116,0,116,0,1,,,,,,,,
,,"[""circle"",""no_dis"",""vert"",""up"",[99999,99999],[0,-150]]",circle,no_dis,vert,up,"[99999,99999]","[0,-150]",up,1,0.8089,,,,,,001,2025-03-10_19h43.02.428,SL_sali,2021.2.3,Win32,119.047619,,,117,0,117,0,1,,,,,,,,
,,"[""diamond"",""green"",""hori"",""left"",[-106,106],[0,150]]",diamond,green,hori,left,"[-106,106]","[0,150]",left,1,1.3998,,,,,,001,2025-03-10_19h43.02.428,SL_sali,2021.2.3,Win32,119.047619,,,118,0,118,0,1,,,,,,,,
,,"[""diamond"",""no_dis"",""vert"",""up"",[99999,99999],[-106,106]]",diamond,no_dis,vert,up,"[99999,99999]","[-106,106]",up,1,1.5121,,,,,,001,2025-03-10_19h43.02.428,SL_sali,2021.2.3,Win32,119.047619,,,119,0,119,0,1,,,,,,,,
,,,,,,,,,,,,,,,,,001,2025-03-10_19h43.02.428,SL_sali,2021.2.3,Win32,119.047619,,,,,,,,1,space,13.7993,0,0,0,0,1
,,"[""circle"",""no_dis"",""vert"",""up"",[99999,99999],[150,0]]",circle,no_dis,vert,up,"[99999,99999]","[150,0]",up,1,1.0255,,,,,,001,2025-03-10_19h43.02.428,SL_sali,2021.2.3,Win32,119.047619,,,0,0,0,0,1,,,,,,,,
,,"[""diamond"",""no_dis"",""vert"",""up"",[99999,99999],[-106,106]]",diamond,no_dis,vert,up,"[99999,99999]","[-106,106]",up,1,1.1166,,,,,,001,2025-03-10_19h43.02.428,SL_sali,2021.2.3,Win32,119.047619,,,1,0,1,0,1,,,,,,,,
,,"[""circle"",""green"",""hori"",""left"",[106,106],[-150,0]]",circle,green,hori,left,"[106,106]","[-150,0]",left,1,1.067,,,,,,001,2025-03-10_19h43.02.428,SL_sali,2021.2.3,Win32,119.047619,,,2,0,2,0,1,,,,,,,,
,,"[""circle"",""red"",""vert"",""up"",[-106,106],[0,-150]]",circle,red,vert,up,"[-106,106]","[0,-150]",up,1,0.9512,,,,,,001,2025-03-10_19h43.02.428,SL_sali,2021.2.3,Win32,119.047619,,,3,0,3,0,1,,,,,,,,
,,"[""circle"",""green"",""hori"",""left"",[-150,0],[106,106]]",circle,green,hori,left,"[-150,0]","[106,106]",left,1,0.6497,,,,,,001,2025-03-10_19h43.02.428,SL_sali,2021.2.3,Win32,119.047619,,,4,0,4,0,1,,,,,,,,
,,"[""diamond"",""red"",""hori"",""left"",[106,106],[-106,106]]",diamond,red,hori,left,"[106,106]","[-106,106]",left,1,1.1441,,,,,,001,2025-03-10_19h43.02.428,SL_sali,2021.2.3,Win32,119.047619,,,5,0,5,0,1,,,,,,,,
,,"[""circle"",""no_dis"",""hori"",""left"",[99999,99999],[0,-150]]",circle,no_dis,hori,left,"[99999,99999]","[0,-150]",left,1,0.9675,,,,,,001,2025-03-10_19h43.02.428,SL_sali,2021.2.3,Win32,119.047619,,,6,0,6,0,1,,,,,,,,
,,"[""circle"",""green"",""hori"",""left"",[150,0],[0,150]]",circle,green,hori,left,"[150,0]","[0,150]",left,1,0.7195,,,,,,001,2025-03-10_19h43.02.428,SL_sali,2021.2.3,Win32,119.047619,,,7,0,7,0,1,,,,,,,,
,,"[""circle"",""no_dis"",""hori"",""left"",[99999,99999],[106,-106]]",circle,no_dis,hori,left,"[99999,99999]","[106,-106]",left,1,0.6443,,,,,,001,2025-03-10_19h43.02.428,SL_sali,2021.2.3,Win32,119.047619,,,8,0,8,0,1,,,,,,,,
,,"[""circle"",""green"",""hori"",""left"",[0,150],[150,0]]",circle,green,hori,left,"[0,150]","[150,0]",left,1,0.7333,,,,,,001,2025-03-10_19h43.02.428,SL_sali,2021.2.3,Win32,119.047619,,,9,0,9,0,1,,,,,,,,
,,"[""circle"",""green"",""vert"",""up"",[-150,0],[0,150]]",circle,green,vert,up,"[-150,0]","[0,150]",up,1,1.3414,,,,,,001,2025-03-10_19h43.02.428,SL_sali,2021.2.3,Win32,119.047619,,,10,0,10,0,1,,,,,,,,
,,"[""diamond"",""no_dis"",""hori"",""left"",[99999,99999],[106,106]]",diamond,no_dis,hori,left,"[99999,99999]","[106,106]",left,1,1.695,,,,,,001,2025-03-10_19h43.02.428,SL_sali,2021.2.3,Win32,119.047619,,,11,0,11,0,1,,,,,,,,
,,"[""circle"",""red"",""vert"",""up"",[-150,0],[-106,-106]]",circle,red,vert,up,"[-150,0]","[-106,-106]",up,1,1.1837,,,,,,001,2025-03-10_19h43.02.428,SL_sali,2021.2.3,Win32,119.047619,,,12,0,12,0,1,,,,,,,,
,,"[""circle"",""no_dis"",""hori"",""left"",[99999,99999],[150,0]]",circle,no_dis,hori,left,"[99999,99999]","[150,0]",left,1,1.3715,,,,,,001,2025-03-10_19h43.02.428,SL_sali,2021.2.3,Win32,119.047619,,,13,0,13,0,1,,,,,,,,
,,"[""diamond"",""no_dis"",""hori"",""left"",[99999,99999],[-150,0]]",diamond,no_dis,hori,left,"[99999,99999]","[-150,0]",left,1,1.45,,,,,,001,2025-03-10_19h43.02.428,SL_sali,2021.2.3,Win32,119.047619,,,14,0,14,0,1,,,,,,,,
,,"[""diamond"",""no_dis"",""vert"",""up"",[99999,99999],[0,150]]",diamond,no_dis,vert,up,"[99999,99999]","[0,150]",up,1,1.0421,,,,,,001,2025-03-10_19h43.02.428,SL_sali,2021.2.3,Win32,119.047619,,,15,0,15,0,1,,,,,,,,
,,"[""circle"",""red"",""vert"",""up"",[-150,0],[0,150]]",circle,red,vert,up,"[-150,0]","[0,150]",up,1,0.8167,,,,,,001,2025-03-10_19h43.02.428,SL_sali,2021.2.3,Win32,119.047619,,,16,0,16,0,1,,,,,,,,
,,"[""circle"",""red"",""vert"",""up"",[150,0],[-106,106]]",circle,red,vert,up,"[150,0]","[-106,106]",up,1,2.0419,,,,,,001,2025-03-10_19h43.02.428,SL_sali,2021.2.3,Win32,119.047619,,,17,0,17,0,1,,,,,,,,
,,"[""diamond"",""red"",""vert"",""up"",[0,-150],[106,106]]",diamond,red,vert,up,"[0,-150]","[106,106]",up,1,1.5503,,,,,,001,2025-03-10_19h43.02.428,SL_sali,2021.2.3,Win32,119.047619,,,18,0,18,0,1,,,,,,,,
,,"[""diamond"",""red"",""vert"",""up"",[106,-106],[0,-150]]",diamond,red,vert,up,"[106,-106]","[0,-150]",up,1,1.6666,,,,,,001,2025-03-10_19h43.02.428,SL_sali,2021.2.3,Win32,119.047619,,,19,0,19,0,1,,,,,,,,
,,"[""circle"",""no_dis"",""hori"",""left"",[99999,99999],[150,0]]",circle,no_dis,hori,left,"[99999,99999]","[150,0]",left,1,0.6706,,,,,,001,2025-03-10_19h43.02.428,SL_sali,2021.2.3,Win32,119.047619,,,20,0,20,0,1,,,,,,,,
,,"[""circle"",""green"",""vert"",""up"",[106,-106],[150,0]]",circle,green,vert,up,"[106,-106]","[150,0]",up,1,0.9505,,,,,,001,2025-03-10_19h43.02.428,SL_sali,2021.2.3,Win32,119.047619,,,21,0,21,0,1,,,,,,,,
,,"[""diamond"",""no_dis"",""vert"",""up"",[99999,99999],[-106,-106]]",diamond,no_dis,vert,up,"[99999,99999]","[-106,-106]",up,1,1.0672,,,,,,001,2025-03-10_19h43.02.428,SL_sali,2021.2.3,Win32,119.047619,,,22,0,22,0,1,,,,,,,,
,,"[""diamond"",""no_dis"",""hori"",""left"",[99999,99999],[0,150]]",diamond,no_dis,hori,left,"[99999,99999]","[0,150]",left,1,1.5671,,,,,,001,2025-03-10_19h43.02.428,SL_sali,2021.2.3,Win32,119.047619,,,23,0,23,0,1,,,,,,,,
,,"[""diamond"",""green"",""vert"",""up"",[0,-150],[-150,0]]",diamond,green,vert,up,"[0,-150]","[-150,0]",up,1,1.017,,,,,,001,2025-03-10_19h43.02.428,SL_sali,2021.2.3,Win32,119.047619,,,24,0,24,0,1,,,,,,,,
,,"[""circle"",""green"",""vert"",""up"",[106,106],[150,0]]",circle,green,vert,up,"[106,106]","[150,0]",up,1,1.528,,,,,,001,2025-03-10_19h43.02.428,SL_sali,2021.2.3,Win32,119.047619,,,25,0,25,0,1,,,,,,,,
,,"[""diamond"",""no_dis"",""vert"",""up"",[99999,99999],[-150,0]]",diamond,no_dis,vert,up,"[99999,99999]","[-150,0]",up,1,1.1738,,,,,,001,2025-03-10_19h43.02.428,SL_sali,2021.2.3,Win32,119.047619,,,26,0,26,0,1,,,,,,,,
,,"[""circle"",""green"",""vert"",""up"",[-106,-106],[-106,106]]",circle,green,vert,up,"[-106,-106]","[-106,106]",up,1,0.9672,,,,,,001,2025-03-10_19h43.02.428,SL_sali,2021.2.3,Win32,119.047619,,,27,0,27,0,1,,,,,,,,
,,"[""circle"",""red"",""hori"",""left"",[150,0],[-150,0]]",circle,red,hori,left,"[150,0]","[-150,0]",left,1,1.5616,,,,,,001,2025-03-10_19h43.02.428,SL_sali,2021.2.3,Win32,119.047619,,,28,0,28,0,1,,,,,,,,
,,"[""diamond"",""no_dis"",""hori"",""left"",[99999,99999],[-106,106]]",diamond,no_dis,hori,left,"[99999,99999]","[-106,106]",left,1,2.0913,,,,,,001,2025-03-10_19h43.02.428,SL_sali,2021.2.3,Win32,119.047619,,,29,0,29,0,1,,,,,,,,
,,"[""diamond"",""red"",""vert"",""up"",[106,-106],[106,106]]",diamond,red,vert,up,"[106,-106]","[106,106]",up,1,1.5091,,,,,,001,2025-03-10_19h43.02.428,SL_sali,2021.2.3,Win32,119.047619,,,30,0,30,0,1,,,,,,,,
,,"[""circle"",""green"",""hori"",""left"",[0,150],[-106,-106]]",circle,green,hori,left,"[0,150]","[-106,-106]",left,1,1.5338,,,,,,001,2025-03-10_19h43.02.428,SL_sali,2021.2.3,Win32,119.047619,,,31,0,31,0,1,,,,,,,,
,,"[""diamond"",""no_dis"",""hori"",""left"",[99999,99999],[0,150]]",diamond,no_dis,hori,left,"[99999,99999]","[0,150]",left,1,2.4166,,,,,,001,2025-03-10_19h43.02.428,SL_sali,2021.2.3,Win32,119.047619,,,32,0,32,0,1,,,,,,,,
,,"[""diamond"",""red"",""hori"",""left"",[-106,106],[150,0]]",diamond,red,hori,left,"[-106,106]","[150,0]",left,1,1.292,,,,,,001,2025-03-10_19h43.02.428,SL_sali,2021.2.3,Win32,119.047619,,,33,0,33,0,1,,,,,,,,
,,"[""diamond"",""red"",""hori"",""left"",[-150,0],[106,106]]",diamond,red,hori,left,"[-150,0]","[106,106]",left,1,2.4805,,,,,,001,2025-03-10_19h43.02.428,SL_sali,2021.2.3,Win32,119.047619,,,34,0,34,0,1,,,,,,,,
,,"[""diamond"",""green"",""vert"",""up"",[106,-106],[0,-150]]",diamond,green,vert,up,"[106,-106]","[0,-150]",up,1,1.2444,,,,,,001,2025-03-10_19h43.02.428,SL_sali,2021.2.3,Win32,119.047619,,,35,0,35,0,1,,,,,,,,
,,"[""diamond"",""red"",""hori"",""left"",[106,-106],[0,150]]",diamond,red,hori,left,"[106,-106]","[0,150]",left,1,1.4623,,,,,,001,2025-03-10_19h43.02.428,SL_sali,2021.2.3,Win32,119.047619,,,36,0,36,0,1,,,,,,,,
,,"[""diamond"",""no_dis"",""hori"",""left"",[99999,99999],[-106,106]]",diamond,no_dis,hori,left,"[99999,99999]","[-106,106]",left,1,1.0628,,,,,,001,2025-03-10_19h43.02.428,SL_sali,2021.2.3,Win32,119.047619,,,37,0,37,0,1,,,,,,,,
,,"[""circle"",""no_dis"",""vert"",""up"",[99999,99999],[0,-150]]",circle,no_dis,vert,up,"[99999,99999]","[0,-150]",up,1,1.6421,,,,,,001,2025-03-10_19h43.02.428,SL_sali,2021.2.3,Win32,119.047619,,,38,0,38,0,1,,,,,,,,
,,"[""diamond"",""red"",""hori"",""left"",[-150,0],[-106,-106]]",diamond,red,hori,left,"[-150,0]","[-106,-106]",left,1,1.1171,,,,,,001,2025-03-10_19h43.02.428,SL_sali,2021.2.3,Win32,119.047619,,,39,0,39,0,1,,,,,,,,
,,"[""diamond"",""green"",""vert"",""up"",[-106,-106],[-150,0]]",diamond,green,vert,up,"[-106,-106]","[-150,0]",up,1,0.8759,,,,,,001,2025-03-10_19h43.02.428,SL_sali,2021.2.3,Win32,119.047619,,,40,0,40,0,1,,,,,,,,
,,"[""circle"",""green"",""hori"",""left"",[150,0],[106,-106]]",circle,green,hori,left,"[150,0]","[106,-106]",left,1,1.6004,,,,,,001,2025-03-10_19h43.02.428,SL_sali,2021.2.3,Win32,119.047619,,,41,0,41,0,1,,,,,,,,
,,"[""diamond"",""green"",""vert"",""up"",[-106,-106],[106,106]]",diamond,green,vert,up,"[-106,-106]","[106,106]",up,1,0.9541,,,,,,001,2025-03-10_19h43.02.428,SL_sali,2021.2.3,Win32,119.047619,,,42,0,42,0,1,,,,,,,,
,,"[""circle"",""red"",""vert"",""up"",[0,-150],[-106,106]]",circle,red,vert,up,"[0,-150]","[-106,106]",up,1,1.753,,,,,,001,2025-03-10_19h43.02.428,SL_sali,2021.2.3,Win32,119.047619,,,43,0,43,0,1,,,,,,,,
,,"[""circle"",""red"",""hori"",""left"",[-106,-106],[0,-150]]",circle,red,hori,left,"[-106,-106]","[0,-150]",left,1,2.7002,,,,,,001,2025-03-10_19h43.02.428,SL_sali,2021.2.3,Win32,119.047619,,,44,0,44,0,1,,,,,,,,
,,"[""circle"",""no_dis"",""vert"",""up"",[99999,99999],[106,-106]]",circle,no_dis,vert,up,"[99999,99999]","[106,-106]",,0,,,,,,,001,2025-03-10_19h43.02.428,SL_sali,2021.2.3,Win32,119.047619,,,45,0,45,0,1,,,,,,,,
,,"[""circle"",""red"",""hori"",""left"",[-150,0],[106,106]]",circle,red,hori,left,"[-150,0]","[106,106]",left,1,1.0112,,,,,,001,2025-03-10_19h43.02.428,SL_sali,2021.2.3,Win32,119.047619,,,46,0,46,0,1,,,,,,,,
,,"[""diamond"",""green"",""hori"",""left"",[-150,0],[-106,-106]]",diamond,green,hori,left,"[-150,0]","[-106,-106]",left,1,1.1921,,,,,,001,2025-03-10_19h43.02.428,SL_sali,2021.2.3,Win32,119.047619,,,47,0,47,0,1,,,,,,,,
,,"[""circle"",""green"",""vert"",""up"",[-150,0],[106,106]]",circle,green,vert,up,"[-150,0]","[106,106]",up,1,0.7289,,,,,,001,2025-03-10_19h43.02.428,SL_sali,2021.2.3,Win32,119.047619,,,48,0,48,0,1,,,,,,,,
,,"[""diamond"",""green"",""hori"",""left"",[106,106],[0,150]]",diamond,green,hori,left,"[106,106]","[0,150]",left,1,1.1171,,,,,,001,2025-03-10_19h43.02.428,SL_sali,2021.2.3,Win32,119.047619,,,49,0,49,0,1,,,,,,,,
,,"[""diamond"",""green"",""vert"",""up"",[-150,0],[150,0]]",diamond,green,vert,up,"[-150,0]","[150,0]",up,1,0.8581,,,,,,001,2025-03-10_19h43.02.428,SL_sali,2021.2.3,Win32,119.047619,,,50,0,50,0,1,,,,,,,,
,,"[""diamond"",""no_dis"",""hori"",""left"",[99999,99999],[-106,-106]]",diamond,no_dis,hori,left,"[99999,99999]","[-106,-106]",left,1,0.8284,,,,,,001,2025-03-10_19h43.02.428,SL_sali,2021.2.3,Win32,119.047619,,,51,0,51,0,1,,,,,,,,
,,"[""circle"",""red"",""vert"",""up"",[-150,0],[-106,106]]",circle,red,vert,up,"[-150,0]","[-106,106]",up,1,1.8588,,,,,,001,2025-03-10_19h43.02.428,SL_sali,2021.2.3,Win32,119.047619,,,52,0,52,0,1,,,,,,,,
,,"[""diamond"",""green"",""hori"",""left"",[0,-150],[0,150]]",diamond,green,hori,left,"[0,-150]","[0,150]",left,1,0.7528,,,,,,001,2025-03-10_19h43.02.428,SL_sali,2021.2.3,Win32,119.047619,,,53,0,53,0,1,,,,,,,,
,,"[""diamond"",""no_dis"",""vert"",""up"",[99999,99999],[150,0]]",diamond,no_dis,vert,up,"[99999,99999]","[150,0]",up,1,0.9834,,,,,,001,2025-03-10_19h43.02.428,SL_sali,2021.2.3,Win32,119.047619,,,54,0,54,0,1,,,,,,,,
,,"[""circle"",""no_dis"",""vert"",""up"",[99999,99999],[0,150]]",circle,no_dis,vert,up,"[99999,99999]","[0,150]",up,1,0.8666,,,,,,001,2025-03-10_19h43.02.428,SL_sali,2021.2.3,Win32,119.047619,,,55,0,55,0,1,,,,,,,,
,,"[""diamond"",""red"",""vert"",""up"",[-150,0],[-106,106]]",diamond,red,vert,up,"[-150,0]","[-106,106]",up,1,1.2947,,,,,,001,2025-03-10_19h43.02.428,SL_sali,2021.2.3,Win32,119.047619,,,56,0,56,0,1,,,,,,,,
,,"[""diamond"",""green"",""hori"",""left"",[150,0],[0,150]]",diamond,green,hori,left,"[150,0]","[0,150]",left,1,0.9167,,,,,,001,2025-03-10_19h43.02.428,SL_sali,2021.2.3,Win32,119.047619,,,57,0,57,0,1,,,,,,,,
,,"[""circle"",""green"",""hori"",""left"",[-106,-106],[0,-150]]",circle,green,hori,left,"[-106,-106]","[0,-150]",left,1,1.567,,,,,,001,2025-03-10_19h43.02.428,SL_sali,2021.2.3,Win32,119.047619,,,58,0,58,0,1,,,,,,,,
,,"[""diamond"",""red"",""hori"",""left"",[150,0],[0,-150]]",diamond,red,hori,left,"[150,0]","[0,-150]",left,1,0.9921,,,,,,001,2025-03-10_19h43.02.428,SL_sali,2021.2.3,Win32,119.047619,,,59,0,59,0,1,,,,,,,,
,,"[""circle"",""red"",""hori"",""left"",[-106,-106],[150,0]]",circle,red,hori,left,"[-106,-106]","[150,0]",left,1,1.1421,,,,,,001,2025-03-10_19h43.02.428,SL_sali,2021.2.3,Win32,119.047619,,,60,0,60,0,1,,,,,,,,
,,"[""diamond"",""red"",""hori"",""left"",[0,150],[-106,106]]",diamond,red,hori,left,"[0,150]","[-106,106]",left,1,0.9499,,,,,,001,2025-03-10_19h43.02.428,SL_sali,2021.2.3,Win32,119.047619,,,61,0,61,0,1,,,,,,,,
,,"[""circle"",""green"",""vert"",""up"",[106,106],[0,150]]",circle,green,vert,up,"[106,106]","[0,150]",up,1,1.3256,,,,,,001,2025-03-10_19h43.02.428,SL_sali,2021.2.3,Win32,119.047619,,,62,0,62,0,1,,,,,,,,
,,"[""diamond"",""red"",""hori"",""left"",[0,-150],[106,106]]",diamond,red,hori,left,"[0,-150]","[106,106]",left,1,1.5527,,,,,,001,2025-03-10_19h43.02.428,SL_sali,2021.2.3,Win32,119.047619,,,63,0,63,0,1,,,,,,,,
,,"[""diamond"",""green"",""hori"",""left"",[106,-106],[0,150]]",diamond,green,hori,left,"[106,-106]","[0,150]",left,1,0.8076,,,,,,001,2025-03-10_19h43.02.428,SL_sali,2021.2.3,Win32,119.047619,,,64,0,64,0,1,,,,,,,,
,,"[""circle"",""red"",""hori"",""left"",[106,-106],[-106,106]]",circle,red,hori,left,"[106,-106]","[-106,106]",left,1,0.8867,,,,,,001,2025-03-10_19h43.02.428,SL_sali,2021.2.3,Win32,119.047619,,,65,0,65,0,1,,,,,,,,
,,"[""diamond"",""no_dis"",""vert"",""up"",[99999,99999],[-150,0]]",diamond,no_dis,vert,up,"[99999,99999]","[-150,0]",up,1,0.9002,,,,,,001,2025-03-10_19h43.02.428,SL_sali,2021.2.3,Win32,119.047619,,,66,0,66,0,1,,,,,,,,
,,"[""circle"",""no_dis"",""vert"",""up"",[99999,99999],[0,-150]]",circle,no_dis,vert,up,"[99999,99999]","[0,-150]",up,1,1.5668,,,,,,001,2025-03-10_19h43.02.428,SL_sali,2021.2.3,Win32,119.047619,,,67,0,67,0,1,,,,,,,,
,,"[""diamond"",""red"",""vert"",""up"",[-106,-106],[0,150]]",diamond,red,vert,up,"[-106,-106]","[0,150]",up,1,0.8587,,,,,,001,2025-03-10_19h43.02.428,SL_sali,2021.2.3,Win32,119.047619,,,68,0,68,0,1,,,,,,,,
,,"[""diamond"",""red"",""vert"",""up"",[0,-150],[-150,0]]",diamond,red,vert,up,"[0,-150]","[-150,0]",up,1,0.9171,,,,,,001,2025-03-10_19h43.02.428,SL_sali,2021.2.3,Win32,119.047619,,,69,0,69,0,1,,,,,,,,
,,"[""circle"",""no_dis"",""hori"",""left"",[99999,99999],[0,-150]]",circle,no_dis,hori,left,"[99999,99999]","[0,-150]",left,1,0.6499,,,,,,001,2025-03-10_19h43.02.428,SL_sali,2021.2.3,Win32,119.047619,,,70,0,70,0,1,,,,,,,,
,,"[""circle"",""no_dis"",""hori"",""left"",[99999,99999],[-106,-106]]",circle,no_dis,hori,left,"[99999,99999]","[-106,-106]",left,1,0.8795,,,,,,001,2025-03-10_19h43.02.428,SL_sali,2021.2.3,Win32,119.047619,,,71,0,71,0,1,,,,,,,,
,,"[""circle"",""red"",""hori"",""left"",[-150,0],[150,0]]",circle,red,hori,left,"[-150,0]","[150,0]",left,1,1.6,,,,,,001,2025-03-10_19h43.02.428,SL_sali,2021.2.3,Win32,119.047619,,,72,0,72,0,1,,,,,,,,
,,"[""circle"",""no_dis"",""vert"",""up"",[99999,99999],[-150,0]]",circle,no_dis,vert,up,"[99999,99999]","[-150,0]",up,1,0.7452,,,,,,001,2025-03-10_19h43.02.428,SL_sali,2021.2.3,Win32,119.047619,,,73,0,73,0,1,,,,,,,,
,,"[""circle"",""green"",""hori"",""left"",[0,150],[0,-150]]",circle,green,hori,left,"[0,150]","[0,-150]",left,1,1.0178,,,,,,001,2025-03-10_19h43.02.428,SL_sali,2021.2.3,Win32,119.047619,,,74,0,74,0,1,,,,,,,,
,,"[""circle"",""red"",""vert"",""up"",[0,-150],[106,-106]]",circle,red,vert,up,"[0,-150]","[106,-106]",up,1,1.2106,,,,,,001,2025-03-10_19h43.02.428,SL_sali,2021.2.3,Win32,119.047619,,,75,0,75,0,1,,,,,,,,
,,"[""diamond"",""red"",""vert"",""up"",[-150,0],[150,0]]",diamond,red,vert,up,"[-150,0]","[150,0]",up,1,1.683,,,,,,001,2025-03-10_19h43.02.428,SL_sali,2021.2.3,Win32,119.047619,,,76,0,76,0,1,,,,,,,,
,,"[""diamond"",""red"",""vert"",""up"",[-106,106],[0,150]]",diamond,red,vert,up,"[-106,106]","[0,150]",left,0,1.0751,,,,,,001,2025-03-10_19h43.02.428,SL_sali,2021.2.3,Win32,119.047619,,,77,0,77,0,1,,,,,,,,
,,"[""diamond"",""no_dis"",""vert"",""up"",[99999,99999],[106,106]]",diamond,no_dis,vert,up,"[99999,99999]","[106,106]",up,1,1.0981,,,,,,001,2025-03-10_19h43.02.428,SL_sali,2021.2.3,Win32,119.047619,,,78,0,78,0,1,,,,,,,,
,,"[""circle"",""green"",""hori"",""left"",[-150,0],[106,106]]",circle,green,hori,left,"[-150,0]","[106,106]",left,1,1.05,,,,,,001,2025-03-10_19h43.02.428,SL_sali,2021.2.3,Win32,119.047619,,,79,0,79,0,1,,,,,,,,
,,"[""circle"",""red"",""hori"",""left"",[106,106],[0,150]]",circle,red,hori,left,"[106,106]","[0,150]",left,1,1.1612,,,,,,001,2025-03-10_19h43.02.428,SL_sali,2021.2.3,Win32,119.047619,,,80,0,80,0,1,,,,,,,,
,,"[""diamond"",""green"",""vert"",""up"",[-106,106],[106,106]]",diamond,green,vert,up,"[-106,106]","[106,106]",up,1,1.0255,,,,,,001,2025-03-10_19h43.02.428,SL_sali,2021.2.3,Win32,119.047619,,,81,0,81,0,1,,,,,,,,
,,"[""diamond"",""green"",""hori"",""left"",[-106,106],[0,150]]",diamond,green,hori,left,"[-106,106]","[0,150]",left,1,1.0195,,,,,,001,2025-03-10_19h43.02.428,SL_sali,2021.2.3,Win32,119.047619,,,82,0,82,0,1,,,,,,,,
,,"[""circle"",""red"",""hori"",""left"",[-150,0],[0,150]]",circle,red,hori,left,"[-150,0]","[0,150]",left,1,1.9086,,,,,,001,2025-03-10_19h43.02.428,SL_sali,2021.2.3,Win32,119.047619,,,83,0,83,0,1,,,,,,,,
,,"[""circle"",""no_dis"",""hori"",""left"",[99999,99999],[106,106]]",circle,no_dis,hori,left,"[99999,99999]","[106,106]",left,1,0.8919,,,,,,001,2025-03-10_19h43.02.428,SL_sali,2021.2.3,Win32,119.047619,,,84,0,84,0,1,,,,,,,,
,,"[""circle"",""no_dis"",""vert"",""up"",[99999,99999],[0,150]]",circle,no_dis,vert,up,"[99999,99999]","[0,150]",up,1,0.8251,,,,,,001,2025-03-10_19h43.02.428,SL_sali,2021.2.3,Win32,119.047619,,,85,0,85,0,1,,,,,,,,
,,"[""diamond"",""no_dis"",""hori"",""left"",[99999,99999],[106,-106]]",diamond,no_dis,hori,left,"[99999,99999]","[106,-106]",left,1,0.8667,,,,,,001,2025-03-10_19h43.02.428,SL_sali,2021.2.3,Win32,119.047619,,,86,0,86,0,1,,,,,,,,
,,"[""diamond"",""red"",""vert"",""up"",[0,150],[-106,106]]",diamond,red,vert,up,"[0,150]","[-106,106]",up,1,0.9342,,,,,,001,2025-03-10_19h43.02.428,SL_sali,2021.2.3,Win32,119.047619,,,87,0,87,0,1,,,,,,,,
,,"[""circle"",""no_dis"",""hori"",""left"",[99999,99999],[106,-106]]",circle,no_dis,hori,left,"[99999,99999]","[106,-106]",left,1,1.067,,,,,,001,2025-03-10_19h43.02.428,SL_sali,2021.2.3,Win32,119.047619,,,88,0,88,0,1,,,,,,,,
,,"[""diamond"",""red"",""hori"",""left"",[106,106],[0,-150]]",diamond,red,hori,left,"[106,106]","[0,-150]",left,1,1.0115,,,,,,001,2025-03-10_19h43.02.428,SL_sali,2021.2.3,Win32,119.047619,,,89,0,89,0,1,,,,,,,,
,,"[""diamond"",""green"",""hori"",""left"",[-150,0],[0,-150]]",diamond,green,hori,left,"[-150,0]","[0,-150]",left,1,0.8996,,,,,,001,2025-03-10_19h43.02.428,SL_sali,2021.2.3,Win32,119.047619,,,90,0,90,0,1,,,,,,,,
,,"[""diamond"",""no_dis"",""vert"",""up"",[99999,99999],[-106,106]]",diamond,no_dis,vert,up,"[99999,99999]","[-106,106]",up,1,0.8004,,,,,,001,2025-03-10_19h43.02.428,SL_sali,2021.2.3,Win32,119.047619,,,91,0,91,0,1,,,,,,,,
,,"[""circle"",""no_dis"",""vert"",""up"",[99999,99999],[0,-150]]",circle,no_dis,vert,up,"[99999,99999]","[0,-150]",up,1,0.9667,,,,,,001,2025-03-10_19h43.02.428,SL_sali,2021.2.3,Win32,119.047619,,,92,0,92,0,1,,,,,,,,
,,"[""circle"",""no_dis"",""hori"",""left"",[99999,99999],[106,-106]]",circle,no_dis,hori,left,"[99999,99999]","[106,-106]",left,1,0.7363,,,,,,001,2025-03-10_19h43.02.428,SL_sali,2021.2.3,Win32,119.047619,,,93,0,93,0,1,,,,,,,,
,,"[""diamond"",""green"",""vert"",""up"",[-150,0],[106,106]]",diamond,green,vert,up,"[-150,0]","[106,106]",up,1,1.6002,,,,,,001,2025-03-10_19h43.02.428,SL_sali,2021.2.3,Win32,119.047619,,,94,0,94,0,1,,,,,,,,
,,"[""circle"",""green"",""vert"",""up"",[-106,106],[-150,0]]",circle,green,vert,up,"[-106,106]","[-150,0]",up,1,1.7005,,,,,,001,2025-03-10_19h43.02.428,SL_sali,2021.2.3,Win32,119.047619,,,95,0,95,0,1,,,,,,,,
,,"[""diamond"",""green"",""hori"",""left"",[-106,106],[0,150]]",diamond,green,hori,left,"[-106,106]","[0,150]",left,1,2.0335,,,,,,001,2025-03-10_19h43.02.428,SL_sali,2021.2.3,Win32,119.047619,,,96,0,96,0,1,,,,,,,,
,,"[""circle"",""red"",""vert"",""up"",[-150,0],[0,-150]]",circle,red,vert,up,"[-150,0]","[0,-150]",up,1,2.6502,,,,,,001,2025-03-10_19h43.02.428,SL_sali,2021.2.3,Win32,119.047619,,,97,0,97,0,1,,,,,,,,
,,"[""circle"",""red"",""vert"",""up"",[0,150],[-106,106]]",circle,red,vert,up,"[0,150]","[-106,106]",up,1,2.5587,,,,,,001,2025-03-10_19h43.02.428,SL_sali,2021.2.3,Win32,119.047619,,,98,0,98,0,1,,,,,,,,
,,"[""diamond"",""green"",""hori"",""left"",[-150,0],[0,-150]]",diamond,green,hori,left,"[-150,0]","[0,-150]",left,1,1.0798,,,,,,001,2025-03-10_19h43.02.428,SL_sali,2021.2.3,Win32,119.047619,,,99,0,99,0,1,,,,,,,,
,,"[""circle"",""green"",""vert"",""up"",[-150,0],[106,-106]]",circle,green,vert,up,"[-150,0]","[106,-106]",up,1,1.1251,,,,,,001,2025-03-10_19h43.02.428,SL_sali,2021.2.3,Win32,119.047619,,,100,0,100,0,1,,,,,,,,
,,"[""circle"",""green"",""vert"",""up"",[106,-106],[0,-150]]",circle,green,vert,up,"[106,-106]","[0,-150]",up,1,1.2506,,,,,,001,2025-03-10_19h43.02.428,SL_sali,2021.2.3,Win32,119.047619,,,101,0,101,0,1,,,,,,,,
,,"[""diamond"",""red"",""hori"",""left"",[0,-150],[-150,0]]",diamond,red,hori,left,"[0,-150]","[-150,0]",left,1,1.6531,,,,,,001,2025-03-10_19h43.02.428,SL_sali,2021.2.3,Win32,119.047619,,,102,0,102,0,1,,,,,,,,
,,"[""circle"",""red"",""hori"",""left"",[-150,0],[-106,106]]",circle,red,hori,left,"[-150,0]","[-106,106]",left,1,1.4917,,,,,,001,2025-03-10_19h43.02.428,SL_sali,2021.2.3,Win32,119.047619,,,103,0,103,0,1,,,,,,,,
,,"[""circle"",""red"",""hori"",""left"",[150,0],[106,106]]",circle,red,hori,left,"[150,0]","[106,106]",left,1,1.4824,,,,,,001,2025-03-10_19h43.02.428,SL_sali,2021.2.3,Win32,119.047619,,,104,0,104,0,1,,,,,,,,
,,"[""diamond"",""green"",""hori"",""left"",[-106,-106],[-150,0]]",diamond,green,hori,left,"[-106,-106]","[-150,0]",up,0,1.8081,,,,,,001,2025-03-10_19h43.02.428,SL_sali,2021.2.3,Win32,119.047619,,,105,0,105,0,1,,,,,,,,
,,"[""diamond"",""green"",""vert"",""up"",[0,150],[150,0]]",diamond,green,vert,up,"[0,150]","[150,0]",up,1,1.2255,,,,,,001,2025-03-10_19h43.02.428,SL_sali,2021.2.3,Win32,119.047619,,,106,0,106,0,1,,,,,,,,
,,"[""diamond"",""no_dis"",""hori"",""left"",[99999,99999],[-106,106]]",diamond,no_dis,hori,left,"[99999,99999]","[-106,106]",left,1,1.2018,,,,,,001,2025-03-10_19h43.02.428,SL_sali,2021.2.3,Win32,119.047619,,,107,0,107,0,1,,,,,,,,
,,"[""circle"",""no_dis"",""vert"",""up"",[99999,99999],[-106,-106]]",circle,no_dis,vert,up,"[99999,99999]","[-106,-106]",up,1,0.8339,,,,,,001,2025-03-10_19h43.02.428,SL_sali,2021.2.3,Win32,119.047619,,,108,0,108,0,1,,,,,,,,
,,"[""circle"",""no_dis"",""hori"",""left"",[99999,99999],[-150,0]]",circle,no_dis,hori,left,"[99999,99999]","[-150,0]",left,1,0.7251,,,,,,001,2025-03-10_19h43.02.428,SL_sali,2021.2.3,Win32,119.047619,,,109,0,109,0,1,,,,,,,,
,,"[""diamond"",""no_dis"",""vert"",""up"",[99999,99999],[-106,-106]]",diamond,no_dis,vert,up,"[99999,99999]","[-106,-106]",up,1,0.7775,,,,,,001,2025-03-10_19h43.02.428,SL_sali,2021.2.3,Win32,119.047619,,,110,0,110,0,1,,,,,,,,
,,"[""diamond"",""red"",""vert"",""up"",[0,150],[106,106]]",diamond,red,vert,up,"[0,150]","[106,106]",up,1,1.4754,,,,,,001,2025-03-10_19h43.02.428,SL_sali,2021.2.3,Win32,119.047619,,,111,0,111,0,1,,,,,,,,
,,"[""diamond"",""no_dis"",""vert"",""up"",[99999,99999],[106,106]]",diamond,no_dis,vert,up,"[99999,99999]","[106,106]",up,1,0.6921,,,,,,001,2025-03-10_19h43.02.428,SL_sali,2021.2.3,Win32,119.047619,,,112,0,112,0,1,,,,,,,,
,,"[""diamond"",""green"",""vert"",""up"",[-150,0],[0,150]]",diamond,green,vert,up,"[-150,0]","[0,150]",up,1,0.7754,,,,,,001,2025-03-10_19h43.02.428,SL_sali,2021.2.3,Win32,119.047619,,,113,0,113,0,1,,,,,,,,
,,"[""circle"",""red"",""vert"",""up"",[-106,106],[106,106]]",circle,red,vert,up,"[-106,106]","[106,106]",up,1,1.7003,,,,,,001,2025-03-10_19h43.02.428,SL_sali,2021.2.3,Win32,119.047619,,,114,0,114,0,1,,,,,,,,
,,"[""circle"",""green"",""hori"",""left"",[-150,0],[-106,-106]]",circle,green,hori,left,"[-150,0]","[-106,-106]",left,1,1.0049,,,,,,001,2025-03-10_19h43.02.428,SL_sali,2021.2.3,Win32,119.047619,,,115,0,115,0,1,,,,,,,,
,,"[""circle"",""no_dis"",""vert"",""up"",[99999,99999],[150,0]]",circle,no_dis,vert,up,"[99999,99999]","[150,0]",up,1,0.7302,,,,,,001,2025-03-10_19h43.02.428,SL_sali,2021.2.3,Win32,119.047619,,,116,0,116,0,1,,,,,,,,
,,"[""diamond"",""green"",""vert"",""up"",[150,0],[0,150]]",diamond,green,vert,up,"[150,0]","[0,150]",up,1,1.075,,,,,,001,2025-03-10_19h43.02.428,SL_sali,2021.2.3,Win32,119.047619,,,117,0,117,0,1,,,,,,,,
,,"[""circle"",""green"",""vert"",""up"",[106,106],[0,-150]]",circle,green,vert,up,"[106,106]","[0,-150]",up,1,0.938,,,,,,001,2025-03-10_19h43.02.428,SL_sali,2021.2.3,Win32,119.047619,,,118,0,118,0,1,,,,,,,,
,,"[""diamond"",""no_dis"",""hori"",""left"",[99999,99999],[106,106]]",diamond,no_dis,hori,left,"[99999,99999]","[106,106]",left,1,1.1711,,,,,,001,2025-03-10_19h43.02.428,SL_sali,2021.2.3,Win32,119.047619,,,119,0,119,0,1,,,,,,,,
,,,,,,,,,,,,,,,,,001,2025-03-10_19h43.02.428,SL_sali,2021.2.3,Win32,119.047619,,,,,,,,2,space,8.3828,1,0,1,0,1
,,"[""circle"",""green"",""vert"",""up"",[106,-106],[150,0]]",circle,green,vert,up,"[106,-106]","[150,0]",up,1,1.2505,,,,,,001,2025-03-10_19h43.02.428,SL_sali,2021.2.3,Win32,119.047619,,,0,0,0,0,1,,,,,,,,
,,"[""diamond"",""green"",""vert"",""up"",[-150,0],[106,106]]",diamond,green,vert,up,"[-150,0]","[106,106]",up,1,1.1836,,,,,,001,2025-03-10_19h43.02.428,SL_sali,2021.2.3,Win32,119.047619,,,1,0,1,0,1,,,,,,,,
,,"[""diamond"",""no_dis"",""hori"",""left"",[99999,99999],[106,106]]",diamond,no_dis,hori,left,"[99999,99999]","[106,106]",left,1,0.7192,,,,,,001,2025-03-10_19h43.02.428,SL_sali,2021.2.3,Win32,119.047619,,,2,0,2,0,1,,,,,,,,
,,"[""diamond"",""red"",""hori"",""left"",[150,0],[0,-150]]",diamond,red,hori,left,"[150,0]","[0,-150]",left,1,1.4339,,,,,,001,2025-03-10_19h43.02.428,SL_sali,2021.2.3,Win32,119.047619,,,3,0,3,0,1,,,,,,,,
,,"[""diamond"",""green"",""hori"",""left"",[-150,0],[0,-150]]",diamond,green,hori,left,"[-150,0]","[0,-150]",left,1,0.7584,,,,,,001,2025-03-10_19h43.02.428,SL_sali,2021.2.3,Win32,119.047619,,,4,0,4,0,1,,,,,,,,
,,"[""circle"",""no_dis"",""vert"",""up"",[99999,99999],[150,0]]",circle,no_dis,vert,up,"[99999,99999]","[150,0]",up,1,0.8447,,,,,,001,2025-03-10_19h43.02.428,SL_sali,2021.2.3,Win32,119.047619,,,5,0,5,0,1,,,,,,,,
,,"[""diamond"",""no_dis"",""vert"",""up"",[99999,99999],[-106,106]]",diamond,no_dis,vert,up,"[99999,99999]","[-106,106]",left,0,1.1747,,,,,,001,2025-03-10_19h43.02.428,SL_sali,2021.2.3,Win32,119.047619,,,6,0,6,0,1,,,,,,,,
,,"[""circle"",""no_dis"",""vert"",""up"",[99999,99999],[0,-150]]",circle,no_dis,vert,up,"[99999,99999]","[0,-150]",up,1,0.8588,,,,,,001,2025-03-10_19h43.02.428,SL_sali,2021.2.3,Win32,119.047619,,,7,0,7,0,1,,,,,,,,
,,"[""circle"",""green"",""vert"",""up"",[-150,0],[106,-106]]",circle,green,vert,up,"[-150,0]","[106,-106]",up,1,0.7586,,,,,,001,2025-03-10_19h43.02.428,SL_sali,2021.2.3,Win32,119.047619,,,8,0,8,0,1,,,,,,,,
,,"[""diamond"",""green"",""hori"",""left"",[-106,106],[0,150]]",diamond,green,hori,left,"[-106,106]","[0,150]",left,1,0.9189,,,,,,001,2025-03-10_19h43.02.428,SL_sali,2021.2.3,Win32,119.047619,,,9,0,9,0,1,,,,,,,,
,,"[""circle"",""red"",""vert"",""up"",[0,150],[-106,106]]",circle,red,vert,up,"[0,150]","[-106,106]",up,1,1.9195,,,,,,001,2025-03-10_19h43.02.428,SL_sali,2021.2.3,Win32,119.047619,,,10,0,10,0,1,,,,,,,,
,,"[""diamond"",""red"",""hori"",""left"",[-106,106],[150,0]]",diamond,red,hori,left,"[-106,106]","[150,0]",left,1,1.5336,,,,,,001,2025-03-10_19h43.02.428,SL_sali,2021.2.3,Win32,119.047619,,,11,0,11,0,1,,,,,,,,
,,"[""circle"",""green"",""vert"",""up"",[106,106],[150,0]]",circle,green,vert,up,"[106,106]","[150,0]",up,1,0.8504,,,,,,001,2025-03-10_19h43.02.428,SL_sali,2021.2.3,Win32,119.047619,,,12,0,12,0,1,,,,,,,,
,,"[""circle"",""no_dis"",""hori"",""left"",[99999,99999],[150,0]]",circle,no_dis,hori,left,"[99999,99999]","[150,0]",left,1,0.8916,,,,,,001,2025-03-10_19h43.02.428,SL_sali,2021.2.3,Win32,119.047619,,,13,0,13,0,1,,,,,,,,
,,"[""circle"",""red"",""vert"",""up"",[-150,0],[-106,-106]]",circle,red,vert,up,"[-150,0]","[-106,-106]",left,0,1.7955,,,,,,001,2025-03-10_19h43.02.428,SL_sali,2021.2.3,Win32,119.047619,,,14,0,14,0,1,,,,,,,,
,,"[""circle"",""green"",""hori"",""left"",[150,0],[106,-106]]",circle,green,hori,left,"[150,0]","[106,-106]",left,1,0.8588,,,,,,001,2025-03-10_19h43.02.428,SL_sali,2021.2.3,Win32,119.047619,,,15,0,15,0,1,,,,,,,,
,,"[""diamond"",""green"",""vert"",""up"",[-150,0],[0,150]]",diamond,green,vert,up,"[-150,0]","[0,150]",up,1,1.5329,,,,,,001,2025-03-10_19h43.02.428,SL_sali,2021.2.3,Win32,119.047619,,,16,0,16,0,1,,,,,,,,
,,"[""circle"",""no_dis"",""vert"",""up"",[99999,99999],[-106,-106]]",circle,no_dis,vert,up,"[99999,99999]","[-106,-106]",up,1,1.3335,,,,,,001,2025-03-10_19h43.02.428,SL_sali,2021.2.3,Win32,119.047619,,,17,0,17,0,1,,,,,,,,
,,"[""circle"",""green"",""hori"",""left"",[106,106],[-150,0]]",circle,green,hori,left,"[106,106]","[-150,0]",left,1,0.862,,,,,,001,2025-03-10_19h43.02.428,SL_sali,2021.2.3,Win32,119.047619,,,18,0,18,0,1,,,,,,,,
,,"[""circle"",""green"",""vert"",""up"",[106,106],[0,-150]]",circle,green,vert,up,"[106,106]","[0,-150]",up,1,0.7004,,,,,,001,2025-03-10_19h43.02.428,SL_sali,2021.2.3,Win32,119.047619,,,19,0,19,0,1,,,,,,,,
,,"[""circle"",""no_dis"",""vert"",""up"",[99999,99999],[0,150]]",circle,no_dis,vert,up,"[99999,99999]","[0,150]",up,1,0.7171,,,,,,001,2025-03-10_19h43.02.428,SL_sali,2021.2.3,Win32,119.047619,,,20,0,20,0,1,,,,,,,,
,,"[""circle"",""red"",""hori"",""left"",[106,106],[0,150]]",circle,red,hori,left,"[106,106]","[0,150]",left,1,1.0922,,,,,,001,2025-03-10_19h43.02.428,SL_sali,2021.2.3,Win32,119.047619,,,21,0,21,0,1,,,,,,,,
,,"[""circle"",""no_dis"",""vert"",""up"",[99999,99999],[-150,0]]",circle,no_dis,vert,up,"[99999,99999]","[-150,0]",up,1,0.8348,,,,,,001,2025-03-10_19h43.02.428,SL_sali,2021.2.3,Win32,119.047619,,,22,0,22,0,1,,,,,,,,
,,"[""circle"",""red"",""hori"",""left"",[-150,0],[150,0]]",circle,red,hori,left,"[-150,0]","[150,0]",left,1,1.5922,,,,,,001,2025-03-10_19h43.02.428,SL_sali,2021.2.3,Win32,119.047619,,,23,0,23,0,1,,,,,,,,
,,"[""circle"",""green"",""vert"",""up"",[-150,0],[106,106]]",circle,green,vert,up,"[-150,0]","[106,106]",up,1,0.6288,,,,,,001,2025-03-10_19h43.02.428,SL_sali,2021.2.3,Win32,119.047619,,,24,0,24,0,1,,,,,,,,
,,"[""diamond"",""green"",""hori"",""left"",[-150,0],[-106,-106]]",diamond,green,hori,left,"[-150,0]","[-106,-106]",left,1,1.7585,,,,,,001,2025-03-10_19h43.02.428,SL_sali,2021.2.3,Win32,119.047619,,,25,0,25,0,1,,,,,,,,
,,"[""circle"",""red"",""vert"",""up"",[-150,0],[0,150]]",circle,red,vert,up,"[-150,0]","[0,150]",up,1,1.563,,,,,,001,2025-03-10_19h43.02.428,SL_sali,2021.2.3,Win32,119.047619,,,26,0,26,0,1,,,,,,,,
,,"[""diamond"",""red"",""vert"",""up"",[-150,0],[150,0]]",diamond,red,vert,up,"[-150,0]","[150,0]",up,1,2.0337,,,,,,001,2025-03-10_19h43.02.428,SL_sali,2021.2.3,Win32,119.047619,,,27,0,27,0,1,,,,,,,,
,,"[""circle"",""red"",""hori"",""left"",[150,0],[106,106]]",circle,red,hori,left,"[150,0]","[106,106]",left,1,1.1276,,,,,,001,2025-03-10_19h43.02.428,SL_sali,2021.2.3,Win32,119.047619,,,28,0,28,0,1,,,,,,,,
,,"[""diamond"",""green"",""vert"",""up"",[106,-106],[0,-150]]",diamond,green,vert,up,"[106,-106]","[0,-150]",up,1,1.0587,,,,,,001,2025-03-10_19h43.02.428,SL_sali,2021.2.3,Win32,119.047619,,,29,0,29,0,1,,,,,,,,
,,"[""circle"",""no_dis"",""vert"",""up"",[99999,99999],[106,-106]]",circle,no_dis,vert,up,"[99999,99999]","[106,-106]",up,1,0.8084,,,,,,001,2025-03-10_19h43.02.428,SL_sali,2021.2.3,Win32,119.047619,,,30,0,30,0,1,,,,,,,,
,,"[""diamond"",""no_dis"",""hori"",""left"",[99999,99999],[0,150]]",diamond,no_dis,hori,left,"[99999,99999]","[0,150]",left,1,0.9583,,,,,,001,2025-03-10_19h43.02.428,SL_sali,2021.2.3,Win32,119.047619,,,31,0,31,0,1,,,,,,,,
,,"[""diamond"",""red"",""hori"",""left"",[106,106],[-106,106]]",diamond,red,hori,left,"[106,106]","[-106,106]",up,0,0.9065,,,,,,001,2025-03-10_19h43.02.428,SL_sali,2021.2.3,Win32,119.047619,,,32,0,32,0,1,,,,,,,,
,,"[""circle"",""green"",""vert"",""up"",[106,-106],[0,-150]]",circle,green,vert,up,"[106,-106]","[0,-150]",up,1,1.1257,,,,,,001,2025-03-10_19h43.02.428,SL_sali,2021.2.3,Win32,119.047619,,,33,0,33,0,1,,,,,,,,
,,"[""circle"",""red"",""hori"",""left"",[-150,0],[-106,106]]",circle,red,hori,left,"[-150,0]","[-106,106]",left,1,1.7278,,,,,,001,2025-03-10_19h43.02.428,SL_sali,2021.2.3,Win32,119.047619,,,34,0,34,0,1,,,,,,,,
,,"[""circle"",""red"",""vert"",""up"",[-150,0],[0,-150]]",circle,red,vert,up,"[-150,0]","[0,-150]",left,0,1.6336,,,,,,001,2025-03-10_19h43.02.428,SL_sali,2021.2.3,Win32,119.047619,,,35,0,35,0,1,,,,,,,,
,,"[""diamond"",""red"",""vert"",""up"",[-150,0],[-106,106]]",diamond,red,vert,up,"[-150,0]","[-106,106]",left,0,1.566,,,,,,001,2025-03-10_19h43.02.428,SL_sali,2021.2.3,Win32,119.047619,,,36,0,36,0,1,,,,,,,,
,,"[""circle"",""no_dis"",""vert"",""up"",[99999,99999],[0,-150]]",circle,no_dis,vert,up,"[99999,99999]","[0,-150]",up,1,0.742,,,,,,001,2025-03-10_19h43.02.428,SL_sali,2021.2.3,Win32,119.047619,,,37,0,37,0,1,,,,,,,,
,,"[""circle"",""red"",""vert"",""up"",[-150,0],[-106,106]]",circle,red,vert,up,"[-150,0]","[-106,106]",up,1,1.5919,,,,,,001,2025-03-10_19h43.02.428,SL_sali,2021.2.3,Win32,119.047619,,,38,0,38,0,1,,,,,,,,
,,"[""diamond"",""no_dis"",""hori"",""left"",[99999,99999],[106,106]]",diamond,no_dis,hori,left,"[99999,99999]","[106,106]",left,1,1.0421,,,,,,001,2025-03-10_19h43.02.428,SL_sali,2021.2.3,Win32,119.047619,,,39,0,39,0,1,,,,,,,,
,,"[""diamond"",""no_dis"",""hori"",""left"",[99999,99999],[0,150]]",diamond,no_dis,hori,left,"[99999,99999]","[0,150]",left,1,0.7942,,,,,,001,2025-03-10_19h43.02.428,SL_sali,2021.2.3,Win32,119.047619,,,40,0,40,0,1,,,,,,,,
,,"[""diamond"",""no_dis"",""vert"",""up"",[99999,99999],[150,0]]",diamond,no_dis,vert,up,"[99999,99999]","[150,0]",up,1,0.9338,,,,,,001,2025-03-10_19h43.02.428,SL_sali,2021.2.3,Win32,119.047619,,,41,0,41,0,1,,,,,,,,
,,"[""circle"",""green"",""hori"",""left"",[-150,0],[106,106]]",circle,green,hori,left,"[-150,0]","[106,106]",left,1,0.8339,,,,,,001,2025-03-10_19h43.02.428,SL_sali,2021.2.3,Win32,119.047619,,,42,0,42,0,1,,,,,,,,
,,"[""diamond"",""no_dis"",""vert"",""up"",[99999,99999],[-150,0]]",diamond,no_dis,vert,up,"[99999,99999]","[-150,0]",up,1,0.9257,,,,,,001,2025-03-10_19h43.02.428,SL_sali,2021.2.3,Win32,119.047619,,,43,0,43,0,1,,,,,,,,
,,"[""diamond"",""red"",""hori"",""left"",[0,-150],[106,106]]",diamond,red,hori,left,"[0,-150]","[106,106]",left,1,1.3749,,,,,,001,2025-03-10_19h43.02.428,SL_sali,2021.2.3,Win32,119.047619,,,44,0,44,0,1,,,,,,,,
,,"[""circle"",""green"",""hori"",""left"",[0,150],[0,-150]]",circle,green,hori,left,"[0,150]","[0,-150]",up,0,0.9699,,,,,,001,2025-03-10_19h43.02.428,SL_sali,2021.2.3,Win32,119.047619,,,45,0,45,0,1,,,,,,,,
,,"[""circle"",""no_dis"",""hori"",""left"",[99999,99999],[150,0]]",circle,no_dis,hori,left,"[99999,99999]","[150,0]",left,1,1.3615,,,,,,001,2025-03-10_19h43.02.428,SL_sali,2021.2.3,Win32,119.047619,,,46,0,46,0,1,,,,,,,,
,,"[""diamond"",""no_dis"",""hori"",""left"",[99999,99999],[-106,106]]",diamond,no_dis,hori,left,"[99999,99999]","[-106,106]",left,1,1.567,,,,,,001,2025-03-10_19h43.02.428,SL_sali,2021.2.3,Win32,119.047619,,,47,0,47,0,1,,,,,,,,
,,"[""circle"",""green"",""hori"",""left"",[-106,-106],[0,-150]]",circle,green,hori,left,"[-106,-106]","[0,-150]",left,1,0.9586,,,,,,001,2025-03-10_19h43.02.428,SL_sali,2021.2.3,Win32,119.047619,,,48,0,48,0,1,,,,,,,,
,,"[""circle"",""no_dis"",""vert"",""up"",[99999,99999],[150,0]]",circle,no_dis,vert,up,"[99999,99999]","[150,0]",up,1,1.0504,,,,,,001,2025-03-10_19h43.02.428,SL_sali,2021.2.3,Win32,119.047619,,,49,0,49,0,1,,,,,,,,
,,"[""circle"",""green"",""vert"",""up"",[106,106],[0,150]]",circle,green,vert,up,"[106,106]","[0,150]",left,0,1.8,,,,,,001,2025-03-10_19h43.02.428,SL_sali,2021.2.3,Win32,119.047619,,,50,0,50,0,1,,,,,,,,
,,"[""diamond"",""green"",""hori"",""left"",[106,106],[0,150]]",diamond,green,hori,left,"[106,106]","[0,150]",left,1,0.8341,,,,,,001,2025-03-10_19h43.02.428,SL_sali,2021.2.3,Win32,119.047619,,,51,0,51,0,1,,,,,,,,
,,"[""circle"",""green"",""hori"",""left"",[0,150],[150,0]]",circle,green,hori,left,"[0,150]","[150,0]",left,1,2.6111,,,,,,001,2025-03-10_19h43.02.428,SL_sali,2021.2.3,Win32,119.047619,,,52,0,52,0,1,,,,,,,,
,,"[""circle"",""no_dis"",""vert"",""up"",[99999,99999],[0,-150]]",circle,no_dis,vert,up,"[99999,99999]","[0,-150]",up,1,1.142,,,,,,001,2025-03-10_19h43.02.428,SL_sali,2021.2.3,Win32,119.047619,,,53,0,53,0,1,,,,,,,,
,,"[""circle"",""red"",""hori"",""left"",[-106,-106],[0,-150]]",circle,red,hori,left,"[-106,-106]","[0,-150]",left,1,1.4005,,,,,,001,2025-03-10_19h43.02.428,SL_sali,2021.2.3,Win32,119.047619,,,54,0,54,0,1,,,,,,,,
,,"[""diamond"",""no_dis"",""hori"",""left"",[99999,99999],[-150,0]]",diamond,no_dis,hori,left,"[99999,99999]","[-150,0]",left,1,1.2837,,,,,,001,2025-03-10_19h43.02.428,SL_sali,2021.2.3,Win32,119.047619,,,55,0,55,0,1,,,,,,,,
,,"[""diamond"",""no_dis"",""vert"",""up"",[99999,99999],[-106,106]]",diamond,no_dis,vert,up,"[99999,99999]","[-106,106]",up,1,0.8588,,,,,,001,2025-03-10_19h43.02.428,SL_sali,2021.2.3,Win32,119.047619,,,56,0,56,0,1,,,,,,,,
,,"[""circle"",""no_dis"",""vert"",""up"",[99999,99999],[0,150]]",circle,no_dis,vert,up,"[99999,99999]","[0,150]",up,1,0.7338,,,,,,001,2025-03-10_19h43.02.428,SL_sali,2021.2.3,Win32,119.047619,,,57,0,57,0,1,,,,,,,,
,,"[""circle"",""red"",""hori"",""left"",[-150,0],[0,150]]",circle,red,hori,left,"[-150,0]","[0,150]",left,1,0.9085,,,,,,001,2025-03-10_19h43.02.428,SL_sali,2021.2.3,Win32,119.047619,,,58,0,58,0,1,,,,,,,,
,,"[""diamond"",""red"",""vert"",""up"",[0,150],[106,106]]",diamond,red,vert,up,"[0,150]","[106,106]",up,1,1.3418,,,,,,001,2025-03-10_19h43.02.428,SL_sali,2021.2.3,Win32,119.047619,,,59,0,59,0,1,,,,,,,,
,,"[""circle"",""red"",""hori"",""left"",[150,0],[-150,0]]",circle,red,hori,left,"[150,0]","[-150,0]",left,1,1.4088,,,,,,001,2025-03-10_19h43.02.428,SL_sali,2021.2.3,Win32,119.047619,,,60,0,60,0,1,,,,,,,,
,,"[""diamond"",""green"",""vert"",""up"",[0,-150],[-150,0]]",diamond,green,vert,up,"[0,-150]","[-150,0]",up,1,1.5169,,,,,,001,2025-03-10_19h43.02.428,SL_sali,2021.2.3,Win32,119.047619,,,61,0,61,0,1,,,,,,,,
,,"[""circle"",""no_dis"",""hori"",""left"",[99999,99999],[106,-106]]",circle,no_dis,hori,left,"[99999,99999]","[106,-106]",left,1,0.9451,,,,,,001,2025-03-10_19h43.02.428,SL_sali,2021.2.3,Win32,119.047619,,,62,0,62,0,1,,,,,,,,
,,"[""circle"",""green"",""vert"",""up"",[-106,-106],[-106,106]]",circle,green,vert,up,"[-106,-106]","[-106,106]",up,1,0.9835,,,,,,001,2025-03-10_19h43.02.428,SL_sali,2021.2.3,Win32,119.047619,,,63,0,63,0,1,,,,,,,,
,,"[""diamond"",""red"",""vert"",""up"",[106,-106],[0,-150]]",diamond,red,vert,up,"[106,-106]","[0,-150]",up,1,1.417,,,,,,001,2025-03-10_19h43.02.428,SL_sali,2021.2.3,Win32,119.047619,,,64,0,64,0,1,,,,,,,,
,,"[""diamond"",""green"",""vert"",""up"",[-150,0],[150,0]]",diamond,green,vert,up,"[-150,0]","[150,0]",up,1,0.9588,,,,,,001,2025-03-10_19h43.02.428,SL_sali,2021.2.3,Win32,119.047619,,,65,0,65,0,1,,,,,,,,
,,"[""diamond"",""green"",""hori"",""left"",[-150,0],[0,-150]]",diamond,green,hori,left,"[-150,0]","[0,-150]",left,1,1.0923,,,,,,001,2025-03-10_19h43.02.428,SL_sali,2021.2.3,Win32,119.047619,,,66,0,66,0,1,,,,,,,,
,,"[""diamond"",""no_dis"",""hori"",""left"",[99999,99999],[-106,-106]]",diamond,no_dis,hori,left,"[99999,99999]","[-106,-106]",up,0,0.8586,,,,,,001,2025-03-10_19h43.02.428,SL_sali,2021.2.3,Win32,119.047619,,,67,0,67,0,1,,,,,,,,
,,"[""circle"",""green"",""hori"",""left"",[150,0],[0,150]]",circle,green,hori,left,"[150,0]","[0,150]",left,1,1.0499,,,,,,001,2025-03-10_19h43.02.428,SL_sali,2021.2.3,Win32,119.047619,,,68,0,68,0,1,,,,,,,,
,,"[""diamond"",""no_dis"",""vert"",""up"",[99999,99999],[-106,-106]]",diamond,no_dis,vert,up,"[99999,99999]","[-106,-106]",up,1,1.1909,,,,,,001,2025-03-10_19h43.02.428,SL_sali,2021.2.3,Win32,119.047619,,,69,0,69,0,1,,,,,,,,
,,"[""circle"",""green"",""vert"",""up"",[-106,106],[-150,0]]",circle,green,vert,up,"[-106,106]","[-150,0]",up,1,1.5389,,,,,,001,2025-03-10_19h43.02.428,SL_sali,2021.2.3,Win32,119.047619,,,70,0,70,0,1,,,,,,,,
,,"[""circle"",""green"",""hori"",""left"",[-150,0],[106,106]]",circle,green,hori,left,"[-150,0]","[106,106]",left,1,0.6421,,,,,,001,2025-03-10_19h43.02.428,SL_sali,2021.2.3,Win32,119.047619,,,71,0,71,0,1,,,,,,,,
,,"[""circle"",""green"",""hori"",""left"",[-150,0],[-106,-106]]",circle,green,hori,left,"[-150,0]","[-106,-106]",left,1,0.8337,,,,,,001,2025-03-10_19h43.02.428,SL_sali,2021.2.3,Win32,119.047619,,,72,0,72,0,1,,,,,,,,
,,"[""circle"",""red"",""vert"",""up"",[-106,106],[0,-150]]",circle,red,vert,up,"[-106,106]","[0,-150]",up,1,1.18,,,,,,001,2025-03-10_19h43.02.428,SL_sali,2021.2.3,Win32,119.047619,,,73,0,73,0,1,,,,,,,,
,,"[""circle"",""red"",""hori"",""left"",[-150,0],[106,106]]",circle,red,hori,left,"[-150,0]","[106,106]",left,1,0.6755,,,,,,001,2025-03-10_19h43.02.428,SL_sali,2021.2.3,Win32,119.047619,,,74,0,74,0,1,,,,,,,,
,,"[""diamond"",""red"",""vert"",""up"",[106,-106],[106,106]]",diamond,red,vert,up,"[106,-106]","[106,106]",up,1,1.3252,,,,,,001,2025-03-10_19h43.02.428,SL_sali,2021.2.3,Win32,119.047619,,,75,0,75,0,1,,,,,,,,
,,"[""diamond"",""no_dis"",""hori"",""left"",[99999,99999],[-106,106]]",diamond,no_dis,hori,left,"[99999,99999]","[-106,106]",left,1,1.6914,,,,,,001,2025-03-10_19h43.02.428,SL_sali,2021.2.3,Win32,119.047619,,,76,0,76,0,1,,,,,,,,
,,"[""circle"",""no_dis"",""hori"",""left"",[99999,99999],[0,-150]]",circle,no_dis,hori,left,"[99999,99999]","[0,-150]",left,1,1.1192,,,,,,001,2025-03-10_19h43.02.428,SL_sali,2021.2.3,Win32,119.047619,,,77,0,77,0,1,,,,,,,,
,,"[""diamond"",""green"",""vert"",""up"",[150,0],[0,150]]",diamond,green,vert,up,"[150,0]","[0,150]",up,1,0.8413,,,,,,001,2025-03-10_19h43.02.428,SL_sali,2021.2.3,Win32,119.047619,,,78,0,78,0,1,,,,,,,,
,,"[""diamond"",""no_dis"",""vert"",""up"",[99999,99999],[106,106]]",diamond,no_dis,vert,up,"[99999,99999]","[106,106]",up,1,0.8887,,,,,,001,2025-03-10_19h43.02.428,SL_sali,2021.2.3,Win32,119.047619,,,79,0,79,0,1,,,,,,,,
,,"[""diamond"",""green"",""hori"",""left"",[-106,106],[0,150]]",diamond,green,hori,left,"[-106,106]","[0,150]",left,1,1.3613,,,,,,001,2025-03-10_19h43.02.428,SL_sali,2021.2.3,Win32,119.047619,,,80,0,80,0,1,,,,,,,,
,,"[""diamond"",""green"",""hori"",""left"",[106,-106],[0,150]]",diamond,green,hori,left,"[106,-106]","[0,150]",left,1,1.3368,,,,,,001,2025-03-10_19h43.02.428,SL_sali,2021.2.3,Win32,119.047619,,,81,0,81,0,1,,,,,,,,
,,"[""diamond"",""no_dis"",""vert"",""up"",[99999,99999],[0,150]]",diamond,no_dis,vert,up,"[99999,99999]","[0,150]",up,1,0.8003,,,,,,001,2025-03-10_19h43.02.428,SL_sali,2021.2.3,Win32,119.047619,,,82,0,82,0,1,,,,,,,,
,,"[""diamond"",""red"",""vert"",""up"",[-106,-106],[0,150]]",diamond,red,vert,up,"[-106,-106]","[0,150]",up,1,0.9422,,,,,,001,2025-03-10_19h43.02.428,SL_sali,2021.2.3,Win32,119.047619,,,83,0,83,0,1,,,,,,,,
,,"[""circle"",""no_dis"",""hori"",""left"",[99999,99999],[106,-106]]",circle,no_dis,hori,left,"[99999,99999]","[106,-106]",left,1,1.4004,,,,,,001,2025-03-10_19h43.02.428,SL_sali,2021.2.3,Win32,119.047619,,,84,0,84,0,1,,,,,,,,
,,"[""diamond"",""no_dis"",""hori"",""left"",[99999,99999],[106,-106]]",diamond,no_dis,hori,left,"[99999,99999]","[106,-106]",left,1,0.863,,,,,,001,2025-03-10_19h43.02.428,SL_sali,2021.2.3,Win32,119.047619,,,85,0,85,0,1,,,,,,,,
,,"[""diamond"",""no_dis"",""vert"",""up"",[99999,99999],[106,106]]",diamond,no_dis,vert,up,"[99999,99999]","[106,106]",up,1,1.6042,,,,,,001,2025-03-10_19h43.02.428,SL_sali,2021.2.3,Win32,119.047619,,,86,0,86,0,1,,,,,,,,
,,"[""diamond"",""red"",""hori"",""left"",[106,106],[0,-150]]",diamond,red,hori,left,"[106,106]","[0,-150]",left,1,2.0084,,,,,,001,2025-03-10_19h43.02.428,SL_sali,2021.2.3,Win32,119.047619,,,87,0,87,0,1,,,,,,,,
,,"[""diamond"",""green"",""vert"",""up"",[0,150],[150,0]]",diamond,green,vert,up,"[0,150]","[150,0]",up,1,1.1249,,,,,,001,2025-03-10_19h43.02.428,SL_sali,2021.2.3,Win32,119.047619,,,88,0,88,0,1,,,,,,,,
,,"[""diamond"",""green"",""vert"",""up"",[-106,-106],[106,106]]",diamond,green,vert,up,"[-106,-106]","[106,106]",up,1,1.2086,,,,,,001,2025-03-10_19h43.02.428,SL_sali,2021.2.3,Win32,119.047619,,,89,0,89,0,1,,,,,,,,
,,"[""diamond"",""red"",""hori"",""left"",[106,-106],[0,150]]",diamond,red,hori,left,"[106,-106]","[0,150]",left,1,1.203,,,,,,001,2025-03-10_19h43.02.428,SL_sali,2021.2.3,Win32,119.047619,,,90,0,90,0,1,,,,,,,,
,,"[""diamond"",""red"",""vert"",""up"",[-106,106],[0,150]]",diamond,red,vert,up,"[-106,106]","[0,150]",up,1,1.4497,,,,,,001,2025-03-10_19h43.02.428,SL_sali,2021.2.3,Win32,119.047619,,,91,0,91,0,1,,,,,,,,
,,"[""circle"",""red"",""vert"",""up"",[150,0],[-106,106]]",circle,red,vert,up,"[150,0]","[-106,106]",up,1,2.2205,,,,,,001,2025-03-10_19h43.02.428,SL_sali,2021.2.3,Win32,119.047619,,,92,0,92,0,1,,,,,,,,
,,"[""circle"",""no_dis"",""hori"",""left"",[99999,99999],[106,-106]]",circle,no_dis,hori,left,"[99999,99999]","[106,-106]",left,1,0.6173,,,,,,001,2025-03-10_19h43.02.428,SL_sali,2021.2.3,Win32,119.047619,,,93,0,93,0,1,,,,,,,,
,,"[""circle"",""green"",""hori"",""left"",[0,150],[-106,-106]]",circle,green,hori,left,"[0,150]","[-106,-106]",left,1,0.9589,,,,,,001,2025-03-10_19h43.02.428,SL_sali,2021.2.3,Win32,119.047619,,,94,0,94,0,1,,,,,,,,
,,"[""diamond"",""red"",""hori"",""left"",[-150,0],[-106,-106]]",diamond,red,hori,left,"[-150,0]","[-106,-106]",left,1,1.1643,,,,,,001,2025-03-10_19h43.02.428,SL_sali,2021.2.3,Win32,119.047619,,,95,0,95,0,1,,,,,,,,
,,"[""diamond"",""red"",""vert"",""up"",[0,150],[-106,106]]",diamond,red,vert,up,"[0,150]","[-106,106]",up,1,2.1201,,,,,,001,2025-03-10_19h43.02.428,SL_sali,2021.2.3,Win32,119.047619,,,96,0,96,0,1,,,,,,,,
,,"[""circle"",""red"",""vert"",""up"",[-106,106],[106,106]]",circle,red,vert,up,"[-106,106]","[106,106]",up,1,1.267,,,,,,001,2025-03-10_19h43.02.428,SL_sali,2021.2.3,Win32,119.047619,,,97,0,97,0,1,,,,,,,,
,,"[""diamond"",""green"",""vert"",""up"",[-106,106],[106,106]]",diamond,green,vert,up,"[-106,106]","[106,106]",up,1,1.216,,,,,,001,2025-03-10_19h43.02.428,SL_sali,2021.2.3,Win32,119.047619,,,98,0,98,0,1,,,,,,,,
,,"[""circle"",""no_dis"",""hori"",""left"",[99999,99999],[-150,0]]",circle,no_dis,hori,left,"[99999,99999]","[-150,0]",left,1,0.6618,,,,,,001,2025-03-10_19h43.02.428,SL_sali,2021.2.3,Win32,119.047619,,,99,0,99,0,1,,,,,,,,
,,"[""diamond"",""green"",""hori"",""left"",[150,0],[0,150]]",diamond,green,hori,left,"[150,0]","[0,150]",left,1,1.5195,,,,,,001,2025-03-10_19h43.02.428,SL_sali,2021.2.3,Win32,119.047619,,,100,0,100,0,1,,,,,,,,
,,"[""diamond"",""green"",""vert"",""up"",[-106,-106],[-150,0]]",diamond,green,vert,up,"[-106,-106]","[-150,0]",up,1,0.867,,,,,,001,2025-03-10_19h43.02.428,SL_sali,2021.2.3,Win32,119.047619,,,101,0,101,0,1,,,,,,,,
,,"[""circle"",""red"",""hori"",""left"",[106,-106],[-106,106]]",circle,red,hori,left,"[106,-106]","[-106,106]",left,1,1.425,,,,,,001,2025-03-10_19h43.02.428,SL_sali,2021.2.3,Win32,119.047619,,,102,0,102,0,1,,,,,,,,
,,"[""circle"",""no_dis"",""hori"",""left"",[99999,99999],[0,-150]]",circle,no_dis,hori,left,"[99999,99999]","[0,-150]",left,1,0.6084,,,,,,001,2025-03-10_19h43.02.428,SL_sali,2021.2.3,Win32,119.047619,,,103,0,103,0,1,,,,,,,,
,,"[""diamond"",""red"",""hori"",""left"",[-150,0],[106,106]]",diamond,red,hori,left,"[-150,0]","[106,106]",left,1,0.9083,,,,,,001,2025-03-10_19h43.02.428,SL_sali,2021.2.3,Win32,119.047619,,,104,0,104,0,1,,,,,,,,
,,"[""diamond"",""red"",""vert"",""up"",[0,-150],[106,106]]",diamond,red,vert,up,"[0,-150]","[106,106]",up,1,1.2493,,,,,,001,2025-03-10_19h43.02.428,SL_sali,2021.2.3,Win32,119.047619,,,105,0,105,0,1,,,,,,,,
,,"[""diamond"",""red"",""vert"",""up"",[0,-150],[-150,0]]",diamond,red,vert,up,"[0,-150]","[-150,0]",up,1,1.0921,,,,,,001,2025-03-10_19h43.02.428,SL_sali,2021.2.3,Win32,119.047619,,,106,0,106,0,1,,,,,,,,
,,"[""diamond"",""green"",""hori"",""left"",[0,-150],[0,150]]",diamond,green,hori,left,"[0,-150]","[0,150]",left,1,1.0087,,,,,,001,2025-03-10_19h43.02.428,SL_sali,2021.2.3,Win32,119.047619,,,107,0,107,0,1,,,,,,,,
,,"[""circle"",""green"",""vert"",""up"",[-150,0],[0,150]]",circle,green,vert,up,"[-150,0]","[0,150]",up,1,0.9793,,,,,,001,2025-03-10_19h43.02.428,SL_sali,2021.2.3,Win32,119.047619,,,108,0,108,0,1,,,,,,,,
,,"[""diamond"",""no_dis"",""vert"",""up"",[99999,99999],[-106,-106]]",diamond,no_dis,vert,up,"[99999,99999]","[-106,-106]",up,1,1.054,,,,,,001,2025-03-10_19h43.02.428,SL_sali,2021.2.3,Win32,119.047619,,,109,0,109,0,1,,,,,,,,
,,"[""diamond"",""red"",""hori"",""left"",[0,150],[-106,106]]",diamond,red,hori,left,"[0,150]","[-106,106]",left,1,1.1993,,,,,,001,2025-03-10_19h43.02.428,SL_sali,2021.2.3,Win32,119.047619,,,110,0,110,0,1,,,,,,,,
,,"[""diamond"",""green"",""hori"",""left"",[-106,-106],[-150,0]]",diamond,green,hori,left,"[-106,-106]","[-150,0]",left,1,1.3168,,,,,,001,2025-03-10_19h43.02.428,SL_sali,2021.2.3,Win32,119.047619,,,111,0,111,0,1,,,,,,,,
,,"[""circle"",""red"",""vert"",""up"",[0,-150],[-106,106]]",circle,red,vert,up,"[0,-150]","[-106,106]",up,1,1.3189,,,,,,001,2025-03-10_19h43.02.428,SL_sali,2021.2.3,Win32,119.047619,,,112,0,112,0,1,,,,,,,,
,,"[""circle"",""no_dis"",""hori"",""left"",[99999,99999],[-106,-106]]",circle,no_dis,hori,left,"[99999,99999]","[-106,-106]",left,1,0.7029,,,,,,001,2025-03-10_19h43.02.428,SL_sali,2021.2.3,Win32,119.047619,,,113,0,113,0,1,,,,,,,,
,,"[""diamond"",""no_dis"",""hori"",""left"",[99999,99999],[-106,106]]",diamond,no_dis,hori,left,"[99999,99999]","[-106,106]",left,1,1.067,,,,,,001,2025-03-10_19h43.02.428,SL_sali,2021.2.3,Win32,119.047619,,,114,0,114,0,1,,,,,,,,
,,"[""diamond"",""no_dis"",""vert"",""up"",[99999,99999],[-150,0]]",diamond,no_dis,vert,up,"[99999,99999]","[-150,0]",up,1,0.8169,,,,,,001,2025-03-10_19h43.02.428,SL_sali,2021.2.3,Win32,119.047619,,,115,0,115,0,1,,,,,,,,
,,"[""circle"",""red"",""hori"",""left"",[-106,-106],[150,0]]",circle,red,hori,left,"[-106,-106]","[150,0]",left,1,1.6336,,,,,,001,2025-03-10_19h43.02.428,SL_sali,2021.2.3,Win32,119.047619,,,116,0,116,0,1,,,,,,,,
,,"[""circle"",""red"",""vert"",""up"",[0,-150],[106,-106]]",circle,red,vert,up,"[0,-150]","[106,-106]",up,1,1.5252,,,,,,001,2025-03-10_19h43.02.428,SL_sali,2021.2.3,Win32,119.047619,,,117,0,117,0,1,,,,,,,,
,,"[""diamond"",""red"",""hori"",""left"",[0,-150],[-150,0]]",diamond,red,hori,left,"[0,-150]","[-150,0]",left,1,1.0751,,,,,,001,2025-03-10_19h43.02.428,SL_sali,2021.2.3,Win32,119.047619,,,118,0,118,0,1,,,,,,,,
,,"[""circle"",""no_dis"",""hori"",""left"",[99999,99999],[106,106]]",circle,no_dis,hori,left,"[99999,99999]","[106,106]",left,1,0.6153,,,,,,001,2025-03-10_19h43.02.428,SL_sali,2021.2.3,Win32,119.047619,,,119,0,119,0,1,,,,,,,,
,,,,,,,,,,,,,,,,,001,2025-03-10_19h43.02.428,SL_sali,2021.2.3,Win32,119.047619,,,,,,,,3,space,2.6815,2,0,2,0,1
,,"[""diamond"",""red"",""hori"",""left"",[106,-106],[0,150]]",diamond,red,hori,left,"[106,-106]","[0,150]",left,1,1.0546,,,,,,001,2025-03-10_19h43.02.428,SL_sali,2021.2.3,Win32,119.047619,,,0,0,0,0,1,,,,,,,,
,,"[""circle"",""red"",""hori"",""left"",[150,0],[-150,0]]",circle,red,hori,left,"[150,0]","[-150,0]",left,1,1.6069,,,,,,001,2025-03-10_19h43.02.428,SL_sali,2021.2.3,Win32,119.047619,,,1,0,1,0,1,,,,,,,,
,,"[""circle"",""red"",""hori"",""left"",[-106,-106],[150,0]]",circle,red,hori,left,"[-106,-106]","[150,0]",left,1,1.3901,,,,,,001,2025-03-10_19h43.02.428,SL_sali,2021.2.3,Win32,119.047619,,,2,0,2,0,1,,,,,,,,
,,"[""circle"",""green"",""vert"",""up"",[106,-106],[150,0]]",circle,green,vert,up,"[106,-106]","[150,0]",up,1,0.7555,,,,,,001,2025-03-10_19h43.02.428,SL_sali,2021.2.3,Win32,119.047619,,,3,0,3,0,1,,,,,,,,
,,"[""circle"",""no_dis"",""hori"",""left"",[99999,99999],[106,-106]]",circle,no_dis,hori,left,"[99999,99999]","[106,-106]",left,1,0.6546,,,,,,001,2025-03-10_19h43.02.428,SL_sali,2021.2.3,Win32,119.047619,,,4,0,4,0,1,,,,,,,,
,,"[""circle"",""no_dis"",""vert"",""up"",[99999,99999],[0,-150]]",circle,no_dis,vert,up,"[99999,99999]","[0,-150]",up,1,0.8977,,,,,,001,2025-03-10_19h43.02.428,SL_sali,2021.2.3,Win32,119.047619,,,5,0,5,0,1,,,,,,,,
,,"[""diamond"",""no_dis"",""hori"",""left"",[99999,99999],[-106,106]]",diamond,no_dis,hori,left,"[99999,99999]","[-106,106]",left,1,1.249,,,,,,001,2025-03-10_19h43.02.428,SL_sali,2021.2.3,Win32,119.047619,,,6,0,6,0,1,,,,,,,,
,,"[""diamond"",""no_dis"",""vert"",""up"",[99999,99999],[-150,0]]",diamond,no_dis,vert,up,"[99999,99999]","[-150,0]",up,1,0.7002,,,,,,001,2025-03-10_19h43.02.428,SL_sali,2021.2.3,Win32,119.047619,,,7,0,7,0,1,,,,,,,,
,,"[""diamond"",""no_dis"",""hori"",""left"",[99999,99999],[0,150]]",diamond,no_dis,hori,left,"[99999,99999]","[0,150]",left,1,0.7737,,,,,,001,2025-03-10_19h43.02.428,SL_sali,2021.2.3,Win32,119.047619,,,8,0,8,0,1,,,,,,,,
,,"[""circle"",""green"",""vert"",""up"",[-106,-106],[-106,106]]",circle,green,vert,up,"[-106,-106]","[-106,106]",up,1,1.0258,,,,,,001,2025-03-10_19h43.02.428,SL_sali,2021.2.3,Win32,119.047619,,,9,0,9,0,1,,,,,,,,
,,"[""circle"",""green"",""hori"",""left"",[-150,0],[-106,-106]]",circle,green,hori,left,"[-150,0]","[-106,-106]",left,1,0.6983,,,,,,001,2025-03-10_19h43.02.428,SL_sali,2021.2.3,Win32,119.047619,,,10,0,10,0,1,,,,,,,,
,,"[""circle"",""no_dis"",""hori"",""left"",[99999,99999],[150,0]]",circle,no_dis,hori,left,"[99999,99999]","[150,0]",left,1,0.724,,,,,,001,2025-03-10_19h43.02.428,SL_sali,2021.2.3,Win32,119.047619,,,11,0,11,0,1,,,,,,,,
,,"[""circle"",""red"",""hori"",""left"",[-150,0],[0,150]]",circle,red,hori,left,"[-150,0]","[0,150]",left,1,1.675,,,,,,001,2025-03-10_19h43.02.428,SL_sali,2021.2.3,Win32,119.047619,,,12,0,12,0,1,,,,,,,,
,,"[""diamond"",""red"",""hori"",""left"",[-106,106],[150,0]]",diamond,red,hori,left,"[-106,106]","[150,0]",left,1,2.1459,,,,,,001,2025-03-10_19h43.02.428,SL_sali,2021.2.3,Win32,119.047619,,,13,0,13,0,1,,,,,,,,
,,"[""circle"",""green"",""hori"",""left"",[0,150],[0,-150]]",circle,green,hori,left,"[0,150]","[0,-150]",left,1,0.8683,,,,,,001,2025-03-10_19h43.02.428,SL_sali,2021.2.3,Win32,119.047619,,,14,0,14,0,1,,,,,,,,
,,"[""circle"",""green"",""vert"",""up"",[106,106],[150,0]]",circle,green,vert,up,"[106,106]","[150,0]",up,1,0.7908,,,,,,001,2025-03-10_19h43.02.428,SL_sali,2021.2.3,Win32,119.047619,,,15,0,15,0,1,,,,,,,,
,,"[""circle"",""red"",""hori"",""left"",[-106,-106],[0,-150]]",circle,red,hori,left,"[-106,-106]","[0,-150]",left,1,1.3093,,,,,,001,2025-03-10_19h43.02.428,SL_sali,2021.2.3,Win32,119.047619,,,16,0,16,0,1,,,,,,,,
,,"[""diamond"",""red"",""vert"",""up"",[106,-106],[106,106]]",diamond,red,vert,up,"[106,-106]","[106,106]",left,0,2.3884,,,,,,001,2025-03-10_19h43.02.428,SL_sali,2021.2.3,Win32,119.047619,,,17,0,17,0,1,,,,,,,,
,,"[""circle"",""green"",""vert"",""up"",[-150,0],[106,-106]]",circle,green,vert,up,"[-150,0]","[106,-106]",up,1,0.691,,,,,,001,2025-03-10_19h43.02.428,SL_sali,2021.2.3,Win32,119.047619,,,18,0,18,0,1,,,,,,,,
,,"[""circle"",""no_dis"",""hori"",""left"",[99999,99999],[-106,-106]]",circle,no_dis,hori,left,"[99999,99999]","[-106,-106]",left,1,0.6844,,,,,,001,2025-03-10_19h43.02.428,SL_sali,2021.2.3,Win32,119.047619,,,19,0,19,0,1,,,,,,,,
,,"[""circle"",""green"",""hori"",""left"",[106,106],[-150,0]]",circle,green,hori,left,"[106,106]","[-150,0]",left,1,0.897,,,,,,001,2025-03-10_19h43.02.428,SL_sali,2021.2.3,Win32,119.047619,,,20,0,20,0,1,,,,,,,,
,,"[""circle"",""green"",""vert"",""up"",[106,-106],[0,-150]]",circle,green,vert,up,"[106,-106]","[0,-150]",up,1,0.649,,,,,,001,2025-03-10_19h43.02.428,SL_sali,2021.2.3,Win32,119.047619,,,21,0,21,0,1,,,,,,,,
,,"[""diamond"",""green"",""vert"",""up"",[0,-150],[-150,0]]",diamond,green,vert,up,"[0,-150]","[-150,0]",up,1,0.8253,,,,,,001,2025-03-10_19h43.02.428,SL_sali,2021.2.3,Win32,119.047619,,,22,0,22,0,1,,,,,,,,
,,"[""diamond"",""red"",""vert"",""up"",[0,150],[-106,106]]",diamond,red,vert,up,"[0,150]","[-106,106]",up,1,1.3894,,,,,,001,2025-03-10_19h43.02.428,SL_sali,2021.2.3,Win32,119.047619,,,23,0,23,0,1,,,,,,,,
,,"[""diamond"",""green"",""hori"",""left"",[-150,0],[0,-150]]",diamond,green,hori,left,"[-150,0]","[0,-150]",left,1,0.9795,,,,,,001,2025-03-10_19h43.02.428,SL_sali,2021.2.3,Win32,119.047619,,,24,0,24,0,1,,,,,,,,
,,"[""circle"",""red"",""vert"",""up"",[-150,0],[-106,-106]]",circle,red,vert,up,"[-150,0]","[-106,-106]",up,1,1.4548,,,,,,001,2025-03-10_19h43.02.428,SL_sali,2021.2.3,Win32,119.047619,,,25,0,25,0,1,,,,,,,,
,,"[""diamond"",""no_dis"",""vert"",""up"",[99999,99999],[106,106]]",diamond,no_dis,vert,up,"[99999,99999]","[106,106]",up,1,1.5375,,,,,,001,2025-03-10_19h43.02.428,SL_sali,2021.2.3,Win32,119.047619,,,26,0,26,0,1,,,,,,,,
,,"[""diamond"",""red"",""hori"",""left"",[150,0],[0,-150]]",diamond,red,hori,left,"[150,0]","[0,-150]",left,1,1.7411,,,,,,001,2025-03-10_19h43.02.428,SL_sali,2021.2.3,Win32,119.047619,,,27,0,27,0,1,,,,,,,,
,,"[""circle"",""red"",""hori"",""left"",[150,0],[106,106]]",circle,red,hori,left,"[150,0]","[106,106]",left,1,1.1718,,,,,,001,2025-03-10_19h43.02.428,SL_sali,2021.2.3,Win32,119.047619,,,28,0,28,0,1,,,,,,,,
,,"[""circle"",""no_dis"",""hori"",""left"",[99999,99999],[150,0]]",circle,no_dis,hori,left,"[99999,99999]","[150,0]",left,1,0.6354,,,,,,001,2025-03-10_19h43.02.428,SL_sali,2021.2.3,Win32,119.047619,,,29,0,29,0,1,,,,,,,,
,,"[""diamond"",""red"",""hori"",""left"",[-150,0],[106,106]]",diamond,red,hori,left,"[-150,0]","[106,106]",left,1,1.0499,,,,,,001,2025-03-10_19h43.02.428,SL_sali,2021.2.3,Win32,119.047619,,,30,0,30,0,1,,,,,,,,
,,"[""diamond"",""red"",""vert"",""up"",[0,150],[106,106]]",diamond,red,vert,up,"[0,150]","[106,106]",up,1,1.2083,,,,,,001,2025-03-10_19h43.02.428,SL_sali,2021.2.3,Win32,119.047619,,,31,0,31,0,1,,,,,,,,
,,"[""diamond"",""green"",""vert"",""up"",[150,0],[0,150]]",diamond,green,vert,up,"[150,0]","[0,150]",up,1,0.8232,,,,,,001,2025-03-10_19h43.02.428,SL_sali,2021.2.3,Win32,119.047619,,,32,0,32,0,1,,,,,,,,
,,"[""diamond"",""green"",""vert"",""up"",[-150,0],[0,150]]",diamond,green,vert,up,"[-150,0]","[0,150]",up,1,0.9945,,,,,,001,2025-03-10_19h43.02.428,SL_sali,2021.2.3,Win32,119.047619,,,33,0,33,0,1,,,,,,,,
,,"[""circle"",""red"",""hori"",""left"",[106,106],[0,150]]",circle,red,hori,left,"[106,106]","[0,150]",left,1,1.5147,,,,,,001,2025-03-10_19h43.02.428,SL_sali,2021.2.3,Win32,119.047619,,,34,0,34,0,1,,,,,,,,
,,"[""circle"",""red"",""vert"",""up"",[0,150],[-106,106]]",circle,red,vert,up,"[0,150]","[-106,106]",up,1,1.8276,,,,,,001,2025-03-10_19h43.02.428,SL_sali,2021.2.3,Win32,119.047619,,,35,0,35,0,1,,,,,,,,
,,"[""diamond"",""no_dis"",""vert"",""up"",[99999,99999],[150,0]]",diamond,no_dis,vert,up,"[99999,99999]","[150,0]",up,1,0.8824,,,,,,001,2025-03-10_19h43.02.428,SL_sali,2021.2.3,Win32,119.047619,,,36,0,36,0,1,,,,,,,,
,,"[""diamond"",""no_dis"",""vert"",""up"",[99999,99999],[106,106]]",diamond,no_dis,vert,up,"[99999,99999]","[106,106]",up,1,0.5909,,,,,,001,2025-03-10_19h43.02.428,SL_sali,2021.2.3,Win32,119.047619,,,37,0,37,0,1,,,,,,,,
,,"[""diamond"",""red"",""hori"",""left"",[0,-150],[-150,0]]",diamond,red,hori,left,"[0,-150]","[-150,0]",left,1,1.4629,,,,,,001,2025-03-10_19h43.02.428,SL_sali,2021.2.3,Win32,119.047619,,,38,0,38,0,1,,,,,,,,
,,"[""diamond"",""red"",""vert"",""up"",[-106,106],[0,150]]",diamond,red,vert,up,"[-106,106]","[0,150]",up,1,1.0209,,,,,,001,2025-03-10_19h43.02.428,SL_sali,2021.2.3,Win32,119.047619,,,39,0,39,0,1,,,,,,,,
,,"[""diamond"",""green"",""vert"",""up"",[-150,0],[106,106]]",diamond,green,vert,up,"[-150,0]","[106,106]",up,1,0.6868,,,,,,001,2025-03-10_19h43.02.428,SL_sali,2021.2.3,Win32,119.047619,,,40,0,40,0,1,,,,,,,,
,,"[""circle"",""red"",""vert"",""up"",[0,-150],[-106,106]]",circle,red,vert,up,"[0,-150]","[-106,106]",up,1,1.1601,,,,,,001,2025-03-10_19h43.02.428,SL_sali,2021.2.3,Win32,119.047619,,,41,0,41,0,1,,,,,,,,
,,"[""diamond"",""no_dis"",""hori"",""left"",[99999,99999],[-150,0]]",diamond,no_dis,hori,left,"[99999,99999]","[-150,0]",left,1,1.1288,,,,,,001,2025-03-10_19h43.02.428,SL_sali,2021.2.3,Win32,119.047619,,,42,0,42,0,1,,,,,,,,
,,"[""circle"",""green"",""hori"",""left"",[150,0],[0,150]]",circle,green,hori,left,"[150,0]","[0,150]",left,1,1.0395,,,,,,001,2025-03-10_19h43.02.428,SL_sali,2021.2.3,Win32,119.047619,,,43,0,43,0,1,,,,,,,,
,,"[""circle"",""no_dis"",""hori"",""left"",[99999,99999],[0,-150]]",circle,no_dis,hori,left,"[99999,99999]","[0,-150]",left,1,0.9095,,,,,,001,2025-03-10_19h43.02.428,SL_sali,2021.2.3,Win32,119.047619,,,44,0,44,0,1,,,,,,,,
,,"[""diamond"",""no_dis"",""hori"",""left"",[99999,99999],[0,150]]",diamond,no_dis,hori,left,"[99999,99999]","[0,150]",left,1,1.3808,,,,,,001,2025-03-10_19h43.02.428,SL_sali,2021.2.3,Win32,119.047619,,,45,0,45,0,1,,,,,,,,
,,"[""diamond"",""red"",""vert"",""up"",[106,-106],[0,-150]]",diamond,red,vert,up,"[106,-106]","[0,-150]",up,1,0.9296,,,,,,001,2025-03-10_19h43.02.428,SL_sali,2021.2.3,Win32,119.047619,,,46,0,46,0,1,,,,,,,,
,,"[""diamond"",""green"",""hori"",""left"",[150,0],[0,150]]",diamond,green,hori,left,"[150,0]","[0,150]",left,1,0.714,,,,,,001,2025-03-10_19h43.02.428,SL_sali,2021.2.3,Win32,119.047619,,,47,0,47,0,1,,,,,,,,
,,"[""circle"",""no_dis"",""vert"",""up"",[99999,99999],[-106,-106]]",circle,no_dis,vert,up,"[99999,99999]","[-106,-106]",up,1,1.4405,,,,,,001,2025-03-10_19h43.02.428,SL_sali,2021.2.3,Win32,119.047619,,,48,0,48,0,1,,,,,,,,
,,"[""diamond"",""green"",""hori"",""left"",[-106,106],[0,150]]",diamond,green,hori,left,"[-106,106]","[0,150]",up,0,2.3409,,,,,,001,2025-03-10_19h43.02.428,SL_sali,2021.2.3,Win32,119.047619,,,49,0,49,0,1,,,,,,,,
,,"[""diamond"",""no_dis"",""hori"",""left"",[99999,99999],[106,106]]",diamond,no_dis,hori,left,"[99999,99999]","[106,106]",left,1,1.2375,,,,,,001,2025-03-10_19h43.02.428,SL_sali,2021.2.3,Win32,119.047619,,,50,0,50,0,1,,,,,,,,
,,"[""circle"",""red"",""vert"",""up"",[150,0],[-106,106]]",circle,red,vert,up,"[150,0]","[-106,106]",up,1,1.1803,,,,,,001,2025-03-10_19h43.02.428,SL_sali,2021.2.3,Win32,119.047619,,,51,0,51,0,1,,,,,,,,
,,"[""circle"",""red"",""hori"",""left"",[-150,0],[150,0]]",circle,red,hori,left,"[-150,0]","[150,0]",left,1,0.935,,,,,,001,2025-03-10_19h43.02.428,SL_sali,2021.2.3,Win32,119.047619,,,52,0,52,0,1,,,,,,,,
,,"[""diamond"",""green"",""hori"",""left"",[-106,106],[0,150]]",diamond,green,hori,left,"[-106,106]","[0,150]",left,1,1.6635,,,,,,001,2025-03-10_19h43.02.428,SL_sali,2021.2.3,Win32,119.047619,,,53,0,53,0,1,,,,,,,,
,,"[""diamond"",""no_dis"",""vert"",""up"",[99999,99999],[-106,-106]]",diamond,no_dis,vert,up,"[99999,99999]","[-106,-106]",left,0,0.7301,,,,,,001,2025-03-10_19h43.02.428,SL_sali,2021.2.3,Win32,119.047619,,,54,0,54,0,1,,,,,,,,
,,"[""circle"",""green"",""hori"",""left"",[-150,0],[106,106]]",circle,green,hori,left,"[-150,0]","[106,106]",left,1,0.8589,,,,,,001,2025-03-10_19h43.02.428,SL_sali,2021.2.3,Win32,119.047619,,,55,0,55,0,1,,,,,,,,
,,"[""diamond"",""red"",""vert"",""up"",[0,-150],[-150,0]]",diamond,red,vert,up,"[0,-150]","[-150,0]",up,1,1.0411,,,,,,001,2025-03-10_19h43.02.428,SL_sali,2021.2.3,Win32,119.047619,,,56,0,56,0,1,,,,,,,,
,,"[""diamond"",""green"",""vert"",""up"",[-106,106],[106,106]]",diamond,green,vert,up,"[-106,106]","[106,106]",up,1,0.8976,,,,,,001,2025-03-10_19h43.02.428,SL_sali,2021.2.3,Win32,119.047619,,,57,0,57,0,1,,,,,,,,
,,"[""diamond"",""green"",""hori"",""left"",[106,-106],[0,150]]",diamond,green,hori,left,"[106,-106]","[0,150]",left,1,0.7247,,,,,,001,2025-03-10_19h43.02.428,SL_sali,2021.2.3,Win32,119.047619,,,58,0,58,0,1,,,,,,,,
,,"[""diamond"",""green"",""hori"",""left"",[-150,0],[0,-150]]",diamond,green,hori,left,"[-150,0]","[0,-150]",left,1,0.7881,,,,,,001,2025-03-10_19h43.02.428,SL_sali,2021.2.3,Win32,119.047619,,,59,0,59,0,1,,,,,,,,
,,"[""diamond"",""red"",""hori"",""left"",[0,-150],[106,106]]",diamond,red,hori,left,"[0,-150]","[106,106]",left,1,1.3543,,,,,,001,2025-03-10_19h43.02.428,SL_sali,2021.2.3,Win32,119.047619,,,60,0,60,0,1,,,,,,,,
,,"[""diamond"",""green"",""hori"",""left"",[106,106],[0,150]]",diamond,green,hori,left,"[106,106]","[0,150]",left,1,1.3834,,,,,,001,2025-03-10_19h43.02.428,SL_sali,2021.2.3,Win32,119.047619,,,61,0,61,0,1,,,,,,,,
,,"[""circle"",""green"",""hori"",""left"",[0,150],[-106,-106]]",circle,green,hori,left,"[0,150]","[-106,-106]",left,1,1.3587,,,,,,001,2025-03-10_19h43.02.428,SL_sali,2021.2.3,Win32,119.047619,,,62,0,62,0,1,,,,,,,,
,,"[""circle"",""red"",""vert"",""up"",[-150,0],[-106,106]]",circle,red,vert,up,"[-150,0]","[-106,106]",up,1,1.8766,,,,,,001,2025-03-10_19h43.02.428,SL_sali,2021.2.3,Win32,119.047619,,,63,0,63,0,1,,,,,,,,
,,"[""circle"",""red"",""vert"",""up"",[-150,0],[0,150]]",circle,red,vert,up,"[-150,0]","[0,150]",up,1,1.206,,,,,,001,2025-03-10_19h43.02.428,SL_sali,2021.2.3,Win32,119.047619,,,64,0,64,0,1,,,,,,,,
,,"[""diamond"",""no_dis"",""hori"",""left"",[99999,99999],[-106,106]]",diamond,no_dis,hori,left,"[99999,99999]","[-106,106]",left,1,1.0584,,,,,,001,2025-03-10_19h43.02.428,SL_sali,2021.2.3,Win32,119.047619,,,65,0,65,0,1,,,,,,,,
,,"[""circle"",""red"",""vert"",""up"",[-106,106],[106,106]]",circle,red,vert,up,"[-106,106]","[106,106]",up,1,1.84,,,,,,001,2025-03-10_19h43.02.428,SL_sali,2021.2.3,Win32,119.047619,,,66,0,66,0,1,,,,,,,,
,,"[""diamond"",""no_dis"",""vert"",""up"",[99999,99999],[-106,-106]]",diamond,no_dis,vert,up,"[99999,99999]","[-106,-106]",up,1,1.036,,,,,,001,2025-03-10_19h43.02.428,SL_sali,2021.2.3,Win32,119.047619,,,67,0,67,0,1,,,,,,,,
,,"[""circle"",""no_dis"",""vert"",""up"",[99999,99999],[0,-150]]",circle,no_dis,vert,up,"[99999,99999]","[0,-150]",up,1,1.3919,,,,,,001,2025-03-10_19h43.02.428,SL_sali,2021.2.3,Win32,119.047619,,,68,0,68,0,1,,,,,,,,
,,"[""diamond"",""red"",""vert"",""up"",[-106,-106],[0,150]]",diamond,red,vert,up,"[-106,-106]","[0,150]",up,1,1.0837,,,,,,001,2025-03-10_19h43.02.428,SL_sali,2021.2.3,Win32,119.047619,,,69,0,69,0,1,,,,,,,,
,,"[""diamond"",""red"",""vert"",""up"",[-150,0],[150,0]]",diamond,red,vert,up,"[-150,0]","[150,0]",up,1,1.467,,,,,,001,2025-03-10_19h43.02.428,SL_sali,2021.2.3,Win32,119.047619,,,70,0,70,0,1,,,,,,,,
,,"[""diamond"",""red"",""vert"",""up"",[0,-150],[106,106]]",diamond,red,vert,up,"[0,-150]","[106,106]",up,1,0.8419,,,,,,001,2025-03-10_19h43.02.428,SL_sali,2021.2.3,Win32,119.047619,,,71,0,71,0,1,,,,,,,,
,,"[""diamond"",""red"",""vert"",""up"",[-150,0],[-106,106]]",diamond,red,vert,up,"[-150,0]","[-106,106]",up,1,1.7171,,,,,,001,2025-03-10_19h43.02.428,SL_sali,2021.2.3,Win32,119.047619,,,72,0,72,0,1,,,,,,,,
,,"[""circle"",""green"",""vert"",""up"",[-106,106],[-150,0]]",circle,green,vert,up,"[-106,106]","[-150,0]",up,1,1.3087,,,,,,001,2025-03-10_19h43.02.428,SL_sali,2021.2.3,Win32,119.047619,,,73,0,73,0,1,,,,,,,,
,,"[""circle"",""no_dis"",""vert"",""up"",[99999,99999],[0,-150]]",circle,no_dis,vert,up,"[99999,99999]","[0,-150]",up,1,0.817,,,,,,001,2025-03-10_19h43.02.428,SL_sali,2021.2.3,Win32,119.047619,,,74,0,74,0,1,,,,,,,,
,,"[""diamond"",""red"",""hori"",""left"",[106,106],[0,-150]]",diamond,red,hori,left,"[106,106]","[0,-150]",left,1,1.8253,,,,,,001,2025-03-10_19h43.02.428,SL_sali,2021.2.3,Win32,119.047619,,,75,0,75,0,1,,,,,,,,
,,"[""diamond"",""no_dis"",""vert"",""up"",[99999,99999],[-150,0]]",diamond,no_dis,vert,up,"[99999,99999]","[-150,0]",up,1,1.017,,,,,,001,2025-03-10_19h43.02.428,SL_sali,2021.2.3,Win32,119.047619,,,76,0,76,0,1,,,,,,,,
,,"[""circle"",""no_dis"",""hori"",""left"",[99999,99999],[0,-150]]",circle,no_dis,hori,left,"[99999,99999]","[0,-150]",left,1,1.6115,,,,,,001,2025-03-10_19h43.02.428,SL_sali,2021.2.3,Win32,119.047619,,,77,0,77,0,1,,,,,,,,
,,"[""diamond"",""no_dis"",""hori"",""left"",[99999,99999],[106,-106]]",diamond,no_dis,hori,left,"[99999,99999]","[106,-106]",left,1,1.5254,,,,,,001,2025-03-10_19h43.02.428,SL_sali,2021.2.3,Win32,119.047619,,,78,0,78,0,1,,,,,,,,
,,"[""circle"",""no_dis"",""vert"",""up"",[99999,99999],[0,150]]",circle,no_dis,vert,up,"[99999,99999]","[0,150]",up,1,1.1383,,,,,,001,2025-03-10_19h43.02.428,SL_sali,2021.2.3,Win32,119.047619,,,79,0,79,0,1,,,,,,,,
,,"[""circle"",""red"",""vert"",""up"",[-150,0],[0,-150]]",circle,red,vert,up,"[-150,0]","[0,-150]",up,1,1.3585,,,,,,001,2025-03-10_19h43.02.428,SL_sali,2021.2.3,Win32,119.047619,,,80,0,80,0,1,,,,,,,,
,,"[""diamond"",""no_dis"",""vert"",""up"",[99999,99999],[-106,106]]",diamond,no_dis,vert,up,"[99999,99999]","[-106,106]",up,1,0.7922,,,,,,001,2025-03-10_19h43.02.428,SL_sali,2021.2.3,Win32,119.047619,,,81,0,81,0,1,,,,,,,,
,,"[""circle"",""red"",""hori"",""left"",[106,-106],[-106,106]]",circle,red,hori,left,"[106,-106]","[-106,106]",left,1,1.4857,,,,,,001,2025-03-10_19h43.02.428,SL_sali,2021.2.3,Win32,119.047619,,,82,0,82,0,1,,,,,,,,
,,"[""circle"",""no_dis"",""hori"",""left"",[99999,99999],[106,106]]",circle,no_dis,hori,left,"[99999,99999]","[106,106]",left,1,0.8708,,,,,,001,2025-03-10_19h43.02.428,SL_sali,2021.2.3,Win32,119.047619,,,83,0,83,0,1,,,,,,,,
,,"[""circle"",""no_dis"",""hori"",""left"",[99999,99999],[-150,0]]",circle,no_dis,hori,left,"[99999,99999]","[-150,0]",left,1,1.0536,,,,,,001,2025-03-10_19h43.02.428,SL_sali,2021.2.3,Win32,119.047619,,,84,0,84,0,1,,,,,,,,
,,"[""diamond"",""no_dis"",""hori"",""left"",[99999,99999],[-106,-106]]",diamond,no_dis,hori,left,"[99999,99999]","[-106,-106]",left,1,1.1336,,,,,,001,2025-03-10_19h43.02.428,SL_sali,2021.2.3,Win32,119.047619,,,85,0,85,0,1,,,,,,,,
,,"[""diamond"",""no_dis"",""vert"",""up"",[99999,99999],[-106,106]]",diamond,no_dis,vert,up,"[99999,99999]","[-106,106]",up,1,0.7704,,,,,,001,2025-03-10_19h43.02.428,SL_sali,2021.2.3,Win32,119.047619,,,86,0,86,0,1,,,,,,,,
,,"[""circle"",""green"",""vert"",""up"",[106,106],[0,-150]]",circle,green,vert,up,"[106,106]","[0,-150]",up,1,1.0224,,,,,,001,2025-03-10_19h43.02.428,SL_sali,2021.2.3,Win32,119.047619,,,87,0,87,0,1,,,,,,,,
,,"[""circle"",""green"",""hori"",""left"",[-106,-106],[0,-150]]",circle,green,hori,left,"[-106,-106]","[0,-150]",left,1,0.8002,,,,,,001,2025-03-10_19h43.02.428,SL_sali,2021.2.3,Win32,119.047619,,,88,0,88,0,1,,,,,,,,
,,"[""diamond"",""red"",""hori"",""left"",[106,106],[-106,106]]",diamond,red,hori,left,"[106,106]","[-106,106]",left,1,1.4248,,,,,,001,2025-03-10_19h43.02.428,SL_sali,2021.2.3,Win32,119.047619,,,89,0,89,0,1,,,,,,,,
,,"[""circle"",""green"",""vert"",""up"",[106,106],[0,150]]",circle,green,vert,up,"[106,106]","[0,150]",up,1,0.9668,,,,,,001,2025-03-10_19h43.02.428,SL_sali,2021.2.3,Win32,119.047619,,,90,0,90,0,1,,,,,,,,
,,"[""diamond"",""green"",""hori"",""left"",[-106,-106],[-150,0]]",diamond,green,hori,left,"[-106,-106]","[-150,0]",left,1,1.1503,,,,,,001,2025-03-10_19h43.02.428,SL_sali,2021.2.3,Win32,119.047619,,,91,0,91,0,1,,,,,,,,
,,"[""circle"",""no_dis"",""vert"",""up"",[99999,99999],[106,-106]]",circle,no_dis,vert,up,"[99999,99999]","[106,-106]",up,1,0.9711,,,,,,001,2025-03-10_19h43.02.428,SL_sali,2021.2.3,Win32,119.047619,,,92,0,92,0,1,,,,,,,,
,,"[""circle"",""no_dis"",""vert"",""up"",[99999,99999],[0,150]]",circle,no_dis,vert,up,"[99999,99999]","[0,150]",up,1,0.5519,,,,,,001,2025-03-10_19h43.02.428,SL_sali,2021.2.3,Win32,119.047619,,,93,0,93,0,1,,,,,,,,
