﻿key_resp.keys,key_resp.rt,trial_para,tar_shape,dis_color_condi,tar_line,cor_resp,dis_loc,tar_loc,resp.keys,resp.corr,resp.rt,trials.thisRepN,trials.thisTrialN,trials.thisN,trials.thisIndex,trials.ran,participant,date,expName,psychopyVersion,OS,frameRate,key_resp_2.keys,key_resp_2.rt,trials_2.thisRepN,trials_2.thisTrialN,trials_2.thisN,trials_2.thisIndex,trials_2.ran,block_num,key_resp_3.keys,key_resp_3.rt,trials_3.thisRepN,trials_3.thisTrialN,trials_3.thisN,trials_3.thisIndex,trials_3.ran
space,30.2518,"[""circle"",""red"",""vert"",""up"",[106,-106],[-150,0]]",circle,red,vert,up,"[106,-106]","[-150,0]",left,0,2.8155,0,0,0,0,1,001,2025-03-18_09h53.00.202,SL_sali,2021.2.3,Win32,60.24096386,,,,,,,,,,,,,,,
,,"[""diamond"",""red"",""vert"",""up"",[-106,106],[106,-106]]",diamond,red,vert,up,"[-106,106]","[106,-106]",,0,,1,0,1,0,1,001,2025-03-18_09h53.00.202,SL_sali,2021.2.3,Win32,60.24096386,,,,,,,,,,,,,,,
,,"[""diamond"",""red"",""hori"",""left"",[106,106],[0,-150]]",diamond,red,hori,left,"[106,106]","[0,-150]",left,1,1.8453,2,0,2,0,1,001,2025-03-18_09h53.00.202,SL_sali,2021.2.3,Win32,60.24096386,,,,,,,,,,,,,,,
,,"[""diamond"",""red"",""vert"",""up"",[0,-150],[-106,106]]",diamond,red,vert,up,"[0,-150]","[-106,106]",up,1,2.2984,3,0,3,0,1,001,2025-03-18_09h53.00.202,SL_sali,2021.2.3,Win32,60.24096386,,,,,,,,,,,,,,,
,,"[""circle"",""red"",""hori"",""left"",[106,-106],[-106,-106]]",circle,red,hori,left,"[106,-106]","[-106,-106]",left,1,1.6254,4,0,4,0,1,001,2025-03-18_09h53.00.202,SL_sali,2021.2.3,Win32,60.24096386,,,,,,,,,,,,,,,
,,"[""circle"",""no_dis"",""vert"",""up"",[99999,99999],[0,-150]]",circle,no_dis,vert,up,"[99999,99999]","[0,-150]",up,1,1.6896,5,0,5,0,1,001,2025-03-18_09h53.00.202,SL_sali,2021.2.3,Win32,60.24096386,,,,,,,,,,,,,,,
,,"[""diamond"",""red"",""vert"",""up"",[-106,-106],[106,-106]]",diamond,red,vert,up,"[-106,-106]","[106,-106]",up,1,1.9275,6,0,6,0,1,001,2025-03-18_09h53.00.202,SL_sali,2021.2.3,Win32,60.24096386,,,,,,,,,,,,,,,
,,"[""diamond"",""red"",""vert"",""up"",[106,-106],[0,150]]",diamond,red,vert,up,"[106,-106]","[0,150]",up,1,2.2356,7,0,7,0,1,001,2025-03-18_09h53.00.202,SL_sali,2021.2.3,Win32,60.24096386,,,,,,,,,,,,,,,
,,"[""circle"",""red"",""vert"",""up"",[-150,0],[106,-106]]",circle,red,vert,up,"[-150,0]","[106,-106]",up,1,2.1828,8,0,8,0,1,001,2025-03-18_09h53.00.202,SL_sali,2021.2.3,Win32,60.24096386,,,,,,,,,,,,,,,
,,"[""diamond"",""green"",""vert"",""up"",[-106,-106],[106,-106]]",diamond,green,vert,up,"[-106,-106]","[106,-106]",up,1,2.2354,9,0,9,0,1,001,2025-03-18_09h53.00.202,SL_sali,2021.2.3,Win32,60.24096386,,,,,,,,,,,,,,,
,,"[""circle"",""red"",""vert"",""up"",[106,-106],[-150,0]]",circle,red,vert,up,"[106,-106]","[-150,0]",up,1,1.3137,,,,,,001,2025-03-18_09h53.00.202,SL_sali,2021.2.3,Win32,60.24096386,space,8.2377,0,0,0,0,1,,,,,,,,
,,"[""diamond"",""red"",""vert"",""up"",[-106,106],[106,-106]]",diamond,red,vert,up,"[-106,106]","[106,-106]",up,1,1.1609,,,,,,001,2025-03-18_09h53.00.202,SL_sali,2021.2.3,Win32,60.24096386,,,1,0,1,0,1,,,,,,,,
,,"[""diamond"",""red"",""hori"",""left"",[106,106],[0,-150]]",diamond,red,hori,left,"[106,106]","[0,-150]",left,1,1.4808,,,,,,001,2025-03-18_09h53.00.202,SL_sali,2021.2.3,Win32,60.24096386,,,2,0,2,0,1,,,,,,,,
,,"[""diamond"",""red"",""vert"",""up"",[0,-150],[-106,106]]",diamond,red,vert,up,"[0,-150]","[-106,106]",,0,,,,,,,001,2025-03-18_09h53.00.202,SL_sali,2021.2.3,Win32,60.24096386,,,3,0,3,0,1,,,,,,,,
,,"[""circle"",""red"",""hori"",""left"",[106,-106],[-106,-106]]",circle,red,hori,left,"[106,-106]","[-106,-106]",left,1,1.8728,,,,,,001,2025-03-18_09h53.00.202,SL_sali,2021.2.3,Win32,60.24096386,,,4,0,4,0,1,,,,,,,,
,,"[""circle"",""no_dis"",""vert"",""up"",[99999,99999],[0,-150]]",circle,no_dis,vert,up,"[99999,99999]","[0,-150]",up,1,1.4474,,,,,,001,2025-03-18_09h53.00.202,SL_sali,2021.2.3,Win32,60.24096386,,,5,0,5,0,1,,,,,,,,
,,"[""diamond"",""red"",""vert"",""up"",[-106,-106],[106,-106]]",diamond,red,vert,up,"[-106,-106]","[106,-106]",up,1,1.2857,,,,,,001,2025-03-18_09h53.00.202,SL_sali,2021.2.3,Win32,60.24096386,,,6,0,6,0,1,,,,,,,,
,,"[""diamond"",""red"",""vert"",""up"",[106,-106],[0,150]]",diamond,red,vert,up,"[106,-106]","[0,150]",up,1,1.194,,,,,,001,2025-03-18_09h53.00.202,SL_sali,2021.2.3,Win32,60.24096386,,,7,0,7,0,1,,,,,,,,
,,"[""circle"",""red"",""vert"",""up"",[-150,0],[106,-106]]",circle,red,vert,up,"[-150,0]","[106,-106]",up,1,1.3834,,,,,,001,2025-03-18_09h53.00.202,SL_sali,2021.2.3,Win32,60.24096386,,,8,0,8,0,1,,,,,,,,
,,"[""diamond"",""green"",""vert"",""up"",[-106,-106],[106,-106]]",diamond,green,vert,up,"[-106,-106]","[106,-106]",up,1,1.5424,,,,,,001,2025-03-18_09h53.00.202,SL_sali,2021.2.3,Win32,60.24096386,,,9,0,9,0,1,,,,,,,,
,,"[""diamond"",""green"",""hori"",""left"",[-150,0],[-106,-106]]",diamond,green,hori,left,"[-150,0]","[-106,-106]",left,1,2.3166,,,,,,001,2025-03-18_09h53.00.202,SL_sali,2021.2.3,Win32,60.24096386,,,10,0,10,0,1,,,,,,,,
,,"[""diamond"",""green"",""vert"",""up"",[106,-106],[-150,0]]",diamond,green,vert,up,"[106,-106]","[-150,0]",up,1,1.6644,,,,,,001,2025-03-18_09h53.00.202,SL_sali,2021.2.3,Win32,60.24096386,,,11,0,11,0,1,,,,,,,,
,,"[""circle"",""red"",""vert"",""up"",[0,-150],[106,106]]",circle,red,vert,up,"[0,-150]","[106,106]",up,1,2.0911,,,,,,001,2025-03-18_09h53.00.202,SL_sali,2021.2.3,Win32,60.24096386,,,12,0,12,0,1,,,,,,,,
,,"[""circle"",""red"",""vert"",""up"",[0,-150],[-106,106]]",circle,red,vert,up,"[0,-150]","[-106,106]",up,1,1.7292,,,,,,001,2025-03-18_09h53.00.202,SL_sali,2021.2.3,Win32,60.24096386,,,13,0,13,0,1,,,,,,,,
,,"[""diamond"",""green"",""hori"",""left"",[0,150],[150,0]]",diamond,green,hori,left,"[0,150]","[150,0]",left,1,1.5943,,,,,,001,2025-03-18_09h53.00.202,SL_sali,2021.2.3,Win32,60.24096386,,,14,0,14,0,1,,,,,,,,
,,"[""circle"",""red"",""hori"",""left"",[106,-106],[0,150]]",circle,red,hori,left,"[106,-106]","[0,150]",left,1,1.7869,,,,,,001,2025-03-18_09h53.00.202,SL_sali,2021.2.3,Win32,60.24096386,,,15,0,15,0,1,,,,,,,,
,,"[""circle"",""no_dis"",""hori"",""left"",[99999,99999],[-150,0]]",circle,no_dis,hori,left,"[99999,99999]","[-150,0]",left,1,1.4889,,,,,,001,2025-03-18_09h53.00.202,SL_sali,2021.2.3,Win32,60.24096386,,,16,0,16,0,1,,,,,,,,
,,"[""circle"",""green"",""hori"",""left"",[150,0],[-106,106]]",circle,green,hori,left,"[150,0]","[-106,106]",left,1,1.2511,,,,,,001,2025-03-18_09h53.00.202,SL_sali,2021.2.3,Win32,60.24096386,,,17,0,17,0,1,,,,,,,,
,,"[""diamond"",""green"",""vert"",""up"",[150,0],[-150,0]]",diamond,green,vert,up,"[150,0]","[-150,0]",left,0,1.017,,,,,,001,2025-03-18_09h53.00.202,SL_sali,2021.2.3,Win32,60.24096386,,,18,0,18,0,1,,,,,,,,
,,"[""diamond"",""red"",""hori"",""left"",[-106,-106],[106,-106]]",diamond,red,hori,left,"[-106,-106]","[106,-106]",left,1,1.7445,,,,,,001,2025-03-18_09h53.00.202,SL_sali,2021.2.3,Win32,60.24096386,,,19,0,19,0,1,,,,,,,,
,,"[""circle"",""no_dis"",""vert"",""up"",[99999,99999],[-106,106]]",circle,no_dis,vert,up,"[99999,99999]","[-106,106]",up,1,1.1999,,,,,,001,2025-03-18_09h53.00.202,SL_sali,2021.2.3,Win32,60.24096386,,,20,0,20,0,1,,,,,,,,
,,"[""diamond"",""no_dis"",""vert"",""up"",[99999,99999],[-106,106]]",diamond,no_dis,vert,up,"[99999,99999]","[-106,106]",up,1,1.6611,,,,,,001,2025-03-18_09h53.00.202,SL_sali,2021.2.3,Win32,60.24096386,,,21,0,21,0,1,,,,,,,,
,,"[""diamond"",""red"",""vert"",""up"",[106,-106],[-106,106]]",diamond,red,vert,up,"[106,-106]","[-106,106]",up,1,1.5728,,,,,,001,2025-03-18_09h53.00.202,SL_sali,2021.2.3,Win32,60.24096386,,,22,0,22,0,1,,,,,,,,
,,"[""diamond"",""green"",""vert"",""up"",[106,-106],[-106,-106]]",diamond,green,vert,up,"[106,-106]","[-106,-106]",up,1,1.4596,,,,,,001,2025-03-18_09h53.00.202,SL_sali,2021.2.3,Win32,60.24096386,,,23,0,23,0,1,,,,,,,,
,,"[""circle"",""red"",""vert"",""up"",[0,-150],[150,0]]",circle,red,vert,up,"[0,-150]","[150,0]",up,1,1.5496,,,,,,001,2025-03-18_09h53.00.202,SL_sali,2021.2.3,Win32,60.24096386,,,24,0,24,0,1,,,,,,,,
,,"[""circle"",""green"",""vert"",""up"",[106,-106],[0,150]]",circle,green,vert,up,"[106,-106]","[0,150]",up,1,1.6218,,,,,,001,2025-03-18_09h53.00.202,SL_sali,2021.2.3,Win32,60.24096386,,,25,0,25,0,1,,,,,,,,
,,"[""diamond"",""red"",""hori"",""left"",[-150,0],[0,-150]]",diamond,red,hori,left,"[-150,0]","[0,-150]",left,1,1.2554,,,,,,001,2025-03-18_09h53.00.202,SL_sali,2021.2.3,Win32,60.24096386,,,26,0,26,0,1,,,,,,,,
,,"[""diamond"",""green"",""hori"",""left"",[-150,0],[0,150]]",diamond,green,hori,left,"[-150,0]","[0,150]",left,1,1.7702,,,,,,001,2025-03-18_09h53.00.202,SL_sali,2021.2.3,Win32,60.24096386,,,27,0,27,0,1,,,,,,,,
,,"[""circle"",""green"",""hori"",""left"",[106,-106],[0,150]]",circle,green,hori,left,"[106,-106]","[0,150]",left,1,1.0173,,,,,,001,2025-03-18_09h53.00.202,SL_sali,2021.2.3,Win32,60.24096386,,,28,0,28,0,1,,,,,,,,
,,"[""diamond"",""no_dis"",""vert"",""up"",[99999,99999],[-106,106]]",diamond,no_dis,vert,up,"[99999,99999]","[-106,106]",up,1,2.0544,,,,,,001,2025-03-18_09h53.00.202,SL_sali,2021.2.3,Win32,60.24096386,,,29,0,29,0,1,,,,,,,,
,,"[""circle"",""green"",""hori"",""left"",[0,-150],[-150,0]]",circle,green,hori,left,"[0,-150]","[-150,0]",left,1,1.4325,,,,,,001,2025-03-18_09h53.00.202,SL_sali,2021.2.3,Win32,60.24096386,,,30,0,30,0,1,,,,,,,,
,,"[""circle"",""no_dis"",""hori"",""left"",[99999,99999],[150,0]]",circle,no_dis,hori,left,"[99999,99999]","[150,0]",left,1,1.8555,,,,,,001,2025-03-18_09h53.00.202,SL_sali,2021.2.3,Win32,60.24096386,,,31,0,31,0,1,,,,,,,,
,,"[""circle"",""green"",""hori"",""left"",[0,150],[150,0]]",circle,green,hori,left,"[0,150]","[150,0]",left,1,1.4835,,,,,,001,2025-03-18_09h53.00.202,SL_sali,2021.2.3,Win32,60.24096386,,,32,0,32,0,1,,,,,,,,
,,"[""diamond"",""red"",""vert"",""up"",[0,150],[-106,106]]",diamond,red,vert,up,"[0,150]","[-106,106]",up,1,1.8214,,,,,,001,2025-03-18_09h53.00.202,SL_sali,2021.2.3,Win32,60.24096386,,,33,0,33,0,1,,,,,,,,
,,"[""circle"",""green"",""vert"",""up"",[0,150],[106,-106]]",circle,green,vert,up,"[0,150]","[106,-106]",up,1,1.2879,,,,,,001,2025-03-18_09h53.00.202,SL_sali,2021.2.3,Win32,60.24096386,,,34,0,34,0,1,,,,,,,,
,,"[""circle"",""red"",""hori"",""left"",[-106,-106],[106,106]]",circle,red,hori,left,"[-106,-106]","[106,106]",left,1,1.2906,,,,,,001,2025-03-18_09h53.00.202,SL_sali,2021.2.3,Win32,60.24096386,,,35,0,35,0,1,,,,,,,,
,,"[""circle"",""no_dis"",""vert"",""up"",[99999,99999],[-150,0]]",circle,no_dis,vert,up,"[99999,99999]","[-150,0]",up,1,0.9857,,,,,,001,2025-03-18_09h53.00.202,SL_sali,2021.2.3,Win32,60.24096386,,,36,0,36,0,1,,,,,,,,
,,"[""diamond"",""no_dis"",""vert"",""up"",[99999,99999],[-150,0]]",diamond,no_dis,vert,up,"[99999,99999]","[-150,0]",up,1,2.1538,,,,,,001,2025-03-18_09h53.00.202,SL_sali,2021.2.3,Win32,60.24096386,,,37,0,37,0,1,,,,,,,,
,,"[""circle"",""green"",""vert"",""up"",[-106,106],[106,-106]]",circle,green,vert,up,"[-106,106]","[106,-106]",up,1,1.4326,,,,,,001,2025-03-18_09h53.00.202,SL_sali,2021.2.3,Win32,60.24096386,,,38,0,38,0,1,,,,,,,,
,,"[""circle"",""red"",""hori"",""left"",[106,106],[0,-150]]",circle,red,hori,left,"[106,106]","[0,-150]",left,1,2.2134,,,,,,001,2025-03-18_09h53.00.202,SL_sali,2021.2.3,Win32,60.24096386,,,39,0,39,0,1,,,,,,,,
,,"[""diamond"",""no_dis"",""hori"",""left"",[99999,99999],[106,106]]",diamond,no_dis,hori,left,"[99999,99999]","[106,106]",left,1,1.6312,,,,,,001,2025-03-18_09h53.00.202,SL_sali,2021.2.3,Win32,60.24096386,,,40,0,40,0,1,,,,,,,,
,,"[""diamond"",""red"",""hori"",""left"",[-150,0],[106,106]]",diamond,red,hori,left,"[-150,0]","[106,106]",left,1,1.0332,,,,,,001,2025-03-18_09h53.00.202,SL_sali,2021.2.3,Win32,60.24096386,,,41,0,41,0,1,,,,,,,,
,,"[""diamond"",""red"",""hori"",""left"",[106,-106],[0,-150]]",diamond,red,hori,left,"[106,-106]","[0,-150]",left,1,1.686,,,,,,001,2025-03-18_09h53.00.202,SL_sali,2021.2.3,Win32,60.24096386,,,42,0,42,0,1,,,,,,,,
,,"[""circle"",""no_dis"",""vert"",""up"",[99999,99999],[0,150]]",circle,no_dis,vert,up,"[99999,99999]","[0,150]",up,1,1.2564,,,,,,001,2025-03-18_09h53.00.202,SL_sali,2021.2.3,Win32,60.24096386,,,43,0,43,0,1,,,,,,,,
,,"[""circle"",""no_dis"",""hori"",""left"",[99999,99999],[-106,106]]",circle,no_dis,hori,left,"[99999,99999]","[-106,106]",left,1,1.1711,,,,,,001,2025-03-18_09h53.00.202,SL_sali,2021.2.3,Win32,60.24096386,,,44,0,44,0,1,,,,,,,,
,,"[""diamond"",""green"",""vert"",""up"",[-150,0],[150,0]]",diamond,green,vert,up,"[-150,0]","[150,0]",up,1,1.3173,,,,,,001,2025-03-18_09h53.00.202,SL_sali,2021.2.3,Win32,60.24096386,,,45,0,45,0,1,,,,,,,,
,,"[""circle"",""no_dis"",""vert"",""up"",[99999,99999],[150,0]]",circle,no_dis,vert,up,"[99999,99999]","[150,0]",up,1,1.7504,,,,,,001,2025-03-18_09h53.00.202,SL_sali,2021.2.3,Win32,60.24096386,,,46,0,46,0,1,,,,,,,,
,,"[""diamond"",""green"",""hori"",""left"",[150,0],[0,150]]",diamond,green,hori,left,"[150,0]","[0,150]",left,1,1.3842,,,,,,001,2025-03-18_09h53.00.202,SL_sali,2021.2.3,Win32,60.24096386,,,47,0,47,0,1,,,,,,,,
,,"[""diamond"",""green"",""hori"",""left"",[-106,-106],[-106,106]]",diamond,green,hori,left,"[-106,-106]","[-106,106]",left,1,1.5698,,,,,,001,2025-03-18_09h53.00.202,SL_sali,2021.2.3,Win32,60.24096386,,,48,0,48,0,1,,,,,,,,
,,"[""circle"",""green"",""hori"",""left"",[106,-106],[0,-150]]",circle,green,hori,left,"[106,-106]","[0,-150]",left,1,1.7715,,,,,,001,2025-03-18_09h53.00.202,SL_sali,2021.2.3,Win32,60.24096386,,,49,0,49,0,1,,,,,,,,
,,"[""circle"",""red"",""hori"",""left"",[106,-106],[0,150]]",circle,red,hori,left,"[106,-106]","[0,150]",left,1,1.3333,,,,,,001,2025-03-18_09h53.00.202,SL_sali,2021.2.3,Win32,60.24096386,,,50,0,50,0,1,,,,,,,,
,,"[""diamond"",""red"",""hori"",""left"",[150,0],[0,-150]]",diamond,red,hori,left,"[150,0]","[0,-150]",left,1,1.6109,,,,,,001,2025-03-18_09h53.00.202,SL_sali,2021.2.3,Win32,60.24096386,,,51,0,51,0,1,,,,,,,,
,,"[""diamond"",""no_dis"",""vert"",""up"",[99999,99999],[0,150]]",diamond,no_dis,vert,up,"[99999,99999]","[0,150]",up,1,1.9196,,,,,,001,2025-03-18_09h53.00.202,SL_sali,2021.2.3,Win32,60.24096386,,,52,0,52,0,1,,,,,,,,
,,"[""diamond"",""no_dis"",""hori"",""left"",[99999,99999],[150,0]]",diamond,no_dis,hori,left,"[99999,99999]","[150,0]",left,1,1.8779,,,,,,001,2025-03-18_09h53.00.202,SL_sali,2021.2.3,Win32,60.24096386,,,53,0,53,0,1,,,,,,,,
,,"[""circle"",""no_dis"",""hori"",""left"",[99999,99999],[0,-150]]",circle,no_dis,hori,left,"[99999,99999]","[0,-150]",left,1,1.4883,,,,,,001,2025-03-18_09h53.00.202,SL_sali,2021.2.3,Win32,60.24096386,,,54,0,54,0,1,,,,,,,,
,,"[""diamond"",""no_dis"",""vert"",""up"",[99999,99999],[106,106]]",diamond,no_dis,vert,up,"[99999,99999]","[106,106]",up,1,1.1451,,,,,,001,2025-03-18_09h53.00.202,SL_sali,2021.2.3,Win32,60.24096386,,,55,0,55,0,1,,,,,,,,
,,"[""diamond"",""no_dis"",""hori"",""left"",[99999,99999],[106,106]]",diamond,no_dis,hori,left,"[99999,99999]","[106,106]",left,1,1.3449,,,,,,001,2025-03-18_09h53.00.202,SL_sali,2021.2.3,Win32,60.24096386,,,56,0,56,0,1,,,,,,,,
,,"[""diamond"",""red"",""hori"",""left"",[106,106],[-106,-106]]",diamond,red,hori,left,"[106,106]","[-106,-106]",left,1,2.6377,,,,,,001,2025-03-18_09h53.00.202,SL_sali,2021.2.3,Win32,60.24096386,,,57,0,57,0,1,,,,,,,,
,,"[""circle"",""green"",""vert"",""up"",[0,-150],[-106,106]]",circle,green,vert,up,"[0,-150]","[-106,106]",up,1,2.3551,,,,,,001,2025-03-18_09h53.00.202,SL_sali,2021.2.3,Win32,60.24096386,,,58,0,58,0,1,,,,,,,,
,,"[""diamond"",""no_dis"",""vert"",""up"",[99999,99999],[-106,-106]]",diamond,no_dis,vert,up,"[99999,99999]","[-106,-106]",up,1,2.5043,,,,,,001,2025-03-18_09h53.00.202,SL_sali,2021.2.3,Win32,60.24096386,,,59,0,59,0,1,,,,,,,,
,,"[""diamond"",""green"",""vert"",""up"",[106,-106],[150,0]]",diamond,green,vert,up,"[106,-106]","[150,0]",up,1,2.3112,,,,,,001,2025-03-18_09h53.00.202,SL_sali,2021.2.3,Win32,60.24096386,,,60,0,60,0,1,,,,,,,,
,,"[""diamond"",""green"",""hori"",""left"",[106,106],[-106,-106]]",diamond,green,hori,left,"[106,106]","[-106,-106]",left,1,2.6144,,,,,,001,2025-03-18_09h53.00.202,SL_sali,2021.2.3,Win32,60.24096386,,,61,0,61,0,1,,,,,,,,
,,"[""circle"",""green"",""vert"",""up"",[150,0],[0,-150]]",circle,green,vert,up,"[150,0]","[0,-150]",,0,,,,,,,001,2025-03-18_09h53.00.202,SL_sali,2021.2.3,Win32,60.24096386,,,62,0,62,0,1,,,,,,,,
,,"[""circle"",""red"",""vert"",""up"",[-106,106],[-106,-106]]",circle,red,vert,up,"[-106,106]","[-106,-106]",up,1,2.1091,,,,,,001,2025-03-18_09h53.00.202,SL_sali,2021.2.3,Win32,60.24096386,,,63,0,63,0,1,,,,,,,,
,,"[""circle"",""red"",""hori"",""left"",[-150,0],[-106,-106]]",circle,red,hori,left,"[-150,0]","[-106,-106]",left,1,1.679,,,,,,001,2025-03-18_09h53.00.202,SL_sali,2021.2.3,Win32,60.24096386,,,64,0,64,0,1,,,,,,,,
,,"[""diamond"",""no_dis"",""vert"",""up"",[99999,99999],[-106,-106]]",diamond,no_dis,vert,up,"[99999,99999]","[-106,-106]",up,1,1.3152,,,,,,001,2025-03-18_09h53.00.202,SL_sali,2021.2.3,Win32,60.24096386,,,65,0,65,0,1,,,,,,,,
,,"[""circle"",""green"",""vert"",""up"",[106,106],[-106,106]]",circle,green,vert,up,"[106,106]","[-106,106]",up,1,1.4497,,,,,,001,2025-03-18_09h53.00.202,SL_sali,2021.2.3,Win32,60.24096386,,,66,0,66,0,1,,,,,,,,
,,"[""diamond"",""no_dis"",""hori"",""left"",[99999,99999],[106,106]]",diamond,no_dis,hori,left,"[99999,99999]","[106,106]",left,1,1.7311,,,,,,001,2025-03-18_09h53.00.202,SL_sali,2021.2.3,Win32,60.24096386,,,67,0,67,0,1,,,,,,,,
,,"[""diamond"",""red"",""vert"",""up"",[-106,106],[150,0]]",diamond,red,vert,up,"[-106,106]","[150,0]",up,1,1.6832,,,,,,001,2025-03-18_09h53.00.202,SL_sali,2021.2.3,Win32,60.24096386,,,68,0,68,0,1,,,,,,,,
,,"[""circle"",""no_dis"",""vert"",""up"",[99999,99999],[0,-150]]",circle,no_dis,vert,up,"[99999,99999]","[0,-150]",up,1,1.3823,,,,,,001,2025-03-18_09h53.00.202,SL_sali,2021.2.3,Win32,60.24096386,,,69,0,69,0,1,,,,,,,,
,,"[""circle"",""red"",""hori"",""left"",[-106,-106],[-150,0]]",circle,red,hori,left,"[-106,-106]","[-150,0]",left,1,0.9664,,,,,,001,2025-03-18_09h53.00.202,SL_sali,2021.2.3,Win32,60.24096386,,,70,0,70,0,1,,,,,,,,
,,"[""circle"",""red"",""hori"",""left"",[106,-106],[-150,0]]",circle,red,hori,left,"[106,-106]","[-150,0]",left,1,0.9375,,,,,,001,2025-03-18_09h53.00.202,SL_sali,2021.2.3,Win32,60.24096386,,,71,0,71,0,1,,,,,,,,
,,"[""circle"",""red"",""hori"",""left"",[-150,0],[106,-106]]",circle,red,hori,left,"[-150,0]","[106,-106]",left,1,1.0467,,,,,,001,2025-03-18_09h53.00.202,SL_sali,2021.2.3,Win32,60.24096386,,,72,0,72,0,1,,,,,,,,
,,"[""diamond"",""green"",""hori"",""left"",[150,0],[0,-150]]",diamond,green,hori,left,"[150,0]","[0,-150]",left,1,1.5985,,,,,,001,2025-03-18_09h53.00.202,SL_sali,2021.2.3,Win32,60.24096386,,,73,0,73,0,1,,,,,,,,
,,"[""diamond"",""green"",""vert"",""up"",[0,-150],[106,-106]]",diamond,green,vert,up,"[0,-150]","[106,-106]",up,1,2.7068,,,,,,001,2025-03-18_09h53.00.202,SL_sali,2021.2.3,Win32,60.24096386,,,74,0,74,0,1,,,,,,,,
,,"[""diamond"",""no_dis"",""hori"",""left"",[99999,99999],[-106,-106]]",diamond,no_dis,hori,left,"[99999,99999]","[-106,-106]",left,1,1.3449,,,,,,001,2025-03-18_09h53.00.202,SL_sali,2021.2.3,Win32,60.24096386,,,75,0,75,0,1,,,,,,,,
,,"[""circle"",""green"",""vert"",""up"",[106,-106],[0,-150]]",circle,green,vert,up,"[106,-106]","[0,-150]",up,1,0.988,,,,,,001,2025-03-18_09h53.00.202,SL_sali,2021.2.3,Win32,60.24096386,,,76,0,76,0,1,,,,,,,,
,,"[""circle"",""green"",""vert"",""up"",[106,-106],[-106,-106]]",circle,green,vert,up,"[106,-106]","[-106,-106]",up,1,1.3455,,,,,,001,2025-03-18_09h53.00.202,SL_sali,2021.2.3,Win32,60.24096386,,,77,0,77,0,1,,,,,,,,
,,"[""circle"",""no_dis"",""hori"",""left"",[99999,99999],[106,-106]]",circle,no_dis,hori,left,"[99999,99999]","[106,-106]",left,1,0.9294,,,,,,001,2025-03-18_09h53.00.202,SL_sali,2021.2.3,Win32,60.24096386,,,78,0,78,0,1,,,,,,,,
,,"[""circle"",""red"",""vert"",""up"",[-106,-106],[106,106]]",circle,red,vert,up,"[-106,-106]","[106,106]",up,1,0.9712,,,,,,001,2025-03-18_09h53.00.202,SL_sali,2021.2.3,Win32,60.24096386,,,79,0,79,0,1,,,,,,,,
,,"[""diamond"",""no_dis"",""vert"",""up"",[99999,99999],[-106,106]]",diamond,no_dis,vert,up,"[99999,99999]","[-106,106]",up,1,1.084,,,,,,001,2025-03-18_09h53.00.202,SL_sali,2021.2.3,Win32,60.24096386,,,80,0,80,0,1,,,,,,,,
,,"[""circle"",""green"",""hori"",""left"",[-106,106],[150,0]]",circle,green,hori,left,"[-106,106]","[150,0]",left,1,1.6789,,,,,,001,2025-03-18_09h53.00.202,SL_sali,2021.2.3,Win32,60.24096386,,,81,0,81,0,1,,,,,,,,
,,"[""circle"",""no_dis"",""hori"",""left"",[99999,99999],[150,0]]",circle,no_dis,hori,left,"[99999,99999]","[150,0]",left,1,0.7815,,,,,,001,2025-03-18_09h53.00.202,SL_sali,2021.2.3,Win32,60.24096386,,,82,0,82,0,1,,,,,,,,
,,"[""diamond"",""green"",""hori"",""left"",[106,106],[-106,106]]",diamond,green,hori,left,"[106,106]","[-106,106]",left,1,1.6491,,,,,,001,2025-03-18_09h53.00.202,SL_sali,2021.2.3,Win32,60.24096386,,,83,0,83,0,1,,,,,,,,
,,"[""diamond"",""green"",""vert"",""up"",[-106,-106],[106,-106]]",diamond,green,vert,up,"[-106,-106]","[106,-106]",up,1,1.7975,,,,,,001,2025-03-18_09h53.00.202,SL_sali,2021.2.3,Win32,60.24096386,,,84,0,84,0,1,,,,,,,,
,,"[""circle"",""no_dis"",""hori"",""left"",[99999,99999],[-106,-106]]",circle,no_dis,hori,left,"[99999,99999]","[-106,-106]",left,1,1.4788,,,,,,001,2025-03-18_09h53.00.202,SL_sali,2021.2.3,Win32,60.24096386,,,85,0,85,0,1,,,,,,,,
,,"[""diamond"",""no_dis"",""vert"",""up"",[99999,99999],[106,-106]]",diamond,no_dis,vert,up,"[99999,99999]","[106,-106]",up,1,1.7524,,,,,,001,2025-03-18_09h53.00.202,SL_sali,2021.2.3,Win32,60.24096386,,,86,0,86,0,1,,,,,,,,
,,"[""circle"",""no_dis"",""hori"",""left"",[99999,99999],[106,-106]]",circle,no_dis,hori,left,"[99999,99999]","[106,-106]",up,0,1.3722,,,,,,001,2025-03-18_09h53.00.202,SL_sali,2021.2.3,Win32,60.24096386,,,87,0,87,0,1,,,,,,,,
,,"[""circle"",""no_dis"",""hori"",""left"",[99999,99999],[0,150]]",circle,no_dis,hori,left,"[99999,99999]","[0,150]",left,1,1.14,,,,,,001,2025-03-18_09h53.00.202,SL_sali,2021.2.3,Win32,60.24096386,,,88,0,88,0,1,,,,,,,,
,,"[""circle"",""green"",""hori"",""left"",[106,-106],[-106,-106]]",circle,green,hori,left,"[106,-106]","[-106,-106]",left,1,1.6623,,,,,,001,2025-03-18_09h53.00.202,SL_sali,2021.2.3,Win32,60.24096386,,,89,0,89,0,1,,,,,,,,
,,"[""diamond"",""red"",""vert"",""up"",[0,150],[-106,-106]]",diamond,red,vert,up,"[0,150]","[-106,-106]",up,1,1.3782,,,,,,001,2025-03-18_09h53.00.202,SL_sali,2021.2.3,Win32,60.24096386,,,90,0,90,0,1,,,,,,,,
,,"[""diamond"",""red"",""hori"",""left"",[0,150],[106,-106]]",diamond,red,hori,left,"[0,150]","[106,-106]",left,1,1.5952,,,,,,001,2025-03-18_09h53.00.202,SL_sali,2021.2.3,Win32,60.24096386,,,91,0,91,0,1,,,,,,,,
,,"[""diamond"",""green"",""vert"",""up"",[106,-106],[-106,106]]",diamond,green,vert,up,"[106,-106]","[-106,106]",up,1,1.0815,,,,,,001,2025-03-18_09h53.00.202,SL_sali,2021.2.3,Win32,60.24096386,,,92,0,92,0,1,,,,,,,,
,,"[""circle"",""green"",""hori"",""left"",[0,-150],[106,106]]",circle,green,hori,left,"[0,-150]","[106,106]",left,1,0.9965,,,,,,001,2025-03-18_09h53.00.202,SL_sali,2021.2.3,Win32,60.24096386,,,93,0,93,0,1,,,,,,,,
,,"[""circle"",""red"",""hori"",""left"",[106,106],[150,0]]",circle,red,hori,left,"[106,106]","[150,0]",left,1,1.557,,,,,,001,2025-03-18_09h53.00.202,SL_sali,2021.2.3,Win32,60.24096386,,,94,0,94,0,1,,,,,,,,
,,"[""circle"",""no_dis"",""vert"",""up"",[99999,99999],[-150,0]]",circle,no_dis,vert,up,"[99999,99999]","[-150,0]",up,1,2.4123,,,,,,001,2025-03-18_09h53.00.202,SL_sali,2021.2.3,Win32,60.24096386,,,95,0,95,0,1,,,,,,,,
,,"[""diamond"",""no_dis"",""hori"",""left"",[99999,99999],[150,0]]",diamond,no_dis,hori,left,"[99999,99999]","[150,0]",left,1,0.9999,,,,,,001,2025-03-18_09h53.00.202,SL_sali,2021.2.3,Win32,60.24096386,,,96,0,96,0,1,,,,,,,,
,,"[""circle"",""no_dis"",""vert"",""up"",[99999,99999],[106,106]]",circle,no_dis,vert,up,"[99999,99999]","[106,106]",up,1,2.0997,,,,,,001,2025-03-18_09h53.00.202,SL_sali,2021.2.3,Win32,60.24096386,,,97,0,97,0,1,,,,,,,,
,,"[""diamond"",""no_dis"",""hori"",""left"",[99999,99999],[106,-106]]",diamond,no_dis,hori,left,"[99999,99999]","[106,-106]",left,1,1.045,,,,,,001,2025-03-18_09h53.00.202,SL_sali,2021.2.3,Win32,60.24096386,,,98,0,98,0,1,,,,,,,,
,,"[""circle"",""green"",""vert"",""up"",[150,0],[106,106]]",circle,green,vert,up,"[150,0]","[106,106]",up,1,1.0184,,,,,,001,2025-03-18_09h53.00.202,SL_sali,2021.2.3,Win32,60.24096386,,,99,0,99,0,1,,,,,,,,
,,"[""circle"",""red"",""vert"",""up"",[106,-106],[106,106]]",circle,red,vert,up,"[106,-106]","[106,106]",up,1,1.486,,,,,,001,2025-03-18_09h53.00.202,SL_sali,2021.2.3,Win32,60.24096386,,,100,0,100,0,1,,,,,,,,
,,"[""diamond"",""green"",""hori"",""left"",[150,0],[106,106]]",diamond,green,hori,left,"[150,0]","[106,106]",left,1,1.9641,,,,,,001,2025-03-18_09h53.00.202,SL_sali,2021.2.3,Win32,60.24096386,,,101,0,101,0,1,,,,,,,,
,,"[""diamond"",""no_dis"",""vert"",""up"",[99999,99999],[0,-150]]",diamond,no_dis,vert,up,"[99999,99999]","[0,-150]",up,1,1.9471,,,,,,001,2025-03-18_09h53.00.202,SL_sali,2021.2.3,Win32,60.24096386,,,102,0,102,0,1,,,,,,,,
,,"[""diamond"",""red"",""hori"",""left"",[106,-106],[150,0]]",diamond,red,hori,left,"[106,-106]","[150,0]",left,1,1.0288,,,,,,001,2025-03-18_09h53.00.202,SL_sali,2021.2.3,Win32,60.24096386,,,103,0,103,0,1,,,,,,,,
,,"[""diamond"",""red"",""vert"",""up"",[106,-106],[-106,-106]]",diamond,red,vert,up,"[106,-106]","[-106,-106]",up,1,1.2311,,,,,,001,2025-03-18_09h53.00.202,SL_sali,2021.2.3,Win32,60.24096386,,,104,0,104,0,1,,,,,,,,
,,"[""circle"",""no_dis"",""vert"",""up"",[99999,99999],[0,150]]",circle,no_dis,vert,up,"[99999,99999]","[0,150]",up,1,1.4691,,,,,,001,2025-03-18_09h53.00.202,SL_sali,2021.2.3,Win32,60.24096386,,,105,0,105,0,1,,,,,,,,
,,"[""diamond"",""red"",""vert"",""up"",[106,-106],[106,106]]",diamond,red,vert,up,"[106,-106]","[106,106]",up,1,1.4342,,,,,,001,2025-03-18_09h53.00.202,SL_sali,2021.2.3,Win32,60.24096386,,,106,0,106,0,1,,,,,,,,
,,"[""circle"",""red"",""vert"",""up"",[0,150],[106,-106]]",circle,red,vert,up,"[0,150]","[106,-106]",up,1,1.3369,,,,,,001,2025-03-18_09h53.00.202,SL_sali,2021.2.3,Win32,60.24096386,,,107,0,107,0,1,,,,,,,,
,,"[""circle"",""green"",""vert"",""up"",[106,106],[106,-106]]",circle,green,vert,up,"[106,106]","[106,-106]",up,1,1.3049,,,,,,001,2025-03-18_09h53.00.202,SL_sali,2021.2.3,Win32,60.24096386,,,108,0,108,0,1,,,,,,,,
,,"[""diamond"",""green"",""hori"",""left"",[106,-106],[0,-150]]",diamond,green,hori,left,"[106,-106]","[0,-150]",left,1,0.9681,,,,,,001,2025-03-18_09h53.00.202,SL_sali,2021.2.3,Win32,60.24096386,,,109,0,109,0,1,,,,,,,,
,,"[""circle"",""no_dis"",""vert"",""up"",[99999,99999],[106,-106]]",circle,no_dis,vert,up,"[99999,99999]","[106,-106]",up,1,1.1049,,,,,,001,2025-03-18_09h53.00.202,SL_sali,2021.2.3,Win32,60.24096386,,,110,0,110,0,1,,,,,,,,
,,"[""diamond"",""no_dis"",""hori"",""left"",[99999,99999],[0,150]]",diamond,no_dis,hori,left,"[99999,99999]","[0,150]",left,1,1.4548,,,,,,001,2025-03-18_09h53.00.202,SL_sali,2021.2.3,Win32,60.24096386,,,111,0,111,0,1,,,,,,,,
,,"[""diamond"",""no_dis"",""hori"",""left"",[99999,99999],[-106,-106]]",diamond,no_dis,hori,left,"[99999,99999]","[-106,-106]",left,1,1.1163,,,,,,001,2025-03-18_09h53.00.202,SL_sali,2021.2.3,Win32,60.24096386,,,112,0,112,0,1,,,,,,,,
,,"[""diamond"",""no_dis"",""hori"",""left"",[99999,99999],[-150,0]]",diamond,no_dis,hori,left,"[99999,99999]","[-150,0]",left,1,0.8814,,,,,,001,2025-03-18_09h53.00.202,SL_sali,2021.2.3,Win32,60.24096386,,,113,0,113,0,1,,,,,,,,
,,"[""diamond"",""red"",""hori"",""left"",[-106,106],[150,0]]",diamond,red,hori,left,"[-106,106]","[150,0]",left,1,1.046,,,,,,001,2025-03-18_09h53.00.202,SL_sali,2021.2.3,Win32,60.24096386,,,114,0,114,0,1,,,,,,,,
,,"[""circle"",""green"",""hori"",""left"",[0,150],[150,0]]",circle,green,hori,left,"[0,150]","[150,0]",left,1,1.1895,,,,,,001,2025-03-18_09h53.00.202,SL_sali,2021.2.3,Win32,60.24096386,,,115,0,115,0,1,,,,,,,,
,,"[""circle"",""green"",""hori"",""left"",[-106,106],[106,-106]]",circle,green,hori,left,"[-106,106]","[106,-106]",left,1,1.111,,,,,,001,2025-03-18_09h53.00.202,SL_sali,2021.2.3,Win32,60.24096386,,,116,0,116,0,1,,,,,,,,
,,"[""circle"",""red"",""vert"",""up"",[106,-106],[0,-150]]",circle,red,vert,up,"[106,-106]","[0,-150]",up,1,1.9897,,,,,,001,2025-03-18_09h53.00.202,SL_sali,2021.2.3,Win32,60.24096386,,,117,0,117,0,1,,,,,,,,
,,"[""circle"",""no_dis"",""hori"",""left"",[99999,99999],[0,-150]]",circle,no_dis,hori,left,"[99999,99999]","[0,-150]",left,1,0.9914,,,,,,001,2025-03-18_09h53.00.202,SL_sali,2021.2.3,Win32,60.24096386,,,118,0,118,0,1,,,,,,,,
,,"[""diamond"",""green"",""vert"",""up"",[-106,106],[150,0]]",diamond,green,vert,up,"[-106,106]","[150,0]",up,1,1.5315,,,,,,001,2025-03-18_09h53.00.202,SL_sali,2021.2.3,Win32,60.24096386,,,119,0,119,0,1,,,,,,,,
,,,,,,,,,,,,,,,,,001,2025-03-18_09h53.00.202,SL_sali,2021.2.3,Win32,60.24096386,,,,,,,,1,space,11.364,0,0,0,0,1
,,"[""circle"",""no_dis"",""vert"",""up"",[99999,99999],[-150,0]]",circle,no_dis,vert,up,"[99999,99999]","[-150,0]",up,1,1.0497,,,,,,001,2025-03-18_09h53.00.202,SL_sali,2021.2.3,Win32,60.24096386,,,0,0,0,0,1,,,,,,,,
,,"[""circle"",""no_dis"",""hori"",""left"",[99999,99999],[-106,106]]",circle,no_dis,hori,left,"[99999,99999]","[-106,106]",left,1,1.3019,,,,,,001,2025-03-18_09h53.00.202,SL_sali,2021.2.3,Win32,60.24096386,,,1,0,1,0,1,,,,,,,,
,,"[""circle"",""red"",""hori"",""left"",[-106,-106],[106,106]]",circle,red,hori,left,"[-106,-106]","[106,106]",left,1,1.1573,,,,,,001,2025-03-18_09h53.00.202,SL_sali,2021.2.3,Win32,60.24096386,,,2,0,2,0,1,,,,,,,,
,,"[""circle"",""no_dis"",""hori"",""left"",[99999,99999],[0,-150]]",circle,no_dis,hori,left,"[99999,99999]","[0,-150]",left,1,1.4125,,,,,,001,2025-03-18_09h53.00.202,SL_sali,2021.2.3,Win32,60.24096386,,,3,0,3,0,1,,,,,,,,
,,"[""diamond"",""no_dis"",""vert"",""up"",[99999,99999],[0,150]]",diamond,no_dis,vert,up,"[99999,99999]","[0,150]",up,1,0.8947,,,,,,001,2025-03-18_09h53.00.202,SL_sali,2021.2.3,Win32,60.24096386,,,4,0,4,0,1,,,,,,,,
,,"[""diamond"",""green"",""vert"",""up"",[106,-106],[-106,-106]]",diamond,green,vert,up,"[106,-106]","[-106,-106]",up,1,1.5136,,,,,,001,2025-03-18_09h53.00.202,SL_sali,2021.2.3,Win32,60.24096386,,,5,0,5,0,1,,,,,,,,
,,"[""circle"",""red"",""hori"",""left"",[106,-106],[-106,-106]]",circle,red,hori,left,"[106,-106]","[-106,-106]",left,1,1.0155,,,,,,001,2025-03-18_09h53.00.202,SL_sali,2021.2.3,Win32,60.24096386,,,6,0,6,0,1,,,,,,,,
,,"[""diamond"",""green"",""vert"",""up"",[-106,-106],[106,-106]]",diamond,green,vert,up,"[-106,-106]","[106,-106]",up,1,1.3874,,,,,,001,2025-03-18_09h53.00.202,SL_sali,2021.2.3,Win32,60.24096386,,,7,0,7,0,1,,,,,,,,
,,"[""circle"",""no_dis"",""hori"",""left"",[99999,99999],[0,150]]",circle,no_dis,hori,left,"[99999,99999]","[0,150]",left,1,1.4128,,,,,,001,2025-03-18_09h53.00.202,SL_sali,2021.2.3,Win32,60.24096386,,,8,0,8,0,1,,,,,,,,
,,"[""circle"",""green"",""hori"",""left"",[106,-106],[0,-150]]",circle,green,hori,left,"[106,-106]","[0,-150]",left,1,1.7907,,,,,,001,2025-03-18_09h53.00.202,SL_sali,2021.2.3,Win32,60.24096386,,,9,0,9,0,1,,,,,,,,
,,"[""diamond"",""green"",""hori"",""left"",[150,0],[0,-150]]",diamond,green,hori,left,"[150,0]","[0,-150]",left,1,1.5529,,,,,,001,2025-03-18_09h53.00.202,SL_sali,2021.2.3,Win32,60.24096386,,,10,0,10,0,1,,,,,,,,
,,"[""diamond"",""red"",""hori"",""left"",[-106,-106],[106,-106]]",diamond,red,hori,left,"[-106,-106]","[106,-106]",left,1,1.2504,,,,,,001,2025-03-18_09h53.00.202,SL_sali,2021.2.3,Win32,60.24096386,,,11,0,11,0,1,,,,,,,,
,,"[""circle"",""no_dis"",""vert"",""up"",[99999,99999],[0,-150]]",circle,no_dis,vert,up,"[99999,99999]","[0,-150]",up,1,0.8791,,,,,,001,2025-03-18_09h53.00.202,SL_sali,2021.2.3,Win32,60.24096386,,,12,0,12,0,1,,,,,,,,
,,"[""circle"",""red"",""vert"",""up"",[0,-150],[-106,106]]",circle,red,vert,up,"[0,-150]","[-106,106]",up,1,1.2473,,,,,,001,2025-03-18_09h53.00.202,SL_sali,2021.2.3,Win32,60.24096386,,,13,0,13,0,1,,,,,,,,
,,"[""circle"",""no_dis"",""hori"",""left"",[99999,99999],[-150,0]]",circle,no_dis,hori,left,"[99999,99999]","[-150,0]",left,1,0.929,,,,,,001,2025-03-18_09h53.00.202,SL_sali,2021.2.3,Win32,60.24096386,,,14,0,14,0,1,,,,,,,,
,,"[""circle"",""no_dis"",""vert"",""up"",[99999,99999],[0,150]]",circle,no_dis,vert,up,"[99999,99999]","[0,150]",up,1,1.0474,,,,,,001,2025-03-18_09h53.00.202,SL_sali,2021.2.3,Win32,60.24096386,,,15,0,15,0,1,,,,,,,,
,,"[""circle"",""green"",""vert"",""up"",[106,-106],[-106,-106]]",circle,green,vert,up,"[106,-106]","[-106,-106]",up,1,0.8356,,,,,,001,2025-03-18_09h53.00.202,SL_sali,2021.2.3,Win32,60.24096386,,,16,0,16,0,1,,,,,,,,
,,"[""diamond"",""no_dis"",""hori"",""left"",[99999,99999],[106,106]]",diamond,no_dis,hori,left,"[99999,99999]","[106,106]",left,1,1.4225,,,,,,001,2025-03-18_09h53.00.202,SL_sali,2021.2.3,Win32,60.24096386,,,17,0,17,0,1,,,,,,,,
,,"[""diamond"",""no_dis"",""vert"",""up"",[99999,99999],[-106,-106]]",diamond,no_dis,vert,up,"[99999,99999]","[-106,-106]",up,1,2.0998,,,,,,001,2025-03-18_09h53.00.202,SL_sali,2021.2.3,Win32,60.24096386,,,18,0,18,0,1,,,,,,,,
,,"[""diamond"",""no_dis"",""hori"",""left"",[99999,99999],[150,0]]",diamond,no_dis,hori,left,"[99999,99999]","[150,0]",left,1,0.9995,,,,,,001,2025-03-18_09h53.00.202,SL_sali,2021.2.3,Win32,60.24096386,,,19,0,19,0,1,,,,,,,,
,,"[""diamond"",""red"",""hori"",""left"",[106,-106],[150,0]]",diamond,red,hori,left,"[106,-106]","[150,0]",left,1,1.3319,,,,,,001,2025-03-18_09h53.00.202,SL_sali,2021.2.3,Win32,60.24096386,,,20,0,20,0,1,,,,,,,,
,,"[""circle"",""green"",""hori"",""left"",[150,0],[-106,106]]",circle,green,hori,left,"[150,0]","[-106,106]",left,1,1.3831,,,,,,001,2025-03-18_09h53.00.202,SL_sali,2021.2.3,Win32,60.24096386,,,21,0,21,0,1,,,,,,,,
,,"[""circle"",""no_dis"",""hori"",""left"",[99999,99999],[0,-150]]",circle,no_dis,hori,left,"[99999,99999]","[0,-150]",left,1,1.0122,,,,,,001,2025-03-18_09h53.00.202,SL_sali,2021.2.3,Win32,60.24096386,,,22,0,22,0,1,,,,,,,,
,,"[""circle"",""red"",""hori"",""left"",[-150,0],[-106,-106]]",circle,red,hori,left,"[-150,0]","[-106,-106]",left,1,1.0656,,,,,,001,2025-03-18_09h53.00.202,SL_sali,2021.2.3,Win32,60.24096386,,,23,0,23,0,1,,,,,,,,
,,"[""circle"",""no_dis"",""hori"",""left"",[99999,99999],[150,0]]",circle,no_dis,hori,left,"[99999,99999]","[150,0]",left,1,1.3555,,,,,,001,2025-03-18_09h53.00.202,SL_sali,2021.2.3,Win32,60.24096386,,,24,0,24,0,1,,,,,,,,
,,"[""circle"",""red"",""vert"",""up"",[-150,0],[106,-106]]",circle,red,vert,up,"[-150,0]","[106,-106]",up,1,0.9179,,,,,,001,2025-03-18_09h53.00.202,SL_sali,2021.2.3,Win32,60.24096386,,,25,0,25,0,1,,,,,,,,
,,"[""diamond"",""green"",""hori"",""left"",[-150,0],[-106,-106]]",diamond,green,hori,left,"[-150,0]","[-106,-106]",left,1,1.756,,,,,,001,2025-03-18_09h53.00.202,SL_sali,2021.2.3,Win32,60.24096386,,,26,0,26,0,1,,,,,,,,
,,"[""diamond"",""no_dis"",""vert"",""up"",[99999,99999],[0,-150]]",diamond,no_dis,vert,up,"[99999,99999]","[0,-150]",up,1,1.9304,,,,,,001,2025-03-18_09h53.00.202,SL_sali,2021.2.3,Win32,60.24096386,,,27,0,27,0,1,,,,,,,,
,,"[""circle"",""no_dis"",""vert"",""up"",[99999,99999],[-150,0]]",circle,no_dis,vert,up,"[99999,99999]","[-150,0]",up,1,1.1205,,,,,,001,2025-03-18_09h53.00.202,SL_sali,2021.2.3,Win32,60.24096386,,,28,0,28,0,1,,,,,,,,
,,"[""circle"",""no_dis"",""vert"",""up"",[99999,99999],[0,150]]",circle,no_dis,vert,up,"[99999,99999]","[0,150]",up,1,1.0208,,,,,,001,2025-03-18_09h53.00.202,SL_sali,2021.2.3,Win32,60.24096386,,,29,0,29,0,1,,,,,,,,
,,"[""diamond"",""green"",""hori"",""left"",[-150,0],[0,150]]",diamond,green,hori,left,"[-150,0]","[0,150]",left,1,1.7131,,,,,,001,2025-03-18_09h53.00.202,SL_sali,2021.2.3,Win32,60.24096386,,,30,0,30,0,1,,,,,,,,
,,"[""circle"",""green"",""hori"",""left"",[0,150],[150,0]]",circle,green,hori,left,"[0,150]","[150,0]",left,1,1.4727,,,,,,001,2025-03-18_09h53.00.202,SL_sali,2021.2.3,Win32,60.24096386,,,31,0,31,0,1,,,,,,,,
,,"[""diamond"",""red"",""hori"",""left"",[0,150],[106,-106]]",diamond,red,hori,left,"[0,150]","[106,-106]",left,1,1.2177,,,,,,001,2025-03-18_09h53.00.202,SL_sali,2021.2.3,Win32,60.24096386,,,32,0,32,0,1,,,,,,,,
,,"[""diamond"",""red"",""hori"",""left"",[-150,0],[0,-150]]",diamond,red,hori,left,"[-150,0]","[0,-150]",left,1,1.287,,,,,,001,2025-03-18_09h53.00.202,SL_sali,2021.2.3,Win32,60.24096386,,,33,0,33,0,1,,,,,,,,
,,"[""circle"",""red"",""hori"",""left"",[-150,0],[106,-106]]",circle,red,hori,left,"[-150,0]","[106,-106]",left,1,1.8395,,,,,,001,2025-03-18_09h53.00.202,SL_sali,2021.2.3,Win32,60.24096386,,,34,0,34,0,1,,,,,,,,
,,"[""circle"",""red"",""vert"",""up"",[106,-106],[106,106]]",circle,red,vert,up,"[106,-106]","[106,106]",up,1,1.7731,,,,,,001,2025-03-18_09h53.00.202,SL_sali,2021.2.3,Win32,60.24096386,,,35,0,35,0,1,,,,,,,,
,,"[""circle"",""red"",""hori"",""left"",[106,106],[0,-150]]",circle,red,hori,left,"[106,106]","[0,-150]",left,1,1.5956,,,,,,001,2025-03-18_09h53.00.202,SL_sali,2021.2.3,Win32,60.24096386,,,36,0,36,0,1,,,,,,,,
,,"[""circle"",""green"",""vert"",""up"",[-106,106],[106,-106]]",circle,green,vert,up,"[-106,106]","[106,-106]",up,1,2.4492,,,,,,001,2025-03-18_09h53.00.202,SL_sali,2021.2.3,Win32,60.24096386,,,37,0,37,0,1,,,,,,,,
,,"[""diamond"",""green"",""vert"",""up"",[106,-106],[150,0]]",diamond,green,vert,up,"[106,-106]","[150,0]",up,1,1.3455,,,,,,001,2025-03-18_09h53.00.202,SL_sali,2021.2.3,Win32,60.24096386,,,38,0,38,0,1,,,,,,,,
,,"[""circle"",""red"",""hori"",""left"",[106,-106],[0,150]]",circle,red,hori,left,"[106,-106]","[0,150]",left,1,1.213,,,,,,001,2025-03-18_09h53.00.202,SL_sali,2021.2.3,Win32,60.24096386,,,39,0,39,0,1,,,,,,,,
,,"[""circle"",""green"",""vert"",""up"",[106,-106],[0,150]]",circle,green,vert,up,"[106,-106]","[0,150]",up,1,1.0584,,,,,,001,2025-03-18_09h53.00.202,SL_sali,2021.2.3,Win32,60.24096386,,,40,0,40,0,1,,,,,,,,
,,"[""circle"",""green"",""vert"",""up"",[150,0],[106,106]]",circle,green,vert,up,"[150,0]","[106,106]",up,1,1.491,,,,,,001,2025-03-18_09h53.00.202,SL_sali,2021.2.3,Win32,60.24096386,,,41,0,41,0,1,,,,,,,,
,,"[""diamond"",""green"",""vert"",""up"",[-150,0],[150,0]]",diamond,green,vert,up,"[-150,0]","[150,0]",up,1,1.047,,,,,,001,2025-03-18_09h53.00.202,SL_sali,2021.2.3,Win32,60.24096386,,,42,0,42,0,1,,,,,,,,
,,"[""circle"",""no_dis"",""hori"",""left"",[99999,99999],[-106,-106]]",circle,no_dis,hori,left,"[99999,99999]","[-106,-106]",left,1,1.533,,,,,,001,2025-03-18_09h53.00.202,SL_sali,2021.2.3,Win32,60.24096386,,,43,0,43,0,1,,,,,,,,
,,"[""circle"",""no_dis"",""hori"",""left"",[99999,99999],[106,-106]]",circle,no_dis,hori,left,"[99999,99999]","[106,-106]",left,1,1.7536,,,,,,001,2025-03-18_09h53.00.202,SL_sali,2021.2.3,Win32,60.24096386,,,44,0,44,0,1,,,,,,,,
,,"[""circle"",""no_dis"",""vert"",""up"",[99999,99999],[106,-106]]",circle,no_dis,vert,up,"[99999,99999]","[106,-106]",up,1,1.0622,,,,,,001,2025-03-18_09h53.00.202,SL_sali,2021.2.3,Win32,60.24096386,,,45,0,45,0,1,,,,,,,,
,,"[""circle"",""no_dis"",""vert"",""up"",[99999,99999],[0,-150]]",circle,no_dis,vert,up,"[99999,99999]","[0,-150]",up,1,0.9828,,,,,,001,2025-03-18_09h53.00.202,SL_sali,2021.2.3,Win32,60.24096386,,,46,0,46,0,1,,,,,,,,
,,"[""diamond"",""no_dis"",""hori"",""left"",[99999,99999],[150,0]]",diamond,no_dis,hori,left,"[99999,99999]","[150,0]",left,1,1.0682,,,,,,001,2025-03-18_09h53.00.202,SL_sali,2021.2.3,Win32,60.24096386,,,47,0,47,0,1,,,,,,,,
,,"[""circle"",""no_dis"",""hori"",""left"",[99999,99999],[106,-106]]",circle,no_dis,hori,left,"[99999,99999]","[106,-106]",left,1,1.1405,,,,,,001,2025-03-18_09h53.00.202,SL_sali,2021.2.3,Win32,60.24096386,,,48,0,48,0,1,,,,,,,,
,,"[""diamond"",""no_dis"",""vert"",""up"",[99999,99999],[-106,106]]",diamond,no_dis,vert,up,"[99999,99999]","[-106,106]",up,1,1.3504,,,,,,001,2025-03-18_09h53.00.202,SL_sali,2021.2.3,Win32,60.24096386,,,49,0,49,0,1,,,,,,,,
,,"[""circle"",""red"",""hori"",""left"",[106,-106],[0,150]]",circle,red,hori,left,"[106,-106]","[0,150]",left,1,1.4962,,,,,,001,2025-03-18_09h53.00.202,SL_sali,2021.2.3,Win32,60.24096386,,,50,0,50,0,1,,,,,,,,
,,"[""circle"",""green"",""hori"",""left"",[106,-106],[-106,-106]]",circle,green,hori,left,"[106,-106]","[-106,-106]",left,1,1.9237,,,,,,001,2025-03-18_09h53.00.202,SL_sali,2021.2.3,Win32,60.24096386,,,51,0,51,0,1,,,,,,,,
,,"[""circle"",""red"",""vert"",""up"",[-106,-106],[106,106]]",circle,red,vert,up,"[-106,-106]","[106,106]",up,1,1.2177,,,,,,001,2025-03-18_09h53.00.202,SL_sali,2021.2.3,Win32,60.24096386,,,52,0,52,0,1,,,,,,,,
,,"[""circle"",""green"",""hori"",""left"",[0,-150],[-150,0]]",circle,green,hori,left,"[0,-150]","[-150,0]",left,1,1.1206,,,,,,001,2025-03-18_09h53.00.202,SL_sali,2021.2.3,Win32,60.24096386,,,53,0,53,0,1,,,,,,,,
,,"[""circle"",""no_dis"",""vert"",""up"",[99999,99999],[-106,106]]",circle,no_dis,vert,up,"[99999,99999]","[-106,106]",up,1,0.9555,,,,,,001,2025-03-18_09h53.00.202,SL_sali,2021.2.3,Win32,60.24096386,,,54,0,54,0,1,,,,,,,,
,,"[""diamond"",""green"",""hori"",""left"",[150,0],[106,106]]",diamond,green,hori,left,"[150,0]","[106,106]",left,1,1.1632,,,,,,001,2025-03-18_09h53.00.202,SL_sali,2021.2.3,Win32,60.24096386,,,55,0,55,0,1,,,,,,,,
,,"[""diamond"",""green"",""vert"",""up"",[0,-150],[106,-106]]",diamond,green,vert,up,"[0,-150]","[106,-106]",left,0,2.5525,,,,,,001,2025-03-18_09h53.00.202,SL_sali,2021.2.3,Win32,60.24096386,,,56,0,56,0,1,,,,,,,,
,,"[""diamond"",""red"",""vert"",""up"",[106,-106],[0,150]]",diamond,red,vert,up,"[106,-106]","[0,150]",up,1,1.5033,,,,,,001,2025-03-18_09h53.00.202,SL_sali,2021.2.3,Win32,60.24096386,,,57,0,57,0,1,,,,,,,,
,,"[""circle"",""red"",""vert"",""up"",[0,-150],[150,0]]",circle,red,vert,up,"[0,-150]","[150,0]",left,0,1.0959,,,,,,001,2025-03-18_09h53.00.202,SL_sali,2021.2.3,Win32,60.24096386,,,58,0,58,0,1,,,,,,,,
,,"[""diamond"",""green"",""vert"",""up"",[106,-106],[-150,0]]",diamond,green,vert,up,"[106,-106]","[-150,0]",up,1,1.2114,,,,,,001,2025-03-18_09h53.00.202,SL_sali,2021.2.3,Win32,60.24096386,,,59,0,59,0,1,,,,,,,,
,,"[""diamond"",""green"",""hori"",""left"",[106,106],[-106,106]]",diamond,green,hori,left,"[106,106]","[-106,106]",left,1,1.3144,,,,,,001,2025-03-18_09h53.00.202,SL_sali,2021.2.3,Win32,60.24096386,,,60,0,60,0,1,,,,,,,,
,,"[""diamond"",""green"",""hori"",""left"",[-106,-106],[-106,106]]",diamond,green,hori,left,"[-106,-106]","[-106,106]",left,1,0.8316,,,,,,001,2025-03-18_09h53.00.202,SL_sali,2021.2.3,Win32,60.24096386,,,61,0,61,0,1,,,,,,,,
,,"[""circle"",""green"",""hori"",""left"",[0,150],[150,0]]",circle,green,hori,left,"[0,150]","[150,0]",left,1,1.2627,,,,,,001,2025-03-18_09h53.00.202,SL_sali,2021.2.3,Win32,60.24096386,,,62,0,62,0,1,,,,,,,,
,,"[""diamond"",""red"",""vert"",""up"",[-106,-106],[106,-106]]",diamond,red,vert,up,"[-106,-106]","[106,-106]",up,1,1.7807,,,,,,001,2025-03-18_09h53.00.202,SL_sali,2021.2.3,Win32,60.24096386,,,63,0,63,0,1,,,,,,,,
,,"[""diamond"",""red"",""vert"",""up"",[0,150],[-106,-106]]",diamond,red,vert,up,"[0,150]","[-106,-106]",up,1,1.0949,,,,,,001,2025-03-18_09h53.00.202,SL_sali,2021.2.3,Win32,60.24096386,,,64,0,64,0,1,,,,,,,,
,,"[""diamond"",""no_dis"",""hori"",""left"",[99999,99999],[106,106]]",diamond,no_dis,hori,left,"[99999,99999]","[106,106]",left,1,1.568,,,,,,001,2025-03-18_09h53.00.202,SL_sali,2021.2.3,Win32,60.24096386,,,65,0,65,0,1,,,,,,,,
,,"[""circle"",""no_dis"",""vert"",""up"",[99999,99999],[106,106]]",circle,no_dis,vert,up,"[99999,99999]","[106,106]",up,1,1.2979,,,,,,001,2025-03-18_09h53.00.202,SL_sali,2021.2.3,Win32,60.24096386,,,66,0,66,0,1,,,,,,,,
,,"[""circle"",""red"",""vert"",""up"",[106,-106],[0,-150]]",circle,red,vert,up,"[106,-106]","[0,-150]",up,1,1.1335,,,,,,001,2025-03-18_09h53.00.202,SL_sali,2021.2.3,Win32,60.24096386,,,67,0,67,0,1,,,,,,,,
,,"[""circle"",""green"",""vert"",""up"",[106,106],[106,-106]]",circle,green,vert,up,"[106,106]","[106,-106]",up,1,1.365,,,,,,001,2025-03-18_09h53.00.202,SL_sali,2021.2.3,Win32,60.24096386,,,68,0,68,0,1,,,,,,,,
,,"[""diamond"",""no_dis"",""hori"",""left"",[99999,99999],[0,150]]",diamond,no_dis,hori,left,"[99999,99999]","[0,150]",left,1,1.1287,,,,,,001,2025-03-18_09h53.00.202,SL_sali,2021.2.3,Win32,60.24096386,,,69,0,69,0,1,,,,,,,,
,,"[""circle"",""red"",""vert"",""up"",[-106,106],[-106,-106]]",circle,red,vert,up,"[-106,106]","[-106,-106]",up,1,1.4181,,,,,,001,2025-03-18_09h53.00.202,SL_sali,2021.2.3,Win32,60.24096386,,,70,0,70,0,1,,,,,,,,
,,"[""diamond"",""red"",""vert"",""up"",[106,-106],[-106,106]]",diamond,red,vert,up,"[106,-106]","[-106,106]",up,1,1.6323,,,,,,001,2025-03-18_09h53.00.202,SL_sali,2021.2.3,Win32,60.24096386,,,71,0,71,0,1,,,,,,,,
,,"[""diamond"",""red"",""hori"",""left"",[-150,0],[106,106]]",diamond,red,hori,left,"[-150,0]","[106,106]",left,1,1.1523,,,,,,001,2025-03-18_09h53.00.202,SL_sali,2021.2.3,Win32,60.24096386,,,72,0,72,0,1,,,,,,,,
,,"[""diamond"",""no_dis"",""hori"",""left"",[99999,99999],[-150,0]]",diamond,no_dis,hori,left,"[99999,99999]","[-150,0]",left,1,1.0215,,,,,,001,2025-03-18_09h53.00.202,SL_sali,2021.2.3,Win32,60.24096386,,,73,0,73,0,1,,,,,,,,
,,"[""diamond"",""red"",""hori"",""left"",[106,-106],[0,-150]]",diamond,red,hori,left,"[106,-106]","[0,-150]",left,1,1.4474,,,,,,001,2025-03-18_09h53.00.202,SL_sali,2021.2.3,Win32,60.24096386,,,74,0,74,0,1,,,,,,,,
,,"[""diamond"",""no_dis"",""vert"",""up"",[99999,99999],[-106,106]]",diamond,no_dis,vert,up,"[99999,99999]","[-106,106]",up,1,1.1473,,,,,,001,2025-03-18_09h53.00.202,SL_sali,2021.2.3,Win32,60.24096386,,,75,0,75,0,1,,,,,,,,
,,"[""circle"",""green"",""hori"",""left"",[106,-106],[0,150]]",circle,green,hori,left,"[106,-106]","[0,150]",left,1,1.2321,,,,,,001,2025-03-18_09h53.00.202,SL_sali,2021.2.3,Win32,60.24096386,,,76,0,76,0,1,,,,,,,,
,,"[""circle"",""red"",""vert"",""up"",[0,150],[106,-106]]",circle,red,vert,up,"[0,150]","[106,-106]",up,1,1.2381,,,,,,001,2025-03-18_09h53.00.202,SL_sali,2021.2.3,Win32,60.24096386,,,77,0,77,0,1,,,,,,,,
,,"[""circle"",""red"",""hori"",""left"",[106,106],[150,0]]",circle,red,hori,left,"[106,106]","[150,0]",left,1,2.4997,,,,,,001,2025-03-18_09h53.00.202,SL_sali,2021.2.3,Win32,60.24096386,,,78,0,78,0,1,,,,,,,,
,,"[""circle"",""green"",""vert"",""up"",[0,-150],[-106,106]]",circle,green,vert,up,"[0,-150]","[-106,106]",up,1,1.246,,,,,,001,2025-03-18_09h53.00.202,SL_sali,2021.2.3,Win32,60.24096386,,,79,0,79,0,1,,,,,,,,
,,"[""diamond"",""red"",""vert"",""up"",[106,-106],[106,106]]",diamond,red,vert,up,"[106,-106]","[106,106]",left,0,1.5375,,,,,,001,2025-03-18_09h53.00.202,SL_sali,2021.2.3,Win32,60.24096386,,,80,0,80,0,1,,,,,,,,
,,"[""circle"",""red"",""hori"",""left"",[-106,-106],[-150,0]]",circle,red,hori,left,"[-106,-106]","[-150,0]",left,1,1.4619,,,,,,001,2025-03-18_09h53.00.202,SL_sali,2021.2.3,Win32,60.24096386,,,81,0,81,0,1,,,,,,,,
,,"[""diamond"",""red"",""vert"",""up"",[106,-106],[-106,-106]]",diamond,red,vert,up,"[106,-106]","[-106,-106]",up,1,1.2212,,,,,,001,2025-03-18_09h53.00.202,SL_sali,2021.2.3,Win32,60.24096386,,,82,0,82,0,1,,,,,,,,
,,"[""circle"",""no_dis"",""hori"",""left"",[99999,99999],[150,0]]",circle,no_dis,hori,left,"[99999,99999]","[150,0]",left,1,1.2672,,,,,,001,2025-03-18_09h53.00.202,SL_sali,2021.2.3,Win32,60.24096386,,,83,0,83,0,1,,,,,,,,
,,"[""diamond"",""no_dis"",""hori"",""left"",[99999,99999],[-106,-106]]",diamond,no_dis,hori,left,"[99999,99999]","[-106,-106]",left,1,1.0644,,,,,,001,2025-03-18_09h53.00.202,SL_sali,2021.2.3,Win32,60.24096386,,,84,0,84,0,1,,,,,,,,
,,"[""circle"",""no_dis"",""vert"",""up"",[99999,99999],[150,0]]",circle,no_dis,vert,up,"[99999,99999]","[150,0]",up,1,0.8745,,,,,,001,2025-03-18_09h53.00.202,SL_sali,2021.2.3,Win32,60.24096386,,,85,0,85,0,1,,,,,,,,
,,"[""diamond"",""red"",""vert"",""up"",[0,150],[-106,106]]",diamond,red,vert,up,"[0,150]","[-106,106]",up,1,1.7971,,,,,,001,2025-03-18_09h53.00.202,SL_sali,2021.2.3,Win32,60.24096386,,,86,0,86,0,1,,,,,,,,
,,"[""diamond"",""no_dis"",""vert"",""up"",[99999,99999],[-150,0]]",diamond,no_dis,vert,up,"[99999,99999]","[-150,0]",up,1,1.0972,,,,,,001,2025-03-18_09h53.00.202,SL_sali,2021.2.3,Win32,60.24096386,,,87,0,87,0,1,,,,,,,,
,,"[""diamond"",""no_dis"",""vert"",""up"",[99999,99999],[106,106]]",diamond,no_dis,vert,up,"[99999,99999]","[106,106]",up,1,1.0612,,,,,,001,2025-03-18_09h53.00.202,SL_sali,2021.2.3,Win32,60.24096386,,,88,0,88,0,1,,,,,,,,
,,"[""circle"",""green"",""vert"",""up"",[150,0],[0,-150]]",circle,green,vert,up,"[150,0]","[0,-150]",up,1,1.5453,,,,,,001,2025-03-18_09h53.00.202,SL_sali,2021.2.3,Win32,60.24096386,,,89,0,89,0,1,,,,,,,,
,,"[""diamond"",""green"",""vert"",""up"",[-106,-106],[106,-106]]",diamond,green,vert,up,"[-106,-106]","[106,-106]",up,1,1.0391,,,,,,001,2025-03-18_09h53.00.202,SL_sali,2021.2.3,Win32,60.24096386,,,90,0,90,0,1,,,,,,,,
,,"[""circle"",""red"",""vert"",""up"",[0,-150],[106,106]]",circle,red,vert,up,"[0,-150]","[106,106]",up,1,1.5126,,,,,,001,2025-03-18_09h53.00.202,SL_sali,2021.2.3,Win32,60.24096386,,,91,0,91,0,1,,,,,,,,
,,"[""circle"",""green"",""hori"",""left"",[0,-150],[106,106]]",circle,green,hori,left,"[0,-150]","[106,106]",left,1,1.3959,,,,,,001,2025-03-18_09h53.00.202,SL_sali,2021.2.3,Win32,60.24096386,,,92,0,92,0,1,,,,,,,,
,,"[""diamond"",""red"",""vert"",""up"",[-106,106],[150,0]]",diamond,red,vert,up,"[-106,106]","[150,0]",up,1,1.3273,,,,,,001,2025-03-18_09h53.00.202,SL_sali,2021.2.3,Win32,60.24096386,,,93,0,93,0,1,,,,,,,,
,,"[""diamond"",""no_dis"",""vert"",""up"",[99999,99999],[-106,-106]]",diamond,no_dis,vert,up,"[99999,99999]","[-106,-106]",up,1,1.2805,,,,,,001,2025-03-18_09h53.00.202,SL_sali,2021.2.3,Win32,60.24096386,,,94,0,94,0,1,,,,,,,,
,,"[""circle"",""green"",""hori"",""left"",[-106,106],[150,0]]",circle,green,hori,left,"[-106,106]","[150,0]",left,1,0.9617,,,,,,001,2025-03-18_09h53.00.202,SL_sali,2021.2.3,Win32,60.24096386,,,95,0,95,0,1,,,,,,,,
,,"[""diamond"",""red"",""hori"",""left"",[106,106],[-106,-106]]",diamond,red,hori,left,"[106,106]","[-106,-106]",left,1,1.299,,,,,,001,2025-03-18_09h53.00.202,SL_sali,2021.2.3,Win32,60.24096386,,,96,0,96,0,1,,,,,,,,
,,"[""diamond"",""red"",""vert"",""up"",[-106,106],[106,-106]]",diamond,red,vert,up,"[-106,106]","[106,-106]",up,1,1.6507,,,,,,001,2025-03-18_09h53.00.202,SL_sali,2021.2.3,Win32,60.24096386,,,97,0,97,0,1,,,,,,,,
,,"[""diamond"",""no_dis"",""hori"",""left"",[99999,99999],[-106,-106]]",diamond,no_dis,hori,left,"[99999,99999]","[-106,-106]",left,1,1.2303,,,,,,001,2025-03-18_09h53.00.202,SL_sali,2021.2.3,Win32,60.24096386,,,98,0,98,0,1,,,,,,,,
,,"[""circle"",""green"",""vert"",""up"",[106,-106],[0,-150]]",circle,green,vert,up,"[106,-106]","[0,-150]",up,1,0.988,,,,,,001,2025-03-18_09h53.00.202,SL_sali,2021.2.3,Win32,60.24096386,,,99,0,99,0,1,,,,,,,,
,,"[""diamond"",""red"",""hori"",""left"",[150,0],[0,-150]]",diamond,red,hori,left,"[150,0]","[0,-150]",left,1,1.5478,,,,,,001,2025-03-18_09h53.00.202,SL_sali,2021.2.3,Win32,60.24096386,,,100,0,100,0,1,,,,,,,,
,,"[""circle"",""green"",""hori"",""left"",[-106,106],[106,-106]]",circle,green,hori,left,"[-106,106]","[106,-106]",left,1,0.9411,,,,,,001,2025-03-18_09h53.00.202,SL_sali,2021.2.3,Win32,60.24096386,,,101,0,101,0,1,,,,,,,,
,,"[""diamond"",""green"",""vert"",""up"",[150,0],[-150,0]]",diamond,green,vert,up,"[150,0]","[-150,0]",up,1,0.9115,,,,,,001,2025-03-18_09h53.00.202,SL_sali,2021.2.3,Win32,60.24096386,,,102,0,102,0,1,,,,,,,,
,,"[""diamond"",""red"",""vert"",""up"",[0,-150],[-106,106]]",diamond,red,vert,up,"[0,-150]","[-106,106]",up,1,1.0143,,,,,,001,2025-03-18_09h53.00.202,SL_sali,2021.2.3,Win32,60.24096386,,,103,0,103,0,1,,,,,,,,
,,"[""diamond"",""green"",""vert"",""up"",[-106,106],[150,0]]",diamond,green,vert,up,"[-106,106]","[150,0]",up,1,0.8138,,,,,,001,2025-03-18_09h53.00.202,SL_sali,2021.2.3,Win32,60.24096386,,,104,0,104,0,1,,,,,,,,
,,"[""diamond"",""green"",""hori"",""left"",[150,0],[0,150]]",diamond,green,hori,left,"[150,0]","[0,150]",left,1,0.9895,,,,,,001,2025-03-18_09h53.00.202,SL_sali,2021.2.3,Win32,60.24096386,,,105,0,105,0,1,,,,,,,,
,,"[""circle"",""green"",""vert"",""up"",[106,106],[-106,106]]",circle,green,vert,up,"[106,106]","[-106,106]",up,1,1.2729,,,,,,001,2025-03-18_09h53.00.202,SL_sali,2021.2.3,Win32,60.24096386,,,106,0,106,0,1,,,,,,,,
,,"[""diamond"",""red"",""hori"",""left"",[106,106],[0,-150]]",diamond,red,hori,left,"[106,106]","[0,-150]",left,1,1.1828,,,,,,001,2025-03-18_09h53.00.202,SL_sali,2021.2.3,Win32,60.24096386,,,107,0,107,0,1,,,,,,,,
,,"[""diamond"",""no_dis"",""vert"",""up"",[99999,99999],[-106,106]]",diamond,no_dis,vert,up,"[99999,99999]","[-106,106]",up,1,1.2277,,,,,,001,2025-03-18_09h53.00.202,SL_sali,2021.2.3,Win32,60.24096386,,,108,0,108,0,1,,,,,,,,
,,"[""circle"",""green"",""vert"",""up"",[0,150],[106,-106]]",circle,green,vert,up,"[0,150]","[106,-106]",up,1,1.2481,,,,,,001,2025-03-18_09h53.00.202,SL_sali,2021.2.3,Win32,60.24096386,,,109,0,109,0,1,,,,,,,,
,,"[""diamond"",""red"",""hori"",""left"",[-106,106],[150,0]]",diamond,red,hori,left,"[-106,106]","[150,0]",left,1,1.6472,,,,,,001,2025-03-18_09h53.00.202,SL_sali,2021.2.3,Win32,60.24096386,,,110,0,110,0,1,,,,,,,,
,,"[""diamond"",""no_dis"",""vert"",""up"",[99999,99999],[106,-106]]",diamond,no_dis,vert,up,"[99999,99999]","[106,-106]",up,1,1.9675,,,,,,001,2025-03-18_09h53.00.202,SL_sali,2021.2.3,Win32,60.24096386,,,111,0,111,0,1,,,,,,,,
,,"[""diamond"",""green"",""hori"",""left"",[106,106],[-106,-106]]",diamond,green,hori,left,"[106,106]","[-106,-106]",left,1,1.4111,,,,,,001,2025-03-18_09h53.00.202,SL_sali,2021.2.3,Win32,60.24096386,,,112,0,112,0,1,,,,,,,,
,,"[""diamond"",""no_dis"",""hori"",""left"",[99999,99999],[106,-106]]",diamond,no_dis,hori,left,"[99999,99999]","[106,-106]",left,1,1.5825,,,,,,001,2025-03-18_09h53.00.202,SL_sali,2021.2.3,Win32,60.24096386,,,113,0,113,0,1,,,,,,,,
,,"[""circle"",""red"",""vert"",""up"",[106,-106],[-150,0]]",circle,red,vert,up,"[106,-106]","[-150,0]",up,1,1.1722,,,,,,001,2025-03-18_09h53.00.202,SL_sali,2021.2.3,Win32,60.24096386,,,114,0,114,0,1,,,,,,,,
,,"[""diamond"",""no_dis"",""hori"",""left"",[99999,99999],[106,106]]",diamond,no_dis,hori,left,"[99999,99999]","[106,106]",left,1,1.0568,,,,,,001,2025-03-18_09h53.00.202,SL_sali,2021.2.3,Win32,60.24096386,,,115,0,115,0,1,,,,,,,,
,,"[""diamond"",""green"",""hori"",""left"",[0,150],[150,0]]",diamond,green,hori,left,"[0,150]","[150,0]",left,1,1.1785,,,,,,001,2025-03-18_09h53.00.202,SL_sali,2021.2.3,Win32,60.24096386,,,116,0,116,0,1,,,,,,,,
,,"[""diamond"",""green"",""vert"",""up"",[106,-106],[-106,106]]",diamond,green,vert,up,"[106,-106]","[-106,106]",up,1,0.8298,,,,,,001,2025-03-18_09h53.00.202,SL_sali,2021.2.3,Win32,60.24096386,,,117,0,117,0,1,,,,,,,,
,,"[""circle"",""red"",""hori"",""left"",[106,-106],[-150,0]]",circle,red,hori,left,"[106,-106]","[-150,0]",left,1,1.3007,,,,,,001,2025-03-18_09h53.00.202,SL_sali,2021.2.3,Win32,60.24096386,,,118,0,118,0,1,,,,,,,,
,,"[""diamond"",""green"",""hori"",""left"",[106,-106],[0,-150]]",diamond,green,hori,left,"[106,-106]","[0,-150]",left,1,1.1473,,,,,,001,2025-03-18_09h53.00.202,SL_sali,2021.2.3,Win32,60.24096386,,,119,0,119,0,1,,,,,,,,
,,,,,,,,,,,,,,,,,001,2025-03-18_09h53.00.202,SL_sali,2021.2.3,Win32,60.24096386,,,,,,,,2,space,17.4976,1,0,1,0,1
,,"[""diamond"",""green"",""hori"",""left"",[106,-106],[0,-150]]",diamond,green,hori,left,"[106,-106]","[0,-150]",left,1,1.2516,,,,,,001,2025-03-18_09h53.00.202,SL_sali,2021.2.3,Win32,60.24096386,,,0,0,0,0,1,,,,,,,,
,,"[""diamond"",""red"",""vert"",""up"",[-106,106],[106,-106]]",diamond,red,vert,up,"[-106,106]","[106,-106]",up,1,0.9519,,,,,,001,2025-03-18_09h53.00.202,SL_sali,2021.2.3,Win32,60.24096386,,,1,0,1,0,1,,,,,,,,
,,"[""circle"",""no_dis"",""hori"",""left"",[99999,99999],[-106,106]]",circle,no_dis,hori,left,"[99999,99999]","[-106,106]",left,1,1.0813,,,,,,001,2025-03-18_09h53.00.202,SL_sali,2021.2.3,Win32,60.24096386,,,2,0,2,0,1,,,,,,,,
,,"[""circle"",""green"",""hori"",""left"",[150,0],[-106,106]]",circle,green,hori,left,"[150,0]","[-106,106]",left,1,0.7549,,,,,,001,2025-03-18_09h53.00.202,SL_sali,2021.2.3,Win32,60.24096386,,,3,0,3,0,1,,,,,,,,
,,"[""circle"",""green"",""hori"",""left"",[0,-150],[-150,0]]",circle,green,hori,left,"[0,-150]","[-150,0]",left,1,0.7741,,,,,,001,2025-03-18_09h53.00.202,SL_sali,2021.2.3,Win32,60.24096386,,,4,0,4,0,1,,,,,,,,
,,"[""diamond"",""red"",""vert"",""up"",[0,-150],[-106,106]]",diamond,red,vert,up,"[0,-150]","[-106,106]",up,1,1.1468,,,,,,001,2025-03-18_09h53.00.202,SL_sali,2021.2.3,Win32,60.24096386,,,5,0,5,0,1,,,,,,,,
,,"[""diamond"",""no_dis"",""vert"",""up"",[99999,99999],[-106,106]]",diamond,no_dis,vert,up,"[99999,99999]","[-106,106]",up,1,0.7676,,,,,,001,2025-03-18_09h53.00.202,SL_sali,2021.2.3,Win32,60.24096386,,,6,0,6,0,1,,,,,,,,
,,"[""circle"",""no_dis"",""vert"",""up"",[99999,99999],[-106,106]]",circle,no_dis,vert,up,"[99999,99999]","[-106,106]",up,1,1.0727,,,,,,001,2025-03-18_09h53.00.202,SL_sali,2021.2.3,Win32,60.24096386,,,7,0,7,0,1,,,,,,,,
,,"[""circle"",""no_dis"",""hori"",""left"",[99999,99999],[106,-106]]",circle,no_dis,hori,left,"[99999,99999]","[106,-106]",left,1,1.0324,,,,,,001,2025-03-18_09h53.00.202,SL_sali,2021.2.3,Win32,60.24096386,,,8,0,8,0,1,,,,,,,,
,,"[""circle"",""green"",""vert"",""up"",[106,106],[106,-106]]",circle,green,vert,up,"[106,106]","[106,-106]",up,1,0.9962,,,,,,001,2025-03-18_09h53.00.202,SL_sali,2021.2.3,Win32,60.24096386,,,9,0,9,0,1,,,,,,,,
,,"[""diamond"",""red"",""vert"",""up"",[0,150],[-106,106]]",diamond,red,vert,up,"[0,150]","[-106,106]",up,1,0.92,,,,,,001,2025-03-18_09h53.00.202,SL_sali,2021.2.3,Win32,60.24096386,,,10,0,10,0,1,,,,,,,,
,,"[""circle"",""green"",""vert"",""up"",[-106,106],[106,-106]]",circle,green,vert,up,"[-106,106]","[106,-106]",up,1,1.8165,,,,,,001,2025-03-18_09h53.00.202,SL_sali,2021.2.3,Win32,60.24096386,,,11,0,11,0,1,,,,,,,,
,,"[""diamond"",""green"",""hori"",""left"",[150,0],[0,150]]",diamond,green,hori,left,"[150,0]","[0,150]",left,1,2.2068,,,,,,001,2025-03-18_09h53.00.202,SL_sali,2021.2.3,Win32,60.24096386,,,12,0,12,0,1,,,,,,,,
,,"[""diamond"",""red"",""vert"",""up"",[106,-106],[0,150]]",diamond,red,vert,up,"[106,-106]","[0,150]",up,1,1.5685,,,,,,001,2025-03-18_09h53.00.202,SL_sali,2021.2.3,Win32,60.24096386,,,13,0,13,0,1,,,,,,,,
,,"[""circle"",""red"",""vert"",""up"",[-150,0],[106,-106]]",circle,red,vert,up,"[-150,0]","[106,-106]",up,1,1.3297,,,,,,001,2025-03-18_09h53.00.202,SL_sali,2021.2.3,Win32,60.24096386,,,14,0,14,0,1,,,,,,,,
,,"[""diamond"",""no_dis"",""vert"",""up"",[99999,99999],[-106,-106]]",diamond,no_dis,vert,up,"[99999,99999]","[-106,-106]",up,1,1.3142,,,,,,001,2025-03-18_09h53.00.202,SL_sali,2021.2.3,Win32,60.24096386,,,15,0,15,0,1,,,,,,,,
,,"[""diamond"",""no_dis"",""vert"",""up"",[99999,99999],[0,-150]]",diamond,no_dis,vert,up,"[99999,99999]","[0,-150]",up,1,1.0348,,,,,,001,2025-03-18_09h53.00.202,SL_sali,2021.2.3,Win32,60.24096386,,,16,0,16,0,1,,,,,,,,
,,"[""diamond"",""no_dis"",""hori"",""left"",[99999,99999],[150,0]]",diamond,no_dis,hori,left,"[99999,99999]","[150,0]",left,1,0.805,,,,,,001,2025-03-18_09h53.00.202,SL_sali,2021.2.3,Win32,60.24096386,,,17,0,17,0,1,,,,,,,,
,,"[""circle"",""green"",""vert"",""up"",[150,0],[0,-150]]",circle,green,vert,up,"[150,0]","[0,-150]",up,1,1.2809,,,,,,001,2025-03-18_09h53.00.202,SL_sali,2021.2.3,Win32,60.24096386,,,18,0,18,0,1,,,,,,,,
,,"[""diamond"",""red"",""vert"",""up"",[106,-106],[106,106]]",diamond,red,vert,up,"[106,-106]","[106,106]",up,1,1.2478,,,,,,001,2025-03-18_09h53.00.202,SL_sali,2021.2.3,Win32,60.24096386,,,19,0,19,0,1,,,,,,,,
,,"[""circle"",""no_dis"",""hori"",""left"",[99999,99999],[150,0]]",circle,no_dis,hori,left,"[99999,99999]","[150,0]",left,1,0.9711,,,,,,001,2025-03-18_09h53.00.202,SL_sali,2021.2.3,Win32,60.24096386,,,20,0,20,0,1,,,,,,,,
,,"[""circle"",""red"",""vert"",""up"",[-106,-106],[106,106]]",circle,red,vert,up,"[-106,-106]","[106,106]",up,1,0.999,,,,,,001,2025-03-18_09h53.00.202,SL_sali,2021.2.3,Win32,60.24096386,,,21,0,21,0,1,,,,,,,,
,,"[""circle"",""no_dis"",""vert"",""up"",[99999,99999],[106,-106]]",circle,no_dis,vert,up,"[99999,99999]","[106,-106]",up,1,0.7682,,,,,,001,2025-03-18_09h53.00.202,SL_sali,2021.2.3,Win32,60.24096386,,,22,0,22,0,1,,,,,,,,
,,"[""diamond"",""no_dis"",""hori"",""left"",[99999,99999],[-106,-106]]",diamond,no_dis,hori,left,"[99999,99999]","[-106,-106]",left,1,0.928,,,,,,001,2025-03-18_09h53.00.202,SL_sali,2021.2.3,Win32,60.24096386,,,23,0,23,0,1,,,,,,,,
,,"[""diamond"",""no_dis"",""hori"",""left"",[99999,99999],[-150,0]]",diamond,no_dis,hori,left,"[99999,99999]","[-150,0]",left,1,0.9135,,,,,,001,2025-03-18_09h53.00.202,SL_sali,2021.2.3,Win32,60.24096386,,,24,0,24,0,1,,,,,,,,
,,"[""circle"",""green"",""hori"",""left"",[106,-106],[0,-150]]",circle,green,hori,left,"[106,-106]","[0,-150]",left,1,1.3334,,,,,,001,2025-03-18_09h53.00.202,SL_sali,2021.2.3,Win32,60.24096386,,,25,0,25,0,1,,,,,,,,
,,"[""circle"",""red"",""hori"",""left"",[106,-106],[0,150]]",circle,red,hori,left,"[106,-106]","[0,150]",left,1,1.2037,,,,,,001,2025-03-18_09h53.00.202,SL_sali,2021.2.3,Win32,60.24096386,,,26,0,26,0,1,,,,,,,,
,,"[""diamond"",""red"",""hori"",""left"",[106,-106],[150,0]]",diamond,red,hori,left,"[106,-106]","[150,0]",left,1,1.3147,,,,,,001,2025-03-18_09h53.00.202,SL_sali,2021.2.3,Win32,60.24096386,,,27,0,27,0,1,,,,,,,,
,,"[""circle"",""red"",""hori"",""left"",[-150,0],[106,-106]]",circle,red,hori,left,"[-150,0]","[106,-106]",left,1,2.1383,,,,,,001,2025-03-18_09h53.00.202,SL_sali,2021.2.3,Win32,60.24096386,,,28,0,28,0,1,,,,,,,,
,,"[""circle"",""green"",""vert"",""up"",[106,-106],[0,-150]]",circle,green,vert,up,"[106,-106]","[0,-150]",up,1,1.0792,,,,,,001,2025-03-18_09h53.00.202,SL_sali,2021.2.3,Win32,60.24096386,,,29,0,29,0,1,,,,,,,,
,,"[""diamond"",""red"",""hori"",""left"",[-150,0],[0,-150]]",diamond,red,hori,left,"[-150,0]","[0,-150]",left,1,1.3652,,,,,,001,2025-03-18_09h53.00.202,SL_sali,2021.2.3,Win32,60.24096386,,,30,0,30,0,1,,,,,,,,
,,"[""circle"",""red"",""hori"",""left"",[106,106],[0,-150]]",circle,red,hori,left,"[106,106]","[0,-150]",left,1,1.1498,,,,,,001,2025-03-18_09h53.00.202,SL_sali,2021.2.3,Win32,60.24096386,,,31,0,31,0,1,,,,,,,,
,,"[""circle"",""green"",""hori"",""left"",[-106,106],[106,-106]]",circle,green,hori,left,"[-106,106]","[106,-106]",left,1,0.8979,,,,,,001,2025-03-18_09h53.00.202,SL_sali,2021.2.3,Win32,60.24096386,,,32,0,32,0,1,,,,,,,,
,,"[""diamond"",""no_dis"",""vert"",""up"",[99999,99999],[106,-106]]",diamond,no_dis,vert,up,"[99999,99999]","[106,-106]",up,1,1.3312,,,,,,001,2025-03-18_09h53.00.202,SL_sali,2021.2.3,Win32,60.24096386,,,33,0,33,0,1,,,,,,,,
,,"[""diamond"",""no_dis"",""vert"",""up"",[99999,99999],[-106,106]]",diamond,no_dis,vert,up,"[99999,99999]","[-106,106]",up,1,1.5645,,,,,,001,2025-03-18_09h53.00.202,SL_sali,2021.2.3,Win32,60.24096386,,,34,0,34,0,1,,,,,,,,
,,"[""diamond"",""green"",""vert"",""up"",[106,-106],[-106,-106]]",diamond,green,vert,up,"[106,-106]","[-106,-106]",up,1,0.9234,,,,,,001,2025-03-18_09h53.00.202,SL_sali,2021.2.3,Win32,60.24096386,,,35,0,35,0,1,,,,,,,,
,,"[""circle"",""red"",""hori"",""left"",[106,-106],[-106,-106]]",circle,red,hori,left,"[106,-106]","[-106,-106]",left,1,1.2375,,,,,,001,2025-03-18_09h53.00.202,SL_sali,2021.2.3,Win32,60.24096386,,,36,0,36,0,1,,,,,,,,
,,"[""circle"",""no_dis"",""vert"",""up"",[99999,99999],[0,150]]",circle,no_dis,vert,up,"[99999,99999]","[0,150]",up,1,1.19,,,,,,001,2025-03-18_09h53.00.202,SL_sali,2021.2.3,Win32,60.24096386,,,37,0,37,0,1,,,,,,,,
,,"[""circle"",""no_dis"",""vert"",""up"",[99999,99999],[0,-150]]",circle,no_dis,vert,up,"[99999,99999]","[0,-150]",up,1,0.9457,,,,,,001,2025-03-18_09h53.00.202,SL_sali,2021.2.3,Win32,60.24096386,,,38,0,38,0,1,,,,,,,,
,,"[""circle"",""red"",""hori"",""left"",[106,-106],[-150,0]]",circle,red,hori,left,"[106,-106]","[-150,0]",left,1,0.9299,,,,,,001,2025-03-18_09h53.00.202,SL_sali,2021.2.3,Win32,60.24096386,,,39,0,39,0,1,,,,,,,,
,,"[""circle"",""red"",""vert"",""up"",[0,-150],[-106,106]]",circle,red,vert,up,"[0,-150]","[-106,106]",up,1,0.9316,,,,,,001,2025-03-18_09h53.00.202,SL_sali,2021.2.3,Win32,60.24096386,,,40,0,40,0,1,,,,,,,,
,,"[""diamond"",""no_dis"",""vert"",""up"",[99999,99999],[-150,0]]",diamond,no_dis,vert,up,"[99999,99999]","[-150,0]",up,1,0.8214,,,,,,001,2025-03-18_09h53.00.202,SL_sali,2021.2.3,Win32,60.24096386,,,41,0,41,0,1,,,,,,,,
,,"[""circle"",""no_dis"",""vert"",""up"",[99999,99999],[150,0]]",circle,no_dis,vert,up,"[99999,99999]","[150,0]",up,1,1.0817,,,,,,001,2025-03-18_09h53.00.202,SL_sali,2021.2.3,Win32,60.24096386,,,42,0,42,0,1,,,,,,,,
,,"[""circle"",""no_dis"",""vert"",""up"",[99999,99999],[0,-150]]",circle,no_dis,vert,up,"[99999,99999]","[0,-150]",up,1,0.8658,,,,,,001,2025-03-18_09h53.00.202,SL_sali,2021.2.3,Win32,60.24096386,,,43,0,43,0,1,,,,,,,,
,,"[""diamond"",""red"",""vert"",""up"",[-106,106],[150,0]]",diamond,red,vert,up,"[-106,106]","[150,0]",up,1,1.5337,,,,,,001,2025-03-18_09h53.00.202,SL_sali,2021.2.3,Win32,60.24096386,,,44,0,44,0,1,,,,,,,,
,,"[""diamond"",""green"",""hori"",""left"",[-150,0],[0,150]]",diamond,green,hori,left,"[-150,0]","[0,150]",left,1,1.1526,,,,,,001,2025-03-18_09h53.00.202,SL_sali,2021.2.3,Win32,60.24096386,,,45,0,45,0,1,,,,,,,,
,,"[""diamond"",""no_dis"",""vert"",""up"",[99999,99999],[-106,-106]]",diamond,no_dis,vert,up,"[99999,99999]","[-106,-106]",up,1,1.2976,,,,,,001,2025-03-18_09h53.00.202,SL_sali,2021.2.3,Win32,60.24096386,,,46,0,46,0,1,,,,,,,,
,,"[""circle"",""green"",""hori"",""left"",[0,150],[150,0]]",circle,green,hori,left,"[0,150]","[150,0]",left,1,1.2272,,,,,,001,2025-03-18_09h53.00.202,SL_sali,2021.2.3,Win32,60.24096386,,,47,0,47,0,1,,,,,,,,
,,"[""diamond"",""green"",""hori"",""left"",[0,150],[150,0]]",diamond,green,hori,left,"[0,150]","[150,0]",left,1,0.8485,,,,,,001,2025-03-18_09h53.00.202,SL_sali,2021.2.3,Win32,60.24096386,,,48,0,48,0,1,,,,,,,,
,,"[""diamond"",""red"",""hori"",""left"",[150,0],[0,-150]]",diamond,red,hori,left,"[150,0]","[0,-150]",left,1,1.4065,,,,,,001,2025-03-18_09h53.00.202,SL_sali,2021.2.3,Win32,60.24096386,,,49,0,49,0,1,,,,,,,,
,,"[""circle"",""no_dis"",""vert"",""up"",[99999,99999],[-150,0]]",circle,no_dis,vert,up,"[99999,99999]","[-150,0]",up,1,0.9292,,,,,,001,2025-03-18_09h53.00.202,SL_sali,2021.2.3,Win32,60.24096386,,,50,0,50,0,1,,,,,,,,
,,"[""circle"",""red"",""vert"",""up"",[-106,106],[-106,-106]]",circle,red,vert,up,"[-106,106]","[-106,-106]",up,1,1.1623,,,,,,001,2025-03-18_09h53.00.202,SL_sali,2021.2.3,Win32,60.24096386,,,51,0,51,0,1,,,,,,,,
,,"[""diamond"",""green"",""vert"",""up"",[-150,0],[150,0]]",diamond,green,vert,up,"[-150,0]","[150,0]",up,1,1.2203,,,,,,001,2025-03-18_09h53.00.202,SL_sali,2021.2.3,Win32,60.24096386,,,52,0,52,0,1,,,,,,,,
,,"[""diamond"",""green"",""vert"",""up"",[106,-106],[-106,106]]",diamond,green,vert,up,"[106,-106]","[-106,106]",up,1,1.1324,,,,,,001,2025-03-18_09h53.00.202,SL_sali,2021.2.3,Win32,60.24096386,,,53,0,53,0,1,,,,,,,,
,,"[""diamond"",""green"",""vert"",""up"",[-106,106],[150,0]]",diamond,green,vert,up,"[-106,106]","[150,0]",up,1,1.1133,,,,,,001,2025-03-18_09h53.00.202,SL_sali,2021.2.3,Win32,60.24096386,,,54,0,54,0,1,,,,,,,,
,,"[""diamond"",""green"",""hori"",""left"",[-106,-106],[-106,106]]",diamond,green,hori,left,"[-106,-106]","[-106,106]",left,1,1.5697,,,,,,001,2025-03-18_09h53.00.202,SL_sali,2021.2.3,Win32,60.24096386,,,55,0,55,0,1,,,,,,,,
,,"[""diamond"",""red"",""hori"",""left"",[106,-106],[0,-150]]",diamond,red,hori,left,"[106,-106]","[0,-150]",left,1,1.1476,,,,,,001,2025-03-18_09h53.00.202,SL_sali,2021.2.3,Win32,60.24096386,,,56,0,56,0,1,,,,,,,,
,,"[""diamond"",""green"",""hori"",""left"",[-150,0],[-106,-106]]",diamond,green,hori,left,"[-150,0]","[-106,-106]",left,1,1.4793,,,,,,001,2025-03-18_09h53.00.202,SL_sali,2021.2.3,Win32,60.24096386,,,57,0,57,0,1,,,,,,,,
,,"[""diamond"",""no_dis"",""hori"",""left"",[99999,99999],[106,-106]]",diamond,no_dis,hori,left,"[99999,99999]","[106,-106]",left,1,1.1484,,,,,,001,2025-03-18_09h53.00.202,SL_sali,2021.2.3,Win32,60.24096386,,,58,0,58,0,1,,,,,,,,
,,"[""diamond"",""red"",""vert"",""up"",[106,-106],[-106,-106]]",diamond,red,vert,up,"[106,-106]","[-106,-106]",up,1,1.3118,,,,,,001,2025-03-18_09h53.00.202,SL_sali,2021.2.3,Win32,60.24096386,,,59,0,59,0,1,,,,,,,,
,,"[""circle"",""no_dis"",""vert"",""up"",[99999,99999],[106,106]]",circle,no_dis,vert,up,"[99999,99999]","[106,106]",up,1,1.1905,,,,,,001,2025-03-18_09h53.00.202,SL_sali,2021.2.3,Win32,60.24096386,,,60,0,60,0,1,,,,,,,,
,,"[""diamond"",""green"",""vert"",""up"",[-106,-106],[106,-106]]",diamond,green,vert,up,"[-106,-106]","[106,-106]",up,1,1.2647,,,,,,001,2025-03-18_09h53.00.202,SL_sali,2021.2.3,Win32,60.24096386,,,61,0,61,0,1,,,,,,,,
,,"[""diamond"",""green"",""hori"",""left"",[106,106],[-106,-106]]",diamond,green,hori,left,"[106,106]","[-106,-106]",left,1,1.0498,,,,,,001,2025-03-18_09h53.00.202,SL_sali,2021.2.3,Win32,60.24096386,,,62,0,62,0,1,,,,,,,,
,,"[""circle"",""green"",""vert"",""up"",[106,-106],[0,150]]",circle,green,vert,up,"[106,-106]","[0,150]",up,1,1.0622,,,,,,001,2025-03-18_09h53.00.202,SL_sali,2021.2.3,Win32,60.24096386,,,63,0,63,0,1,,,,,,,,
,,"[""circle"",""red"",""vert"",""up"",[0,150],[106,-106]]",circle,red,vert,up,"[0,150]","[106,-106]",up,1,1.0294,,,,,,001,2025-03-18_09h53.00.202,SL_sali,2021.2.3,Win32,60.24096386,,,64,0,64,0,1,,,,,,,,
,,"[""circle"",""green"",""hori"",""left"",[106,-106],[0,150]]",circle,green,hori,left,"[106,-106]","[0,150]",left,1,0.9004,,,,,,001,2025-03-18_09h53.00.202,SL_sali,2021.2.3,Win32,60.24096386,,,65,0,65,0,1,,,,,,,,
,,"[""diamond"",""no_dis"",""hori"",""left"",[99999,99999],[-106,-106]]",diamond,no_dis,hori,left,"[99999,99999]","[-106,-106]",left,1,1.097,,,,,,001,2025-03-18_09h53.00.202,SL_sali,2021.2.3,Win32,60.24096386,,,66,0,66,0,1,,,,,,,,
,,"[""diamond"",""green"",""hori"",""left"",[106,106],[-106,106]]",diamond,green,hori,left,"[106,106]","[-106,106]",left,1,0.9116,,,,,,001,2025-03-18_09h53.00.202,SL_sali,2021.2.3,Win32,60.24096386,,,67,0,67,0,1,,,,,,,,
,,"[""circle"",""no_dis"",""vert"",""up"",[99999,99999],[-150,0]]",circle,no_dis,vert,up,"[99999,99999]","[-150,0]",up,1,1.7159,,,,,,001,2025-03-18_09h53.00.202,SL_sali,2021.2.3,Win32,60.24096386,,,68,0,68,0,1,,,,,,,,
,,"[""circle"",""green"",""vert"",""up"",[0,-150],[-106,106]]",circle,green,vert,up,"[0,-150]","[-106,106]",up,1,0.7793,,,,,,001,2025-03-18_09h53.00.202,SL_sali,2021.2.3,Win32,60.24096386,,,69,0,69,0,1,,,,,,,,
,,"[""diamond"",""green"",""vert"",""up"",[106,-106],[-150,0]]",diamond,green,vert,up,"[106,-106]","[-150,0]",up,1,1.2511,,,,,,001,2025-03-18_09h53.00.202,SL_sali,2021.2.3,Win32,60.24096386,,,70,0,70,0,1,,,,,,,,
,,"[""circle"",""green"",""vert"",""up"",[106,106],[-106,106]]",circle,green,vert,up,"[106,106]","[-106,106]",up,1,1.1122,,,,,,001,2025-03-18_09h53.00.202,SL_sali,2021.2.3,Win32,60.24096386,,,71,0,71,0,1,,,,,,,,
,,"[""diamond"",""green"",""vert"",""up"",[0,-150],[106,-106]]",diamond,green,vert,up,"[0,-150]","[106,-106]",up,1,1.6738,,,,,,001,2025-03-18_09h53.00.202,SL_sali,2021.2.3,Win32,60.24096386,,,72,0,72,0,1,,,,,,,,
,,"[""circle"",""green"",""vert"",""up"",[150,0],[106,106]]",circle,green,vert,up,"[150,0]","[106,106]",up,1,1.1533,,,,,,001,2025-03-18_09h53.00.202,SL_sali,2021.2.3,Win32,60.24096386,,,73,0,73,0,1,,,,,,,,
,,"[""diamond"",""no_dis"",""hori"",""left"",[99999,99999],[106,106]]",diamond,no_dis,hori,left,"[99999,99999]","[106,106]",left,1,1.151,,,,,,001,2025-03-18_09h53.00.202,SL_sali,2021.2.3,Win32,60.24096386,,,74,0,74,0,1,,,,,,,,
,,"[""diamond"",""no_dis"",""hori"",""left"",[99999,99999],[106,106]]",diamond,no_dis,hori,left,"[99999,99999]","[106,106]",left,1,0.8346,,,,,,001,2025-03-18_09h53.00.202,SL_sali,2021.2.3,Win32,60.24096386,,,75,0,75,0,1,,,,,,,,
,,"[""diamond"",""no_dis"",""vert"",""up"",[99999,99999],[-106,106]]",diamond,no_dis,vert,up,"[99999,99999]","[-106,106]",up,1,0.9814,,,,,,001,2025-03-18_09h53.00.202,SL_sali,2021.2.3,Win32,60.24096386,,,76,0,76,0,1,,,,,,,,
,,"[""circle"",""no_dis"",""vert"",""up"",[99999,99999],[0,150]]",circle,no_dis,vert,up,"[99999,99999]","[0,150]",up,1,0.8497,,,,,,001,2025-03-18_09h53.00.202,SL_sali,2021.2.3,Win32,60.24096386,,,77,0,77,0,1,,,,,,,,
,,"[""circle"",""no_dis"",""hori"",""left"",[99999,99999],[-106,-106]]",circle,no_dis,hori,left,"[99999,99999]","[-106,-106]",left,1,1.1816,,,,,,001,2025-03-18_09h53.00.202,SL_sali,2021.2.3,Win32,60.24096386,,,78,0,78,0,1,,,,,,,,
,,"[""circle"",""red"",""hori"",""left"",[106,-106],[0,150]]",circle,red,hori,left,"[106,-106]","[0,150]",left,1,0.9622,,,,,,001,2025-03-18_09h53.00.202,SL_sali,2021.2.3,Win32,60.24096386,,,79,0,79,0,1,,,,,,,,
,,"[""diamond"",""no_dis"",""vert"",""up"",[99999,99999],[0,150]]",diamond,no_dis,vert,up,"[99999,99999]","[0,150]",up,1,0.9535,,,,,,001,2025-03-18_09h53.00.202,SL_sali,2021.2.3,Win32,60.24096386,,,80,0,80,0,1,,,,,,,,
,,"[""circle"",""red"",""hori"",""left"",[-150,0],[-106,-106]]",circle,red,hori,left,"[-150,0]","[-106,-106]",left,1,1.4471,,,,,,001,2025-03-18_09h53.00.202,SL_sali,2021.2.3,Win32,60.24096386,,,81,0,81,0,1,,,,,,,,
,,"[""circle"",""no_dis"",""hori"",""left"",[99999,99999],[0,-150]]",circle,no_dis,hori,left,"[99999,99999]","[0,-150]",left,1,0.7487,,,,,,001,2025-03-18_09h53.00.202,SL_sali,2021.2.3,Win32,60.24096386,,,82,0,82,0,1,,,,,,,,
,,"[""diamond"",""green"",""hori"",""left"",[150,0],[106,106]]",diamond,green,hori,left,"[150,0]","[106,106]",left,1,2.3802,,,,,,001,2025-03-18_09h53.00.202,SL_sali,2021.2.3,Win32,60.24096386,,,83,0,83,0,1,,,,,,,,
,,"[""diamond"",""green"",""vert"",""up"",[150,0],[-150,0]]",diamond,green,vert,up,"[150,0]","[-150,0]",up,1,1.0699,,,,,,001,2025-03-18_09h53.00.202,SL_sali,2021.2.3,Win32,60.24096386,,,84,0,84,0,1,,,,,,,,
,,"[""diamond"",""no_dis"",""hori"",""left"",[99999,99999],[150,0]]",diamond,no_dis,hori,left,"[99999,99999]","[150,0]",left,1,0.8228,,,,,,001,2025-03-18_09h53.00.202,SL_sali,2021.2.3,Win32,60.24096386,,,85,0,85,0,1,,,,,,,,
,,"[""circle"",""green"",""vert"",""up"",[0,150],[106,-106]]",circle,green,vert,up,"[0,150]","[106,-106]",up,1,1.1792,,,,,,001,2025-03-18_09h53.00.202,SL_sali,2021.2.3,Win32,60.24096386,,,86,0,86,0,1,,,,,,,,
,,"[""circle"",""green"",""hori"",""left"",[106,-106],[-106,-106]]",circle,green,hori,left,"[106,-106]","[-106,-106]",left,1,1.0244,,,,,,001,2025-03-18_09h53.00.202,SL_sali,2021.2.3,Win32,60.24096386,,,87,0,87,0,1,,,,,,,,
,,"[""diamond"",""red"",""vert"",""up"",[-106,-106],[106,-106]]",diamond,red,vert,up,"[-106,-106]","[106,-106]",up,1,1.0346,,,,,,001,2025-03-18_09h53.00.202,SL_sali,2021.2.3,Win32,60.24096386,,,88,0,88,0,1,,,,,,,,
,,"[""diamond"",""no_dis"",""vert"",""up"",[99999,99999],[106,106]]",diamond,no_dis,vert,up,"[99999,99999]","[106,106]",up,1,1.1891,,,,,,001,2025-03-18_09h53.00.202,SL_sali,2021.2.3,Win32,60.24096386,,,89,0,89,0,1,,,,,,,,
,,"[""diamond"",""red"",""hori"",""left"",[-106,-106],[106,-106]]",diamond,red,hori,left,"[-106,-106]","[106,-106]",left,1,1.2504,,,,,,001,2025-03-18_09h53.00.202,SL_sali,2021.2.3,Win32,60.24096386,,,90,0,90,0,1,,,,,,,,
,,"[""diamond"",""green"",""vert"",""up"",[106,-106],[150,0]]",diamond,green,vert,up,"[106,-106]","[150,0]",up,1,1.3061,,,,,,001,2025-03-18_09h53.00.202,SL_sali,2021.2.3,Win32,60.24096386,,,91,0,91,0,1,,,,,,,,
,,"[""diamond"",""red"",""hori"",""left"",[106,106],[0,-150]]",diamond,red,hori,left,"[106,106]","[0,-150]",left,1,1.3472,,,,,,001,2025-03-18_09h53.00.202,SL_sali,2021.2.3,Win32,60.24096386,,,92,0,92,0,1,,,,,,,,
,,"[""circle"",""red"",""hori"",""left"",[106,106],[150,0]]",circle,red,hori,left,"[106,106]","[150,0]",left,1,1.157,,,,,,001,2025-03-18_09h53.00.202,SL_sali,2021.2.3,Win32,60.24096386,,,93,0,93,0,1,,,,,,,,
,,"[""diamond"",""no_dis"",""hori"",""left"",[99999,99999],[0,150]]",diamond,no_dis,hori,left,"[99999,99999]","[0,150]",left,1,1.0309,,,,,,001,2025-03-18_09h53.00.202,SL_sali,2021.2.3,Win32,60.24096386,,,94,0,94,0,1,,,,,,,,
,,"[""circle"",""red"",""vert"",""up"",[106,-106],[-150,0]]",circle,red,vert,up,"[106,-106]","[-150,0]",up,1,1.1727,,,,,,001,2025-03-18_09h53.00.202,SL_sali,2021.2.3,Win32,60.24096386,,,95,0,95,0,1,,,,,,,,
,,"[""circle"",""green"",""hori"",""left"",[0,-150],[106,106]]",circle,green,hori,left,"[0,-150]","[106,106]",left,1,0.8086,,,,,,001,2025-03-18_09h53.00.202,SL_sali,2021.2.3,Win32,60.24096386,,,96,0,96,0,1,,,,,,,,
,,"[""diamond"",""red"",""hori"",""left"",[-150,0],[106,106]]",diamond,red,hori,left,"[-150,0]","[106,106]",left,1,1.4618,,,,,,001,2025-03-18_09h53.00.202,SL_sali,2021.2.3,Win32,60.24096386,,,97,0,97,0,1,,,,,,,,
,,"[""diamond"",""red"",""hori"",""left"",[106,106],[-106,-106]]",diamond,red,hori,left,"[106,106]","[-106,-106]",up,0,0.7975,,,,,,001,2025-03-18_09h53.00.202,SL_sali,2021.2.3,Win32,60.24096386,,,98,0,98,0,1,,,,,,,,
,,"[""diamond"",""no_dis"",""hori"",""left"",[99999,99999],[106,106]]",diamond,no_dis,hori,left,"[99999,99999]","[106,106]",left,1,1.5976,,,,,,001,2025-03-18_09h53.00.202,SL_sali,2021.2.3,Win32,60.24096386,,,99,0,99,0,1,,,,,,,,
,,"[""circle"",""red"",""vert"",""up"",[0,-150],[150,0]]",circle,red,vert,up,"[0,-150]","[150,0]",up,1,1.1818,,,,,,001,2025-03-18_09h53.00.202,SL_sali,2021.2.3,Win32,60.24096386,,,100,0,100,0,1,,,,,,,,
,,"[""circle"",""red"",""hori"",""left"",[-106,-106],[-150,0]]",circle,red,hori,left,"[-106,-106]","[-150,0]",left,1,1.018,,,,,,001,2025-03-18_09h53.00.202,SL_sali,2021.2.3,Win32,60.24096386,,,101,0,101,0,1,,,,,,,,
,,"[""circle"",""red"",""vert"",""up"",[0,-150],[106,106]]",circle,red,vert,up,"[0,-150]","[106,106]",up,1,0.7328,,,,,,001,2025-03-18_09h53.00.202,SL_sali,2021.2.3,Win32,60.24096386,,,102,0,102,0,1,,,,,,,,
,,"[""circle"",""no_dis"",""hori"",""left"",[99999,99999],[150,0]]",circle,no_dis,hori,left,"[99999,99999]","[150,0]",left,1,0.6816,,,,,,001,2025-03-18_09h53.00.202,SL_sali,2021.2.3,Win32,60.24096386,,,103,0,103,0,1,,,,,,,,
,,"[""circle"",""green"",""hori"",""left"",[-106,106],[150,0]]",circle,green,hori,left,"[-106,106]","[150,0]",left,1,0.8169,,,,,,001,2025-03-18_09h53.00.202,SL_sali,2021.2.3,Win32,60.24096386,,,104,0,104,0,1,,,,,,,,
,,"[""circle"",""no_dis"",""hori"",""left"",[99999,99999],[0,150]]",circle,no_dis,hori,left,"[99999,99999]","[0,150]",left,1,0.785,,,,,,001,2025-03-18_09h53.00.202,SL_sali,2021.2.3,Win32,60.24096386,,,105,0,105,0,1,,,,,,,,
,,"[""circle"",""red"",""vert"",""up"",[106,-106],[106,106]]",circle,red,vert,up,"[106,-106]","[106,106]",up,1,0.8532,,,,,,001,2025-03-18_09h53.00.202,SL_sali,2021.2.3,Win32,60.24096386,,,106,0,106,0,1,,,,,,,,
,,"[""diamond"",""red"",""hori"",""left"",[0,150],[106,-106]]",diamond,red,hori,left,"[0,150]","[106,-106]",left,1,1.3619,,,,,,001,2025-03-18_09h53.00.202,SL_sali,2021.2.3,Win32,60.24096386,,,107,0,107,0,1,,,,,,,,
,,"[""circle"",""green"",""vert"",""up"",[106,-106],[-106,-106]]",circle,green,vert,up,"[106,-106]","[-106,-106]",up,1,1.1295,,,,,,001,2025-03-18_09h53.00.202,SL_sali,2021.2.3,Win32,60.24096386,,,108,0,108,0,1,,,,,,,,
,,"[""diamond"",""green"",""vert"",""up"",[-106,-106],[106,-106]]",diamond,green,vert,up,"[-106,-106]","[106,-106]",up,1,1.2364,,,,,,001,2025-03-18_09h53.00.202,SL_sali,2021.2.3,Win32,60.24096386,,,109,0,109,0,1,,,,,,,,
,,"[""circle"",""no_dis"",""hori"",""left"",[99999,99999],[0,-150]]",circle,no_dis,hori,left,"[99999,99999]","[0,-150]",left,1,0.7628,,,,,,001,2025-03-18_09h53.00.202,SL_sali,2021.2.3,Win32,60.24096386,,,110,0,110,0,1,,,,,,,,
,,"[""circle"",""green"",""hori"",""left"",[0,150],[150,0]]",circle,green,hori,left,"[0,150]","[150,0]",left,1,0.8226,,,,,,001,2025-03-18_09h53.00.202,SL_sali,2021.2.3,Win32,60.24096386,,,111,0,111,0,1,,,,,,,,
,,"[""circle"",""red"",""hori"",""left"",[-106,-106],[106,106]]",circle,red,hori,left,"[-106,-106]","[106,106]",left,1,0.8269,,,,,,001,2025-03-18_09h53.00.202,SL_sali,2021.2.3,Win32,60.24096386,,,112,0,112,0,1,,,,,,,,
,,"[""circle"",""no_dis"",""hori"",""left"",[99999,99999],[-150,0]]",circle,no_dis,hori,left,"[99999,99999]","[-150,0]",left,1,0.6715,,,,,,001,2025-03-18_09h53.00.202,SL_sali,2021.2.3,Win32,60.24096386,,,113,0,113,0,1,,,,,,,,
,,"[""circle"",""no_dis"",""hori"",""left"",[99999,99999],[106,-106]]",circle,no_dis,hori,left,"[99999,99999]","[106,-106]",left,1,0.6878,,,,,,001,2025-03-18_09h53.00.202,SL_sali,2021.2.3,Win32,60.24096386,,,114,0,114,0,1,,,,,,,,
,,"[""circle"",""red"",""vert"",""up"",[106,-106],[0,-150]]",circle,red,vert,up,"[106,-106]","[0,-150]",up,1,0.866,,,,,,001,2025-03-18_09h53.00.202,SL_sali,2021.2.3,Win32,60.24096386,,,115,0,115,0,1,,,,,,,,
,,"[""diamond"",""green"",""hori"",""left"",[150,0],[0,-150]]",diamond,green,hori,left,"[150,0]","[0,-150]",left,1,1.3791,,,,,,001,2025-03-18_09h53.00.202,SL_sali,2021.2.3,Win32,60.24096386,,,116,0,116,0,1,,,,,,,,
,,"[""diamond"",""red"",""hori"",""left"",[-106,106],[150,0]]",diamond,red,hori,left,"[-106,106]","[150,0]",left,1,0.9306,,,,,,001,2025-03-18_09h53.00.202,SL_sali,2021.2.3,Win32,60.24096386,,,117,0,117,0,1,,,,,,,,
,,"[""diamond"",""red"",""vert"",""up"",[0,150],[-106,-106]]",diamond,red,vert,up,"[0,150]","[-106,-106]",up,1,1.1058,,,,,,001,2025-03-18_09h53.00.202,SL_sali,2021.2.3,Win32,60.24096386,,,118,0,118,0,1,,,,,,,,
,,"[""diamond"",""red"",""vert"",""up"",[106,-106],[-106,106]]",diamond,red,vert,up,"[106,-106]","[-106,106]",up,1,1.1308,,,,,,001,2025-03-18_09h53.00.202,SL_sali,2021.2.3,Win32,60.24096386,,,119,0,119,0,1,,,,,,,,
,,,,,,,,,,,,,,,,,001,2025-03-18_09h53.00.202,SL_sali,2021.2.3,Win32,60.24096386,,,,,,,,3,space,14.7914,2,0,2,0,1
,,"[""diamond"",""red"",""vert"",""up"",[0,150],[-106,106]]",diamond,red,vert,up,"[0,150]","[-106,106]",up,1,0.9222,,,,,,001,2025-03-18_09h53.00.202,SL_sali,2021.2.3,Win32,60.24096386,,,0,0,0,0,1,,,,,,,,
,,"[""circle"",""green"",""vert"",""up"",[106,-106],[0,150]]",circle,green,vert,up,"[106,-106]","[0,150]",up,1,1.0492,,,,,,001,2025-03-18_09h53.00.202,SL_sali,2021.2.3,Win32,60.24096386,,,1,0,1,0,1,,,,,,,,
,,"[""circle"",""no_dis"",""vert"",""up"",[99999,99999],[-150,0]]",circle,no_dis,vert,up,"[99999,99999]","[-150,0]",up,1,1.1573,,,,,,001,2025-03-18_09h53.00.202,SL_sali,2021.2.3,Win32,60.24096386,,,2,0,2,0,1,,,,,,,,
,,"[""diamond"",""green"",""hori"",""left"",[106,-106],[0,-150]]",diamond,green,hori,left,"[106,-106]","[0,-150]",left,1,1.0473,,,,,,001,2025-03-18_09h53.00.202,SL_sali,2021.2.3,Win32,60.24096386,,,3,0,3,0,1,,,,,,,,
,,"[""circle"",""green"",""hori"",""left"",[106,-106],[0,150]]",circle,green,hori,left,"[106,-106]","[0,150]",left,1,1.1251,,,,,,001,2025-03-18_09h53.00.202,SL_sali,2021.2.3,Win32,60.24096386,,,4,0,4,0,1,,,,,,,,
,,"[""circle"",""no_dis"",""vert"",""up"",[99999,99999],[0,150]]",circle,no_dis,vert,up,"[99999,99999]","[0,150]",up,1,0.8634,,,,,,001,2025-03-18_09h53.00.202,SL_sali,2021.2.3,Win32,60.24096386,,,5,0,5,0,1,,,,,,,,
,,"[""circle"",""no_dis"",""vert"",""up"",[99999,99999],[0,-150]]",circle,no_dis,vert,up,"[99999,99999]","[0,-150]",up,1,1.0487,,,,,,001,2025-03-18_09h53.00.202,SL_sali,2021.2.3,Win32,60.24096386,,,6,0,6,0,1,,,,,,,,
,,"[""circle"",""green"",""vert"",""up"",[0,150],[106,-106]]",circle,green,vert,up,"[0,150]","[106,-106]",up,1,1.1976,,,,,,001,2025-03-18_09h53.00.202,SL_sali,2021.2.3,Win32,60.24096386,,,7,0,7,0,1,,,,,,,,
,,"[""diamond"",""green"",""vert"",""up"",[-106,106],[150,0]]",diamond,green,vert,up,"[-106,106]","[150,0]",up,1,1.14,,,,,,001,2025-03-18_09h53.00.202,SL_sali,2021.2.3,Win32,60.24096386,,,8,0,8,0,1,,,,,,,,
,,"[""diamond"",""green"",""hori"",""left"",[150,0],[0,-150]]",diamond,green,hori,left,"[150,0]","[0,-150]",left,1,1.1858,,,,,,001,2025-03-18_09h53.00.202,SL_sali,2021.2.3,Win32,60.24096386,,,9,0,9,0,1,,,,,,,,
,,"[""diamond"",""green"",""vert"",""up"",[106,-106],[-106,106]]",diamond,green,vert,up,"[106,-106]","[-106,106]",up,1,0.9284,,,,,,001,2025-03-18_09h53.00.202,SL_sali,2021.2.3,Win32,60.24096386,,,10,0,10,0,1,,,,,,,,
,,"[""circle"",""no_dis"",""hori"",""left"",[99999,99999],[0,-150]]",circle,no_dis,hori,left,"[99999,99999]","[0,-150]",left,1,1.0981,,,,,,001,2025-03-18_09h53.00.202,SL_sali,2021.2.3,Win32,60.24096386,,,11,0,11,0,1,,,,,,,,
,,"[""circle"",""no_dis"",""vert"",""up"",[99999,99999],[150,0]]",circle,no_dis,vert,up,"[99999,99999]","[150,0]",up,1,0.8756,,,,,,001,2025-03-18_09h53.00.202,SL_sali,2021.2.3,Win32,60.24096386,,,12,0,12,0,1,,,,,,,,
,,"[""circle"",""green"",""vert"",""up"",[-106,106],[106,-106]]",circle,green,vert,up,"[-106,106]","[106,-106]",up,1,0.947,,,,,,001,2025-03-18_09h53.00.202,SL_sali,2021.2.3,Win32,60.24096386,,,13,0,13,0,1,,,,,,,,
,,"[""circle"",""no_dis"",""hori"",""left"",[99999,99999],[0,150]]",circle,no_dis,hori,left,"[99999,99999]","[0,150]",left,1,1.2491,,,,,,001,2025-03-18_09h53.00.202,SL_sali,2021.2.3,Win32,60.24096386,,,14,0,14,0,1,,,,,,,,
,,"[""circle"",""green"",""vert"",""up"",[106,106],[106,-106]]",circle,green,vert,up,"[106,106]","[106,-106]",up,1,1.149,,,,,,001,2025-03-18_09h53.00.202,SL_sali,2021.2.3,Win32,60.24096386,,,15,0,15,0,1,,,,,,,,
,,"[""circle"",""red"",""vert"",""up"",[106,-106],[0,-150]]",circle,red,vert,up,"[106,-106]","[0,-150]",up,1,0.8548,,,,,,001,2025-03-18_09h53.00.202,SL_sali,2021.2.3,Win32,60.24096386,,,16,0,16,0,1,,,,,,,,
,,"[""circle"",""green"",""vert"",""up"",[0,-150],[-106,106]]",circle,green,vert,up,"[0,-150]","[-106,106]",up,1,0.9021,,,,,,001,2025-03-18_09h53.00.202,SL_sali,2021.2.3,Win32,60.24096386,,,17,0,17,0,1,,,,,,,,
,,"[""circle"",""red"",""hori"",""left"",[-106,-106],[106,106]]",circle,red,hori,left,"[-106,-106]","[106,106]",left,1,1.1193,,,,,,001,2025-03-18_09h53.00.202,SL_sali,2021.2.3,Win32,60.24096386,,,18,0,18,0,1,,,,,,,,
,,"[""diamond"",""green"",""vert"",""up"",[-106,-106],[106,-106]]",diamond,green,vert,up,"[-106,-106]","[106,-106]",up,1,1.098,,,,,,001,2025-03-18_09h53.00.202,SL_sali,2021.2.3,Win32,60.24096386,,,19,0,19,0,1,,,,,,,,
,,"[""diamond"",""green"",""hori"",""left"",[106,106],[-106,106]]",diamond,green,hori,left,"[106,106]","[-106,106]",left,1,1.3638,,,,,,001,2025-03-18_09h53.00.202,SL_sali,2021.2.3,Win32,60.24096386,,,20,0,20,0,1,,,,,,,,
,,"[""diamond"",""no_dis"",""hori"",""left"",[99999,99999],[106,-106]]",diamond,no_dis,hori,left,"[99999,99999]","[106,-106]",left,1,1.0635,,,,,,001,2025-03-18_09h53.00.202,SL_sali,2021.2.3,Win32,60.24096386,,,21,0,21,0,1,,,,,,,,
,,"[""diamond"",""no_dis"",""vert"",""up"",[99999,99999],[0,150]]",diamond,no_dis,vert,up,"[99999,99999]","[0,150]",up,1,0.881,,,,,,001,2025-03-18_09h53.00.202,SL_sali,2021.2.3,Win32,60.24096386,,,22,0,22,0,1,,,,,,,,
,,"[""circle"",""green"",""hori"",""left"",[0,-150],[106,106]]",circle,green,hori,left,"[0,-150]","[106,106]",left,1,0.9964,,,,,,001,2025-03-18_09h53.00.202,SL_sali,2021.2.3,Win32,60.24096386,,,23,0,23,0,1,,,,,,,,
,,"[""diamond"",""green"",""hori"",""left"",[-150,0],[-106,-106]]",diamond,green,hori,left,"[-150,0]","[-106,-106]",left,1,1.2393,,,,,,001,2025-03-18_09h53.00.202,SL_sali,2021.2.3,Win32,60.24096386,,,24,0,24,0,1,,,,,,,,
,,"[""diamond"",""green"",""hori"",""left"",[150,0],[106,106]]",diamond,green,hori,left,"[150,0]","[106,106]",left,1,1.2221,,,,,,001,2025-03-18_09h53.00.202,SL_sali,2021.2.3,Win32,60.24096386,,,25,0,25,0,1,,,,,,,,
,,"[""circle"",""red"",""hori"",""left"",[106,-106],[-106,-106]]",circle,red,hori,left,"[106,-106]","[-106,-106]",left,1,1.3127,,,,,,001,2025-03-18_09h53.00.202,SL_sali,2021.2.3,Win32,60.24096386,,,26,0,26,0,1,,,,,,,,
,,"[""circle"",""red"",""vert"",""up"",[0,-150],[150,0]]",circle,red,vert,up,"[0,-150]","[150,0]",up,1,0.9489,,,,,,001,2025-03-18_09h53.00.202,SL_sali,2021.2.3,Win32,60.24096386,,,27,0,27,0,1,,,,,,,,
,,"[""diamond"",""red"",""hori"",""left"",[106,-106],[0,-150]]",diamond,red,hori,left,"[106,-106]","[0,-150]",left,1,1.4139,,,,,,001,2025-03-18_09h53.00.202,SL_sali,2021.2.3,Win32,60.24096386,,,28,0,28,0,1,,,,,,,,
,,"[""circle"",""red"",""hori"",""left"",[106,-106],[0,150]]",circle,red,hori,left,"[106,-106]","[0,150]",left,1,1.4796,,,,,,001,2025-03-18_09h53.00.202,SL_sali,2021.2.3,Win32,60.24096386,,,29,0,29,0,1,,,,,,,,
,,"[""circle"",""no_dis"",""vert"",""up"",[99999,99999],[0,-150]]",circle,no_dis,vert,up,"[99999,99999]","[0,-150]",up,1,1.1303,,,,,,001,2025-03-18_09h53.00.202,SL_sali,2021.2.3,Win32,60.24096386,,,30,0,30,0,1,,,,,,,,
,,"[""diamond"",""red"",""vert"",""up"",[-106,106],[106,-106]]",diamond,red,vert,up,"[-106,106]","[106,-106]",up,1,1.329,,,,,,001,2025-03-18_09h53.00.202,SL_sali,2021.2.3,Win32,60.24096386,,,31,0,31,0,1,,,,,,,,
,,"[""circle"",""red"",""vert"",""up"",[0,-150],[106,106]]",circle,red,vert,up,"[0,-150]","[106,106]",up,1,1.2829,,,,,,001,2025-03-18_09h53.00.202,SL_sali,2021.2.3,Win32,60.24096386,,,32,0,32,0,1,,,,,,,,
,,"[""diamond"",""green"",""vert"",""up"",[150,0],[-150,0]]",diamond,green,vert,up,"[150,0]","[-150,0]",up,1,0.7973,,,,,,001,2025-03-18_09h53.00.202,SL_sali,2021.2.3,Win32,60.24096386,,,33,0,33,0,1,,,,,,,,
,,"[""diamond"",""red"",""vert"",""up"",[106,-106],[-106,106]]",diamond,red,vert,up,"[106,-106]","[-106,106]",up,1,0.8162,,,,,,001,2025-03-18_09h53.00.202,SL_sali,2021.2.3,Win32,60.24096386,,,34,0,34,0,1,,,,,,,,
,,"[""diamond"",""no_dis"",""vert"",""up"",[99999,99999],[106,106]]",diamond,no_dis,vert,up,"[99999,99999]","[106,106]",up,1,0.8167,,,,,,001,2025-03-18_09h53.00.202,SL_sali,2021.2.3,Win32,60.24096386,,,35,0,35,0,1,,,,,,,,
,,"[""diamond"",""red"",""vert"",""up"",[106,-106],[-106,-106]]",diamond,red,vert,up,"[106,-106]","[-106,-106]",up,1,1.0476,,,,,,001,2025-03-18_09h53.00.202,SL_sali,2021.2.3,Win32,60.24096386,,,36,0,36,0,1,,,,,,,,
,,"[""circle"",""red"",""vert"",""up"",[0,150],[106,-106]]",circle,red,vert,up,"[0,150]","[106,-106]",up,1,1.1039,,,,,,001,2025-03-18_09h53.00.202,SL_sali,2021.2.3,Win32,60.24096386,,,37,0,37,0,1,,,,,,,,
,,"[""circle"",""no_dis"",""vert"",""up"",[99999,99999],[106,106]]",circle,no_dis,vert,up,"[99999,99999]","[106,106]",up,1,0.8127,,,,,,001,2025-03-18_09h53.00.202,SL_sali,2021.2.3,Win32,60.24096386,,,38,0,38,0,1,,,,,,,,
,,"[""circle"",""red"",""vert"",""up"",[106,-106],[-150,0]]",circle,red,vert,up,"[106,-106]","[-150,0]",up,1,0.8746,,,,,,001,2025-03-18_09h53.00.202,SL_sali,2021.2.3,Win32,60.24096386,,,39,0,39,0,1,,,,,,,,
,,"[""circle"",""green"",""vert"",""up"",[106,-106],[-106,-106]]",circle,green,vert,up,"[106,-106]","[-106,-106]",left,0,1.1713,,,,,,001,2025-03-18_09h53.00.202,SL_sali,2021.2.3,Win32,60.24096386,,,40,0,40,0,1,,,,,,,,
,,"[""circle"",""green"",""hori"",""left"",[-106,106],[106,-106]]",circle,green,hori,left,"[-106,106]","[106,-106]",left,1,0.9713,,,,,,001,2025-03-18_09h53.00.202,SL_sali,2021.2.3,Win32,60.24096386,,,41,0,41,0,1,,,,,,,,
,,"[""circle"",""red"",""hori"",""left"",[106,-106],[0,150]]",circle,red,hori,left,"[106,-106]","[0,150]",left,1,1.1631,,,,,,001,2025-03-18_09h53.00.202,SL_sali,2021.2.3,Win32,60.24096386,,,42,0,42,0,1,,,,,,,,
,,"[""diamond"",""no_dis"",""hori"",""left"",[99999,99999],[106,106]]",diamond,no_dis,hori,left,"[99999,99999]","[106,106]",left,1,1.1707,,,,,,001,2025-03-18_09h53.00.202,SL_sali,2021.2.3,Win32,60.24096386,,,43,0,43,0,1,,,,,,,,
,,"[""circle"",""red"",""hori"",""left"",[-106,-106],[-150,0]]",circle,red,hori,left,"[-106,-106]","[-150,0]",left,1,0.9236,,,,,,001,2025-03-18_09h53.00.202,SL_sali,2021.2.3,Win32,60.24096386,,,44,0,44,0,1,,,,,,,,
,,"[""diamond"",""red"",""vert"",""up"",[0,-150],[-106,106]]",diamond,red,vert,up,"[0,-150]","[-106,106]",up,1,1.0407,,,,,,001,2025-03-18_09h53.00.202,SL_sali,2021.2.3,Win32,60.24096386,,,45,0,45,0,1,,,,,,,,
,,"[""diamond"",""red"",""hori"",""left"",[-150,0],[106,106]]",diamond,red,hori,left,"[-150,0]","[106,106]",left,1,0.9365,,,,,,001,2025-03-18_09h53.00.202,SL_sali,2021.2.3,Win32,60.24096386,,,46,0,46,0,1,,,,,,,,
,,"[""circle"",""no_dis"",""hori"",""left"",[99999,99999],[106,-106]]",circle,no_dis,hori,left,"[99999,99999]","[106,-106]",left,1,1.1249,,,,,,001,2025-03-18_09h53.00.202,SL_sali,2021.2.3,Win32,60.24096386,,,47,0,47,0,1,,,,,,,,
,,"[""diamond"",""green"",""vert"",""up"",[-106,-106],[106,-106]]",diamond,green,vert,up,"[-106,-106]","[106,-106]",up,1,1.0807,,,,,,001,2025-03-18_09h53.00.202,SL_sali,2021.2.3,Win32,60.24096386,,,48,0,48,0,1,,,,,,,,
,,"[""circle"",""no_dis"",""hori"",""left"",[99999,99999],[106,-106]]",circle,no_dis,hori,left,"[99999,99999]","[106,-106]",left,1,0.9876,,,,,,001,2025-03-18_09h53.00.202,SL_sali,2021.2.3,Win32,60.24096386,,,49,0,49,0,1,,,,,,,,
,,"[""circle"",""red"",""hori"",""left"",[-150,0],[106,-106]]",circle,red,hori,left,"[-150,0]","[106,-106]",left,1,1.7989,,,,,,001,2025-03-18_09h53.00.202,SL_sali,2021.2.3,Win32,60.24096386,,,50,0,50,0,1,,,,,,,,
,,"[""diamond"",""no_dis"",""vert"",""up"",[99999,99999],[-106,-106]]",diamond,no_dis,vert,up,"[99999,99999]","[-106,-106]",up,1,1.0448,,,,,,001,2025-03-18_09h53.00.202,SL_sali,2021.2.3,Win32,60.24096386,,,51,0,51,0,1,,,,,,,,
,,"[""diamond"",""green"",""vert"",""up"",[106,-106],[-150,0]]",diamond,green,vert,up,"[106,-106]","[-150,0]",up,1,0.9811,,,,,,001,2025-03-18_09h53.00.202,SL_sali,2021.2.3,Win32,60.24096386,,,52,0,52,0,1,,,,,,,,
,,"[""diamond"",""red"",""vert"",""up"",[106,-106],[0,150]]",diamond,red,vert,up,"[106,-106]","[0,150]",up,1,1.3356,,,,,,001,2025-03-18_09h53.00.202,SL_sali,2021.2.3,Win32,60.24096386,,,53,0,53,0,1,,,,,,,,
,,"[""diamond"",""no_dis"",""hori"",""left"",[99999,99999],[-106,-106]]",diamond,no_dis,hori,left,"[99999,99999]","[-106,-106]",left,1,0.7968,,,,,,001,2025-03-18_09h53.00.202,SL_sali,2021.2.3,Win32,60.24096386,,,54,0,54,0,1,,,,,,,,
,,"[""circle"",""red"",""vert"",""up"",[106,-106],[106,106]]",circle,red,vert,up,"[106,-106]","[106,106]",up,1,1.5533,,,,,,001,2025-03-18_09h53.00.202,SL_sali,2021.2.3,Win32,60.24096386,,,55,0,55,0,1,,,,,,,,
,,"[""circle"",""red"",""hori"",""left"",[106,106],[0,-150]]",circle,red,hori,left,"[106,106]","[0,-150]",left,1,0.9459,,,,,,001,2025-03-18_09h53.00.202,SL_sali,2021.2.3,Win32,60.24096386,,,56,0,56,0,1,,,,,,,,
,,"[""diamond"",""no_dis"",""hori"",""left"",[99999,99999],[0,150]]",diamond,no_dis,hori,left,"[99999,99999]","[0,150]",left,1,0.981,,,,,,001,2025-03-18_09h53.00.202,SL_sali,2021.2.3,Win32,60.24096386,,,57,0,57,0,1,,,,,,,,
,,"[""circle"",""green"",""vert"",""up"",[106,-106],[0,-150]]",circle,green,vert,up,"[106,-106]","[0,-150]",up,1,0.8961,,,,,,001,2025-03-18_09h53.00.202,SL_sali,2021.2.3,Win32,60.24096386,,,58,0,58,0,1,,,,,,,,
,,"[""circle"",""green"",""hori"",""left"",[106,-106],[-106,-106]]",circle,green,hori,left,"[106,-106]","[-106,-106]",left,1,0.8663,,,,,,001,2025-03-18_09h53.00.202,SL_sali,2021.2.3,Win32,60.24096386,,,59,0,59,0,1,,,,,,,,
,,"[""circle"",""green"",""hori"",""left"",[0,150],[150,0]]",circle,green,hori,left,"[0,150]","[150,0]",left,1,0.9959,,,,,,001,2025-03-18_09h53.00.202,SL_sali,2021.2.3,Win32,60.24096386,,,60,0,60,0,1,,,,,,,,
,,"[""diamond"",""no_dis"",""hori"",""left"",[99999,99999],[-106,-106]]",diamond,no_dis,hori,left,"[99999,99999]","[-106,-106]",left,1,1.6035,,,,,,001,2025-03-18_09h53.00.202,SL_sali,2021.2.3,Win32,60.24096386,,,61,0,61,0,1,,,,,,,,
,,"[""diamond"",""no_dis"",""hori"",""left"",[99999,99999],[-150,0]]",diamond,no_dis,hori,left,"[99999,99999]","[-150,0]",left,1,0.9457,,,,,,001,2025-03-18_09h53.00.202,SL_sali,2021.2.3,Win32,60.24096386,,,62,0,62,0,1,,,,,,,,
,,"[""diamond"",""no_dis"",""vert"",""up"",[99999,99999],[-106,106]]",diamond,no_dis,vert,up,"[99999,99999]","[-106,106]",up,1,0.9872,,,,,,001,2025-03-18_09h53.00.202,SL_sali,2021.2.3,Win32,60.24096386,,,63,0,63,0,1,,,,,,,,
,,"[""diamond"",""red"",""vert"",""up"",[-106,-106],[106,-106]]",diamond,red,vert,up,"[-106,-106]","[106,-106]",up,1,1.0147,,,,,,001,2025-03-18_09h53.00.202,SL_sali,2021.2.3,Win32,60.24096386,,,64,0,64,0,1,,,,,,,,
,,"[""diamond"",""green"",""hori"",""left"",[-150,0],[0,150]]",diamond,green,hori,left,"[-150,0]","[0,150]",left,1,0.9345,,,,,,001,2025-03-18_09h53.00.202,SL_sali,2021.2.3,Win32,60.24096386,,,65,0,65,0,1,,,,,,,,
,,"[""diamond"",""red"",""hori"",""left"",[150,0],[0,-150]]",diamond,red,hori,left,"[150,0]","[0,-150]",left,1,1.2305,,,,,,001,2025-03-18_09h53.00.202,SL_sali,2021.2.3,Win32,60.24096386,,,66,0,66,0,1,,,,,,,,
,,"[""circle"",""no_dis"",""vert"",""up"",[99999,99999],[106,-106]]",circle,no_dis,vert,up,"[99999,99999]","[106,-106]",up,1,1.1487,,,,,,001,2025-03-18_09h53.00.202,SL_sali,2021.2.3,Win32,60.24096386,,,67,0,67,0,1,,,,,,,,
,,"[""diamond"",""no_dis"",""vert"",""up"",[99999,99999],[-150,0]]",diamond,no_dis,vert,up,"[99999,99999]","[-150,0]",up,1,0.8732,,,,,,001,2025-03-18_09h53.00.202,SL_sali,2021.2.3,Win32,60.24096386,,,68,0,68,0,1,,,,,,,,
,,"[""diamond"",""no_dis"",""vert"",""up"",[99999,99999],[-106,106]]",diamond,no_dis,vert,up,"[99999,99999]","[-106,106]",up,1,0.8133,,,,,,001,2025-03-18_09h53.00.202,SL_sali,2021.2.3,Win32,60.24096386,,,69,0,69,0,1,,,,,,,,
,,"[""diamond"",""red"",""vert"",""up"",[106,-106],[106,106]]",diamond,red,vert,up,"[106,-106]","[106,106]",up,1,1.1614,,,,,,001,2025-03-18_09h53.00.202,SL_sali,2021.2.3,Win32,60.24096386,,,70,0,70,0,1,,,,,,,,
,,"[""circle"",""no_dis"",""hori"",""left"",[99999,99999],[-106,106]]",circle,no_dis,hori,left,"[99999,99999]","[-106,106]",left,1,0.8688,,,,,,001,2025-03-18_09h53.00.202,SL_sali,2021.2.3,Win32,60.24096386,,,71,0,71,0,1,,,,,,,,
,,"[""diamond"",""red"",""hori"",""left"",[-150,0],[0,-150]]",diamond,red,hori,left,"[-150,0]","[0,-150]",left,1,1.3865,,,,,,001,2025-03-18_09h53.00.202,SL_sali,2021.2.3,Win32,60.24096386,,,72,0,72,0,1,,,,,,,,
,,"[""diamond"",""green"",""vert"",""up"",[0,-150],[106,-106]]",diamond,green,vert,up,"[0,-150]","[106,-106]",up,1,0.9559,,,,,,001,2025-03-18_09h53.00.202,SL_sali,2021.2.3,Win32,60.24096386,,,73,0,73,0,1,,,,,,,,
,,"[""circle"",""no_dis"",""hori"",""left"",[99999,99999],[-106,-106]]",circle,no_dis,hori,left,"[99999,99999]","[-106,-106]",left,1,1.1988,,,,,,001,2025-03-18_09h53.00.202,SL_sali,2021.2.3,Win32,60.24096386,,,74,0,74,0,1,,,,,,,,
,,"[""diamond"",""no_dis"",""vert"",""up"",[99999,99999],[-106,-106]]",diamond,no_dis,vert,up,"[99999,99999]","[-106,-106]",up,1,0.9108,,,,,,001,2025-03-18_09h53.00.202,SL_sali,2021.2.3,Win32,60.24096386,,,75,0,75,0,1,,,,,,,,
,,"[""diamond"",""green"",""hori"",""left"",[150,0],[0,150]]",diamond,green,hori,left,"[150,0]","[0,150]",left,1,0.9043,,,,,,001,2025-03-18_09h53.00.202,SL_sali,2021.2.3,Win32,60.24096386,,,76,0,76,0,1,,,,,,,,
,,"[""circle"",""green"",""hori"",""left"",[0,150],[150,0]]",circle,green,hori,left,"[0,150]","[150,0]",left,1,0.8996,,,,,,001,2025-03-18_09h53.00.202,SL_sali,2021.2.3,Win32,60.24096386,,,77,0,77,0,1,,,,,,,,
,,"[""diamond"",""red"",""vert"",""up"",[-106,106],[150,0]]",diamond,red,vert,up,"[-106,106]","[150,0]",up,1,1.2138,,,,,,001,2025-03-18_09h53.00.202,SL_sali,2021.2.3,Win32,60.24096386,,,78,0,78,0,1,,,,,,,,
,,"[""circle"",""red"",""hori"",""left"",[-150,0],[-106,-106]]",circle,red,hori,left,"[-150,0]","[-106,-106]",left,1,1.1809,,,,,,001,2025-03-18_09h53.00.202,SL_sali,2021.2.3,Win32,60.24096386,,,79,0,79,0,1,,,,,,,,
,,"[""diamond"",""no_dis"",""hori"",""left"",[99999,99999],[150,0]]",diamond,no_dis,hori,left,"[99999,99999]","[150,0]",left,1,0.847,,,,,,001,2025-03-18_09h53.00.202,SL_sali,2021.2.3,Win32,60.24096386,,,80,0,80,0,1,,,,,,,,
,,"[""circle"",""red"",""vert"",""up"",[-106,-106],[106,106]]",circle,red,vert,up,"[-106,-106]","[106,106]",up,1,0.9175,,,,,,001,2025-03-18_09h53.00.202,SL_sali,2021.2.3,Win32,60.24096386,,,81,0,81,0,1,,,,,,,,
,,"[""circle"",""green"",""hori"",""left"",[150,0],[-106,106]]",circle,green,hori,left,"[150,0]","[-106,106]",left,1,1.0921,,,,,,001,2025-03-18_09h53.00.202,SL_sali,2021.2.3,Win32,60.24096386,,,82,0,82,0,1,,,,,,,,
,,"[""diamond"",""green"",""vert"",""up"",[106,-106],[150,0]]",diamond,green,vert,up,"[106,-106]","[150,0]",up,1,0.749,,,,,,001,2025-03-18_09h53.00.202,SL_sali,2021.2.3,Win32,60.24096386,,,83,0,83,0,1,,,,,,,,
,,"[""diamond"",""green"",""hori"",""left"",[-106,-106],[-106,106]]",diamond,green,hori,left,"[-106,-106]","[-106,106]",left,1,0.873,,,,,,001,2025-03-18_09h53.00.202,SL_sali,2021.2.3,Win32,60.24096386,,,84,0,84,0,1,,,,,,,,
,,"[""circle"",""no_dis"",""vert"",""up"",[99999,99999],[0,150]]",circle,no_dis,vert,up,"[99999,99999]","[0,150]",up,1,0.9455,,,,,,001,2025-03-18_09h53.00.202,SL_sali,2021.2.3,Win32,60.24096386,,,85,0,85,0,1,,,,,,,,
,,"[""circle"",""no_dis"",""vert"",""up"",[99999,99999],[-106,106]]",circle,no_dis,vert,up,"[99999,99999]","[-106,106]",up,1,1.0845,,,,,,001,2025-03-18_09h53.00.202,SL_sali,2021.2.3,Win32,60.24096386,,,86,0,86,0,1,,,,,,,,
,,"[""circle"",""green"",""hori"",""left"",[0,-150],[-150,0]]",circle,green,hori,left,"[0,-150]","[-150,0]",left,1,1,,,,,,001,2025-03-18_09h53.00.202,SL_sali,2021.2.3,Win32,60.24096386,,,87,0,87,0,1,,,,,,,,
,,"[""diamond"",""no_dis"",""vert"",""up"",[99999,99999],[106,-106]]",diamond,no_dis,vert,up,"[99999,99999]","[106,-106]",up,1,0.9308,,,,,,001,2025-03-18_09h53.00.202,SL_sali,2021.2.3,Win32,60.24096386,,,88,0,88,0,1,,,,,,,,
,,"[""diamond"",""red"",""hori"",""left"",[106,106],[-106,-106]]",diamond,red,hori,left,"[106,106]","[-106,-106]",left,1,0.9828,,,,,,001,2025-03-18_09h53.00.202,SL_sali,2021.2.3,Win32,60.24096386,,,89,0,89,0,1,,,,,,,,
