﻿key_resp.keys,key_resp.rt,trial_para,tar_shape,dis_color_condi,tar_line,cor_resp,dis_loc,tar_loc,resp.keys,resp.corr,resp.rt,trials.thisRepN,trials.thisTrialN,trials.thisN,trials.thisIndex,trials.ran,participant,date,expName,psychopyVersion,OS,frameRate,key_resp_2.keys,key_resp_2.rt,trials_2.thisRepN,trials_2.thisTrialN,trials_2.thisN,trials_2.thisIndex,trials_2.ran,block_num,key_resp_3.keys,key_resp_3.rt,trials_3.thisRepN,trials_3.thisTrialN,trials_3.thisN,trials_3.thisIndex,trials_3.ran
space,76.56,"[""circle"",""no_dis"",""vert"",""up"",[99999,99999],[150,0]]",circle,no_dis,vert,up,"[99999,99999]","[150,0]",up,1,2.6282,0,0,0,0,1,001,2025-03-11_19h33.43.391,SL_sali,2021.2.3,Win32,59.52380952,,,,,,,,,,,,,,,
,,"[""diamond"",""red"",""hori"",""left"",[106,106],[150,0]]",diamond,red,hori,left,"[106,106]","[150,0]",up,0,2.0985,1,0,1,0,1,001,2025-03-11_19h33.43.391,SL_sali,2021.2.3,Win32,59.52380952,,,,,,,,,,,,,,,
,,"[""circle"",""red"",""vert"",""up"",[106,106],[106,-106]]",circle,red,vert,up,"[106,106]","[106,-106]",up,1,2.7856,2,0,2,0,1,001,2025-03-11_19h33.43.391,SL_sali,2021.2.3,Win32,59.52380952,,,,,,,,,,,,,,,
,,"[""diamond"",""no_dis"",""vert"",""up"",[99999,99999],[-106,106]]",diamond,no_dis,vert,up,"[99999,99999]","[-106,106]",up,1,1.7777,3,0,3,0,1,001,2025-03-11_19h33.43.391,SL_sali,2021.2.3,Win32,59.52380952,,,,,,,,,,,,,,,
,,"[""diamond"",""red"",""hori"",""left"",[-106,-106],[0,150]]",diamond,red,hori,left,"[-106,-106]","[0,150]",left,1,2.5795,4,0,4,0,1,001,2025-03-11_19h33.43.391,SL_sali,2021.2.3,Win32,59.52380952,,,,,,,,,,,,,,,
,,"[""diamond"",""red"",""vert"",""up"",[-106,-106],[106,-106]]",diamond,red,vert,up,"[-106,-106]","[106,-106]",up,1,1.8125,5,0,5,0,1,001,2025-03-11_19h33.43.391,SL_sali,2021.2.3,Win32,59.52380952,,,,,,,,,,,,,,,
,,"[""circle"",""green"",""vert"",""up"",[-106,106],[106,-106]]",circle,green,vert,up,"[-106,106]","[106,-106]",up,1,1.9503,6,0,6,0,1,001,2025-03-11_19h33.43.391,SL_sali,2021.2.3,Win32,59.52380952,,,,,,,,,,,,,,,
,,"[""diamond"",""green"",""vert"",""up"",[-150,0],[0,-150]]",diamond,green,vert,up,"[-150,0]","[0,-150]",up,1,1.8833,7,0,7,0,1,001,2025-03-11_19h33.43.391,SL_sali,2021.2.3,Win32,59.52380952,,,,,,,,,,,,,,,
,,"[""diamond"",""green"",""hori"",""left"",[106,-106],[106,106]]",diamond,green,hori,left,"[106,-106]","[106,106]",left,1,1.4628,8,0,8,0,1,001,2025-03-11_19h33.43.391,SL_sali,2021.2.3,Win32,59.52380952,,,,,,,,,,,,,,,
,,"[""circle"",""no_dis"",""hori"",""left"",[99999,99999],[0,150]]",circle,no_dis,hori,left,"[99999,99999]","[0,150]",left,1,2.8747,9,0,9,0,1,001,2025-03-11_19h33.43.391,SL_sali,2021.2.3,Win32,59.52380952,,,,,,,,,,,,,,,
,,"[""circle"",""no_dis"",""vert"",""up"",[99999,99999],[150,0]]",circle,no_dis,vert,up,"[99999,99999]","[150,0]",up,1,1.2783,,,,,,001,2025-03-11_19h33.43.391,SL_sali,2021.2.3,Win32,59.52380952,space,12.9174,0,0,0,0,1,,,,,,,,
,,"[""diamond"",""red"",""hori"",""left"",[106,106],[150,0]]",diamond,red,hori,left,"[106,106]","[150,0]",left,1,1.4661,,,,,,001,2025-03-11_19h33.43.391,SL_sali,2021.2.3,Win32,59.52380952,,,1,0,1,0,1,,,,,,,,
,,"[""circle"",""red"",""vert"",""up"",[106,106],[106,-106]]",circle,red,vert,up,"[106,106]","[106,-106]",up,1,2.0598,,,,,,001,2025-03-11_19h33.43.391,SL_sali,2021.2.3,Win32,59.52380952,,,2,0,2,0,1,,,,,,,,
,,"[""diamond"",""no_dis"",""vert"",""up"",[99999,99999],[-106,106]]",diamond,no_dis,vert,up,"[99999,99999]","[-106,106]",up,1,1.5605,,,,,,001,2025-03-11_19h33.43.391,SL_sali,2021.2.3,Win32,59.52380952,,,3,0,3,0,1,,,,,,,,
,,"[""diamond"",""red"",""hori"",""left"",[-106,-106],[0,150]]",diamond,red,hori,left,"[-106,-106]","[0,150]",left,1,1.5539,,,,,,001,2025-03-11_19h33.43.391,SL_sali,2021.2.3,Win32,59.52380952,,,4,0,4,0,1,,,,,,,,
,,"[""diamond"",""red"",""vert"",""up"",[-106,-106],[106,-106]]",diamond,red,vert,up,"[-106,-106]","[106,-106]",up,1,1.1914,,,,,,001,2025-03-11_19h33.43.391,SL_sali,2021.2.3,Win32,59.52380952,,,5,0,5,0,1,,,,,,,,
,,"[""circle"",""green"",""vert"",""up"",[-106,106],[106,-106]]",circle,green,vert,up,"[-106,106]","[106,-106]",up,1,1.6676,,,,,,001,2025-03-11_19h33.43.391,SL_sali,2021.2.3,Win32,59.52380952,,,6,0,6,0,1,,,,,,,,
,,"[""diamond"",""green"",""vert"",""up"",[-150,0],[0,-150]]",diamond,green,vert,up,"[-150,0]","[0,-150]",up,1,1.6165,,,,,,001,2025-03-11_19h33.43.391,SL_sali,2021.2.3,Win32,59.52380952,,,7,0,7,0,1,,,,,,,,
,,"[""diamond"",""green"",""hori"",""left"",[106,-106],[106,106]]",diamond,green,hori,left,"[106,-106]","[106,106]",left,1,1.7395,,,,,,001,2025-03-11_19h33.43.391,SL_sali,2021.2.3,Win32,59.52380952,,,8,0,8,0,1,,,,,,,,
,,"[""circle"",""no_dis"",""hori"",""left"",[99999,99999],[0,150]]",circle,no_dis,hori,left,"[99999,99999]","[0,150]",left,1,1.9622,,,,,,001,2025-03-11_19h33.43.391,SL_sali,2021.2.3,Win32,59.52380952,,,9,0,9,0,1,,,,,,,,
,,"[""diamond"",""red"",""hori"",""left"",[0,150],[150,0]]",diamond,red,hori,left,"[0,150]","[150,0]",left,1,1.5787,,,,,,001,2025-03-11_19h33.43.391,SL_sali,2021.2.3,Win32,59.52380952,,,10,0,10,0,1,,,,,,,,
,,"[""diamond"",""no_dis"",""hori"",""left"",[99999,99999],[-150,0]]",diamond,no_dis,hori,left,"[99999,99999]","[-150,0]",left,1,1.5864,,,,,,001,2025-03-11_19h33.43.391,SL_sali,2021.2.3,Win32,59.52380952,,,11,0,11,0,1,,,,,,,,
,,"[""diamond"",""red"",""vert"",""up"",[-106,-106],[106,106]]",diamond,red,vert,up,"[-106,-106]","[106,106]",up,1,2.0103,,,,,,001,2025-03-11_19h33.43.391,SL_sali,2021.2.3,Win32,59.52380952,,,12,0,12,0,1,,,,,,,,
,,"[""circle"",""green"",""hori"",""left"",[106,-106],[-106,-106]]",circle,green,hori,left,"[106,-106]","[-106,-106]",left,1,1.4697,,,,,,001,2025-03-11_19h33.43.391,SL_sali,2021.2.3,Win32,59.52380952,,,13,0,13,0,1,,,,,,,,
,,"[""circle"",""no_dis"",""vert"",""up"",[99999,99999],[0,-150]]",circle,no_dis,vert,up,"[99999,99999]","[0,-150]",up,1,1.1852,,,,,,001,2025-03-11_19h33.43.391,SL_sali,2021.2.3,Win32,59.52380952,,,14,0,14,0,1,,,,,,,,
,,"[""diamond"",""red"",""vert"",""up"",[0,-150],[150,0]]",diamond,red,vert,up,"[0,-150]","[150,0]",up,1,1.1347,,,,,,001,2025-03-11_19h33.43.391,SL_sali,2021.2.3,Win32,59.52380952,,,15,0,15,0,1,,,,,,,,
,,"[""diamond"",""green"",""vert"",""up"",[106,106],[-106,106]]",diamond,green,vert,up,"[106,106]","[-106,106]",up,1,0.6714,,,,,,001,2025-03-11_19h33.43.391,SL_sali,2021.2.3,Win32,59.52380952,,,16,0,16,0,1,,,,,,,,
,,"[""circle"",""no_dis"",""hori"",""left"",[99999,99999],[-106,106]]",circle,no_dis,hori,left,"[99999,99999]","[-106,106]",left,1,0.8994,,,,,,001,2025-03-11_19h33.43.391,SL_sali,2021.2.3,Win32,59.52380952,,,17,0,17,0,1,,,,,,,,
,,"[""circle"",""no_dis"",""vert"",""up"",[99999,99999],[0,-150]]",circle,no_dis,vert,up,"[99999,99999]","[0,-150]",up,1,1.1767,,,,,,001,2025-03-11_19h33.43.391,SL_sali,2021.2.3,Win32,59.52380952,,,18,0,18,0,1,,,,,,,,
,,"[""diamond"",""red"",""hori"",""left"",[106,106],[150,0]]",diamond,red,hori,left,"[106,106]","[150,0]",,0,,,,,,,001,2025-03-11_19h33.43.391,SL_sali,2021.2.3,Win32,59.52380952,,,19,0,19,0,1,,,,,,,,
,,"[""circle"",""green"",""vert"",""up"",[0,-150],[-106,-106]]",circle,green,vert,up,"[0,-150]","[-106,-106]",up,1,1.1111,,,,,,001,2025-03-11_19h33.43.391,SL_sali,2021.2.3,Win32,59.52380952,,,20,0,20,0,1,,,,,,,,
,,"[""circle"",""no_dis"",""hori"",""left"",[99999,99999],[0,150]]",circle,no_dis,hori,left,"[99999,99999]","[0,150]",left,1,1.0954,,,,,,001,2025-03-11_19h33.43.391,SL_sali,2021.2.3,Win32,59.52380952,,,21,0,21,0,1,,,,,,,,
,,"[""circle"",""no_dis"",""hori"",""left"",[99999,99999],[106,-106]]",circle,no_dis,hori,left,"[99999,99999]","[106,-106]",left,1,0.9117,,,,,,001,2025-03-11_19h33.43.391,SL_sali,2021.2.3,Win32,59.52380952,,,22,0,22,0,1,,,,,,,,
,,"[""circle"",""red"",""hori"",""left"",[-106,106],[-106,-106]]",circle,red,hori,left,"[-106,106]","[-106,-106]",left,1,1.5662,,,,,,001,2025-03-11_19h33.43.391,SL_sali,2021.2.3,Win32,59.52380952,,,23,0,23,0,1,,,,,,,,
,,"[""circle"",""green"",""hori"",""left"",[106,-106],[-106,106]]",circle,green,hori,left,"[106,-106]","[-106,106]",left,1,1.2293,,,,,,001,2025-03-11_19h33.43.391,SL_sali,2021.2.3,Win32,59.52380952,,,24,0,24,0,1,,,,,,,,
,,"[""circle"",""red"",""vert"",""up"",[-106,106],[-150,0]]",circle,red,vert,up,"[-106,106]","[-150,0]",up,1,1.3299,,,,,,001,2025-03-11_19h33.43.391,SL_sali,2021.2.3,Win32,59.52380952,,,25,0,25,0,1,,,,,,,,
,,"[""circle"",""no_dis"",""vert"",""up"",[99999,99999],[106,106]]",circle,no_dis,vert,up,"[99999,99999]","[106,106]",up,1,0.8699,,,,,,001,2025-03-11_19h33.43.391,SL_sali,2021.2.3,Win32,59.52380952,,,26,0,26,0,1,,,,,,,,
,,"[""diamond"",""red"",""hori"",""left"",[-106,-106],[106,106]]",diamond,red,hori,left,"[-106,-106]","[106,106]",up,0,1.6407,,,,,,001,2025-03-11_19h33.43.391,SL_sali,2021.2.3,Win32,59.52380952,,,27,0,27,0,1,,,,,,,,
,,"[""diamond"",""no_dis"",""hori"",""left"",[99999,99999],[106,106]]",diamond,no_dis,hori,left,"[99999,99999]","[106,106]",left,1,1.715,,,,,,001,2025-03-11_19h33.43.391,SL_sali,2021.2.3,Win32,59.52380952,,,28,0,28,0,1,,,,,,,,
,,"[""diamond"",""no_dis"",""vert"",""up"",[99999,99999],[-106,-106]]",diamond,no_dis,vert,up,"[99999,99999]","[-106,-106]",up,1,1.5396,,,,,,001,2025-03-11_19h33.43.391,SL_sali,2021.2.3,Win32,59.52380952,,,29,0,29,0,1,,,,,,,,
,,"[""diamond"",""green"",""hori"",""left"",[-106,-106],[-150,0]]",diamond,green,hori,left,"[-106,-106]","[-150,0]",left,1,1.4484,,,,,,001,2025-03-11_19h33.43.391,SL_sali,2021.2.3,Win32,59.52380952,,,30,0,30,0,1,,,,,,,,
,,"[""diamond"",""no_dis"",""hori"",""left"",[99999,99999],[-106,-106]]",diamond,no_dis,hori,left,"[99999,99999]","[-106,-106]",left,1,1.693,,,,,,001,2025-03-11_19h33.43.391,SL_sali,2021.2.3,Win32,59.52380952,,,31,0,31,0,1,,,,,,,,
,,"[""diamond"",""red"",""hori"",""left"",[150,0],[106,106]]",diamond,red,hori,left,"[150,0]","[106,106]",left,1,1.1508,,,,,,001,2025-03-11_19h33.43.391,SL_sali,2021.2.3,Win32,59.52380952,,,32,0,32,0,1,,,,,,,,
,,"[""diamond"",""no_dis"",""vert"",""up"",[99999,99999],[-150,0]]",diamond,no_dis,vert,up,"[99999,99999]","[-150,0]",up,1,1.4004,,,,,,001,2025-03-11_19h33.43.391,SL_sali,2021.2.3,Win32,59.52380952,,,33,0,33,0,1,,,,,,,,
,,"[""diamond"",""no_dis"",""hori"",""left"",[99999,99999],[0,-150]]",diamond,no_dis,hori,left,"[99999,99999]","[0,-150]",left,1,1.0007,,,,,,001,2025-03-11_19h33.43.391,SL_sali,2021.2.3,Win32,59.52380952,,,34,0,34,0,1,,,,,,,,
,,"[""diamond"",""red"",""vert"",""up"",[106,106],[0,150]]",diamond,red,vert,up,"[106,106]","[0,150]",up,1,2.1294,,,,,,001,2025-03-11_19h33.43.391,SL_sali,2021.2.3,Win32,59.52380952,,,35,0,35,0,1,,,,,,,,
,,"[""circle"",""red"",""hori"",""left"",[0,150],[-106,-106]]",circle,red,hori,left,"[0,150]","[-106,-106]",up,0,1.8792,,,,,,001,2025-03-11_19h33.43.391,SL_sali,2021.2.3,Win32,59.52380952,,,36,0,36,0,1,,,,,,,,
,,"[""circle"",""no_dis"",""vert"",""up"",[99999,99999],[106,106]]",circle,no_dis,vert,up,"[99999,99999]","[106,106]",up,1,1.048,,,,,,001,2025-03-11_19h33.43.391,SL_sali,2021.2.3,Win32,59.52380952,,,37,0,37,0,1,,,,,,,,
,,"[""circle"",""green"",""hori"",""left"",[106,106],[0,-150]]",circle,green,hori,left,"[106,106]","[0,-150]",left,1,1.1988,,,,,,001,2025-03-11_19h33.43.391,SL_sali,2021.2.3,Win32,59.52380952,,,38,0,38,0,1,,,,,,,,
,,"[""diamond"",""green"",""vert"",""up"",[-150,0],[-106,106]]",diamond,green,vert,up,"[-150,0]","[-106,106]",up,1,2.1109,,,,,,001,2025-03-11_19h33.43.391,SL_sali,2021.2.3,Win32,59.52380952,,,39,0,39,0,1,,,,,,,,
,,"[""diamond"",""no_dis"",""hori"",""left"",[99999,99999],[-150,0]]",diamond,no_dis,hori,left,"[99999,99999]","[-150,0]",left,1,1.9187,,,,,,001,2025-03-11_19h33.43.391,SL_sali,2021.2.3,Win32,59.52380952,,,40,0,40,0,1,,,,,,,,
,,"[""diamond"",""green"",""hori"",""left"",[150,0],[106,106]]",diamond,green,hori,left,"[150,0]","[106,106]",left,1,1.6808,,,,,,001,2025-03-11_19h33.43.391,SL_sali,2021.2.3,Win32,59.52380952,,,41,0,41,0,1,,,,,,,,
,,"[""diamond"",""green"",""hori"",""left"",[106,-106],[-106,-106]]",diamond,green,hori,left,"[106,-106]","[-106,-106]",left,1,1.3645,,,,,,001,2025-03-11_19h33.43.391,SL_sali,2021.2.3,Win32,59.52380952,,,42,0,42,0,1,,,,,,,,
,,"[""circle"",""no_dis"",""hori"",""left"",[99999,99999],[106,-106]]",circle,no_dis,hori,left,"[99999,99999]","[106,-106]",left,1,1.4392,,,,,,001,2025-03-11_19h33.43.391,SL_sali,2021.2.3,Win32,59.52380952,,,43,0,43,0,1,,,,,,,,
,,"[""diamond"",""green"",""vert"",""up"",[106,106],[-106,106]]",diamond,green,vert,up,"[106,106]","[-106,106]",up,1,1.2072,,,,,,001,2025-03-11_19h33.43.391,SL_sali,2021.2.3,Win32,59.52380952,,,44,0,44,0,1,,,,,,,,
,,"[""diamond"",""green"",""hori"",""left"",[0,-150],[106,106]]",diamond,green,hori,left,"[0,-150]","[106,106]",left,1,0.9427,,,,,,001,2025-03-11_19h33.43.391,SL_sali,2021.2.3,Win32,59.52380952,,,45,0,45,0,1,,,,,,,,
,,"[""circle"",""red"",""hori"",""left"",[-150,0],[0,-150]]",circle,red,hori,left,"[-150,0]","[0,-150]",left,1,1.2323,,,,,,001,2025-03-11_19h33.43.391,SL_sali,2021.2.3,Win32,59.52380952,,,46,0,46,0,1,,,,,,,,
,,"[""circle"",""no_dis"",""hori"",""left"",[99999,99999],[106,-106]]",circle,no_dis,hori,left,"[99999,99999]","[106,-106]",left,1,1.1978,,,,,,001,2025-03-11_19h33.43.391,SL_sali,2021.2.3,Win32,59.52380952,,,47,0,47,0,1,,,,,,,,
,,"[""diamond"",""no_dis"",""vert"",""up"",[99999,99999],[-106,-106]]",diamond,no_dis,vert,up,"[99999,99999]","[-106,-106]",up,1,2.4327,,,,,,001,2025-03-11_19h33.43.391,SL_sali,2021.2.3,Win32,59.52380952,,,48,0,48,0,1,,,,,,,,
,,"[""circle"",""red"",""hori"",""left"",[-106,106],[-106,-106]]",circle,red,hori,left,"[-106,106]","[-106,-106]",left,1,0.8448,,,,,,001,2025-03-11_19h33.43.391,SL_sali,2021.2.3,Win32,59.52380952,,,49,0,49,0,1,,,,,,,,
,,"[""circle"",""red"",""hori"",""left"",[106,106],[106,-106]]",circle,red,hori,left,"[106,106]","[106,-106]",left,1,1.5156,,,,,,001,2025-03-11_19h33.43.391,SL_sali,2021.2.3,Win32,59.52380952,,,50,0,50,0,1,,,,,,,,
,,"[""circle"",""green"",""hori"",""left"",[106,106],[106,-106]]",circle,green,hori,left,"[106,106]","[106,-106]",left,1,0.8977,,,,,,001,2025-03-11_19h33.43.391,SL_sali,2021.2.3,Win32,59.52380952,,,51,0,51,0,1,,,,,,,,
,,"[""diamond"",""no_dis"",""vert"",""up"",[99999,99999],[-150,0]]",diamond,no_dis,vert,up,"[99999,99999]","[-150,0]",up,1,1.4165,,,,,,001,2025-03-11_19h33.43.391,SL_sali,2021.2.3,Win32,59.52380952,,,52,0,52,0,1,,,,,,,,
,,"[""circle"",""red"",""vert"",""up"",[-150,0],[0,150]]",circle,red,vert,up,"[-150,0]","[0,150]",up,1,1.488,,,,,,001,2025-03-11_19h33.43.391,SL_sali,2021.2.3,Win32,59.52380952,,,53,0,53,0,1,,,,,,,,
,,"[""diamond"",""green"",""hori"",""left"",[106,-106],[0,150]]",diamond,green,hori,left,"[106,-106]","[0,150]",left,1,2.0379,,,,,,001,2025-03-11_19h33.43.391,SL_sali,2021.2.3,Win32,59.52380952,,,54,0,54,0,1,,,,,,,,
,,"[""circle"",""red"",""vert"",""up"",[106,106],[-150,0]]",circle,red,vert,up,"[106,106]","[-150,0]",up,1,0.9277,,,,,,001,2025-03-11_19h33.43.391,SL_sali,2021.2.3,Win32,59.52380952,,,55,0,55,0,1,,,,,,,,
,,"[""circle"",""red"",""hori"",""left"",[106,106],[-150,0]]",circle,red,hori,left,"[106,106]","[-150,0]",left,1,1.0504,,,,,,001,2025-03-11_19h33.43.391,SL_sali,2021.2.3,Win32,59.52380952,,,56,0,56,0,1,,,,,,,,
,,"[""diamond"",""no_dis"",""hori"",""left"",[99999,99999],[0,-150]]",diamond,no_dis,hori,left,"[99999,99999]","[0,-150]",up,0,1.8932,,,,,,001,2025-03-11_19h33.43.391,SL_sali,2021.2.3,Win32,59.52380952,,,57,0,57,0,1,,,,,,,,
,,"[""circle"",""no_dis"",""hori"",""left"",[99999,99999],[-106,106]]",circle,no_dis,hori,left,"[99999,99999]","[-106,106]",left,1,1.9991,,,,,,001,2025-03-11_19h33.43.391,SL_sali,2021.2.3,Win32,59.52380952,,,58,0,58,0,1,,,,,,,,
,,"[""circle"",""green"",""vert"",""up"",[-106,106],[-150,0]]",circle,green,vert,up,"[-106,106]","[-150,0]",left,0,2.6458,,,,,,001,2025-03-11_19h33.43.391,SL_sali,2021.2.3,Win32,59.52380952,,,59,0,59,0,1,,,,,,,,
,,"[""diamond"",""red"",""vert"",""up"",[106,106],[106,-106]]",diamond,red,vert,up,"[106,106]","[106,-106]",up,1,1.8459,,,,,,001,2025-03-11_19h33.43.391,SL_sali,2021.2.3,Win32,59.52380952,,,60,0,60,0,1,,,,,,,,
,,"[""circle"",""no_dis"",""hori"",""left"",[99999,99999],[0,150]]",circle,no_dis,hori,left,"[99999,99999]","[0,150]",left,1,1.0333,,,,,,001,2025-03-11_19h33.43.391,SL_sali,2021.2.3,Win32,59.52380952,,,61,0,61,0,1,,,,,,,,
,,"[""diamond"",""red"",""hori"",""left"",[-106,106],[0,150]]",diamond,red,hori,left,"[-106,106]","[0,150]",up,0,1.5258,,,,,,001,2025-03-11_19h33.43.391,SL_sali,2021.2.3,Win32,59.52380952,,,62,0,62,0,1,,,,,,,,
,,"[""diamond"",""red"",""hori"",""left"",[150,0],[-106,-106]]",diamond,red,hori,left,"[150,0]","[-106,-106]",up,0,1.6705,,,,,,001,2025-03-11_19h33.43.391,SL_sali,2021.2.3,Win32,59.52380952,,,63,0,63,0,1,,,,,,,,
,,"[""circle"",""green"",""hori"",""left"",[0,150],[106,106]]",circle,green,hori,left,"[0,150]","[106,106]",left,1,1.4624,,,,,,001,2025-03-11_19h33.43.391,SL_sali,2021.2.3,Win32,59.52380952,,,64,0,64,0,1,,,,,,,,
,,"[""diamond"",""green"",""vert"",""up"",[106,106],[-106,106]]",diamond,green,vert,up,"[106,106]","[-106,106]",up,1,1.4268,,,,,,001,2025-03-11_19h33.43.391,SL_sali,2021.2.3,Win32,59.52380952,,,65,0,65,0,1,,,,,,,,
,,"[""diamond"",""no_dis"",""hori"",""left"",[99999,99999],[106,106]]",diamond,no_dis,hori,left,"[99999,99999]","[106,106]",left,1,1.0075,,,,,,001,2025-03-11_19h33.43.391,SL_sali,2021.2.3,Win32,59.52380952,,,66,0,66,0,1,,,,,,,,
,,"[""diamond"",""green"",""vert"",""up"",[150,0],[-106,-106]]",diamond,green,vert,up,"[150,0]","[-106,-106]",up,1,1.8196,,,,,,001,2025-03-11_19h33.43.391,SL_sali,2021.2.3,Win32,59.52380952,,,67,0,67,0,1,,,,,,,,
,,"[""diamond"",""red"",""vert"",""up"",[-106,-106],[-106,106]]",diamond,red,vert,up,"[-106,-106]","[-106,106]",left,0,2.7302,,,,,,001,2025-03-11_19h33.43.391,SL_sali,2021.2.3,Win32,59.52380952,,,68,0,68,0,1,,,,,,,,
,,"[""diamond"",""no_dis"",""vert"",""up"",[99999,99999],[106,-106]]",diamond,no_dis,vert,up,"[99999,99999]","[106,-106]",up,1,1.1348,,,,,,001,2025-03-11_19h33.43.391,SL_sali,2021.2.3,Win32,59.52380952,,,69,0,69,0,1,,,,,,,,
,,"[""diamond"",""green"",""hori"",""left"",[106,106],[-106,-106]]",diamond,green,hori,left,"[106,106]","[-106,-106]",left,1,1.3454,,,,,,001,2025-03-11_19h33.43.391,SL_sali,2021.2.3,Win32,59.52380952,,,70,0,70,0,1,,,,,,,,
,,"[""diamond"",""green"",""vert"",""up"",[0,-150],[106,106]]",diamond,green,vert,up,"[0,-150]","[106,106]",up,1,1.0749,,,,,,001,2025-03-11_19h33.43.391,SL_sali,2021.2.3,Win32,59.52380952,,,71,0,71,0,1,,,,,,,,
,,"[""diamond"",""no_dis"",""hori"",""left"",[99999,99999],[0,150]]",diamond,no_dis,hori,left,"[99999,99999]","[0,150]",left,1,1.7518,,,,,,001,2025-03-11_19h33.43.391,SL_sali,2021.2.3,Win32,59.52380952,,,72,0,72,0,1,,,,,,,,
,,"[""diamond"",""green"",""hori"",""left"",[150,0],[0,150]]",diamond,green,hori,left,"[150,0]","[0,150]",left,1,2.4597,,,,,,001,2025-03-11_19h33.43.391,SL_sali,2021.2.3,Win32,59.52380952,,,73,0,73,0,1,,,,,,,,
,,"[""circle"",""red"",""hori"",""left"",[0,150],[0,-150]]",circle,red,hori,left,"[0,150]","[0,-150]",left,1,1.7614,,,,,,001,2025-03-11_19h33.43.391,SL_sali,2021.2.3,Win32,59.52380952,,,74,0,74,0,1,,,,,,,,
,,"[""circle"",""green"",""vert"",""up"",[106,106],[0,-150]]",circle,green,vert,up,"[106,106]","[0,-150]",up,1,1.8651,,,,,,001,2025-03-11_19h33.43.391,SL_sali,2021.2.3,Win32,59.52380952,,,75,0,75,0,1,,,,,,,,
,,"[""circle"",""green"",""hori"",""left"",[106,106],[106,-106]]",circle,green,hori,left,"[106,106]","[106,-106]",left,1,1.1183,,,,,,001,2025-03-11_19h33.43.391,SL_sali,2021.2.3,Win32,59.52380952,,,76,0,76,0,1,,,,,,,,
,,"[""circle"",""no_dis"",""vert"",""up"",[99999,99999],[-106,106]]",circle,no_dis,vert,up,"[99999,99999]","[-106,106]",up,1,2.0824,,,,,,001,2025-03-11_19h33.43.391,SL_sali,2021.2.3,Win32,59.52380952,,,77,0,77,0,1,,,,,,,,
,,"[""circle"",""green"",""hori"",""left"",[0,150],[0,-150]]",circle,green,hori,left,"[0,150]","[0,-150]",left,1,0.9699,,,,,,001,2025-03-11_19h33.43.391,SL_sali,2021.2.3,Win32,59.52380952,,,78,0,78,0,1,,,,,,,,
,,"[""circle"",""no_dis"",""hori"",""left"",[99999,99999],[150,0]]",circle,no_dis,hori,left,"[99999,99999]","[150,0]",left,1,2.1,,,,,,001,2025-03-11_19h33.43.391,SL_sali,2021.2.3,Win32,59.52380952,,,79,0,79,0,1,,,,,,,,
,,"[""circle"",""no_dis"",""hori"",""left"",[99999,99999],[150,0]]",circle,no_dis,hori,left,"[99999,99999]","[150,0]",left,1,1.8927,,,,,,001,2025-03-11_19h33.43.391,SL_sali,2021.2.3,Win32,59.52380952,,,80,0,80,0,1,,,,,,,,
,,"[""circle"",""no_dis"",""vert"",""up"",[99999,99999],[-150,0]]",circle,no_dis,vert,up,"[99999,99999]","[-150,0]",up,1,1.0762,,,,,,001,2025-03-11_19h33.43.391,SL_sali,2021.2.3,Win32,59.52380952,,,81,0,81,0,1,,,,,,,,
,,"[""circle"",""red"",""hori"",""left"",[106,106],[106,-106]]",circle,red,hori,left,"[106,106]","[106,-106]",left,1,1.8367,,,,,,001,2025-03-11_19h33.43.391,SL_sali,2021.2.3,Win32,59.52380952,,,82,0,82,0,1,,,,,,,,
,,"[""diamond"",""no_dis"",""hori"",""left"",[99999,99999],[106,-106]]",diamond,no_dis,hori,left,"[99999,99999]","[106,-106]",left,1,1.7435,,,,,,001,2025-03-11_19h33.43.391,SL_sali,2021.2.3,Win32,59.52380952,,,83,0,83,0,1,,,,,,,,
,,"[""diamond"",""no_dis"",""vert"",""up"",[99999,99999],[-106,106]]",diamond,no_dis,vert,up,"[99999,99999]","[-106,106]",up,1,0.7842,,,,,,001,2025-03-11_19h33.43.391,SL_sali,2021.2.3,Win32,59.52380952,,,84,0,84,0,1,,,,,,,,
,,"[""diamond"",""no_dis"",""hori"",""left"",[99999,99999],[-106,-106]]",diamond,no_dis,hori,left,"[99999,99999]","[-106,-106]",left,1,1.2217,,,,,,001,2025-03-11_19h33.43.391,SL_sali,2021.2.3,Win32,59.52380952,,,85,0,85,0,1,,,,,,,,
,,"[""circle"",""red"",""vert"",""up"",[0,150],[106,106]]",circle,red,vert,up,"[0,150]","[106,106]",up,1,1.8768,,,,,,001,2025-03-11_19h33.43.391,SL_sali,2021.2.3,Win32,59.52380952,,,86,0,86,0,1,,,,,,,,
,,"[""diamond"",""red"",""vert"",""up"",[106,106],[0,150]]",diamond,red,vert,up,"[106,106]","[0,150]",up,1,1.5425,,,,,,001,2025-03-11_19h33.43.391,SL_sali,2021.2.3,Win32,59.52380952,,,87,0,87,0,1,,,,,,,,
,,"[""circle"",""red"",""hori"",""left"",[0,-150],[-106,-106]]",circle,red,hori,left,"[0,-150]","[-106,-106]",left,1,1.3182,,,,,,001,2025-03-11_19h33.43.391,SL_sali,2021.2.3,Win32,59.52380952,,,88,0,88,0,1,,,,,,,,
,,"[""circle"",""green"",""hori"",""left"",[-150,0],[0,-150]]",circle,green,hori,left,"[-150,0]","[0,-150]",left,1,1.5977,,,,,,001,2025-03-11_19h33.43.391,SL_sali,2021.2.3,Win32,59.52380952,,,89,0,89,0,1,,,,,,,,
,,"[""diamond"",""red"",""hori"",""left"",[-106,-106],[0,-150]]",diamond,red,hori,left,"[-106,-106]","[0,-150]",left,1,1.7557,,,,,,001,2025-03-11_19h33.43.391,SL_sali,2021.2.3,Win32,59.52380952,,,90,0,90,0,1,,,,,,,,
,,"[""diamond"",""green"",""vert"",""up"",[0,150],[0,-150]]",diamond,green,vert,up,"[0,150]","[0,-150]",up,1,2.1318,,,,,,001,2025-03-11_19h33.43.391,SL_sali,2021.2.3,Win32,59.52380952,,,91,0,91,0,1,,,,,,,,
,,"[""diamond"",""no_dis"",""vert"",""up"",[99999,99999],[106,106]]",diamond,no_dis,vert,up,"[99999,99999]","[106,106]",up,1,1.0135,,,,,,001,2025-03-11_19h33.43.391,SL_sali,2021.2.3,Win32,59.52380952,,,92,0,92,0,1,,,,,,,,
,,"[""diamond"",""red"",""vert"",""up"",[0,150],[106,-106]]",diamond,red,vert,up,"[0,150]","[106,-106]",up,1,0.8936,,,,,,001,2025-03-11_19h33.43.391,SL_sali,2021.2.3,Win32,59.52380952,,,93,0,93,0,1,,,,,,,,
,,"[""circle"",""green"",""vert"",""up"",[106,-106],[0,150]]",circle,green,vert,up,"[106,-106]","[0,150]",up,1,1.3343,,,,,,001,2025-03-11_19h33.43.391,SL_sali,2021.2.3,Win32,59.52380952,,,94,0,94,0,1,,,,,,,,
,,"[""circle"",""no_dis"",""vert"",""up"",[99999,99999],[0,-150]]",circle,no_dis,vert,up,"[99999,99999]","[0,-150]",up,1,1.9542,,,,,,001,2025-03-11_19h33.43.391,SL_sali,2021.2.3,Win32,59.52380952,,,95,0,95,0,1,,,,,,,,
,,"[""circle"",""green"",""hori"",""left"",[-106,-106],[106,-106]]",circle,green,hori,left,"[-106,-106]","[106,-106]",left,1,1.5965,,,,,,001,2025-03-11_19h33.43.391,SL_sali,2021.2.3,Win32,59.52380952,,,96,0,96,0,1,,,,,,,,
,,"[""diamond"",""no_dis"",""vert"",""up"",[99999,99999],[0,150]]",diamond,no_dis,vert,up,"[99999,99999]","[0,150]",up,1,1.0957,,,,,,001,2025-03-11_19h33.43.391,SL_sali,2021.2.3,Win32,59.52380952,,,97,0,97,0,1,,,,,,,,
,,"[""circle"",""green"",""vert"",""up"",[0,-150],[-150,0]]",circle,green,vert,up,"[0,-150]","[-150,0]",up,1,1.2019,,,,,,001,2025-03-11_19h33.43.391,SL_sali,2021.2.3,Win32,59.52380952,,,98,0,98,0,1,,,,,,,,
,,"[""diamond"",""green"",""vert"",""up"",[106,106],[0,150]]",diamond,green,vert,up,"[106,106]","[0,150]",up,1,1.3632,,,,,,001,2025-03-11_19h33.43.391,SL_sali,2021.2.3,Win32,59.52380952,,,99,0,99,0,1,,,,,,,,
,,"[""diamond"",""green"",""hori"",""left"",[-106,106],[0,150]]",diamond,green,hori,left,"[-106,106]","[0,150]",left,1,0.6827,,,,,,001,2025-03-11_19h33.43.391,SL_sali,2021.2.3,Win32,59.52380952,,,100,0,100,0,1,,,,,,,,
,,"[""circle"",""green"",""vert"",""up"",[106,-106],[-150,0]]",circle,green,vert,up,"[106,-106]","[-150,0]",up,1,1.28,,,,,,001,2025-03-11_19h33.43.391,SL_sali,2021.2.3,Win32,59.52380952,,,101,0,101,0,1,,,,,,,,
,,"[""diamond"",""red"",""vert"",""up"",[106,-106],[0,150]]",diamond,red,vert,up,"[106,-106]","[0,150]",up,1,1.4459,,,,,,001,2025-03-11_19h33.43.391,SL_sali,2021.2.3,Win32,59.52380952,,,102,0,102,0,1,,,,,,,,
,,"[""circle"",""no_dis"",""vert"",""up"",[99999,99999],[150,0]]",circle,no_dis,vert,up,"[99999,99999]","[150,0]",up,1,1.2109,,,,,,001,2025-03-11_19h33.43.391,SL_sali,2021.2.3,Win32,59.52380952,,,103,0,103,0,1,,,,,,,,
,,"[""circle"",""green"",""vert"",""up"",[150,0],[0,150]]",circle,green,vert,up,"[150,0]","[0,150]",up,1,1.5279,,,,,,001,2025-03-11_19h33.43.391,SL_sali,2021.2.3,Win32,59.52380952,,,104,0,104,0,1,,,,,,,,
,,"[""circle"",""red"",""vert"",""up"",[106,106],[0,-150]]",circle,red,vert,up,"[106,106]","[0,-150]",up,1,1.017,,,,,,001,2025-03-11_19h33.43.391,SL_sali,2021.2.3,Win32,59.52380952,,,105,0,105,0,1,,,,,,,,
,,"[""diamond"",""green"",""hori"",""left"",[106,106],[-106,-106]]",diamond,green,hori,left,"[106,106]","[-106,-106]",left,1,1.8457,,,,,,001,2025-03-11_19h33.43.391,SL_sali,2021.2.3,Win32,59.52380952,,,106,0,106,0,1,,,,,,,,
,,"[""diamond"",""no_dis"",""vert"",""up"",[99999,99999],[-106,-106]]",diamond,no_dis,vert,up,"[99999,99999]","[-106,-106]",left,0,0.7411,,,,,,001,2025-03-11_19h33.43.391,SL_sali,2021.2.3,Win32,59.52380952,,,107,0,107,0,1,,,,,,,,
,,"[""diamond"",""red"",""hori"",""left"",[106,106],[-106,-106]]",diamond,red,hori,left,"[106,106]","[-106,-106]",left,1,1.4122,,,,,,001,2025-03-11_19h33.43.391,SL_sali,2021.2.3,Win32,59.52380952,,,108,0,108,0,1,,,,,,,,
,,"[""circle"",""green"",""hori"",""left"",[150,0],[0,-150]]",circle,green,hori,left,"[150,0]","[0,-150]",left,1,0.9144,,,,,,001,2025-03-11_19h33.43.391,SL_sali,2021.2.3,Win32,59.52380952,,,109,0,109,0,1,,,,,,,,
,,"[""circle"",""green"",""vert"",""up"",[0,-150],[106,-106]]",circle,green,vert,up,"[0,-150]","[106,-106]",up,1,1.1164,,,,,,001,2025-03-11_19h33.43.391,SL_sali,2021.2.3,Win32,59.52380952,,,110,0,110,0,1,,,,,,,,
,,"[""circle"",""red"",""vert"",""up"",[150,0],[-106,106]]",circle,red,vert,up,"[150,0]","[-106,106]",up,1,1.2228,,,,,,001,2025-03-11_19h33.43.391,SL_sali,2021.2.3,Win32,59.52380952,,,111,0,111,0,1,,,,,,,,
,,"[""circle"",""red"",""vert"",""up"",[-150,0],[0,-150]]",circle,red,vert,up,"[-150,0]","[0,-150]",up,1,1.0806,,,,,,001,2025-03-11_19h33.43.391,SL_sali,2021.2.3,Win32,59.52380952,,,112,0,112,0,1,,,,,,,,
,,"[""circle"",""red"",""vert"",""up"",[106,106],[-106,-106]]",circle,red,vert,up,"[106,106]","[-106,-106]",up,1,0.7243,,,,,,001,2025-03-11_19h33.43.391,SL_sali,2021.2.3,Win32,59.52380952,,,113,0,113,0,1,,,,,,,,
,,"[""diamond"",""green"",""vert"",""up"",[-150,0],[106,-106]]",diamond,green,vert,up,"[-150,0]","[106,-106]",left,0,1.1251,,,,,,001,2025-03-11_19h33.43.391,SL_sali,2021.2.3,Win32,59.52380952,,,114,0,114,0,1,,,,,,,,
,,"[""circle"",""red"",""vert"",""up"",[-150,0],[0,150]]",circle,red,vert,up,"[-150,0]","[0,150]",up,1,1.0049,,,,,,001,2025-03-11_19h33.43.391,SL_sali,2021.2.3,Win32,59.52380952,,,115,0,115,0,1,,,,,,,,
,,"[""circle"",""no_dis"",""vert"",""up"",[99999,99999],[150,0]]",circle,no_dis,vert,up,"[99999,99999]","[150,0]",up,1,0.9167,,,,,,001,2025-03-11_19h33.43.391,SL_sali,2021.2.3,Win32,59.52380952,,,116,0,116,0,1,,,,,,,,
,,"[""circle"",""red"",""hori"",""left"",[0,-150],[106,-106]]",circle,red,hori,left,"[0,-150]","[106,-106]",left,1,0.9151,,,,,,001,2025-03-11_19h33.43.391,SL_sali,2021.2.3,Win32,59.52380952,,,117,0,117,0,1,,,,,,,,
,,"[""circle"",""green"",""vert"",""up"",[106,106],[0,-150]]",circle,green,vert,up,"[106,106]","[0,-150]",up,1,0.9447,,,,,,001,2025-03-11_19h33.43.391,SL_sali,2021.2.3,Win32,59.52380952,,,118,0,118,0,1,,,,,,,,
,,"[""diamond"",""red"",""vert"",""up"",[-106,106],[106,-106]]",diamond,red,vert,up,"[-106,106]","[106,-106]",up,1,0.9668,,,,,,001,2025-03-11_19h33.43.391,SL_sali,2021.2.3,Win32,59.52380952,,,119,0,119,0,1,,,,,,,,
,,,,,,,,,,,,,,,,,001,2025-03-11_19h33.43.391,SL_sali,2021.2.3,Win32,59.52380952,,,,,,,,1,space,74.4076,0,0,0,0,1
,,"[""diamond"",""no_dis"",""hori"",""left"",[99999,99999],[106,106]]",diamond,no_dis,hori,left,"[99999,99999]","[106,106]",left,1,1.444,,,,,,001,2025-03-11_19h33.43.391,SL_sali,2021.2.3,Win32,59.52380952,,,0,0,0,0,1,,,,,,,,
,,"[""diamond"",""green"",""vert"",""up"",[106,106],[0,150]]",diamond,green,vert,up,"[106,106]","[0,150]",up,1,1.2578,,,,,,001,2025-03-11_19h33.43.391,SL_sali,2021.2.3,Win32,59.52380952,,,1,0,1,0,1,,,,,,,,
,,"[""diamond"",""green"",""vert"",""up"",[106,106],[-106,106]]",diamond,green,vert,up,"[106,106]","[-106,106]",up,1,1.1121,,,,,,001,2025-03-11_19h33.43.391,SL_sali,2021.2.3,Win32,59.52380952,,,2,0,2,0,1,,,,,,,,
,,"[""diamond"",""green"",""vert"",""up"",[0,150],[0,-150]]",diamond,green,vert,up,"[0,150]","[0,-150]",up,1,1.2198,,,,,,001,2025-03-11_19h33.43.391,SL_sali,2021.2.3,Win32,59.52380952,,,3,0,3,0,1,,,,,,,,
,,"[""diamond"",""green"",""hori"",""left"",[-106,106],[0,150]]",diamond,green,hori,left,"[-106,106]","[0,150]",left,1,1.1911,,,,,,001,2025-03-11_19h33.43.391,SL_sali,2021.2.3,Win32,59.52380952,,,4,0,4,0,1,,,,,,,,
,,"[""diamond"",""red"",""vert"",""up"",[-106,-106],[106,106]]",diamond,red,vert,up,"[-106,-106]","[106,106]",up,1,1.0693,,,,,,001,2025-03-11_19h33.43.391,SL_sali,2021.2.3,Win32,59.52380952,,,5,0,5,0,1,,,,,,,,
,,"[""diamond"",""green"",""hori"",""left"",[106,-106],[0,150]]",diamond,green,hori,left,"[106,-106]","[0,150]",up,0,0.7491,,,,,,001,2025-03-11_19h33.43.391,SL_sali,2021.2.3,Win32,59.52380952,,,6,0,6,0,1,,,,,,,,
,,"[""circle"",""no_dis"",""hori"",""left"",[99999,99999],[106,-106]]",circle,no_dis,hori,left,"[99999,99999]","[106,-106]",left,1,1.4366,,,,,,001,2025-03-11_19h33.43.391,SL_sali,2021.2.3,Win32,59.52380952,,,7,0,7,0,1,,,,,,,,
,,"[""circle"",""no_dis"",""hori"",""left"",[99999,99999],[0,150]]",circle,no_dis,hori,left,"[99999,99999]","[0,150]",left,1,1.3095,,,,,,001,2025-03-11_19h33.43.391,SL_sali,2021.2.3,Win32,59.52380952,,,8,0,8,0,1,,,,,,,,
,,"[""diamond"",""green"",""hori"",""left"",[106,106],[-106,-106]]",diamond,green,hori,left,"[106,106]","[-106,-106]",left,1,1.0443,,,,,,001,2025-03-11_19h33.43.391,SL_sali,2021.2.3,Win32,59.52380952,,,9,0,9,0,1,,,,,,,,
,,"[""circle"",""green"",""vert"",""up"",[-106,106],[106,-106]]",circle,green,vert,up,"[-106,106]","[106,-106]",up,1,1.3373,,,,,,001,2025-03-11_19h33.43.391,SL_sali,2021.2.3,Win32,59.52380952,,,10,0,10,0,1,,,,,,,,
,,"[""circle"",""red"",""vert"",""up"",[0,150],[106,106]]",circle,red,vert,up,"[0,150]","[106,106]",up,1,2.0661,,,,,,001,2025-03-11_19h33.43.391,SL_sali,2021.2.3,Win32,59.52380952,,,11,0,11,0,1,,,,,,,,
,,"[""diamond"",""green"",""vert"",""up"",[106,106],[-106,106]]",diamond,green,vert,up,"[106,106]","[-106,106]",up,1,1.3113,,,,,,001,2025-03-11_19h33.43.391,SL_sali,2021.2.3,Win32,59.52380952,,,12,0,12,0,1,,,,,,,,
,,"[""circle"",""green"",""vert"",""up"",[0,-150],[-150,0]]",circle,green,vert,up,"[0,-150]","[-150,0]",up,1,1.2001,,,,,,001,2025-03-11_19h33.43.391,SL_sali,2021.2.3,Win32,59.52380952,,,13,0,13,0,1,,,,,,,,
,,"[""diamond"",""no_dis"",""vert"",""up"",[99999,99999],[-106,-106]]",diamond,no_dis,vert,up,"[99999,99999]","[-106,-106]",up,1,1.4941,,,,,,001,2025-03-11_19h33.43.391,SL_sali,2021.2.3,Win32,59.52380952,,,14,0,14,0,1,,,,,,,,
,,"[""circle"",""no_dis"",""hori"",""left"",[99999,99999],[150,0]]",circle,no_dis,hori,left,"[99999,99999]","[150,0]",left,1,1.2843,,,,,,001,2025-03-11_19h33.43.391,SL_sali,2021.2.3,Win32,59.52380952,,,15,0,15,0,1,,,,,,,,
,,"[""circle"",""no_dis"",""hori"",""left"",[99999,99999],[0,150]]",circle,no_dis,hori,left,"[99999,99999]","[0,150]",up,0,2.0572,,,,,,001,2025-03-11_19h33.43.391,SL_sali,2021.2.3,Win32,59.52380952,,,16,0,16,0,1,,,,,,,,
,,"[""diamond"",""no_dis"",""hori"",""left"",[99999,99999],[0,-150]]",diamond,no_dis,hori,left,"[99999,99999]","[0,-150]",left,1,1.0774,,,,,,001,2025-03-11_19h33.43.391,SL_sali,2021.2.3,Win32,59.52380952,,,17,0,17,0,1,,,,,,,,
,,"[""diamond"",""no_dis"",""vert"",""up"",[99999,99999],[-106,106]]",diamond,no_dis,vert,up,"[99999,99999]","[-106,106]",up,1,1.2285,,,,,,001,2025-03-11_19h33.43.391,SL_sali,2021.2.3,Win32,59.52380952,,,18,0,18,0,1,,,,,,,,
,,"[""diamond"",""green"",""hori"",""left"",[150,0],[0,150]]",diamond,green,hori,left,"[150,0]","[0,150]",left,1,1.264,,,,,,001,2025-03-11_19h33.43.391,SL_sali,2021.2.3,Win32,59.52380952,,,19,0,19,0,1,,,,,,,,
,,"[""diamond"",""no_dis"",""vert"",""up"",[99999,99999],[-150,0]]",diamond,no_dis,vert,up,"[99999,99999]","[-150,0]",up,1,1.348,,,,,,001,2025-03-11_19h33.43.391,SL_sali,2021.2.3,Win32,59.52380952,,,20,0,20,0,1,,,,,,,,
,,"[""circle"",""no_dis"",""hori"",""left"",[99999,99999],[106,-106]]",circle,no_dis,hori,left,"[99999,99999]","[106,-106]",left,1,0.7844,,,,,,001,2025-03-11_19h33.43.391,SL_sali,2021.2.3,Win32,59.52380952,,,21,0,21,0,1,,,,,,,,
,,"[""diamond"",""no_dis"",""vert"",""up"",[99999,99999],[-106,106]]",diamond,no_dis,vert,up,"[99999,99999]","[-106,106]",up,1,0.8476,,,,,,001,2025-03-11_19h33.43.391,SL_sali,2021.2.3,Win32,59.52380952,,,22,0,22,0,1,,,,,,,,
,,"[""diamond"",""red"",""vert"",""up"",[0,150],[106,-106]]",diamond,red,vert,up,"[0,150]","[106,-106]",left,0,1.4265,,,,,,001,2025-03-11_19h33.43.391,SL_sali,2021.2.3,Win32,59.52380952,,,23,0,23,0,1,,,,,,,,
,,"[""circle"",""green"",""hori"",""left"",[0,150],[106,106]]",circle,green,hori,left,"[0,150]","[106,106]",up,0,1.942,,,,,,001,2025-03-11_19h33.43.391,SL_sali,2021.2.3,Win32,59.52380952,,,24,0,24,0,1,,,,,,,,
,,"[""diamond"",""red"",""hori"",""left"",[0,150],[150,0]]",diamond,red,hori,left,"[0,150]","[150,0]",left,1,1.9918,,,,,,001,2025-03-11_19h33.43.391,SL_sali,2021.2.3,Win32,59.52380952,,,25,0,25,0,1,,,,,,,,
,,"[""circle"",""red"",""hori"",""left"",[106,106],[-150,0]]",circle,red,hori,left,"[106,106]","[-150,0]",left,1,1.5873,,,,,,001,2025-03-11_19h33.43.391,SL_sali,2021.2.3,Win32,59.52380952,,,26,0,26,0,1,,,,,,,,
,,"[""diamond"",""no_dis"",""hori"",""left"",[99999,99999],[0,-150]]",diamond,no_dis,hori,left,"[99999,99999]","[0,-150]",left,1,1.0729,,,,,,001,2025-03-11_19h33.43.391,SL_sali,2021.2.3,Win32,59.52380952,,,27,0,27,0,1,,,,,,,,
,,"[""diamond"",""green"",""vert"",""up"",[-150,0],[106,-106]]",diamond,green,vert,up,"[-150,0]","[106,-106]",up,1,1.2947,,,,,,001,2025-03-11_19h33.43.391,SL_sali,2021.2.3,Win32,59.52380952,,,28,0,28,0,1,,,,,,,,
,,"[""diamond"",""red"",""hori"",""left"",[106,106],[150,0]]",diamond,red,hori,left,"[106,106]","[150,0]",left,1,1.6582,,,,,,001,2025-03-11_19h33.43.391,SL_sali,2021.2.3,Win32,59.52380952,,,29,0,29,0,1,,,,,,,,
,,"[""circle"",""green"",""hori"",""left"",[106,-106],[-106,-106]]",circle,green,hori,left,"[106,-106]","[-106,-106]",left,1,0.9171,,,,,,001,2025-03-11_19h33.43.391,SL_sali,2021.2.3,Win32,59.52380952,,,30,0,30,0,1,,,,,,,,
,,"[""diamond"",""no_dis"",""hori"",""left"",[99999,99999],[-106,-106]]",diamond,no_dis,hori,left,"[99999,99999]","[-106,-106]",left,1,1.1452,,,,,,001,2025-03-11_19h33.43.391,SL_sali,2021.2.3,Win32,59.52380952,,,31,0,31,0,1,,,,,,,,
,,"[""diamond"",""red"",""hori"",""left"",[106,106],[-106,-106]]",diamond,red,hori,left,"[106,106]","[-106,-106]",left,1,1.0672,,,,,,001,2025-03-11_19h33.43.391,SL_sali,2021.2.3,Win32,59.52380952,,,32,0,32,0,1,,,,,,,,
,,"[""diamond"",""no_dis"",""hori"",""left"",[99999,99999],[-106,-106]]",diamond,no_dis,hori,left,"[99999,99999]","[-106,-106]",left,1,1.0099,,,,,,001,2025-03-11_19h33.43.391,SL_sali,2021.2.3,Win32,59.52380952,,,33,0,33,0,1,,,,,,,,
,,"[""diamond"",""red"",""vert"",""up"",[106,106],[106,-106]]",diamond,red,vert,up,"[106,106]","[106,-106]",up,1,1.7115,,,,,,001,2025-03-11_19h33.43.391,SL_sali,2021.2.3,Win32,59.52380952,,,34,0,34,0,1,,,,,,,,
,,"[""diamond"",""green"",""vert"",""up"",[-150,0],[0,-150]]",diamond,green,vert,up,"[-150,0]","[0,-150]",up,1,1.1487,,,,,,001,2025-03-11_19h33.43.391,SL_sali,2021.2.3,Win32,59.52380952,,,35,0,35,0,1,,,,,,,,
,,"[""diamond"",""red"",""vert"",""up"",[-106,-106],[-106,106]]",diamond,red,vert,up,"[-106,-106]","[-106,106]",up,1,1.6424,,,,,,001,2025-03-11_19h33.43.391,SL_sali,2021.2.3,Win32,59.52380952,,,36,0,36,0,1,,,,,,,,
,,"[""diamond"",""red"",""hori"",""left"",[-106,-106],[0,-150]]",diamond,red,hori,left,"[-106,-106]","[0,-150]",left,1,1.0944,,,,,,001,2025-03-11_19h33.43.391,SL_sali,2021.2.3,Win32,59.52380952,,,37,0,37,0,1,,,,,,,,
,,"[""circle"",""red"",""vert"",""up"",[106,106],[-106,-106]]",circle,red,vert,up,"[106,106]","[-106,-106]",up,1,0.9647,,,,,,001,2025-03-11_19h33.43.391,SL_sali,2021.2.3,Win32,59.52380952,,,38,0,38,0,1,,,,,,,,
,,"[""circle"",""no_dis"",""hori"",""left"",[99999,99999],[150,0]]",circle,no_dis,hori,left,"[99999,99999]","[150,0]",left,1,0.8643,,,,,,001,2025-03-11_19h33.43.391,SL_sali,2021.2.3,Win32,59.52380952,,,39,0,39,0,1,,,,,,,,
,,"[""circle"",""red"",""hori"",""left"",[0,-150],[106,-106]]",circle,red,hori,left,"[0,-150]","[106,-106]",left,1,1.0206,,,,,,001,2025-03-11_19h33.43.391,SL_sali,2021.2.3,Win32,59.52380952,,,40,0,40,0,1,,,,,,,,
,,"[""diamond"",""red"",""hori"",""left"",[150,0],[-106,-106]]",diamond,red,hori,left,"[150,0]","[-106,-106]",up,0,0.9833,,,,,,001,2025-03-11_19h33.43.391,SL_sali,2021.2.3,Win32,59.52380952,,,41,0,41,0,1,,,,,,,,
,,"[""circle"",""green"",""hori"",""left"",[0,150],[0,-150]]",circle,green,hori,left,"[0,150]","[0,-150]",left,1,1.061,,,,,,001,2025-03-11_19h33.43.391,SL_sali,2021.2.3,Win32,59.52380952,,,42,0,42,0,1,,,,,,,,
,,"[""circle"",""green"",""vert"",""up"",[106,-106],[0,150]]",circle,green,vert,up,"[106,-106]","[0,150]",left,0,1.8938,,,,,,001,2025-03-11_19h33.43.391,SL_sali,2021.2.3,Win32,59.52380952,,,43,0,43,0,1,,,,,,,,
,,"[""diamond"",""red"",""hori"",""left"",[106,106],[150,0]]",diamond,red,hori,left,"[106,106]","[150,0]",left,1,1.5765,,,,,,001,2025-03-11_19h33.43.391,SL_sali,2021.2.3,Win32,59.52380952,,,44,0,44,0,1,,,,,,,,
,,"[""diamond"",""no_dis"",""vert"",""up"",[99999,99999],[0,150]]",diamond,no_dis,vert,up,"[99999,99999]","[0,150]",up,1,1.4651,,,,,,001,2025-03-11_19h33.43.391,SL_sali,2021.2.3,Win32,59.52380952,,,45,0,45,0,1,,,,,,,,
,,"[""diamond"",""red"",""vert"",""up"",[106,106],[0,150]]",diamond,red,vert,up,"[106,106]","[0,150]",up,1,1.7972,,,,,,001,2025-03-11_19h33.43.391,SL_sali,2021.2.3,Win32,59.52380952,,,46,0,46,0,1,,,,,,,,
,,"[""diamond"",""green"",""hori"",""left"",[150,0],[106,106]]",diamond,green,hori,left,"[150,0]","[106,106]",left,1,1.2898,,,,,,001,2025-03-11_19h33.43.391,SL_sali,2021.2.3,Win32,59.52380952,,,47,0,47,0,1,,,,,,,,
,,"[""circle"",""green"",""vert"",""up"",[106,106],[0,-150]]",circle,green,vert,up,"[106,106]","[0,-150]",up,1,1.101,,,,,,001,2025-03-11_19h33.43.391,SL_sali,2021.2.3,Win32,59.52380952,,,48,0,48,0,1,,,,,,,,
,,"[""diamond"",""red"",""vert"",""up"",[-106,106],[106,-106]]",diamond,red,vert,up,"[-106,106]","[106,-106]",up,1,1.0601,,,,,,001,2025-03-11_19h33.43.391,SL_sali,2021.2.3,Win32,59.52380952,,,49,0,49,0,1,,,,,,,,
,,"[""diamond"",""green"",""hori"",""left"",[106,-106],[-106,-106]]",diamond,green,hori,left,"[106,-106]","[-106,-106]",left,1,1.2452,,,,,,001,2025-03-11_19h33.43.391,SL_sali,2021.2.3,Win32,59.52380952,,,50,0,50,0,1,,,,,,,,
,,"[""diamond"",""green"",""vert"",""up"",[0,-150],[106,106]]",diamond,green,vert,up,"[0,-150]","[106,106]",up,1,1.1251,,,,,,001,2025-03-11_19h33.43.391,SL_sali,2021.2.3,Win32,59.52380952,,,51,0,51,0,1,,,,,,,,
,,"[""diamond"",""no_dis"",""hori"",""left"",[99999,99999],[-150,0]]",diamond,no_dis,hori,left,"[99999,99999]","[-150,0]",left,1,0.7943,,,,,,001,2025-03-11_19h33.43.391,SL_sali,2021.2.3,Win32,59.52380952,,,52,0,52,0,1,,,,,,,,
,,"[""diamond"",""green"",""vert"",""up"",[106,106],[-106,106]]",diamond,green,vert,up,"[106,106]","[-106,106]",left,0,0.9859,,,,,,001,2025-03-11_19h33.43.391,SL_sali,2021.2.3,Win32,59.52380952,,,53,0,53,0,1,,,,,,,,
,,"[""circle"",""green"",""vert"",""up"",[106,106],[0,-150]]",circle,green,vert,up,"[106,106]","[0,-150]",up,1,1.0311,,,,,,001,2025-03-11_19h33.43.391,SL_sali,2021.2.3,Win32,59.52380952,,,54,0,54,0,1,,,,,,,,
,,"[""circle"",""green"",""vert"",""up"",[150,0],[0,150]]",circle,green,vert,up,"[150,0]","[0,150]",up,1,1.6827,,,,,,001,2025-03-11_19h33.43.391,SL_sali,2021.2.3,Win32,59.52380952,,,55,0,55,0,1,,,,,,,,
,,"[""diamond"",""red"",""hori"",""left"",[-106,106],[0,150]]",diamond,red,hori,left,"[-106,106]","[0,150]",up,0,1.1424,,,,,,001,2025-03-11_19h33.43.391,SL_sali,2021.2.3,Win32,59.52380952,,,56,0,56,0,1,,,,,,,,
,,"[""circle"",""green"",""hori"",""left"",[150,0],[0,-150]]",circle,green,hori,left,"[150,0]","[0,-150]",left,1,1.9501,,,,,,001,2025-03-11_19h33.43.391,SL_sali,2021.2.3,Win32,59.52380952,,,57,0,57,0,1,,,,,,,,
,,"[""circle"",""no_dis"",""hori"",""left"",[99999,99999],[-106,106]]",circle,no_dis,hori,left,"[99999,99999]","[-106,106]",left,1,1.8395,,,,,,001,2025-03-11_19h33.43.391,SL_sali,2021.2.3,Win32,59.52380952,,,58,0,58,0,1,,,,,,,,
,,"[""circle"",""no_dis"",""hori"",""left"",[99999,99999],[-106,106]]",circle,no_dis,hori,left,"[99999,99999]","[-106,106]",left,1,1.7564,,,,,,001,2025-03-11_19h33.43.391,SL_sali,2021.2.3,Win32,59.52380952,,,59,0,59,0,1,,,,,,,,
,,"[""circle"",""no_dis"",""vert"",""up"",[99999,99999],[-106,106]]",circle,no_dis,vert,up,"[99999,99999]","[-106,106]",up,1,1.0769,,,,,,001,2025-03-11_19h33.43.391,SL_sali,2021.2.3,Win32,59.52380952,,,60,0,60,0,1,,,,,,,,
,,"[""circle"",""red"",""hori"",""left"",[-106,106],[-106,-106]]",circle,red,hori,left,"[-106,106]","[-106,-106]",left,1,0.9232,,,,,,001,2025-03-11_19h33.43.391,SL_sali,2021.2.3,Win32,59.52380952,,,61,0,61,0,1,,,,,,,,
,,"[""circle"",""red"",""vert"",""up"",[106,106],[0,-150]]",circle,red,vert,up,"[106,106]","[0,-150]",up,1,2.0011,,,,,,001,2025-03-11_19h33.43.391,SL_sali,2021.2.3,Win32,59.52380952,,,62,0,62,0,1,,,,,,,,
,,"[""diamond"",""green"",""hori"",""left"",[106,106],[-106,-106]]",diamond,green,hori,left,"[106,106]","[-106,-106]",left,1,1.4166,,,,,,001,2025-03-11_19h33.43.391,SL_sali,2021.2.3,Win32,59.52380952,,,63,0,63,0,1,,,,,,,,
,,"[""circle"",""red"",""hori"",""left"",[106,106],[106,-106]]",circle,red,hori,left,"[106,106]","[106,-106]",left,1,1.3365,,,,,,001,2025-03-11_19h33.43.391,SL_sali,2021.2.3,Win32,59.52380952,,,64,0,64,0,1,,,,,,,,
,,"[""circle"",""no_dis"",""hori"",""left"",[99999,99999],[0,150]]",circle,no_dis,hori,left,"[99999,99999]","[0,150]",left,1,1.0265,,,,,,001,2025-03-11_19h33.43.391,SL_sali,2021.2.3,Win32,59.52380952,,,65,0,65,0,1,,,,,,,,
,,"[""circle"",""red"",""hori"",""left"",[-106,106],[-106,-106]]",circle,red,hori,left,"[-106,106]","[-106,-106]",left,1,1.1552,,,,,,001,2025-03-11_19h33.43.391,SL_sali,2021.2.3,Win32,59.52380952,,,66,0,66,0,1,,,,,,,,
,,"[""circle"",""red"",""hori"",""left"",[0,150],[-106,-106]]",circle,red,hori,left,"[0,150]","[-106,-106]",left,1,0.7179,,,,,,001,2025-03-11_19h33.43.391,SL_sali,2021.2.3,Win32,59.52380952,,,67,0,67,0,1,,,,,,,,
,,"[""circle"",""green"",""vert"",""up"",[0,-150],[-106,-106]]",circle,green,vert,up,"[0,-150]","[-106,-106]",left,0,1.0595,,,,,,001,2025-03-11_19h33.43.391,SL_sali,2021.2.3,Win32,59.52380952,,,68,0,68,0,1,,,,,,,,
,,"[""circle"",""no_dis"",""vert"",""up"",[99999,99999],[150,0]]",circle,no_dis,vert,up,"[99999,99999]","[150,0]",up,1,1.2064,,,,,,001,2025-03-11_19h33.43.391,SL_sali,2021.2.3,Win32,59.52380952,,,69,0,69,0,1,,,,,,,,
,,"[""diamond"",""no_dis"",""vert"",""up"",[99999,99999],[-106,-106]]",diamond,no_dis,vert,up,"[99999,99999]","[-106,-106]",up,1,1.1669,,,,,,001,2025-03-11_19h33.43.391,SL_sali,2021.2.3,Win32,59.52380952,,,70,0,70,0,1,,,,,,,,
,,"[""circle"",""red"",""vert"",""up"",[106,106],[-150,0]]",circle,red,vert,up,"[106,106]","[-150,0]",up,1,1.7861,,,,,,001,2025-03-11_19h33.43.391,SL_sali,2021.2.3,Win32,59.52380952,,,71,0,71,0,1,,,,,,,,
,,"[""circle"",""red"",""vert"",""up"",[106,106],[106,-106]]",circle,red,vert,up,"[106,106]","[106,-106]",up,1,1.7348,,,,,,001,2025-03-11_19h33.43.391,SL_sali,2021.2.3,Win32,59.52380952,,,72,0,72,0,1,,,,,,,,
,,"[""diamond"",""red"",""hori"",""left"",[-106,-106],[0,150]]",diamond,red,hori,left,"[-106,-106]","[0,150]",left,1,1.7005,,,,,,001,2025-03-11_19h33.43.391,SL_sali,2021.2.3,Win32,59.52380952,,,73,0,73,0,1,,,,,,,,
,,"[""diamond"",""red"",""hori"",""left"",[150,0],[106,106]]",diamond,red,hori,left,"[150,0]","[106,106]",left,1,0.7672,,,,,,001,2025-03-11_19h33.43.391,SL_sali,2021.2.3,Win32,59.52380952,,,74,0,74,0,1,,,,,,,,
,,"[""diamond"",""no_dis"",""hori"",""left"",[99999,99999],[106,106]]",diamond,no_dis,hori,left,"[99999,99999]","[106,106]",left,1,1.6658,,,,,,001,2025-03-11_19h33.43.391,SL_sali,2021.2.3,Win32,59.52380952,,,75,0,75,0,1,,,,,,,,
,,"[""circle"",""green"",""hori"",""left"",[-150,0],[0,-150]]",circle,green,hori,left,"[-150,0]","[0,-150]",left,1,1.9868,,,,,,001,2025-03-11_19h33.43.391,SL_sali,2021.2.3,Win32,59.52380952,,,76,0,76,0,1,,,,,,,,
,,"[""circle"",""no_dis"",""hori"",""left"",[99999,99999],[106,-106]]",circle,no_dis,hori,left,"[99999,99999]","[106,-106]",up,0,2.4952,,,,,,001,2025-03-11_19h33.43.391,SL_sali,2021.2.3,Win32,59.52380952,,,77,0,77,0,1,,,,,,,,
,,"[""circle"",""red"",""hori"",""left"",[-150,0],[0,-150]]",circle,red,hori,left,"[-150,0]","[0,-150]",left,1,0.994,,,,,,001,2025-03-11_19h33.43.391,SL_sali,2021.2.3,Win32,59.52380952,,,78,0,78,0,1,,,,,,,,
,,"[""diamond"",""no_dis"",""vert"",""up"",[99999,99999],[106,-106]]",diamond,no_dis,vert,up,"[99999,99999]","[106,-106]",up,1,1.435,,,,,,001,2025-03-11_19h33.43.391,SL_sali,2021.2.3,Win32,59.52380952,,,79,0,79,0,1,,,,,,,,
,,"[""diamond"",""green"",""hori"",""left"",[0,-150],[106,106]]",diamond,green,hori,left,"[0,-150]","[106,106]",left,1,0.9897,,,,,,001,2025-03-11_19h33.43.391,SL_sali,2021.2.3,Win32,59.52380952,,,80,0,80,0,1,,,,,,,,
,,"[""diamond"",""green"",""hori"",""left"",[-106,-106],[-150,0]]",diamond,green,hori,left,"[-106,-106]","[-150,0]",left,1,1.0092,,,,,,001,2025-03-11_19h33.43.391,SL_sali,2021.2.3,Win32,59.52380952,,,81,0,81,0,1,,,,,,,,
,,"[""circle"",""green"",""hori"",""left"",[106,106],[106,-106]]",circle,green,hori,left,"[106,106]","[106,-106]",left,1,1.4608,,,,,,001,2025-03-11_19h33.43.391,SL_sali,2021.2.3,Win32,59.52380952,,,82,0,82,0,1,,,,,,,,
,,"[""diamond"",""green"",""vert"",""up"",[-150,0],[-106,106]]",diamond,green,vert,up,"[-150,0]","[-106,106]",up,1,1.9198,,,,,,001,2025-03-11_19h33.43.391,SL_sali,2021.2.3,Win32,59.52380952,,,83,0,83,0,1,,,,,,,,
,,"[""diamond"",""green"",""hori"",""left"",[106,-106],[106,106]]",diamond,green,hori,left,"[106,-106]","[106,106]",up,0,0.8806,,,,,,001,2025-03-11_19h33.43.391,SL_sali,2021.2.3,Win32,59.52380952,,,84,0,84,0,1,,,,,,,,
,,"[""diamond"",""green"",""vert"",""up"",[150,0],[-106,-106]]",diamond,green,vert,up,"[150,0]","[-106,-106]",up,1,1.7668,,,,,,001,2025-03-11_19h33.43.391,SL_sali,2021.2.3,Win32,59.52380952,,,85,0,85,0,1,,,,,,,,
,,"[""circle"",""red"",""vert"",""up"",[-150,0],[0,150]]",circle,red,vert,up,"[-150,0]","[0,150]",up,1,1.4084,,,,,,001,2025-03-11_19h33.43.391,SL_sali,2021.2.3,Win32,59.52380952,,,86,0,86,0,1,,,,,,,,
,,"[""diamond"",""red"",""vert"",""up"",[0,-150],[150,0]]",diamond,red,vert,up,"[0,-150]","[150,0]",up,1,1.0734,,,,,,001,2025-03-11_19h33.43.391,SL_sali,2021.2.3,Win32,59.52380952,,,87,0,87,0,1,,,,,,,,
,,"[""circle"",""red"",""vert"",""up"",[-150,0],[0,-150]]",circle,red,vert,up,"[-150,0]","[0,-150]",up,1,1.3582,,,,,,001,2025-03-11_19h33.43.391,SL_sali,2021.2.3,Win32,59.52380952,,,88,0,88,0,1,,,,,,,,
,,"[""circle"",""green"",""vert"",""up"",[106,-106],[-150,0]]",circle,green,vert,up,"[106,-106]","[-150,0]",up,1,0.8489,,,,,,001,2025-03-11_19h33.43.391,SL_sali,2021.2.3,Win32,59.52380952,,,89,0,89,0,1,,,,,,,,
,,"[""circle"",""green"",""vert"",""up"",[-106,106],[-150,0]]",circle,green,vert,up,"[-106,106]","[-150,0]",up,1,1.153,,,,,,001,2025-03-11_19h33.43.391,SL_sali,2021.2.3,Win32,59.52380952,,,90,0,90,0,1,,,,,,,,
,,"[""diamond"",""no_dis"",""hori"",""left"",[99999,99999],[-150,0]]",diamond,no_dis,hori,left,"[99999,99999]","[-150,0]",left,1,0.9683,,,,,,001,2025-03-11_19h33.43.391,SL_sali,2021.2.3,Win32,59.52380952,,,91,0,91,0,1,,,,,,,,
,,"[""circle"",""green"",""hori"",""left"",[106,106],[0,-150]]",circle,green,hori,left,"[106,106]","[0,-150]",up,0,1.3697,,,,,,001,2025-03-11_19h33.43.391,SL_sali,2021.2.3,Win32,59.52380952,,,92,0,92,0,1,,,,,,,,
,,"[""circle"",""red"",""hori"",""left"",[106,106],[106,-106]]",circle,red,hori,left,"[106,106]","[106,-106]",up,0,2.2576,,,,,,001,2025-03-11_19h33.43.391,SL_sali,2021.2.3,Win32,59.52380952,,,93,0,93,0,1,,,,,,,,
,,"[""circle"",""red"",""hori"",""left"",[0,-150],[-106,-106]]",circle,red,hori,left,"[0,-150]","[-106,-106]",left,1,1.4507,,,,,,001,2025-03-11_19h33.43.391,SL_sali,2021.2.3,Win32,59.52380952,,,94,0,94,0,1,,,,,,,,
,,"[""circle"",""red"",""hori"",""left"",[0,150],[0,-150]]",circle,red,hori,left,"[0,150]","[0,-150]",left,1,1.0428,,,,,,001,2025-03-11_19h33.43.391,SL_sali,2021.2.3,Win32,59.52380952,,,95,0,95,0,1,,,,,,,,
,,"[""circle"",""no_dis"",""vert"",""up"",[99999,99999],[106,106]]",circle,no_dis,vert,up,"[99999,99999]","[106,106]",up,1,1.4374,,,,,,001,2025-03-11_19h33.43.391,SL_sali,2021.2.3,Win32,59.52380952,,,96,0,96,0,1,,,,,,,,
,,"[""diamond"",""no_dis"",""vert"",""up"",[99999,99999],[-106,-106]]",diamond,no_dis,vert,up,"[99999,99999]","[-106,-106]",up,1,1.1259,,,,,,001,2025-03-11_19h33.43.391,SL_sali,2021.2.3,Win32,59.52380952,,,97,0,97,0,1,,,,,,,,
,,"[""circle"",""no_dis"",""vert"",""up"",[99999,99999],[-150,0]]",circle,no_dis,vert,up,"[99999,99999]","[-150,0]",up,1,1.6179,,,,,,001,2025-03-11_19h33.43.391,SL_sali,2021.2.3,Win32,59.52380952,,,98,0,98,0,1,,,,,,,,
,,"[""diamond"",""red"",""vert"",""up"",[106,106],[0,150]]",diamond,red,vert,up,"[106,106]","[0,150]",up,1,1.5112,,,,,,001,2025-03-11_19h33.43.391,SL_sali,2021.2.3,Win32,59.52380952,,,99,0,99,0,1,,,,,,,,
,,"[""diamond"",""red"",""vert"",""up"",[-106,-106],[106,-106]]",diamond,red,vert,up,"[-106,-106]","[106,-106]",up,1,1.1572,,,,,,001,2025-03-11_19h33.43.391,SL_sali,2021.2.3,Win32,59.52380952,,,100,0,100,0,1,,,,,,,,
,,"[""circle"",""no_dis"",""vert"",""up"",[99999,99999],[150,0]]",circle,no_dis,vert,up,"[99999,99999]","[150,0]",up,1,1.1151,,,,,,001,2025-03-11_19h33.43.391,SL_sali,2021.2.3,Win32,59.52380952,,,101,0,101,0,1,,,,,,,,
,,"[""diamond"",""no_dis"",""hori"",""left"",[99999,99999],[0,150]]",diamond,no_dis,hori,left,"[99999,99999]","[0,150]",up,0,1.1114,,,,,,001,2025-03-11_19h33.43.391,SL_sali,2021.2.3,Win32,59.52380952,,,102,0,102,0,1,,,,,,,,
,,"[""diamond"",""red"",""hori"",""left"",[-106,-106],[106,106]]",diamond,red,hori,left,"[-106,-106]","[106,106]",left,1,2.3516,,,,,,001,2025-03-11_19h33.43.391,SL_sali,2021.2.3,Win32,59.52380952,,,103,0,103,0,1,,,,,,,,
,,"[""diamond"",""red"",""vert"",""up"",[106,-106],[0,150]]",diamond,red,vert,up,"[106,-106]","[0,150]",up,1,0.8747,,,,,,001,2025-03-11_19h33.43.391,SL_sali,2021.2.3,Win32,59.52380952,,,104,0,104,0,1,,,,,,,,
,,"[""circle"",""green"",""hori"",""left"",[106,-106],[-106,106]]",circle,green,hori,left,"[106,-106]","[-106,106]",left,1,1.3048,,,,,,001,2025-03-11_19h33.43.391,SL_sali,2021.2.3,Win32,59.52380952,,,105,0,105,0,1,,,,,,,,
,,"[""circle"",""no_dis"",""vert"",""up"",[99999,99999],[0,-150]]",circle,no_dis,vert,up,"[99999,99999]","[0,-150]",up,1,0.9852,,,,,,001,2025-03-11_19h33.43.391,SL_sali,2021.2.3,Win32,59.52380952,,,106,0,106,0,1,,,,,,,,
,,"[""circle"",""red"",""vert"",""up"",[-150,0],[0,150]]",circle,red,vert,up,"[-150,0]","[0,150]",up,1,1.1351,,,,,,001,2025-03-11_19h33.43.391,SL_sali,2021.2.3,Win32,59.52380952,,,107,0,107,0,1,,,,,,,,
,,"[""circle"",""red"",""vert"",""up"",[150,0],[-106,106]]",circle,red,vert,up,"[150,0]","[-106,106]",up,1,0.8341,,,,,,001,2025-03-11_19h33.43.391,SL_sali,2021.2.3,Win32,59.52380952,,,108,0,108,0,1,,,,,,,,
,,"[""circle"",""green"",""hori"",""left"",[106,106],[106,-106]]",circle,green,hori,left,"[106,106]","[106,-106]",left,1,0.75,,,,,,001,2025-03-11_19h33.43.391,SL_sali,2021.2.3,Win32,59.52380952,,,109,0,109,0,1,,,,,,,,
,,"[""circle"",""green"",""vert"",""up"",[0,-150],[106,-106]]",circle,green,vert,up,"[0,-150]","[106,-106]",up,1,1.3305,,,,,,001,2025-03-11_19h33.43.391,SL_sali,2021.2.3,Win32,59.52380952,,,110,0,110,0,1,,,,,,,,
,,"[""circle"",""no_dis"",""vert"",""up"",[99999,99999],[150,0]]",circle,no_dis,vert,up,"[99999,99999]","[150,0]",up,1,0.6453,,,,,,001,2025-03-11_19h33.43.391,SL_sali,2021.2.3,Win32,59.52380952,,,111,0,111,0,1,,,,,,,,
,,"[""circle"",""no_dis"",""vert"",""up"",[99999,99999],[106,106]]",circle,no_dis,vert,up,"[99999,99999]","[106,106]",up,1,0.8442,,,,,,001,2025-03-11_19h33.43.391,SL_sali,2021.2.3,Win32,59.52380952,,,112,0,112,0,1,,,,,,,,
,,"[""circle"",""no_dis"",""vert"",""up"",[99999,99999],[0,-150]]",circle,no_dis,vert,up,"[99999,99999]","[0,-150]",up,1,0.7702,,,,,,001,2025-03-11_19h33.43.391,SL_sali,2021.2.3,Win32,59.52380952,,,113,0,113,0,1,,,,,,,,
,,"[""diamond"",""no_dis"",""vert"",""up"",[99999,99999],[106,106]]",diamond,no_dis,vert,up,"[99999,99999]","[106,106]",up,1,1.7456,,,,,,001,2025-03-11_19h33.43.391,SL_sali,2021.2.3,Win32,59.52380952,,,114,0,114,0,1,,,,,,,,
,,"[""diamond"",""no_dis"",""hori"",""left"",[99999,99999],[106,-106]]",diamond,no_dis,hori,left,"[99999,99999]","[106,-106]",left,1,1.1095,,,,,,001,2025-03-11_19h33.43.391,SL_sali,2021.2.3,Win32,59.52380952,,,115,0,115,0,1,,,,,,,,
,,"[""diamond"",""no_dis"",""vert"",""up"",[99999,99999],[-150,0]]",diamond,no_dis,vert,up,"[99999,99999]","[-150,0]",up,1,0.9968,,,,,,001,2025-03-11_19h33.43.391,SL_sali,2021.2.3,Win32,59.52380952,,,116,0,116,0,1,,,,,,,,
,,"[""circle"",""red"",""vert"",""up"",[-106,106],[-150,0]]",circle,red,vert,up,"[-106,106]","[-150,0]",up,1,1.3149,,,,,,001,2025-03-11_19h33.43.391,SL_sali,2021.2.3,Win32,59.52380952,,,117,0,117,0,1,,,,,,,,
,,"[""circle"",""no_dis"",""vert"",""up"",[99999,99999],[0,-150]]",circle,no_dis,vert,up,"[99999,99999]","[0,-150]",up,1,0.7326,,,,,,001,2025-03-11_19h33.43.391,SL_sali,2021.2.3,Win32,59.52380952,,,118,0,118,0,1,,,,,,,,
,,"[""circle"",""green"",""hori"",""left"",[-106,-106],[106,-106]]",circle,green,hori,left,"[-106,-106]","[106,-106]",left,1,0.9629,,,,,,001,2025-03-11_19h33.43.391,SL_sali,2021.2.3,Win32,59.52380952,,,119,0,119,0,1,,,,,,,,
,,,,,,,,,,,,,,,,,001,2025-03-11_19h33.43.391,SL_sali,2021.2.3,Win32,59.52380952,,,,,,,,2,space,55.1428,1,0,1,0,1
,,"[""circle"",""no_dis"",""hori"",""left"",[99999,99999],[0,150]]",circle,no_dis,hori,left,"[99999,99999]","[0,150]",left,1,1.122,,,,,,001,2025-03-11_19h33.43.391,SL_sali,2021.2.3,Win32,59.52380952,,,0,0,0,0,1,,,,,,,,
,,"[""diamond"",""no_dis"",""vert"",""up"",[99999,99999],[106,106]]",diamond,no_dis,vert,up,"[99999,99999]","[106,106]",up,1,1.1277,,,,,,001,2025-03-11_19h33.43.391,SL_sali,2021.2.3,Win32,59.52380952,,,1,0,1,0,1,,,,,,,,
,,"[""diamond"",""red"",""vert"",""up"",[-106,106],[106,-106]]",diamond,red,vert,up,"[-106,106]","[106,-106]",up,1,1.1183,,,,,,001,2025-03-11_19h33.43.391,SL_sali,2021.2.3,Win32,59.52380952,,,2,0,2,0,1,,,,,,,,
,,"[""diamond"",""green"",""hori"",""left"",[106,-106],[-106,-106]]",diamond,green,hori,left,"[106,-106]","[-106,-106]",left,1,1.3447,,,,,,001,2025-03-11_19h33.43.391,SL_sali,2021.2.3,Win32,59.52380952,,,3,0,3,0,1,,,,,,,,
,,"[""diamond"",""green"",""vert"",""up"",[106,106],[-106,106]]",diamond,green,vert,up,"[106,106]","[-106,106]",up,1,1.0018,,,,,,001,2025-03-11_19h33.43.391,SL_sali,2021.2.3,Win32,59.52380952,,,4,0,4,0,1,,,,,,,,
,,"[""diamond"",""green"",""hori"",""left"",[150,0],[106,106]]",diamond,green,hori,left,"[150,0]","[106,106]",left,1,0.7534,,,,,,001,2025-03-11_19h33.43.391,SL_sali,2021.2.3,Win32,59.52380952,,,5,0,5,0,1,,,,,,,,
,,"[""circle"",""red"",""hori"",""left"",[-106,106],[-106,-106]]",circle,red,hori,left,"[-106,106]","[-106,-106]",left,1,0.9094,,,,,,001,2025-03-11_19h33.43.391,SL_sali,2021.2.3,Win32,59.52380952,,,6,0,6,0,1,,,,,,,,
,,"[""diamond"",""green"",""hori"",""left"",[106,106],[-106,-106]]",diamond,green,hori,left,"[106,106]","[-106,-106]",left,1,0.634,,,,,,001,2025-03-11_19h33.43.391,SL_sali,2021.2.3,Win32,59.52380952,,,7,0,7,0,1,,,,,,,,
,,"[""diamond"",""no_dis"",""hori"",""left"",[99999,99999],[0,-150]]",diamond,no_dis,hori,left,"[99999,99999]","[0,-150]",left,1,1.0514,,,,,,001,2025-03-11_19h33.43.391,SL_sali,2021.2.3,Win32,59.52380952,,,8,0,8,0,1,,,,,,,,
,,"[""circle"",""red"",""vert"",""up"",[106,106],[-150,0]]",circle,red,vert,up,"[106,106]","[-150,0]",up,1,0.855,,,,,,001,2025-03-11_19h33.43.391,SL_sali,2021.2.3,Win32,59.52380952,,,9,0,9,0,1,,,,,,,,
,,"[""diamond"",""green"",""vert"",""up"",[106,106],[-106,106]]",diamond,green,vert,up,"[106,106]","[-106,106]",up,1,0.9831,,,,,,001,2025-03-11_19h33.43.391,SL_sali,2021.2.3,Win32,59.52380952,,,10,0,10,0,1,,,,,,,,
,,"[""diamond"",""green"",""vert"",""up"",[150,0],[-106,-106]]",diamond,green,vert,up,"[150,0]","[-106,-106]",up,1,1.5099,,,,,,001,2025-03-11_19h33.43.391,SL_sali,2021.2.3,Win32,59.52380952,,,11,0,11,0,1,,,,,,,,
,,"[""circle"",""no_dis"",""hori"",""left"",[99999,99999],[106,-106]]",circle,no_dis,hori,left,"[99999,99999]","[106,-106]",left,1,0.8381,,,,,,001,2025-03-11_19h33.43.391,SL_sali,2021.2.3,Win32,59.52380952,,,12,0,12,0,1,,,,,,,,
,,"[""circle"",""red"",""hori"",""left"",[106,106],[106,-106]]",circle,red,hori,left,"[106,106]","[106,-106]",left,1,0.7977,,,,,,001,2025-03-11_19h33.43.391,SL_sali,2021.2.3,Win32,59.52380952,,,13,0,13,0,1,,,,,,,,
,,"[""diamond"",""green"",""vert"",""up"",[-150,0],[0,-150]]",diamond,green,vert,up,"[-150,0]","[0,-150]",up,1,1.777,,,,,,001,2025-03-11_19h33.43.391,SL_sali,2021.2.3,Win32,59.52380952,,,14,0,14,0,1,,,,,,,,
,,"[""diamond"",""no_dis"",""hori"",""left"",[99999,99999],[106,106]]",diamond,no_dis,hori,left,"[99999,99999]","[106,106]",left,1,0.9688,,,,,,001,2025-03-11_19h33.43.391,SL_sali,2021.2.3,Win32,59.52380952,,,15,0,15,0,1,,,,,,,,
,,"[""diamond"",""red"",""hori"",""left"",[106,106],[150,0]]",diamond,red,hori,left,"[106,106]","[150,0]",left,1,0.9501,,,,,,001,2025-03-11_19h33.43.391,SL_sali,2021.2.3,Win32,59.52380952,,,16,0,16,0,1,,,,,,,,
,,"[""diamond"",""no_dis"",""vert"",""up"",[99999,99999],[106,-106]]",diamond,no_dis,vert,up,"[99999,99999]","[106,-106]",left,0,0.735,,,,,,001,2025-03-11_19h33.43.391,SL_sali,2021.2.3,Win32,59.52380952,,,17,0,17,0,1,,,,,,,,
,,"[""circle"",""red"",""vert"",""up"",[-150,0],[0,150]]",circle,red,vert,up,"[-150,0]","[0,150]",up,1,1.3436,,,,,,001,2025-03-11_19h33.43.391,SL_sali,2021.2.3,Win32,59.52380952,,,18,0,18,0,1,,,,,,,,
,,"[""circle"",""no_dis"",""hori"",""left"",[99999,99999],[-106,106]]",circle,no_dis,hori,left,"[99999,99999]","[-106,106]",left,1,0.8056,,,,,,001,2025-03-11_19h33.43.391,SL_sali,2021.2.3,Win32,59.52380952,,,19,0,19,0,1,,,,,,,,
,,"[""diamond"",""no_dis"",""vert"",""up"",[99999,99999],[0,150]]",diamond,no_dis,vert,up,"[99999,99999]","[0,150]",up,1,0.7746,,,,,,001,2025-03-11_19h33.43.391,SL_sali,2021.2.3,Win32,59.52380952,,,20,0,20,0,1,,,,,,,,
,,"[""circle"",""red"",""vert"",""up"",[106,106],[106,-106]]",circle,red,vert,up,"[106,106]","[106,-106]",up,1,1.1891,,,,,,001,2025-03-11_19h33.43.391,SL_sali,2021.2.3,Win32,59.52380952,,,21,0,21,0,1,,,,,,,,
,,"[""diamond"",""no_dis"",""vert"",""up"",[99999,99999],[-106,-106]]",diamond,no_dis,vert,up,"[99999,99999]","[-106,-106]",up,1,0.8869,,,,,,001,2025-03-11_19h33.43.391,SL_sali,2021.2.3,Win32,59.52380952,,,22,0,22,0,1,,,,,,,,
,,"[""diamond"",""green"",""hori"",""left"",[106,106],[-106,-106]]",diamond,green,hori,left,"[106,106]","[-106,-106]",left,1,0.7706,,,,,,001,2025-03-11_19h33.43.391,SL_sali,2021.2.3,Win32,59.52380952,,,23,0,23,0,1,,,,,,,,
,,"[""circle"",""no_dis"",""hori"",""left"",[99999,99999],[150,0]]",circle,no_dis,hori,left,"[99999,99999]","[150,0]",left,1,0.7845,,,,,,001,2025-03-11_19h33.43.391,SL_sali,2021.2.3,Win32,59.52380952,,,24,0,24,0,1,,,,,,,,
,,"[""circle"",""no_dis"",""hori"",""left"",[99999,99999],[0,150]]",circle,no_dis,hori,left,"[99999,99999]","[0,150]",left,1,0.9283,,,,,,001,2025-03-11_19h33.43.391,SL_sali,2021.2.3,Win32,59.52380952,,,25,0,25,0,1,,,,,,,,
,,"[""circle"",""green"",""hori"",""left"",[106,106],[106,-106]]",circle,green,hori,left,"[106,106]","[106,-106]",left,1,0.76,,,,,,001,2025-03-11_19h33.43.391,SL_sali,2021.2.3,Win32,59.52380952,,,26,0,26,0,1,,,,,,,,
,,"[""circle"",""green"",""vert"",""up"",[-106,106],[-150,0]]",circle,green,vert,up,"[-106,106]","[-150,0]",up,1,2.0091,,,,,,001,2025-03-11_19h33.43.391,SL_sali,2021.2.3,Win32,59.52380952,,,27,0,27,0,1,,,,,,,,
,,"[""diamond"",""green"",""hori"",""left"",[-106,-106],[-150,0]]",diamond,green,hori,left,"[-106,-106]","[-150,0]",left,1,1.3008,,,,,,001,2025-03-11_19h33.43.391,SL_sali,2021.2.3,Win32,59.52380952,,,28,0,28,0,1,,,,,,,,
,,"[""circle"",""red"",""hori"",""left"",[-150,0],[0,-150]]",circle,red,hori,left,"[-150,0]","[0,-150]",left,1,0.7073,,,,,,001,2025-03-11_19h33.43.391,SL_sali,2021.2.3,Win32,59.52380952,,,29,0,29,0,1,,,,,,,,
,,"[""diamond"",""green"",""vert"",""up"",[106,106],[-106,106]]",diamond,green,vert,up,"[106,106]","[-106,106]",up,1,1.2202,,,,,,001,2025-03-11_19h33.43.391,SL_sali,2021.2.3,Win32,59.52380952,,,30,0,30,0,1,,,,,,,,
,,"[""circle"",""red"",""hori"",""left"",[106,106],[106,-106]]",circle,red,hori,left,"[106,106]","[106,-106]",up,0,1.4161,,,,,,001,2025-03-11_19h33.43.391,SL_sali,2021.2.3,Win32,59.52380952,,,31,0,31,0,1,,,,,,,,
,,"[""circle"",""no_dis"",""vert"",""up"",[99999,99999],[0,-150]]",circle,no_dis,vert,up,"[99999,99999]","[0,-150]",up,1,0.9515,,,,,,001,2025-03-11_19h33.43.391,SL_sali,2021.2.3,Win32,59.52380952,,,32,0,32,0,1,,,,,,,,
,,"[""diamond"",""red"",""vert"",""up"",[0,-150],[150,0]]",diamond,red,vert,up,"[0,-150]","[150,0]",up,1,1.1829,,,,,,001,2025-03-11_19h33.43.391,SL_sali,2021.2.3,Win32,59.52380952,,,33,0,33,0,1,,,,,,,,
,,"[""diamond"",""red"",""hori"",""left"",[0,150],[150,0]]",diamond,red,hori,left,"[0,150]","[150,0]",left,1,1.1462,,,,,,001,2025-03-11_19h33.43.391,SL_sali,2021.2.3,Win32,59.52380952,,,34,0,34,0,1,,,,,,,,
,,"[""circle"",""no_dis"",""vert"",""up"",[99999,99999],[0,-150]]",circle,no_dis,vert,up,"[99999,99999]","[0,-150]",up,1,0.8401,,,,,,001,2025-03-11_19h33.43.391,SL_sali,2021.2.3,Win32,59.52380952,,,35,0,35,0,1,,,,,,,,
,,"[""circle"",""no_dis"",""hori"",""left"",[99999,99999],[150,0]]",circle,no_dis,hori,left,"[99999,99999]","[150,0]",left,1,0.8229,,,,,,001,2025-03-11_19h33.43.391,SL_sali,2021.2.3,Win32,59.52380952,,,36,0,36,0,1,,,,,,,,
,,"[""diamond"",""green"",""hori"",""left"",[0,-150],[106,106]]",diamond,green,hori,left,"[0,-150]","[106,106]",left,1,0.9012,,,,,,001,2025-03-11_19h33.43.391,SL_sali,2021.2.3,Win32,59.52380952,,,37,0,37,0,1,,,,,,,,
,,"[""diamond"",""red"",""hori"",""left"",[150,0],[106,106]]",diamond,red,hori,left,"[150,0]","[106,106]",left,1,0.9068,,,,,,001,2025-03-11_19h33.43.391,SL_sali,2021.2.3,Win32,59.52380952,,,38,0,38,0,1,,,,,,,,
,,"[""circle"",""no_dis"",""hori"",""left"",[99999,99999],[0,150]]",circle,no_dis,hori,left,"[99999,99999]","[0,150]",left,1,0.6949,,,,,,001,2025-03-11_19h33.43.391,SL_sali,2021.2.3,Win32,59.52380952,,,39,0,39,0,1,,,,,,,,
,,"[""diamond"",""red"",""hori"",""left"",[106,106],[150,0]]",diamond,red,hori,left,"[106,106]","[150,0]",left,1,1.0357,,,,,,001,2025-03-11_19h33.43.391,SL_sali,2021.2.3,Win32,59.52380952,,,40,0,40,0,1,,,,,,,,
,,"[""circle"",""no_dis"",""vert"",""up"",[99999,99999],[-150,0]]",circle,no_dis,vert,up,"[99999,99999]","[-150,0]",up,1,0.8753,,,,,,001,2025-03-11_19h33.43.391,SL_sali,2021.2.3,Win32,59.52380952,,,41,0,41,0,1,,,,,,,,
,,"[""circle"",""no_dis"",""hori"",""left"",[99999,99999],[106,-106]]",circle,no_dis,hori,left,"[99999,99999]","[106,-106]",left,1,0.6797,,,,,,001,2025-03-11_19h33.43.391,SL_sali,2021.2.3,Win32,59.52380952,,,42,0,42,0,1,,,,,,,,
,,"[""circle"",""green"",""vert"",""up"",[106,106],[0,-150]]",circle,green,vert,up,"[106,106]","[0,-150]",up,1,0.821,,,,,,001,2025-03-11_19h33.43.391,SL_sali,2021.2.3,Win32,59.52380952,,,43,0,43,0,1,,,,,,,,
,,"[""circle"",""green"",""vert"",""up"",[0,-150],[-106,-106]]",circle,green,vert,up,"[0,-150]","[-106,-106]",up,1,0.9184,,,,,,001,2025-03-11_19h33.43.391,SL_sali,2021.2.3,Win32,59.52380952,,,44,0,44,0,1,,,,,,,,
,,"[""circle"",""green"",""vert"",""up"",[0,-150],[106,-106]]",circle,green,vert,up,"[0,-150]","[106,-106]",up,1,0.6402,,,,,,001,2025-03-11_19h33.43.391,SL_sali,2021.2.3,Win32,59.52380952,,,45,0,45,0,1,,,,,,,,
,,"[""diamond"",""red"",""vert"",""up"",[-106,-106],[-106,106]]",diamond,red,vert,up,"[-106,-106]","[-106,106]",up,1,0.9009,,,,,,001,2025-03-11_19h33.43.391,SL_sali,2021.2.3,Win32,59.52380952,,,46,0,46,0,1,,,,,,,,
,,"[""circle"",""green"",""vert"",""up"",[150,0],[0,150]]",circle,green,vert,up,"[150,0]","[0,150]",up,1,1.5448,,,,,,001,2025-03-11_19h33.43.391,SL_sali,2021.2.3,Win32,59.52380952,,,47,0,47,0,1,,,,,,,,
,,"[""diamond"",""red"",""hori"",""left"",[-106,-106],[0,150]]",diamond,red,hori,left,"[-106,-106]","[0,150]",left,1,0.897,,,,,,001,2025-03-11_19h33.43.391,SL_sali,2021.2.3,Win32,59.52380952,,,48,0,48,0,1,,,,,,,,
,,"[""diamond"",""red"",""vert"",""up"",[-106,-106],[106,106]]",diamond,red,vert,up,"[-106,-106]","[106,106]",up,1,0.6109,,,,,,001,2025-03-11_19h33.43.391,SL_sali,2021.2.3,Win32,59.52380952,,,49,0,49,0,1,,,,,,,,
,,"[""circle"",""no_dis"",""vert"",""up"",[99999,99999],[150,0]]",circle,no_dis,vert,up,"[99999,99999]","[150,0]",up,1,1.1569,,,,,,001,2025-03-11_19h33.43.391,SL_sali,2021.2.3,Win32,59.52380952,,,50,0,50,0,1,,,,,,,,
,,"[""diamond"",""no_dis"",""hori"",""left"",[99999,99999],[-150,0]]",diamond,no_dis,hori,left,"[99999,99999]","[-150,0]",left,1,1.7139,,,,,,001,2025-03-11_19h33.43.391,SL_sali,2021.2.3,Win32,59.52380952,,,51,0,51,0,1,,,,,,,,
,,"[""diamond"",""green"",""vert"",""up"",[-150,0],[106,-106]]",diamond,green,vert,up,"[-150,0]","[106,-106]",up,1,1.2703,,,,,,001,2025-03-11_19h33.43.391,SL_sali,2021.2.3,Win32,59.52380952,,,52,0,52,0,1,,,,,,,,
,,"[""diamond"",""green"",""vert"",""up"",[0,150],[0,-150]]",diamond,green,vert,up,"[0,150]","[0,-150]",up,1,1.1028,,,,,,001,2025-03-11_19h33.43.391,SL_sali,2021.2.3,Win32,59.52380952,,,53,0,53,0,1,,,,,,,,
,,"[""diamond"",""no_dis"",""vert"",""up"",[99999,99999],[-106,106]]",diamond,no_dis,vert,up,"[99999,99999]","[-106,106]",up,1,0.7079,,,,,,001,2025-03-11_19h33.43.391,SL_sali,2021.2.3,Win32,59.52380952,,,54,0,54,0,1,,,,,,,,
,,"[""diamond"",""no_dis"",""hori"",""left"",[99999,99999],[106,106]]",diamond,no_dis,hori,left,"[99999,99999]","[106,106]",left,1,0.8958,,,,,,001,2025-03-11_19h33.43.391,SL_sali,2021.2.3,Win32,59.52380952,,,55,0,55,0,1,,,,,,,,
,,"[""circle"",""green"",""vert"",""up"",[106,-106],[0,150]]",circle,green,vert,up,"[106,-106]","[0,150]",left,0,1.0644,,,,,,001,2025-03-11_19h33.43.391,SL_sali,2021.2.3,Win32,59.52380952,,,56,0,56,0,1,,,,,,,,
,,"[""diamond"",""red"",""vert"",""up"",[106,-106],[0,150]]",diamond,red,vert,up,"[106,-106]","[0,150]",up,1,0.5707,,,,,,001,2025-03-11_19h33.43.391,SL_sali,2021.2.3,Win32,59.52380952,,,57,0,57,0,1,,,,,,,,
,,"[""circle"",""red"",""vert"",""up"",[0,150],[106,106]]",circle,red,vert,up,"[0,150]","[106,106]",up,1,2.2029,,,,,,001,2025-03-11_19h33.43.391,SL_sali,2021.2.3,Win32,59.52380952,,,58,0,58,0,1,,,,,,,,
,,"[""circle"",""no_dis"",""vert"",""up"",[99999,99999],[106,106]]",circle,no_dis,vert,up,"[99999,99999]","[106,106]",up,1,0.6672,,,,,,001,2025-03-11_19h33.43.391,SL_sali,2021.2.3,Win32,59.52380952,,,59,0,59,0,1,,,,,,,,
,,"[""diamond"",""green"",""hori"",""left"",[106,-106],[106,106]]",diamond,green,hori,left,"[106,-106]","[106,106]",left,1,1.0861,,,,,,001,2025-03-11_19h33.43.391,SL_sali,2021.2.3,Win32,59.52380952,,,60,0,60,0,1,,,,,,,,
,,"[""circle"",""no_dis"",""vert"",""up"",[99999,99999],[0,-150]]",circle,no_dis,vert,up,"[99999,99999]","[0,-150]",up,1,1.1932,,,,,,001,2025-03-11_19h33.43.391,SL_sali,2021.2.3,Win32,59.52380952,,,61,0,61,0,1,,,,,,,,
,,"[""circle"",""red"",""hori"",""left"",[0,-150],[106,-106]]",circle,red,hori,left,"[0,-150]","[106,-106]",left,1,1.3517,,,,,,001,2025-03-11_19h33.43.391,SL_sali,2021.2.3,Win32,59.52380952,,,62,0,62,0,1,,,,,,,,
,,"[""circle"",""no_dis"",""vert"",""up"",[99999,99999],[-106,106]]",circle,no_dis,vert,up,"[99999,99999]","[-106,106]",up,1,0.9,,,,,,001,2025-03-11_19h33.43.391,SL_sali,2021.2.3,Win32,59.52380952,,,63,0,63,0,1,,,,,,,,
,,"[""circle"",""green"",""hori"",""left"",[-150,0],[0,-150]]",circle,green,hori,left,"[-150,0]","[0,-150]",left,1,0.7198,,,,,,001,2025-03-11_19h33.43.391,SL_sali,2021.2.3,Win32,59.52380952,,,64,0,64,0,1,,,,,,,,
,,"[""diamond"",""no_dis"",""hori"",""left"",[99999,99999],[-106,-106]]",diamond,no_dis,hori,left,"[99999,99999]","[-106,-106]",left,1,1.2517,,,,,,001,2025-03-11_19h33.43.391,SL_sali,2021.2.3,Win32,59.52380952,,,65,0,65,0,1,,,,,,,,
,,"[""circle"",""red"",""vert"",""up"",[106,106],[-106,-106]]",circle,red,vert,up,"[106,106]","[-106,-106]",up,1,1.258,,,,,,001,2025-03-11_19h33.43.391,SL_sali,2021.2.3,Win32,59.52380952,,,66,0,66,0,1,,,,,,,,
,,"[""diamond"",""red"",""vert"",""up"",[106,106],[0,150]]",diamond,red,vert,up,"[106,106]","[0,150]",up,1,0.9934,,,,,,001,2025-03-11_19h33.43.391,SL_sali,2021.2.3,Win32,59.52380952,,,67,0,67,0,1,,,,,,,,
,,"[""circle"",""red"",""hori"",""left"",[0,150],[-106,-106]]",circle,red,hori,left,"[0,150]","[-106,-106]",left,1,0.8935,,,,,,001,2025-03-11_19h33.43.391,SL_sali,2021.2.3,Win32,59.52380952,,,68,0,68,0,1,,,,,,,,
,,"[""circle"",""red"",""vert"",""up"",[-150,0],[0,-150]]",circle,red,vert,up,"[-150,0]","[0,-150]",up,1,0.815,,,,,,001,2025-03-11_19h33.43.391,SL_sali,2021.2.3,Win32,59.52380952,,,69,0,69,0,1,,,,,,,,
,,"[""circle"",""red"",""vert"",""up"",[106,106],[0,-150]]",circle,red,vert,up,"[106,106]","[0,-150]",up,1,0.6651,,,,,,001,2025-03-11_19h33.43.391,SL_sali,2021.2.3,Win32,59.52380952,,,70,0,70,0,1,,,,,,,,
,,"[""diamond"",""no_dis"",""hori"",""left"",[99999,99999],[0,-150]]",diamond,no_dis,hori,left,"[99999,99999]","[0,-150]",left,1,0.7949,,,,,,001,2025-03-11_19h33.43.391,SL_sali,2021.2.3,Win32,59.52380952,,,71,0,71,0,1,,,,,,,,
,,"[""circle"",""green"",""hori"",""left"",[0,150],[106,106]]",circle,green,hori,left,"[0,150]","[106,106]",left,1,1.7959,,,,,,001,2025-03-11_19h33.43.391,SL_sali,2021.2.3,Win32,59.52380952,,,72,0,72,0,1,,,,,,,,
,,"[""circle"",""green"",""hori"",""left"",[106,106],[106,-106]]",circle,green,hori,left,"[106,106]","[106,-106]",left,1,0.8638,,,,,,001,2025-03-11_19h33.43.391,SL_sali,2021.2.3,Win32,59.52380952,,,73,0,73,0,1,,,,,,,,
,,"[""diamond"",""green"",""hori"",""left"",[-106,106],[0,150]]",diamond,green,hori,left,"[-106,106]","[0,150]",left,1,1.0757,,,,,,001,2025-03-11_19h33.43.391,SL_sali,2021.2.3,Win32,59.52380952,,,74,0,74,0,1,,,,,,,,
,,"[""circle"",""no_dis"",""vert"",""up"",[99999,99999],[106,106]]",circle,no_dis,vert,up,"[99999,99999]","[106,106]",up,1,1.0846,,,,,,001,2025-03-11_19h33.43.391,SL_sali,2021.2.3,Win32,59.52380952,,,75,0,75,0,1,,,,,,,,
,,"[""diamond"",""no_dis"",""vert"",""up"",[99999,99999],[-106,106]]",diamond,no_dis,vert,up,"[99999,99999]","[-106,106]",up,1,0.8388,,,,,,001,2025-03-11_19h33.43.391,SL_sali,2021.2.3,Win32,59.52380952,,,76,0,76,0,1,,,,,,,,
,,"[""diamond"",""no_dis"",""hori"",""left"",[99999,99999],[-106,-106]]",diamond,no_dis,hori,left,"[99999,99999]","[-106,-106]",left,1,0.7127,,,,,,001,2025-03-11_19h33.43.391,SL_sali,2021.2.3,Win32,59.52380952,,,77,0,77,0,1,,,,,,,,
,,"[""diamond"",""red"",""hori"",""left"",[106,106],[-106,-106]]",diamond,red,hori,left,"[106,106]","[-106,-106]",left,1,0.7284,,,,,,001,2025-03-11_19h33.43.391,SL_sali,2021.2.3,Win32,59.52380952,,,78,0,78,0,1,,,,,,,,
,,"[""diamond"",""red"",""vert"",""up"",[106,106],[106,-106]]",diamond,red,vert,up,"[106,106]","[106,-106]",up,1,0.8453,,,,,,001,2025-03-11_19h33.43.391,SL_sali,2021.2.3,Win32,59.52380952,,,79,0,79,0,1,,,,,,,,
,,"[""diamond"",""no_dis"",""vert"",""up"",[99999,99999],[-106,-106]]",diamond,no_dis,vert,up,"[99999,99999]","[-106,-106]",up,1,0.9778,,,,,,001,2025-03-11_19h33.43.391,SL_sali,2021.2.3,Win32,59.52380952,,,80,0,80,0,1,,,,,,,,
,,"[""diamond"",""red"",""hori"",""left"",[150,0],[-106,-106]]",diamond,red,hori,left,"[150,0]","[-106,-106]",left,1,0.8511,,,,,,001,2025-03-11_19h33.43.391,SL_sali,2021.2.3,Win32,59.52380952,,,81,0,81,0,1,,,,,,,,
,,"[""diamond"",""no_dis"",""hori"",""left"",[99999,99999],[-150,0]]",diamond,no_dis,hori,left,"[99999,99999]","[-150,0]",left,1,0.6955,,,,,,001,2025-03-11_19h33.43.391,SL_sali,2021.2.3,Win32,59.52380952,,,82,0,82,0,1,,,,,,,,
,,"[""diamond"",""green"",""vert"",""up"",[-150,0],[-106,106]]",diamond,green,vert,up,"[-150,0]","[-106,106]",up,1,1.4123,,,,,,001,2025-03-11_19h33.43.391,SL_sali,2021.2.3,Win32,59.52380952,,,83,0,83,0,1,,,,,,,,
,,"[""diamond"",""green"",""hori"",""left"",[106,-106],[0,150]]",diamond,green,hori,left,"[106,-106]","[0,150]",left,1,0.7567,,,,,,001,2025-03-11_19h33.43.391,SL_sali,2021.2.3,Win32,59.52380952,,,84,0,84,0,1,,,,,,,,
,,"[""circle"",""green"",""hori"",""left"",[106,-106],[-106,-106]]",circle,green,hori,left,"[106,-106]","[-106,-106]",left,1,1.0611,,,,,,001,2025-03-11_19h33.43.391,SL_sali,2021.2.3,Win32,59.52380952,,,85,0,85,0,1,,,,,,,,
,,"[""circle"",""red"",""hori"",""left"",[106,106],[-150,0]]",circle,red,hori,left,"[106,106]","[-150,0]",left,1,1.1359,,,,,,001,2025-03-11_19h33.43.391,SL_sali,2021.2.3,Win32,59.52380952,,,86,0,86,0,1,,,,,,,,
,,"[""circle"",""red"",""vert"",""up"",[-150,0],[0,150]]",circle,red,vert,up,"[-150,0]","[0,150]",up,1,0.7631,,,,,,001,2025-03-11_19h33.43.391,SL_sali,2021.2.3,Win32,59.52380952,,,87,0,87,0,1,,,,,,,,
,,"[""circle"",""red"",""hori"",""left"",[0,-150],[-106,-106]]",circle,red,hori,left,"[0,-150]","[-106,-106]",left,1,0.7261,,,,,,001,2025-03-11_19h33.43.391,SL_sali,2021.2.3,Win32,59.52380952,,,88,0,88,0,1,,,,,,,,
,,"[""diamond"",""no_dis"",""hori"",""left"",[99999,99999],[0,150]]",diamond,no_dis,hori,left,"[99999,99999]","[0,150]",left,1,1.193,,,,,,001,2025-03-11_19h33.43.391,SL_sali,2021.2.3,Win32,59.52380952,,,89,0,89,0,1,,,,,,,,
,,"[""circle"",""red"",""hori"",""left"",[-106,106],[-106,-106]]",circle,red,hori,left,"[-106,106]","[-106,-106]",left,1,0.8801,,,,,,001,2025-03-11_19h33.43.391,SL_sali,2021.2.3,Win32,59.52380952,,,90,0,90,0,1,,,,,,,,
,,"[""circle"",""green"",""vert"",""up"",[106,-106],[-150,0]]",circle,green,vert,up,"[106,-106]","[-150,0]",up,1,0.8442,,,,,,001,2025-03-11_19h33.43.391,SL_sali,2021.2.3,Win32,59.52380952,,,91,0,91,0,1,,,,,,,,
,,"[""circle"",""green"",""hori"",""left"",[150,0],[0,-150]]",circle,green,hori,left,"[150,0]","[0,-150]",left,1,0.8877,,,,,,001,2025-03-11_19h33.43.391,SL_sali,2021.2.3,Win32,59.52380952,,,92,0,92,0,1,,,,,,,,
,,"[""circle"",""no_dis"",""vert"",""up"",[99999,99999],[150,0]]",circle,no_dis,vert,up,"[99999,99999]","[150,0]",up,1,0.6808,,,,,,001,2025-03-11_19h33.43.391,SL_sali,2021.2.3,Win32,59.52380952,,,93,0,93,0,1,,,,,,,,
,,"[""circle"",""no_dis"",""hori"",""left"",[99999,99999],[106,-106]]",circle,no_dis,hori,left,"[99999,99999]","[106,-106]",left,1,0.8156,,,,,,001,2025-03-11_19h33.43.391,SL_sali,2021.2.3,Win32,59.52380952,,,94,0,94,0,1,,,,,,,,
,,"[""circle"",""green"",""vert"",""up"",[0,-150],[-150,0]]",circle,green,vert,up,"[0,-150]","[-150,0]",up,1,0.981,,,,,,001,2025-03-11_19h33.43.391,SL_sali,2021.2.3,Win32,59.52380952,,,95,0,95,0,1,,,,,,,,
,,"[""diamond"",""green"",""vert"",""up"",[0,-150],[106,106]]",diamond,green,vert,up,"[0,-150]","[106,106]",up,1,1.3908,,,,,,001,2025-03-11_19h33.43.391,SL_sali,2021.2.3,Win32,59.52380952,,,96,0,96,0,1,,,,,,,,
,,"[""circle"",""no_dis"",""vert"",""up"",[99999,99999],[150,0]]",circle,no_dis,vert,up,"[99999,99999]","[150,0]",up,1,1.5392,,,,,,001,2025-03-11_19h33.43.391,SL_sali,2021.2.3,Win32,59.52380952,,,97,0,97,0,1,,,,,,,,
,,"[""circle"",""green"",""vert"",""up"",[106,106],[0,-150]]",circle,green,vert,up,"[106,106]","[0,-150]",up,1,1.3476,,,,,,001,2025-03-11_19h33.43.391,SL_sali,2021.2.3,Win32,59.52380952,,,98,0,98,0,1,,,,,,,,
,,"[""diamond"",""red"",""vert"",""up"",[-106,-106],[106,-106]]",diamond,red,vert,up,"[-106,-106]","[106,-106]",up,1,1.3602,,,,,,001,2025-03-11_19h33.43.391,SL_sali,2021.2.3,Win32,59.52380952,,,99,0,99,0,1,,,,,,,,
,,"[""circle"",""green"",""hori"",""left"",[106,-106],[-106,106]]",circle,green,hori,left,"[106,-106]","[-106,106]",left,1,1.0801,,,,,,001,2025-03-11_19h33.43.391,SL_sali,2021.2.3,Win32,59.52380952,,,100,0,100,0,1,,,,,,,,
,,"[""circle"",""red"",""vert"",""up"",[150,0],[-106,106]]",circle,red,vert,up,"[150,0]","[-106,106]",up,1,1.1604,,,,,,001,2025-03-11_19h33.43.391,SL_sali,2021.2.3,Win32,59.52380952,,,101,0,101,0,1,,,,,,,,
,,"[""diamond"",""no_dis"",""vert"",""up"",[99999,99999],[-150,0]]",diamond,no_dis,vert,up,"[99999,99999]","[-150,0]",up,1,0.7779,,,,,,001,2025-03-11_19h33.43.391,SL_sali,2021.2.3,Win32,59.52380952,,,102,0,102,0,1,,,,,,,,
,,"[""circle"",""red"",""vert"",""up"",[-106,106],[-150,0]]",circle,red,vert,up,"[-106,106]","[-150,0]",up,1,1.3461,,,,,,001,2025-03-11_19h33.43.391,SL_sali,2021.2.3,Win32,59.52380952,,,103,0,103,0,1,,,,,,,,
,,"[""diamond"",""red"",""hori"",""left"",[-106,106],[0,150]]",diamond,red,hori,left,"[-106,106]","[0,150]",left,1,1.056,,,,,,001,2025-03-11_19h33.43.391,SL_sali,2021.2.3,Win32,59.52380952,,,104,0,104,0,1,,,,,,,,
,,"[""circle"",""no_dis"",""hori"",""left"",[99999,99999],[-106,106]]",circle,no_dis,hori,left,"[99999,99999]","[-106,106]",left,1,0.999,,,,,,001,2025-03-11_19h33.43.391,SL_sali,2021.2.3,Win32,59.52380952,,,105,0,105,0,1,,,,,,,,
,,"[""diamond"",""red"",""vert"",""up"",[0,150],[106,-106]]",diamond,red,vert,up,"[0,150]","[106,-106]",up,1,0.9107,,,,,,001,2025-03-11_19h33.43.391,SL_sali,2021.2.3,Win32,59.52380952,,,106,0,106,0,1,,,,,,,,
,,"[""diamond"",""red"",""vert"",""up"",[106,106],[0,150]]",diamond,red,vert,up,"[106,106]","[0,150]",up,1,2.1273,,,,,,001,2025-03-11_19h33.43.391,SL_sali,2021.2.3,Win32,59.52380952,,,107,0,107,0,1,,,,,,,,
,,"[""diamond"",""red"",""hori"",""left"",[-106,-106],[0,-150]]",diamond,red,hori,left,"[-106,-106]","[0,-150]",left,1,1.116,,,,,,001,2025-03-11_19h33.43.391,SL_sali,2021.2.3,Win32,59.52380952,,,108,0,108,0,1,,,,,,,,
,,"[""circle"",""green"",""hori"",""left"",[106,106],[0,-150]]",circle,green,hori,left,"[106,106]","[0,-150]",up,0,1.2241,,,,,,001,2025-03-11_19h33.43.391,SL_sali,2021.2.3,Win32,59.52380952,,,109,0,109,0,1,,,,,,,,
,,"[""diamond"",""red"",""hori"",""left"",[-106,-106],[106,106]]",diamond,red,hori,left,"[-106,-106]","[106,106]",left,1,1.3142,,,,,,001,2025-03-11_19h33.43.391,SL_sali,2021.2.3,Win32,59.52380952,,,110,0,110,0,1,,,,,,,,
,,"[""diamond"",""no_dis"",""vert"",""up"",[99999,99999],[-106,-106]]",diamond,no_dis,vert,up,"[99999,99999]","[-106,-106]",up,1,0.8145,,,,,,001,2025-03-11_19h33.43.391,SL_sali,2021.2.3,Win32,59.52380952,,,111,0,111,0,1,,,,,,,,
,,"[""circle"",""green"",""hori"",""left"",[-106,-106],[106,-106]]",circle,green,hori,left,"[-106,-106]","[106,-106]",left,1,1.5105,,,,,,001,2025-03-11_19h33.43.391,SL_sali,2021.2.3,Win32,59.52380952,,,112,0,112,0,1,,,,,,,,
,,"[""diamond"",""green"",""vert"",""up"",[106,106],[0,150]]",diamond,green,vert,up,"[106,106]","[0,150]",up,1,1.1121,,,,,,001,2025-03-11_19h33.43.391,SL_sali,2021.2.3,Win32,59.52380952,,,113,0,113,0,1,,,,,,,,
,,"[""circle"",""green"",""hori"",""left"",[0,150],[0,-150]]",circle,green,hori,left,"[0,150]","[0,-150]",left,1,0.7041,,,,,,001,2025-03-11_19h33.43.391,SL_sali,2021.2.3,Win32,59.52380952,,,114,0,114,0,1,,,,,,,,
,,"[""diamond"",""green"",""hori"",""left"",[150,0],[0,150]]",diamond,green,hori,left,"[150,0]","[0,150]",left,1,0.6996,,,,,,001,2025-03-11_19h33.43.391,SL_sali,2021.2.3,Win32,59.52380952,,,115,0,115,0,1,,,,,,,,
,,"[""diamond"",""no_dis"",""hori"",""left"",[99999,99999],[106,-106]]",diamond,no_dis,hori,left,"[99999,99999]","[106,-106]",left,1,0.8957,,,,,,001,2025-03-11_19h33.43.391,SL_sali,2021.2.3,Win32,59.52380952,,,116,0,116,0,1,,,,,,,,
,,"[""circle"",""green"",""vert"",""up"",[-106,106],[106,-106]]",circle,green,vert,up,"[-106,106]","[106,-106]",up,1,1.3215,,,,,,001,2025-03-11_19h33.43.391,SL_sali,2021.2.3,Win32,59.52380952,,,117,0,117,0,1,,,,,,,,
,,"[""diamond"",""no_dis"",""vert"",""up"",[99999,99999],[-150,0]]",diamond,no_dis,vert,up,"[99999,99999]","[-150,0]",left,0,0.6447,,,,,,001,2025-03-11_19h33.43.391,SL_sali,2021.2.3,Win32,59.52380952,,,118,0,118,0,1,,,,,,,,
,,"[""circle"",""red"",""hori"",""left"",[0,150],[0,-150]]",circle,red,hori,left,"[0,150]","[0,-150]",left,1,1.7153,,,,,,001,2025-03-11_19h33.43.391,SL_sali,2021.2.3,Win32,59.52380952,,,119,0,119,0,1,,,,,,,,
,,,,,,,,,,,,,,,,,001,2025-03-11_19h33.43.391,SL_sali,2021.2.3,Win32,59.52380952,,,,,,,,3,space,28.285,2,0,2,0,1
,,"[""circle"",""red"",""vert"",""up"",[106,106],[106,-106]]",circle,red,vert,up,"[106,106]","[106,-106]",left,0,0.9135,,,,,,001,2025-03-11_19h33.43.391,SL_sali,2021.2.3,Win32,59.52380952,,,0,0,0,0,1,,,,,,,,
,,"[""diamond"",""red"",""hori"",""left"",[-106,-106],[0,150]]",diamond,red,hori,left,"[-106,-106]","[0,150]",left,1,0.7937,,,,,,001,2025-03-11_19h33.43.391,SL_sali,2021.2.3,Win32,59.52380952,,,1,0,1,0,1,,,,,,,,
,,"[""circle"",""green"",""vert"",""up"",[0,-150],[106,-106]]",circle,green,vert,up,"[0,-150]","[106,-106]",up,1,0.7276,,,,,,001,2025-03-11_19h33.43.391,SL_sali,2021.2.3,Win32,59.52380952,,,2,0,2,0,1,,,,,,,,
,,"[""circle"",""green"",""hori"",""left"",[106,106],[106,-106]]",circle,green,hori,left,"[106,106]","[106,-106]",left,1,1.4045,,,,,,001,2025-03-11_19h33.43.391,SL_sali,2021.2.3,Win32,59.52380952,,,3,0,3,0,1,,,,,,,,
,,"[""circle"",""red"",""hori"",""left"",[106,106],[106,-106]]",circle,red,hori,left,"[106,106]","[106,-106]",left,1,0.6427,,,,,,001,2025-03-11_19h33.43.391,SL_sali,2021.2.3,Win32,59.52380952,,,4,0,4,0,1,,,,,,,,
,,"[""diamond"",""red"",""hori"",""left"",[-106,-106],[106,106]]",diamond,red,hori,left,"[-106,-106]","[106,106]",up,0,1.2296,,,,,,001,2025-03-11_19h33.43.391,SL_sali,2021.2.3,Win32,59.52380952,,,5,0,5,0,1,,,,,,,,
,,"[""diamond"",""green"",""hori"",""left"",[106,-106],[-106,-106]]",diamond,green,hori,left,"[106,-106]","[-106,-106]",left,1,1.1933,,,,,,001,2025-03-11_19h33.43.391,SL_sali,2021.2.3,Win32,59.52380952,,,6,0,6,0,1,,,,,,,,
,,"[""circle"",""no_dis"",""vert"",""up"",[99999,99999],[106,106]]",circle,no_dis,vert,up,"[99999,99999]","[106,106]",up,1,0.924,,,,,,001,2025-03-11_19h33.43.391,SL_sali,2021.2.3,Win32,59.52380952,,,7,0,7,0,1,,,,,,,,
,,"[""diamond"",""no_dis"",""hori"",""left"",[99999,99999],[-150,0]]",diamond,no_dis,hori,left,"[99999,99999]","[-150,0]",left,1,0.8342,,,,,,001,2025-03-11_19h33.43.391,SL_sali,2021.2.3,Win32,59.52380952,,,8,0,8,0,1,,,,,,,,
,,"[""diamond"",""green"",""hori"",""left"",[150,0],[106,106]]",diamond,green,hori,left,"[150,0]","[106,106]",up,0,1.8959,,,,,,001,2025-03-11_19h33.43.391,SL_sali,2021.2.3,Win32,59.52380952,,,9,0,9,0,1,,,,,,,,
,,"[""diamond"",""green"",""vert"",""up"",[106,106],[-106,106]]",diamond,green,vert,up,"[106,106]","[-106,106]",up,1,0.8568,,,,,,001,2025-03-11_19h33.43.391,SL_sali,2021.2.3,Win32,59.52380952,,,10,0,10,0,1,,,,,,,,
,,"[""circle"",""red"",""vert"",""up"",[-106,106],[-150,0]]",circle,red,vert,up,"[-106,106]","[-150,0]",up,1,1.3123,,,,,,001,2025-03-11_19h33.43.391,SL_sali,2021.2.3,Win32,59.52380952,,,11,0,11,0,1,,,,,,,,
,,"[""circle"",""no_dis"",""vert"",""up"",[99999,99999],[150,0]]",circle,no_dis,vert,up,"[99999,99999]","[150,0]",up,1,1.0976,,,,,,001,2025-03-11_19h33.43.391,SL_sali,2021.2.3,Win32,59.52380952,,,12,0,12,0,1,,,,,,,,
,,"[""diamond"",""no_dis"",""vert"",""up"",[99999,99999],[106,106]]",diamond,no_dis,vert,up,"[99999,99999]","[106,106]",up,1,1.1343,,,,,,001,2025-03-11_19h33.43.391,SL_sali,2021.2.3,Win32,59.52380952,,,13,0,13,0,1,,,,,,,,
,,"[""circle"",""green"",""hori"",""left"",[106,106],[106,-106]]",circle,green,hori,left,"[106,106]","[106,-106]",left,1,0.7464,,,,,,001,2025-03-11_19h33.43.391,SL_sali,2021.2.3,Win32,59.52380952,,,14,0,14,0,1,,,,,,,,
,,"[""circle"",""no_dis"",""vert"",""up"",[99999,99999],[0,-150]]",circle,no_dis,vert,up,"[99999,99999]","[0,-150]",up,1,1.0395,,,,,,001,2025-03-11_19h33.43.391,SL_sali,2021.2.3,Win32,59.52380952,,,15,0,15,0,1,,,,,,,,
,,"[""diamond"",""green"",""vert"",""up"",[106,106],[-106,106]]",diamond,green,vert,up,"[106,106]","[-106,106]",up,1,1.1168,,,,,,001,2025-03-11_19h33.43.391,SL_sali,2021.2.3,Win32,59.52380952,,,16,0,16,0,1,,,,,,,,
,,"[""diamond"",""red"",""hori"",""left"",[150,0],[106,106]]",diamond,red,hori,left,"[150,0]","[106,106]",left,1,1.4256,,,,,,001,2025-03-11_19h33.43.391,SL_sali,2021.2.3,Win32,59.52380952,,,17,0,17,0,1,,,,,,,,
,,"[""circle"",""red"",""vert"",""up"",[-150,0],[0,150]]",circle,red,vert,up,"[-150,0]","[0,150]",up,1,1.2826,,,,,,001,2025-03-11_19h33.43.391,SL_sali,2021.2.3,Win32,59.52380952,,,18,0,18,0,1,,,,,,,,
,,"[""circle"",""red"",""hori"",""left"",[106,106],[-150,0]]",circle,red,hori,left,"[106,106]","[-150,0]",left,1,1.3749,,,,,,001,2025-03-11_19h33.43.391,SL_sali,2021.2.3,Win32,59.52380952,,,19,0,19,0,1,,,,,,,,
,,"[""circle"",""no_dis"",""hori"",""left"",[99999,99999],[0,150]]",circle,no_dis,hori,left,"[99999,99999]","[0,150]",left,1,1.565,,,,,,001,2025-03-11_19h33.43.391,SL_sali,2021.2.3,Win32,59.52380952,,,20,0,20,0,1,,,,,,,,
,,"[""diamond"",""no_dis"",""hori"",""left"",[99999,99999],[106,106]]",diamond,no_dis,hori,left,"[99999,99999]","[106,106]",left,1,1.0364,,,,,,001,2025-03-11_19h33.43.391,SL_sali,2021.2.3,Win32,59.52380952,,,21,0,21,0,1,,,,,,,,
,,"[""circle"",""red"",""hori"",""left"",[0,150],[0,-150]]",circle,red,hori,left,"[0,150]","[0,-150]",left,1,1.0461,,,,,,001,2025-03-11_19h33.43.391,SL_sali,2021.2.3,Win32,59.52380952,,,22,0,22,0,1,,,,,,,,
,,"[""circle"",""green"",""hori"",""left"",[106,-106],[-106,-106]]",circle,green,hori,left,"[106,-106]","[-106,-106]",left,1,0.9299,,,,,,001,2025-03-11_19h33.43.391,SL_sali,2021.2.3,Win32,59.52380952,,,23,0,23,0,1,,,,,,,,
,,"[""circle"",""no_dis"",""vert"",""up"",[99999,99999],[150,0]]",circle,no_dis,vert,up,"[99999,99999]","[150,0]",up,1,1.2305,,,,,,001,2025-03-11_19h33.43.391,SL_sali,2021.2.3,Win32,59.52380952,,,24,0,24,0,1,,,,,,,,
,,"[""diamond"",""green"",""hori"",""left"",[0,-150],[106,106]]",diamond,green,hori,left,"[0,-150]","[106,106]",left,1,1.1017,,,,,,001,2025-03-11_19h33.43.391,SL_sali,2021.2.3,Win32,59.52380952,,,25,0,25,0,1,,,,,,,,
,,"[""circle"",""no_dis"",""hori"",""left"",[99999,99999],[106,-106]]",circle,no_dis,hori,left,"[99999,99999]","[106,-106]",left,1,0.8504,,,,,,001,2025-03-11_19h33.43.391,SL_sali,2021.2.3,Win32,59.52380952,,,26,0,26,0,1,,,,,,,,
,,"[""circle"",""green"",""hori"",""left"",[-106,-106],[106,-106]]",circle,green,hori,left,"[-106,-106]","[106,-106]",left,1,0.8999,,,,,,001,2025-03-11_19h33.43.391,SL_sali,2021.2.3,Win32,59.52380952,,,27,0,27,0,1,,,,,,,,
,,"[""circle"",""green"",""vert"",""up"",[106,106],[0,-150]]",circle,green,vert,up,"[106,106]","[0,-150]",up,1,1.2826,,,,,,001,2025-03-11_19h33.43.391,SL_sali,2021.2.3,Win32,59.52380952,,,28,0,28,0,1,,,,,,,,
,,"[""circle"",""red"",""hori"",""left"",[-150,0],[0,-150]]",circle,red,hori,left,"[-150,0]","[0,-150]",left,1,1.2477,,,,,,001,2025-03-11_19h33.43.391,SL_sali,2021.2.3,Win32,59.52380952,,,29,0,29,0,1,,,,,,,,
,,"[""circle"",""no_dis"",""hori"",""left"",[99999,99999],[0,150]]",circle,no_dis,hori,left,"[99999,99999]","[0,150]",left,1,0.7619,,,,,,001,2025-03-11_19h33.43.391,SL_sali,2021.2.3,Win32,59.52380952,,,30,0,30,0,1,,,,,,,,
,,"[""circle"",""red"",""vert"",""up"",[150,0],[-106,106]]",circle,red,vert,up,"[150,0]","[-106,106]",up,1,0.9135,,,,,,001,2025-03-11_19h33.43.391,SL_sali,2021.2.3,Win32,59.52380952,,,31,0,31,0,1,,,,,,,,
,,"[""diamond"",""no_dis"",""vert"",""up"",[99999,99999],[-106,106]]",diamond,no_dis,vert,up,"[99999,99999]","[-106,106]",up,1,1.0452,,,,,,001,2025-03-11_19h33.43.391,SL_sali,2021.2.3,Win32,59.52380952,,,32,0,32,0,1,,,,,,,,
,,"[""circle"",""red"",""vert"",""up"",[0,150],[106,106]]",circle,red,vert,up,"[0,150]","[106,106]",up,1,1.5443,,,,,,001,2025-03-11_19h33.43.391,SL_sali,2021.2.3,Win32,59.52380952,,,33,0,33,0,1,,,,,,,,
,,"[""diamond"",""green"",""vert"",""up"",[-150,0],[106,-106]]",diamond,green,vert,up,"[-150,0]","[106,-106]",up,1,1.2391,,,,,,001,2025-03-11_19h33.43.391,SL_sali,2021.2.3,Win32,59.52380952,,,34,0,34,0,1,,,,,,,,
,,"[""diamond"",""green"",""vert"",""up"",[0,150],[0,-150]]",diamond,green,vert,up,"[0,150]","[0,-150]",up,1,0.9451,,,,,,001,2025-03-11_19h33.43.391,SL_sali,2021.2.3,Win32,59.52380952,,,35,0,35,0,1,,,,,,,,
,,"[""diamond"",""green"",""vert"",""up"",[106,106],[0,150]]",diamond,green,vert,up,"[106,106]","[0,150]",up,1,1.3939,,,,,,001,2025-03-11_19h33.43.391,SL_sali,2021.2.3,Win32,59.52380952,,,36,0,36,0,1,,,,,,,,
,,"[""circle"",""green"",""vert"",""up"",[-106,106],[-150,0]]",circle,green,vert,up,"[-106,106]","[-150,0]",up,1,1.6139,,,,,,001,2025-03-11_19h33.43.391,SL_sali,2021.2.3,Win32,59.52380952,,,37,0,37,0,1,,,,,,,,
,,"[""diamond"",""red"",""vert"",""up"",[106,106],[0,150]]",diamond,red,vert,up,"[106,106]","[0,150]",up,1,1.3168,,,,,,001,2025-03-11_19h33.43.391,SL_sali,2021.2.3,Win32,59.52380952,,,38,0,38,0,1,,,,,,,,
,,"[""diamond"",""red"",""vert"",""up"",[-106,106],[106,-106]]",diamond,red,vert,up,"[-106,106]","[106,-106]",up,1,0.8735,,,,,,001,2025-03-11_19h33.43.391,SL_sali,2021.2.3,Win32,59.52380952,,,39,0,39,0,1,,,,,,,,
,,"[""circle"",""green"",""vert"",""up"",[-106,106],[106,-106]]",circle,green,vert,up,"[-106,106]","[106,-106]",up,1,1.098,,,,,,001,2025-03-11_19h33.43.391,SL_sali,2021.2.3,Win32,59.52380952,,,40,0,40,0,1,,,,,,,,
,,"[""diamond"",""no_dis"",""hori"",""left"",[99999,99999],[-150,0]]",diamond,no_dis,hori,left,"[99999,99999]","[-150,0]",left,1,1.3033,,,,,,001,2025-03-11_19h33.43.391,SL_sali,2021.2.3,Win32,59.52380952,,,41,0,41,0,1,,,,,,,,
,,"[""diamond"",""no_dis"",""vert"",""up"",[99999,99999],[106,-106]]",diamond,no_dis,vert,up,"[99999,99999]","[106,-106]",up,1,0.925,,,,,,001,2025-03-11_19h33.43.391,SL_sali,2021.2.3,Win32,59.52380952,,,42,0,42,0,1,,,,,,,,
,,"[""diamond"",""no_dis"",""vert"",""up"",[99999,99999],[-106,106]]",diamond,no_dis,vert,up,"[99999,99999]","[-106,106]",up,1,1.4761,,,,,,001,2025-03-11_19h33.43.391,SL_sali,2021.2.3,Win32,59.52380952,,,43,0,43,0,1,,,,,,,,
,,"[""circle"",""red"",""hori"",""left"",[-106,106],[-106,-106]]",circle,red,hori,left,"[-106,106]","[-106,-106]",left,1,1.184,,,,,,001,2025-03-11_19h33.43.391,SL_sali,2021.2.3,Win32,59.52380952,,,44,0,44,0,1,,,,,,,,
,,"[""diamond"",""green"",""vert"",""up"",[-150,0],[0,-150]]",diamond,green,vert,up,"[-150,0]","[0,-150]",up,1,0.8734,,,,,,001,2025-03-11_19h33.43.391,SL_sali,2021.2.3,Win32,59.52380952,,,45,0,45,0,1,,,,,,,,
,,"[""diamond"",""no_dis"",""vert"",""up"",[99999,99999],[-106,-106]]",diamond,no_dis,vert,up,"[99999,99999]","[-106,-106]",up,1,1.6316,,,,,,001,2025-03-11_19h33.43.391,SL_sali,2021.2.3,Win32,59.52380952,,,46,0,46,0,1,,,,,,,,
,,"[""diamond"",""no_dis"",""vert"",""up"",[99999,99999],[-106,-106]]",diamond,no_dis,vert,up,"[99999,99999]","[-106,-106]",up,1,1.0288,,,,,,001,2025-03-11_19h33.43.391,SL_sali,2021.2.3,Win32,59.52380952,,,47,0,47,0,1,,,,,,,,
,,"[""circle"",""no_dis"",""hori"",""left"",[99999,99999],[106,-106]]",circle,no_dis,hori,left,"[99999,99999]","[106,-106]",left,1,0.7795,,,,,,001,2025-03-11_19h33.43.391,SL_sali,2021.2.3,Win32,59.52380952,,,48,0,48,0,1,,,,,,,,
,,"[""diamond"",""red"",""hori"",""left"",[106,106],[-106,-106]]",diamond,red,hori,left,"[106,106]","[-106,-106]",left,1,0.7644,,,,,,001,2025-03-11_19h33.43.391,SL_sali,2021.2.3,Win32,59.52380952,,,49,0,49,0,1,,,,,,,,
,,"[""circle"",""green"",""hori"",""left"",[0,150],[0,-150]]",circle,green,hori,left,"[0,150]","[0,-150]",left,1,1.0559,,,,,,001,2025-03-11_19h33.43.391,SL_sali,2021.2.3,Win32,59.52380952,,,50,0,50,0,1,,,,,,,,
,,"[""circle"",""red"",""vert"",""up"",[106,106],[0,-150]]",circle,red,vert,up,"[106,106]","[0,-150]",up,1,1.2494,,,,,,001,2025-03-11_19h33.43.391,SL_sali,2021.2.3,Win32,59.52380952,,,51,0,51,0,1,,,,,,,,
,,"[""circle"",""no_dis"",""vert"",""up"",[99999,99999],[0,-150]]",circle,no_dis,vert,up,"[99999,99999]","[0,-150]",up,1,0.7244,,,,,,001,2025-03-11_19h33.43.391,SL_sali,2021.2.3,Win32,59.52380952,,,52,0,52,0,1,,,,,,,,
,,"[""circle"",""green"",""hori"",""left"",[106,-106],[-106,106]]",circle,green,hori,left,"[106,-106]","[-106,106]",left,1,0.9483,,,,,,001,2025-03-11_19h33.43.391,SL_sali,2021.2.3,Win32,59.52380952,,,53,0,53,0,1,,,,,,,,
,,"[""circle"",""no_dis"",""hori"",""left"",[99999,99999],[0,150]]",circle,no_dis,hori,left,"[99999,99999]","[0,150]",left,1,0.6537,,,,,,001,2025-03-11_19h33.43.391,SL_sali,2021.2.3,Win32,59.52380952,,,54,0,54,0,1,,,,,,,,
,,"[""diamond"",""no_dis"",""hori"",""left"",[99999,99999],[-106,-106]]",diamond,no_dis,hori,left,"[99999,99999]","[-106,-106]",left,1,1.0508,,,,,,001,2025-03-11_19h33.43.391,SL_sali,2021.2.3,Win32,59.52380952,,,55,0,55,0,1,,,,,,,,
,,"[""circle"",""no_dis"",""vert"",""up"",[99999,99999],[-150,0]]",circle,no_dis,vert,up,"[99999,99999]","[-150,0]",up,1,1.3338,,,,,,001,2025-03-11_19h33.43.391,SL_sali,2021.2.3,Win32,59.52380952,,,56,0,56,0,1,,,,,,,,
,,"[""diamond"",""green"",""hori"",""left"",[150,0],[0,150]]",diamond,green,hori,left,"[150,0]","[0,150]",left,1,0.9764,,,,,,001,2025-03-11_19h33.43.391,SL_sali,2021.2.3,Win32,59.52380952,,,57,0,57,0,1,,,,,,,,
,,"[""diamond"",""red"",""vert"",""up"",[0,-150],[150,0]]",diamond,red,vert,up,"[0,-150]","[150,0]",up,1,1.1584,,,,,,001,2025-03-11_19h33.43.391,SL_sali,2021.2.3,Win32,59.52380952,,,58,0,58,0,1,,,,,,,,
,,"[""circle"",""green"",""vert"",""up"",[106,-106],[-150,0]]",circle,green,vert,up,"[106,-106]","[-150,0]",left,0,0.6782,,,,,,001,2025-03-11_19h33.43.391,SL_sali,2021.2.3,Win32,59.52380952,,,59,0,59,0,1,,,,,,,,
,,"[""diamond"",""no_dis"",""vert"",""up"",[99999,99999],[-106,-106]]",diamond,no_dis,vert,up,"[99999,99999]","[-106,-106]",left,0,0.7269,,,,,,001,2025-03-11_19h33.43.391,SL_sali,2021.2.3,Win32,59.52380952,,,60,0,60,0,1,,,,,,,,
,,"[""circle"",""green"",""vert"",""up"",[106,106],[0,-150]]",circle,green,vert,up,"[106,106]","[0,-150]",up,1,0.7844,,,,,,001,2025-03-11_19h33.43.391,SL_sali,2021.2.3,Win32,59.52380952,,,61,0,61,0,1,,,,,,,,
,,"[""diamond"",""red"",""vert"",""up"",[106,-106],[0,150]]",diamond,red,vert,up,"[106,-106]","[0,150]",up,1,0.9924,,,,,,001,2025-03-11_19h33.43.391,SL_sali,2021.2.3,Win32,59.52380952,,,62,0,62,0,1,,,,,,,,
,,"[""diamond"",""red"",""hori"",""left"",[150,0],[-106,-106]]",diamond,red,hori,left,"[150,0]","[-106,-106]",left,1,0.9811,,,,,,001,2025-03-11_19h33.43.391,SL_sali,2021.2.3,Win32,59.52380952,,,63,0,63,0,1,,,,,,,,
,,"[""circle"",""no_dis"",""vert"",""up"",[99999,99999],[150,0]]",circle,no_dis,vert,up,"[99999,99999]","[150,0]",up,1,0.8247,,,,,,001,2025-03-11_19h33.43.391,SL_sali,2021.2.3,Win32,59.52380952,,,64,0,64,0,1,,,,,,,,
,,"[""diamond"",""no_dis"",""hori"",""left"",[99999,99999],[0,-150]]",diamond,no_dis,hori,left,"[99999,99999]","[0,-150]",left,1,1.1031,,,,,,001,2025-03-11_19h33.43.391,SL_sali,2021.2.3,Win32,59.52380952,,,65,0,65,0,1,,,,,,,,
,,"[""circle"",""green"",""vert"",""up"",[150,0],[0,150]]",circle,green,vert,up,"[150,0]","[0,150]",up,1,1.1141,,,,,,001,2025-03-11_19h33.43.391,SL_sali,2021.2.3,Win32,59.52380952,,,66,0,66,0,1,,,,,,,,
,,"[""circle"",""red"",""vert"",""up"",[-150,0],[0,150]]",circle,red,vert,up,"[-150,0]","[0,150]",up,1,1.2475,,,,,,001,2025-03-11_19h33.43.391,SL_sali,2021.2.3,Win32,59.52380952,,,67,0,67,0,1,,,,,,,,
,,"[""diamond"",""green"",""hori"",""left"",[106,-106],[0,150]]",diamond,green,hori,left,"[106,-106]","[0,150]",up,0,1.1109,,,,,,001,2025-03-11_19h33.43.391,SL_sali,2021.2.3,Win32,59.52380952,,,68,0,68,0,1,,,,,,,,
,,"[""diamond"",""red"",""hori"",""left"",[0,150],[150,0]]",diamond,red,hori,left,"[0,150]","[150,0]",left,1,1.524,,,,,,001,2025-03-11_19h33.43.391,SL_sali,2021.2.3,Win32,59.52380952,,,69,0,69,0,1,,,,,,,,
,,"[""circle"",""green"",""hori"",""left"",[150,0],[0,-150]]",circle,green,hori,left,"[150,0]","[0,-150]",left,1,1.0771,,,,,,001,2025-03-11_19h33.43.391,SL_sali,2021.2.3,Win32,59.52380952,,,70,0,70,0,1,,,,,,,,
,,"[""circle"",""red"",""vert"",""up"",[106,106],[-150,0]]",circle,red,vert,up,"[106,106]","[-150,0]",up,1,1.3193,,,,,,001,2025-03-11_19h33.43.391,SL_sali,2021.2.3,Win32,59.52380952,,,71,0,71,0,1,,,,,,,,
,,"[""circle"",""red"",""hori"",""left"",[0,-150],[-106,-106]]",circle,red,hori,left,"[0,-150]","[-106,-106]",left,1,1.0471,,,,,,001,2025-03-11_19h33.43.391,SL_sali,2021.2.3,Win32,59.52380952,,,72,0,72,0,1,,,,,,,,
,,"[""circle"",""red"",""hori"",""left"",[106,106],[106,-106]]",circle,red,hori,left,"[106,106]","[106,-106]",left,1,1.565,,,,,,001,2025-03-11_19h33.43.391,SL_sali,2021.2.3,Win32,59.52380952,,,73,0,73,0,1,,,,,,,,
,,"[""circle"",""no_dis"",""vert"",""up"",[99999,99999],[-106,106]]",circle,no_dis,vert,up,"[99999,99999]","[-106,106]",up,1,1.0277,,,,,,001,2025-03-11_19h33.43.391,SL_sali,2021.2.3,Win32,59.52380952,,,74,0,74,0,1,,,,,,,,
,,"[""diamond"",""red"",""hori"",""left"",[-106,106],[0,150]]",diamond,red,hori,left,"[-106,106]","[0,150]",left,1,1.4588,,,,,,001,2025-03-11_19h33.43.391,SL_sali,2021.2.3,Win32,59.52380952,,,75,0,75,0,1,,,,,,,,
,,"[""diamond"",""no_dis"",""hori"",""left"",[99999,99999],[0,150]]",diamond,no_dis,hori,left,"[99999,99999]","[0,150]",left,1,1.0004,,,,,,001,2025-03-11_19h33.43.391,SL_sali,2021.2.3,Win32,59.52380952,,,76,0,76,0,1,,,,,,,,
,,"[""diamond"",""no_dis"",""vert"",""up"",[99999,99999],[-150,0]]",diamond,no_dis,vert,up,"[99999,99999]","[-150,0]",up,1,0.7808,,,,,,001,2025-03-11_19h33.43.391,SL_sali,2021.2.3,Win32,59.52380952,,,77,0,77,0,1,,,,,,,,
,,"[""diamond"",""green"",""vert"",""up"",[-150,0],[-106,106]]",diamond,green,vert,up,"[-150,0]","[-106,106]",up,1,1.607,,,,,,001,2025-03-11_19h33.43.391,SL_sali,2021.2.3,Win32,59.52380952,,,78,0,78,0,1,,,,,,,,
,,"[""diamond"",""red"",""vert"",""up"",[-106,-106],[106,106]]",diamond,red,vert,up,"[-106,-106]","[106,106]",up,1,1.7998,,,,,,001,2025-03-11_19h33.43.391,SL_sali,2021.2.3,Win32,59.52380952,,,79,0,79,0,1,,,,,,,,
,,"[""circle"",""no_dis"",""vert"",""up"",[99999,99999],[106,106]]",circle,no_dis,vert,up,"[99999,99999]","[106,106]",up,1,1.3185,,,,,,001,2025-03-11_19h33.43.391,SL_sali,2021.2.3,Win32,59.52380952,,,80,0,80,0,1,,,,,,,,
,,"[""diamond"",""red"",""vert"",""up"",[0,150],[106,-106]]",diamond,red,vert,up,"[0,150]","[106,-106]",up,1,0.9267,,,,,,001,2025-03-11_19h33.43.391,SL_sali,2021.2.3,Win32,59.52380952,,,81,0,81,0,1,,,,,,,,
,,"[""diamond"",""red"",""vert"",""up"",[-106,-106],[106,-106]]",diamond,red,vert,up,"[-106,-106]","[106,-106]",up,1,0.8423,,,,,,001,2025-03-11_19h33.43.391,SL_sali,2021.2.3,Win32,59.52380952,,,82,0,82,0,1,,,,,,,,
,,"[""diamond"",""no_dis"",""hori"",""left"",[99999,99999],[0,-150]]",diamond,no_dis,hori,left,"[99999,99999]","[0,-150]",left,1,1.2672,,,,,,001,2025-03-11_19h33.43.391,SL_sali,2021.2.3,Win32,59.52380952,,,83,0,83,0,1,,,,,,,,
,,"[""diamond"",""red"",""vert"",""up"",[106,106],[106,-106]]",diamond,red,vert,up,"[106,106]","[106,-106]",up,1,0.8449,,,,,,001,2025-03-11_19h33.43.391,SL_sali,2021.2.3,Win32,59.52380952,,,84,0,84,0,1,,,,,,,,
,,"[""diamond"",""red"",""vert"",""up"",[-106,-106],[-106,106]]",diamond,red,vert,up,"[-106,-106]","[-106,106]",up,1,1.6,,,,,,001,2025-03-11_19h33.43.391,SL_sali,2021.2.3,Win32,59.52380952,,,85,0,85,0,1,,,,,,,,
,,"[""diamond"",""green"",""hori"",""left"",[-106,106],[0,150]]",diamond,green,hori,left,"[-106,106]","[0,150]",left,1,0.8784,,,,,,001,2025-03-11_19h33.43.391,SL_sali,2021.2.3,Win32,59.52380952,,,86,0,86,0,1,,,,,,,,
,,"[""circle"",""red"",""vert"",""up"",[106,106],[-106,-106]]",circle,red,vert,up,"[106,106]","[-106,-106]",up,1,0.783,,,,,,001,2025-03-11_19h33.43.391,SL_sali,2021.2.3,Win32,59.52380952,,,87,0,87,0,1,,,,,,,,
,,"[""circle"",""no_dis"",""hori"",""left"",[99999,99999],[150,0]]",circle,no_dis,hori,left,"[99999,99999]","[150,0]",left,1,0.808,,,,,,001,2025-03-11_19h33.43.391,SL_sali,2021.2.3,Win32,59.52380952,,,88,0,88,0,1,,,,,,,,
,,"[""circle"",""red"",""vert"",""up"",[-150,0],[0,-150]]",circle,red,vert,up,"[-150,0]","[0,-150]",left,0,1.4972,,,,,,001,2025-03-11_19h33.43.391,SL_sali,2021.2.3,Win32,59.52380952,,,89,0,89,0,1,,,,,,,,
