﻿key_resp.keys,key_resp.rt,trial_para,tar_shape,dis_color_condi,tar_line,cor_resp,dis_loc,tar_loc,resp.keys,resp.corr,trials.thisRepN,trials.thisTrialN,trials.thisN,trials.thisIndex,trials.ran,participant,date,expName,psychopyVersion,OS,frameRate,resp.rt,key_resp_2.keys,key_resp_2.rt,trials_2.thisRepN,trials_2.thisTrialN,trials_2.thisN,trials_2.thisIndex,trials_2.ran,block_num,key_resp_3.keys,key_resp_3.rt,trials_3.thisRepN,trials_3.thisTrialN,trials_3.thisN,trials_3.thisIndex,trials_3.ran
space,41.8886,"[""diamond"",""no_dis"",""hori"",""left"",[99999,99999],[106,-106]]",diamond,no_dis,hori,left,"[99999,99999]","[106,-106]",,0,0,0,0,0,1,001,2025-03-10_23h42.02.041,SL_sali,2021.2.3,Win32,60.60606061,,,,,,,,,,,,,,,,
,,"[""circle"",""red"",""vert"",""up"",[106,106],[-106,-106]]",circle,red,vert,up,"[106,106]","[-106,-106]",up,1,1,0,1,0,1,001,2025-03-10_23h42.02.041,SL_sali,2021.2.3,Win32,60.60606061,2.9209,,,,,,,,,,,,,,,
,,"[""diamond"",""no_dis"",""hori"",""left"",[99999,99999],[-150,0]]",diamond,no_dis,hori,left,"[99999,99999]","[-150,0]",left,1,2,0,2,0,1,001,2025-03-10_23h42.02.041,SL_sali,2021.2.3,Win32,60.60606061,2.2866,,,,,,,,,,,,,,,
,,"[""diamond"",""red"",""vert"",""up"",[-106,-106],[0,150]]",diamond,red,vert,up,"[-106,-106]","[0,150]",up,1,3,0,3,0,1,001,2025-03-10_23h42.02.041,SL_sali,2021.2.3,Win32,60.60606061,2.2001,,,,,,,,,,,,,,,
,,"[""circle"",""green"",""hori"",""left"",[-150,0],[0,150]]",circle,green,hori,left,"[-150,0]","[0,150]",,0,4,0,4,0,1,001,2025-03-10_23h42.02.041,SL_sali,2021.2.3,Win32,60.60606061,,,,,,,,,,,,,,,,
,,"[""diamond"",""green"",""vert"",""up"",[106,-106],[0,-150]]",diamond,green,vert,up,"[106,-106]","[0,-150]",up,1,5,0,5,0,1,001,2025-03-10_23h42.02.041,SL_sali,2021.2.3,Win32,60.60606061,1.4335,,,,,,,,,,,,,,,
,,"[""diamond"",""red"",""hori"",""left"",[150,0],[106,-106]]",diamond,red,hori,left,"[150,0]","[106,-106]",left,1,6,0,6,0,1,001,2025-03-10_23h42.02.041,SL_sali,2021.2.3,Win32,60.60606061,1.3442,,,,,,,,,,,,,,,
,,"[""circle"",""red"",""vert"",""up"",[150,0],[106,106]]",circle,red,vert,up,"[150,0]","[106,106]",up,1,7,0,7,0,1,001,2025-03-10_23h42.02.041,SL_sali,2021.2.3,Win32,60.60606061,1.1685,,,,,,,,,,,,,,,
,,"[""circle"",""red"",""hori"",""left"",[-106,106],[106,-106]]",circle,red,hori,left,"[-106,106]","[106,-106]",left,1,8,0,8,0,1,001,2025-03-10_23h42.02.041,SL_sali,2021.2.3,Win32,60.60606061,1.6598,,,,,,,,,,,,,,,
,,"[""diamond"",""green"",""vert"",""up"",[-106,-106],[0,150]]",diamond,green,vert,up,"[-106,-106]","[0,150]",up,1,9,0,9,0,1,001,2025-03-10_23h42.02.041,SL_sali,2021.2.3,Win32,60.60606061,1.1665,,,,,,,,,,,,,,,
,,"[""diamond"",""no_dis"",""hori"",""left"",[99999,99999],[106,-106]]",diamond,no_dis,hori,left,"[99999,99999]","[106,-106]",left,1,,,,,,001,2025-03-10_23h42.02.041,SL_sali,2021.2.3,Win32,60.60606061,2.2247,space,6.5741,0,0,0,0,1,,,,,,,,
,,"[""circle"",""red"",""vert"",""up"",[106,106],[-106,-106]]",circle,red,vert,up,"[106,106]","[-106,-106]",up,1,,,,,,001,2025-03-10_23h42.02.041,SL_sali,2021.2.3,Win32,60.60606061,2.8355,,,1,0,1,0,1,,,,,,,,
,,"[""diamond"",""no_dis"",""hori"",""left"",[99999,99999],[-150,0]]",diamond,no_dis,hori,left,"[99999,99999]","[-150,0]",left,1,,,,,,001,2025-03-10_23h42.02.041,SL_sali,2021.2.3,Win32,60.60606061,0.9515,,,2,0,2,0,1,,,,,,,,
,,"[""diamond"",""red"",""vert"",""up"",[-106,-106],[0,150]]",diamond,red,vert,up,"[-106,-106]","[0,150]",left,0,,,,,,001,2025-03-10_23h42.02.041,SL_sali,2021.2.3,Win32,60.60606061,2.4154,,,3,0,3,0,1,,,,,,,,
,,"[""circle"",""green"",""hori"",""left"",[-150,0],[0,150]]",circle,green,hori,left,"[-150,0]","[0,150]",up,0,,,,,,001,2025-03-10_23h42.02.041,SL_sali,2021.2.3,Win32,60.60606061,2.2681,,,4,0,4,0,1,,,,,,,,
,,"[""diamond"",""green"",""vert"",""up"",[106,-106],[0,-150]]",diamond,green,vert,up,"[106,-106]","[0,-150]",up,1,,,,,,001,2025-03-10_23h42.02.041,SL_sali,2021.2.3,Win32,60.60606061,1.92,,,5,0,5,0,1,,,,,,,,
,,"[""diamond"",""red"",""hori"",""left"",[150,0],[106,-106]]",diamond,red,hori,left,"[150,0]","[106,-106]",left,1,,,,,,001,2025-03-10_23h42.02.041,SL_sali,2021.2.3,Win32,60.60606061,1.9324,,,6,0,6,0,1,,,,,,,,
,,"[""circle"",""red"",""vert"",""up"",[150,0],[106,106]]",circle,red,vert,up,"[150,0]","[106,106]",up,1,,,,,,001,2025-03-10_23h42.02.041,SL_sali,2021.2.3,Win32,60.60606061,2.5619,,,7,0,7,0,1,,,,,,,,
,,"[""circle"",""red"",""hori"",""left"",[-106,106],[106,-106]]",circle,red,hori,left,"[-106,106]","[106,-106]",left,1,,,,,,001,2025-03-10_23h42.02.041,SL_sali,2021.2.3,Win32,60.60606061,1.3492,,,8,0,8,0,1,,,,,,,,
,,"[""diamond"",""green"",""vert"",""up"",[-106,-106],[0,150]]",diamond,green,vert,up,"[-106,-106]","[0,150]",up,1,,,,,,001,2025-03-10_23h42.02.041,SL_sali,2021.2.3,Win32,60.60606061,1.1836,,,9,0,9,0,1,,,,,,,,
,,"[""diamond"",""green"",""vert"",""up"",[106,-106],[-106,-106]]",diamond,green,vert,up,"[106,-106]","[-106,-106]",left,0,,,,,,001,2025-03-10_23h42.02.041,SL_sali,2021.2.3,Win32,60.60606061,1.2976,,,10,0,10,0,1,,,,,,,,
,,"[""circle"",""green"",""hori"",""left"",[106,106],[0,-150]]",circle,green,hori,left,"[106,106]","[0,-150]",left,1,,,,,,001,2025-03-10_23h42.02.041,SL_sali,2021.2.3,Win32,60.60606061,2.4908,,,11,0,11,0,1,,,,,,,,
,,"[""circle"",""red"",""hori"",""left"",[0,-150],[-150,0]]",circle,red,hori,left,"[0,-150]","[-150,0]",left,1,,,,,,001,2025-03-10_23h42.02.041,SL_sali,2021.2.3,Win32,60.60606061,1.3737,,,12,0,12,0,1,,,,,,,,
,,"[""diamond"",""green"",""hori"",""left"",[150,0],[-106,106]]",diamond,green,hori,left,"[150,0]","[-106,106]",left,1,,,,,,001,2025-03-10_23h42.02.041,SL_sali,2021.2.3,Win32,60.60606061,1.4421,,,13,0,13,0,1,,,,,,,,
,,"[""circle"",""red"",""hori"",""left"",[150,0],[0,-150]]",circle,red,hori,left,"[150,0]","[0,-150]",left,1,,,,,,001,2025-03-10_23h42.02.041,SL_sali,2021.2.3,Win32,60.60606061,2.3202,,,14,0,14,0,1,,,,,,,,
,,"[""circle"",""green"",""hori"",""left"",[-106,-106],[106,-106]]",circle,green,hori,left,"[-106,-106]","[106,-106]",left,1,,,,,,001,2025-03-10_23h42.02.041,SL_sali,2021.2.3,Win32,60.60606061,2.5384,,,15,0,15,0,1,,,,,,,,
,,"[""circle"",""red"",""hori"",""left"",[-150,0],[-106,106]]",circle,red,hori,left,"[-150,0]","[-106,106]",left,1,,,,,,001,2025-03-10_23h42.02.041,SL_sali,2021.2.3,Win32,60.60606061,1.6878,,,16,0,16,0,1,,,,,,,,
,,"[""circle"",""red"",""vert"",""up"",[0,-150],[106,106]]",circle,red,vert,up,"[0,-150]","[106,106]",up,1,,,,,,001,2025-03-10_23h42.02.041,SL_sali,2021.2.3,Win32,60.60606061,1.3541,,,17,0,17,0,1,,,,,,,,
,,"[""circle"",""red"",""hori"",""left"",[-150,0],[150,0]]",circle,red,hori,left,"[-150,0]","[150,0]",left,1,,,,,,001,2025-03-10_23h42.02.041,SL_sali,2021.2.3,Win32,60.60606061,1.7182,,,18,0,18,0,1,,,,,,,,
,,"[""diamond"",""no_dis"",""vert"",""up"",[99999,99999],[0,150]]",diamond,no_dis,vert,up,"[99999,99999]","[0,150]",up,1,,,,,,001,2025-03-10_23h42.02.041,SL_sali,2021.2.3,Win32,60.60606061,1.0489,,,19,0,19,0,1,,,,,,,,
,,"[""circle"",""no_dis"",""hori"",""left"",[99999,99999],[106,106]]",circle,no_dis,hori,left,"[99999,99999]","[106,106]",left,1,,,,,,001,2025-03-10_23h42.02.041,SL_sali,2021.2.3,Win32,60.60606061,2.037,,,20,0,20,0,1,,,,,,,,
,,"[""circle"",""green"",""vert"",""up"",[150,0],[-150,0]]",circle,green,vert,up,"[150,0]","[-150,0]",up,1,,,,,,001,2025-03-10_23h42.02.041,SL_sali,2021.2.3,Win32,60.60606061,1.1741,,,21,0,21,0,1,,,,,,,,
,,"[""diamond"",""green"",""hori"",""left"",[0,150],[-150,0]]",diamond,green,hori,left,"[0,150]","[-150,0]",left,1,,,,,,001,2025-03-10_23h42.02.041,SL_sali,2021.2.3,Win32,60.60606061,1.4653,,,22,0,22,0,1,,,,,,,,
,,"[""diamond"",""green"",""vert"",""up"",[150,0],[-106,-106]]",diamond,green,vert,up,"[150,0]","[-106,-106]",up,1,,,,,,001,2025-03-10_23h42.02.041,SL_sali,2021.2.3,Win32,60.60606061,1.1162,,,23,0,23,0,1,,,,,,,,
,,"[""circle"",""red"",""vert"",""up"",[0,-150],[-106,106]]",circle,red,vert,up,"[0,-150]","[-106,106]",up,1,,,,,,001,2025-03-10_23h42.02.041,SL_sali,2021.2.3,Win32,60.60606061,1.1849,,,24,0,24,0,1,,,,,,,,
,,"[""circle"",""no_dis"",""hori"",""left"",[99999,99999],[0,150]]",circle,no_dis,hori,left,"[99999,99999]","[0,150]",up,0,,,,,,001,2025-03-10_23h42.02.041,SL_sali,2021.2.3,Win32,60.60606061,1.3022,,,25,0,25,0,1,,,,,,,,
,,"[""diamond"",""green"",""hori"",""left"",[0,150],[150,0]]",diamond,green,hori,left,"[0,150]","[150,0]",left,1,,,,,,001,2025-03-10_23h42.02.041,SL_sali,2021.2.3,Win32,60.60606061,2.202,,,26,0,26,0,1,,,,,,,,
,,"[""diamond"",""red"",""vert"",""up"",[106,106],[150,0]]",diamond,red,vert,up,"[106,106]","[150,0]",up,1,,,,,,001,2025-03-10_23h42.02.041,SL_sali,2021.2.3,Win32,60.60606061,2.018,,,27,0,27,0,1,,,,,,,,
,,"[""circle"",""no_dis"",""vert"",""up"",[99999,99999],[106,106]]",circle,no_dis,vert,up,"[99999,99999]","[106,106]",up,1,,,,,,001,2025-03-10_23h42.02.041,SL_sali,2021.2.3,Win32,60.60606061,2.194,,,28,0,28,0,1,,,,,,,,
,,"[""diamond"",""red"",""vert"",""up"",[106,-106],[-106,-106]]",diamond,red,vert,up,"[106,-106]","[-106,-106]",up,1,,,,,,001,2025-03-10_23h42.02.041,SL_sali,2021.2.3,Win32,60.60606061,1.2517,,,29,0,29,0,1,,,,,,,,
,,"[""circle"",""no_dis"",""vert"",""up"",[99999,99999],[-106,106]]",circle,no_dis,vert,up,"[99999,99999]","[-106,106]",up,1,,,,,,001,2025-03-10_23h42.02.041,SL_sali,2021.2.3,Win32,60.60606061,1.6538,,,30,0,30,0,1,,,,,,,,
,,"[""circle"",""green"",""vert"",""up"",[150,0],[-150,0]]",circle,green,vert,up,"[150,0]","[-150,0]",up,1,,,,,,001,2025-03-10_23h42.02.041,SL_sali,2021.2.3,Win32,60.60606061,1.5597,,,31,0,31,0,1,,,,,,,,
,,"[""circle"",""green"",""vert"",""up"",[106,-106],[-106,106]]",circle,green,vert,up,"[106,-106]","[-106,106]",up,1,,,,,,001,2025-03-10_23h42.02.041,SL_sali,2021.2.3,Win32,60.60606061,1.8355,,,32,0,32,0,1,,,,,,,,
,,"[""diamond"",""no_dis"",""vert"",""up"",[99999,99999],[0,-150]]",diamond,no_dis,vert,up,"[99999,99999]","[0,-150]",up,1,,,,,,001,2025-03-10_23h42.02.041,SL_sali,2021.2.3,Win32,60.60606061,1.6993,,,33,0,33,0,1,,,,,,,,
,,"[""diamond"",""no_dis"",""vert"",""up"",[99999,99999],[-106,106]]",diamond,no_dis,vert,up,"[99999,99999]","[-106,106]",up,1,,,,,,001,2025-03-10_23h42.02.041,SL_sali,2021.2.3,Win32,60.60606061,1.7013,,,34,0,34,0,1,,,,,,,,
,,"[""circle"",""green"",""hori"",""left"",[150,0],[-106,-106]]",circle,green,hori,left,"[150,0]","[-106,-106]",left,1,,,,,,001,2025-03-10_23h42.02.041,SL_sali,2021.2.3,Win32,60.60606061,1.6548,,,35,0,35,0,1,,,,,,,,
,,"[""circle"",""red"",""vert"",""up"",[-106,106],[-150,0]]",circle,red,vert,up,"[-106,106]","[-150,0]",up,1,,,,,,001,2025-03-10_23h42.02.041,SL_sali,2021.2.3,Win32,60.60606061,2.0878,,,36,0,36,0,1,,,,,,,,
,,"[""circle"",""red"",""vert"",""up"",[-106,106],[106,-106]]",circle,red,vert,up,"[-106,106]","[106,-106]",up,1,,,,,,001,2025-03-10_23h42.02.041,SL_sali,2021.2.3,Win32,60.60606061,2.0737,,,37,0,37,0,1,,,,,,,,
,,"[""diamond"",""no_dis"",""hori"",""left"",[99999,99999],[0,150]]",diamond,no_dis,hori,left,"[99999,99999]","[0,150]",left,1,,,,,,001,2025-03-10_23h42.02.041,SL_sali,2021.2.3,Win32,60.60606061,2.016,,,38,0,38,0,1,,,,,,,,
,,"[""circle"",""no_dis"",""vert"",""up"",[99999,99999],[106,-106]]",circle,no_dis,vert,up,"[99999,99999]","[106,-106]",up,1,,,,,,001,2025-03-10_23h42.02.041,SL_sali,2021.2.3,Win32,60.60606061,1.3027,,,39,0,39,0,1,,,,,,,,
,,"[""diamond"",""red"",""vert"",""up"",[150,0],[0,-150]]",diamond,red,vert,up,"[150,0]","[0,-150]",up,1,,,,,,001,2025-03-10_23h42.02.041,SL_sali,2021.2.3,Win32,60.60606061,1.3001,,,40,0,40,0,1,,,,,,,,
,,"[""circle"",""red"",""hori"",""left"",[0,150],[150,0]]",circle,red,hori,left,"[0,150]","[150,0]",left,1,,,,,,001,2025-03-10_23h42.02.041,SL_sali,2021.2.3,Win32,60.60606061,1.2342,,,41,0,41,0,1,,,,,,,,
,,"[""diamond"",""green"",""hori"",""left"",[-106,106],[0,150]]",diamond,green,hori,left,"[-106,106]","[0,150]",up,0,,,,,,001,2025-03-10_23h42.02.041,SL_sali,2021.2.3,Win32,60.60606061,1.0191,,,42,0,42,0,1,,,,,,,,
,,"[""diamond"",""red"",""hori"",""left"",[150,0],[0,150]]",diamond,red,hori,left,"[150,0]","[0,150]",up,0,,,,,,001,2025-03-10_23h42.02.041,SL_sali,2021.2.3,Win32,60.60606061,1.552,,,43,0,43,0,1,,,,,,,,
,,"[""circle"",""green"",""hori"",""left"",[106,106],[0,150]]",circle,green,hori,left,"[106,106]","[0,150]",,0,,,,,,001,2025-03-10_23h42.02.041,SL_sali,2021.2.3,Win32,60.60606061,,,,44,0,44,0,1,,,,,,,,
,,"[""diamond"",""green"",""vert"",""up"",[0,-150],[-106,106]]",diamond,green,vert,up,"[0,-150]","[-106,106]",up,1,,,,,,001,2025-03-10_23h42.02.041,SL_sali,2021.2.3,Win32,60.60606061,1.0834,,,45,0,45,0,1,,,,,,,,
,,"[""diamond"",""red"",""hori"",""left"",[106,106],[-150,0]]",diamond,red,hori,left,"[106,106]","[-150,0]",left,1,,,,,,001,2025-03-10_23h42.02.041,SL_sali,2021.2.3,Win32,60.60606061,1.2967,,,46,0,46,0,1,,,,,,,,
,,"[""diamond"",""red"",""hori"",""left"",[150,0],[-106,-106]]",diamond,red,hori,left,"[150,0]","[-106,-106]",up,0,,,,,,001,2025-03-10_23h42.02.041,SL_sali,2021.2.3,Win32,60.60606061,1.03,,,47,0,47,0,1,,,,,,,,
,,"[""diamond"",""red"",""hori"",""left"",[150,0],[-150,0]]",diamond,red,hori,left,"[150,0]","[-150,0]",left,1,,,,,,001,2025-03-10_23h42.02.041,SL_sali,2021.2.3,Win32,60.60606061,1.8927,,,48,0,48,0,1,,,,,,,,
,,"[""circle"",""green"",""vert"",""up"",[150,0],[-106,-106]]",circle,green,vert,up,"[150,0]","[-106,-106]",up,1,,,,,,001,2025-03-10_23h42.02.041,SL_sali,2021.2.3,Win32,60.60606061,1.0516,,,49,0,49,0,1,,,,,,,,
,,"[""circle"",""no_dis"",""hori"",""left"",[99999,99999],[-150,0]]",circle,no_dis,hori,left,"[99999,99999]","[-150,0]",left,1,,,,,,001,2025-03-10_23h42.02.041,SL_sali,2021.2.3,Win32,60.60606061,1.4327,,,50,0,50,0,1,,,,,,,,
,,"[""diamond"",""green"",""hori"",""left"",[-106,-106],[-150,0]]",diamond,green,hori,left,"[-106,-106]","[-150,0]",left,1,,,,,,001,2025-03-10_23h42.02.041,SL_sali,2021.2.3,Win32,60.60606061,1.1002,,,51,0,51,0,1,,,,,,,,
,,"[""circle"",""green"",""hori"",""left"",[-106,106],[0,150]]",circle,green,hori,left,"[-106,106]","[0,150]",left,1,,,,,,001,2025-03-10_23h42.02.041,SL_sali,2021.2.3,Win32,60.60606061,1.1219,,,52,0,52,0,1,,,,,,,,
,,"[""diamond"",""no_dis"",""hori"",""left"",[99999,99999],[0,150]]",diamond,no_dis,hori,left,"[99999,99999]","[0,150]",left,1,,,,,,001,2025-03-10_23h42.02.041,SL_sali,2021.2.3,Win32,60.60606061,1.9701,,,53,0,53,0,1,,,,,,,,
,,"[""circle"",""no_dis"",""hori"",""left"",[99999,99999],[-106,-106]]",circle,no_dis,hori,left,"[99999,99999]","[-106,-106]",left,1,,,,,,001,2025-03-10_23h42.02.041,SL_sali,2021.2.3,Win32,60.60606061,1.1871,,,54,0,54,0,1,,,,,,,,
,,"[""circle"",""green"",""vert"",""up"",[106,106],[-106,-106]]",circle,green,vert,up,"[106,106]","[-106,-106]",up,1,,,,,,001,2025-03-10_23h42.02.041,SL_sali,2021.2.3,Win32,60.60606061,1.1535,,,55,0,55,0,1,,,,,,,,
,,"[""diamond"",""green"",""hori"",""left"",[150,0],[-106,-106]]",diamond,green,hori,left,"[150,0]","[-106,-106]",left,1,,,,,,001,2025-03-10_23h42.02.041,SL_sali,2021.2.3,Win32,60.60606061,2.1331,,,56,0,56,0,1,,,,,,,,
,,"[""diamond"",""red"",""hori"",""left"",[-106,106],[-106,-106]]",diamond,red,hori,left,"[-106,106]","[-106,-106]",left,1,,,,,,001,2025-03-10_23h42.02.041,SL_sali,2021.2.3,Win32,60.60606061,1.8374,,,57,0,57,0,1,,,,,,,,
,,"[""circle"",""green"",""vert"",""up"",[0,-150],[0,150]]",circle,green,vert,up,"[0,-150]","[0,150]",up,1,,,,,,001,2025-03-10_23h42.02.041,SL_sali,2021.2.3,Win32,60.60606061,1.2991,,,58,0,58,0,1,,,,,,,,
,,"[""diamond"",""green"",""hori"",""left"",[0,150],[-106,106]]",diamond,green,hori,left,"[0,150]","[-106,106]",left,1,,,,,,001,2025-03-10_23h42.02.041,SL_sali,2021.2.3,Win32,60.60606061,1.0023,,,59,0,59,0,1,,,,,,,,
,,"[""circle"",""no_dis"",""vert"",""up"",[99999,99999],[-106,106]]",circle,no_dis,vert,up,"[99999,99999]","[-106,106]",,0,,,,,,001,2025-03-10_23h42.02.041,SL_sali,2021.2.3,Win32,60.60606061,,,,60,0,60,0,1,,,,,,,,
,,"[""circle"",""no_dis"",""hori"",""left"",[99999,99999],[150,0]]",circle,no_dis,hori,left,"[99999,99999]","[150,0]",left,1,,,,,,001,2025-03-10_23h42.02.041,SL_sali,2021.2.3,Win32,60.60606061,1.0837,,,61,0,61,0,1,,,,,,,,
,,"[""circle"",""red"",""hori"",""left"",[0,-150],[0,150]]",circle,red,hori,left,"[0,-150]","[0,150]",left,1,,,,,,001,2025-03-10_23h42.02.041,SL_sali,2021.2.3,Win32,60.60606061,1.9348,,,62,0,62,0,1,,,,,,,,
,,"[""diamond"",""no_dis"",""hori"",""left"",[99999,99999],[-150,0]]",diamond,no_dis,hori,left,"[99999,99999]","[-150,0]",left,1,,,,,,001,2025-03-10_23h42.02.041,SL_sali,2021.2.3,Win32,60.60606061,1.5055,,,63,0,63,0,1,,,,,,,,
,,"[""diamond"",""no_dis"",""vert"",""up"",[99999,99999],[106,106]]",diamond,no_dis,vert,up,"[99999,99999]","[106,106]",up,1,,,,,,001,2025-03-10_23h42.02.041,SL_sali,2021.2.3,Win32,60.60606061,1.1335,,,64,0,64,0,1,,,,,,,,
,,"[""diamond"",""red"",""vert"",""up"",[150,0],[0,-150]]",diamond,red,vert,up,"[150,0]","[0,-150]",up,1,,,,,,001,2025-03-10_23h42.02.041,SL_sali,2021.2.3,Win32,60.60606061,1.4998,,,65,0,65,0,1,,,,,,,,
,,"[""circle"",""no_dis"",""hori"",""left"",[99999,99999],[-106,-106]]",circle,no_dis,hori,left,"[99999,99999]","[-106,-106]",left,1,,,,,,001,2025-03-10_23h42.02.041,SL_sali,2021.2.3,Win32,60.60606061,2.152,,,66,0,66,0,1,,,,,,,,
,,"[""diamond"",""green"",""vert"",""up"",[-106,-106],[106,106]]",diamond,green,vert,up,"[-106,-106]","[106,106]",up,1,,,,,,001,2025-03-10_23h42.02.041,SL_sali,2021.2.3,Win32,60.60606061,1.5845,,,67,0,67,0,1,,,,,,,,
,,"[""circle"",""no_dis"",""vert"",""up"",[99999,99999],[106,-106]]",circle,no_dis,vert,up,"[99999,99999]","[106,-106]",up,1,,,,,,001,2025-03-10_23h42.02.041,SL_sali,2021.2.3,Win32,60.60606061,2.0689,,,68,0,68,0,1,,,,,,,,
,,"[""circle"",""no_dis"",""hori"",""left"",[99999,99999],[-106,-106]]",circle,no_dis,hori,left,"[99999,99999]","[-106,-106]",left,1,,,,,,001,2025-03-10_23h42.02.041,SL_sali,2021.2.3,Win32,60.60606061,1.4344,,,69,0,69,0,1,,,,,,,,
,,"[""diamond"",""no_dis"",""hori"",""left"",[99999,99999],[150,0]]",diamond,no_dis,hori,left,"[99999,99999]","[150,0]",left,1,,,,,,001,2025-03-10_23h42.02.041,SL_sali,2021.2.3,Win32,60.60606061,1.4318,,,70,0,70,0,1,,,,,,,,
,,"[""diamond"",""green"",""hori"",""left"",[-106,-106],[106,106]]",diamond,green,hori,left,"[-106,-106]","[106,106]",left,1,,,,,,001,2025-03-10_23h42.02.041,SL_sali,2021.2.3,Win32,60.60606061,1.3171,,,71,0,71,0,1,,,,,,,,
,,"[""diamond"",""no_dis"",""hori"",""left"",[99999,99999],[0,150]]",diamond,no_dis,hori,left,"[99999,99999]","[0,150]",left,1,,,,,,001,2025-03-10_23h42.02.041,SL_sali,2021.2.3,Win32,60.60606061,1.2992,,,72,0,72,0,1,,,,,,,,
,,"[""diamond"",""green"",""hori"",""left"",[150,0],[106,106]]",diamond,green,hori,left,"[150,0]","[106,106]",left,1,,,,,,001,2025-03-10_23h42.02.041,SL_sali,2021.2.3,Win32,60.60606061,1.3338,,,73,0,73,0,1,,,,,,,,
,,"[""circle"",""green"",""vert"",""up"",[150,0],[106,106]]",circle,green,vert,up,"[150,0]","[106,106]",up,1,,,,,,001,2025-03-10_23h42.02.041,SL_sali,2021.2.3,Win32,60.60606061,1.7837,,,74,0,74,0,1,,,,,,,,
,,"[""diamond"",""green"",""hori"",""left"",[106,-106],[-106,-106]]",diamond,green,hori,left,"[106,-106]","[-106,-106]",left,1,,,,,,001,2025-03-10_23h42.02.041,SL_sali,2021.2.3,Win32,60.60606061,1.0682,,,75,0,75,0,1,,,,,,,,
,,"[""diamond"",""red"",""vert"",""up"",[150,0],[0,150]]",diamond,red,vert,up,"[150,0]","[0,150]",up,1,,,,,,001,2025-03-10_23h42.02.041,SL_sali,2021.2.3,Win32,60.60606061,1.25,,,76,0,76,0,1,,,,,,,,
,,"[""diamond"",""no_dis"",""vert"",""up"",[99999,99999],[150,0]]",diamond,no_dis,vert,up,"[99999,99999]","[150,0]",up,1,,,,,,001,2025-03-10_23h42.02.041,SL_sali,2021.2.3,Win32,60.60606061,1.4169,,,77,0,77,0,1,,,,,,,,
,,"[""diamond"",""red"",""vert"",""up"",[-106,-106],[0,150]]",diamond,red,vert,up,"[-106,-106]","[0,150]",up,1,,,,,,001,2025-03-10_23h42.02.041,SL_sali,2021.2.3,Win32,60.60606061,1.0159,,,78,0,78,0,1,,,,,,,,
,,"[""diamond"",""red"",""hori"",""left"",[106,-106],[106,106]]",diamond,red,hori,left,"[106,-106]","[106,106]",left,1,,,,,,001,2025-03-10_23h42.02.041,SL_sali,2021.2.3,Win32,60.60606061,1.2495,,,79,0,79,0,1,,,,,,,,
,,"[""diamond"",""red"",""hori"",""left"",[106,106],[0,-150]]",diamond,red,hori,left,"[106,106]","[0,-150]",left,1,,,,,,001,2025-03-10_23h42.02.041,SL_sali,2021.2.3,Win32,60.60606061,1.2496,,,80,0,80,0,1,,,,,,,,
,,"[""circle"",""green"",""vert"",""up"",[150,0],[0,-150]]",circle,green,vert,up,"[150,0]","[0,-150]",up,1,,,,,,001,2025-03-10_23h42.02.041,SL_sali,2021.2.3,Win32,60.60606061,1.5673,,,81,0,81,0,1,,,,,,,,
,,"[""diamond"",""no_dis"",""hori"",""left"",[99999,99999],[0,-150]]",diamond,no_dis,hori,left,"[99999,99999]","[0,-150]",left,1,,,,,,001,2025-03-10_23h42.02.041,SL_sali,2021.2.3,Win32,60.60606061,1.277,,,82,0,82,0,1,,,,,,,,
,,"[""circle"",""green"",""vert"",""up"",[0,-150],[-150,0]]",circle,green,vert,up,"[0,-150]","[-150,0]",up,1,,,,,,001,2025-03-10_23h42.02.041,SL_sali,2021.2.3,Win32,60.60606061,1.6544,,,83,0,83,0,1,,,,,,,,
,,"[""circle"",""no_dis"",""vert"",""up"",[99999,99999],[0,-150]]",circle,no_dis,vert,up,"[99999,99999]","[0,-150]",left,0,,,,,,001,2025-03-10_23h42.02.041,SL_sali,2021.2.3,Win32,60.60606061,1.3351,,,84,0,84,0,1,,,,,,,,
,,"[""circle"",""red"",""vert"",""up"",[106,106],[-106,-106]]",circle,red,vert,up,"[106,106]","[-106,-106]",up,1,,,,,,001,2025-03-10_23h42.02.041,SL_sali,2021.2.3,Win32,60.60606061,1.0834,,,85,0,85,0,1,,,,,,,,
,,"[""diamond"",""red"",""vert"",""up"",[0,150],[-106,106]]",diamond,red,vert,up,"[0,150]","[-106,106]",up,1,,,,,,001,2025-03-10_23h42.02.041,SL_sali,2021.2.3,Win32,60.60606061,1.4554,,,86,0,86,0,1,,,,,,,,
,,"[""diamond"",""green"",""vert"",""up"",[-150,0],[-106,106]]",diamond,green,vert,up,"[-150,0]","[-106,106]",up,1,,,,,,001,2025-03-10_23h42.02.041,SL_sali,2021.2.3,Win32,60.60606061,1.6677,,,87,0,87,0,1,,,,,,,,
,,"[""diamond"",""no_dis"",""vert"",""up"",[99999,99999],[0,-150]]",diamond,no_dis,vert,up,"[99999,99999]","[0,-150]",up,1,,,,,,001,2025-03-10_23h42.02.041,SL_sali,2021.2.3,Win32,60.60606061,1.5843,,,88,0,88,0,1,,,,,,,,
,,"[""circle"",""green"",""hori"",""left"",[-150,0],[150,0]]",circle,green,hori,left,"[-150,0]","[150,0]",left,1,,,,,,001,2025-03-10_23h42.02.041,SL_sali,2021.2.3,Win32,60.60606061,1.4151,,,89,0,89,0,1,,,,,,,,
,,"[""diamond"",""no_dis"",""vert"",""up"",[99999,99999],[-150,0]]",diamond,no_dis,vert,up,"[99999,99999]","[-150,0]",up,1,,,,,,001,2025-03-10_23h42.02.041,SL_sali,2021.2.3,Win32,60.60606061,1.8734,,,90,0,90,0,1,,,,,,,,
,,"[""circle"",""red"",""vert"",""up"",[-106,-106],[-150,0]]",circle,red,vert,up,"[-106,-106]","[-150,0]",left,0,,,,,,001,2025-03-10_23h42.02.041,SL_sali,2021.2.3,Win32,60.60606061,2.9143,,,91,0,91,0,1,,,,,,,,
,,"[""diamond"",""no_dis"",""vert"",""up"",[99999,99999],[150,0]]",diamond,no_dis,vert,up,"[99999,99999]","[150,0]",up,1,,,,,,001,2025-03-10_23h42.02.041,SL_sali,2021.2.3,Win32,60.60606061,1.5914,,,92,0,92,0,1,,,,,,,,
,,"[""circle"",""no_dis"",""hori"",""left"",[99999,99999],[-106,106]]",circle,no_dis,hori,left,"[99999,99999]","[-106,106]",left,1,,,,,,001,2025-03-10_23h42.02.041,SL_sali,2021.2.3,Win32,60.60606061,1.5562,,,93,0,93,0,1,,,,,,,,
,,"[""circle"",""no_dis"",""vert"",""up"",[99999,99999],[-106,-106]]",circle,no_dis,vert,up,"[99999,99999]","[-106,-106]",up,1,,,,,,001,2025-03-10_23h42.02.041,SL_sali,2021.2.3,Win32,60.60606061,1.8302,,,94,0,94,0,1,,,,,,,,
,,"[""circle"",""no_dis"",""hori"",""left"",[99999,99999],[0,-150]]",circle,no_dis,hori,left,"[99999,99999]","[0,-150]",left,1,,,,,,001,2025-03-10_23h42.02.041,SL_sali,2021.2.3,Win32,60.60606061,1.4536,,,95,0,95,0,1,,,,,,,,
,,"[""circle"",""no_dis"",""vert"",""up"",[99999,99999],[-106,-106]]",circle,no_dis,vert,up,"[99999,99999]","[-106,-106]",up,1,,,,,,001,2025-03-10_23h42.02.041,SL_sali,2021.2.3,Win32,60.60606061,1.968,,,96,0,96,0,1,,,,,,,,
,,"[""circle"",""green"",""hori"",""left"",[150,0],[-150,0]]",circle,green,hori,left,"[150,0]","[-150,0]",left,1,,,,,,001,2025-03-10_23h42.02.041,SL_sali,2021.2.3,Win32,60.60606061,1.6663,,,97,0,97,0,1,,,,,,,,
,,"[""diamond"",""no_dis"",""vert"",""up"",[99999,99999],[-150,0]]",diamond,no_dis,vert,up,"[99999,99999]","[-150,0]",up,1,,,,,,001,2025-03-10_23h42.02.041,SL_sali,2021.2.3,Win32,60.60606061,1.0642,,,98,0,98,0,1,,,,,,,,
,,"[""diamond"",""no_dis"",""hori"",""left"",[99999,99999],[150,0]]",diamond,no_dis,hori,left,"[99999,99999]","[150,0]",left,1,,,,,,001,2025-03-10_23h42.02.041,SL_sali,2021.2.3,Win32,60.60606061,1.5333,,,99,0,99,0,1,,,,,,,,
,,"[""circle"",""no_dis"",""vert"",""up"",[99999,99999],[106,-106]]",circle,no_dis,vert,up,"[99999,99999]","[106,-106]",up,1,,,,,,001,2025-03-10_23h42.02.041,SL_sali,2021.2.3,Win32,60.60606061,1.2752,,,100,0,100,0,1,,,,,,,,
,,"[""diamond"",""no_dis"",""hori"",""left"",[99999,99999],[-106,106]]",diamond,no_dis,hori,left,"[99999,99999]","[-106,106]",left,1,,,,,,001,2025-03-10_23h42.02.041,SL_sali,2021.2.3,Win32,60.60606061,1.3009,,,101,0,101,0,1,,,,,,,,
,,"[""diamond"",""red"",""vert"",""up"",[-106,106],[-150,0]]",diamond,red,vert,up,"[-106,106]","[-150,0]",up,1,,,,,,001,2025-03-10_23h42.02.041,SL_sali,2021.2.3,Win32,60.60606061,1.501,,,102,0,102,0,1,,,,,,,,
,,"[""circle"",""no_dis"",""hori"",""left"",[99999,99999],[106,106]]",circle,no_dis,hori,left,"[99999,99999]","[106,106]",left,1,,,,,,001,2025-03-10_23h42.02.041,SL_sali,2021.2.3,Win32,60.60606061,1.9157,,,103,0,103,0,1,,,,,,,,
,,"[""circle"",""red"",""vert"",""up"",[150,0],[106,-106]]",circle,red,vert,up,"[150,0]","[106,-106]",up,1,,,,,,001,2025-03-10_23h42.02.041,SL_sali,2021.2.3,Win32,60.60606061,1.7675,,,104,0,104,0,1,,,,,,,,
,,"[""circle"",""green"",""hori"",""left"",[-150,0],[106,106]]",circle,green,hori,left,"[-150,0]","[106,106]",up,0,,,,,,001,2025-03-10_23h42.02.041,SL_sali,2021.2.3,Win32,60.60606061,1.2178,,,105,0,105,0,1,,,,,,,,
,,"[""circle"",""green"",""hori"",""left"",[150,0],[-106,-106]]",circle,green,hori,left,"[150,0]","[-106,-106]",left,1,,,,,,001,2025-03-10_23h42.02.041,SL_sali,2021.2.3,Win32,60.60606061,1.5213,,,106,0,106,0,1,,,,,,,,
,,"[""diamond"",""red"",""hori"",""left"",[0,150],[-106,-106]]",diamond,red,hori,left,"[0,150]","[-106,-106]",left,1,,,,,,001,2025-03-10_23h42.02.041,SL_sali,2021.2.3,Win32,60.60606061,1.3332,,,107,0,107,0,1,,,,,,,,
,,"[""diamond"",""red"",""hori"",""left"",[-106,106],[106,106]]",diamond,red,hori,left,"[-106,106]","[106,106]",left,1,,,,,,001,2025-03-10_23h42.02.041,SL_sali,2021.2.3,Win32,60.60606061,1.3498,,,108,0,108,0,1,,,,,,,,
,,"[""diamond"",""green"",""vert"",""up"",[106,-106],[150,0]]",diamond,green,vert,up,"[106,-106]","[150,0]",up,1,,,,,,001,2025-03-10_23h42.02.041,SL_sali,2021.2.3,Win32,60.60606061,1.2332,,,109,0,109,0,1,,,,,,,,
,,"[""diamond"",""green"",""vert"",""up"",[150,0],[0,150]]",diamond,green,vert,up,"[150,0]","[0,150]",up,1,,,,,,001,2025-03-10_23h42.02.041,SL_sali,2021.2.3,Win32,60.60606061,0.9337,,,110,0,110,0,1,,,,,,,,
,,"[""circle"",""no_dis"",""vert"",""up"",[99999,99999],[106,-106]]",circle,no_dis,vert,up,"[99999,99999]","[106,-106]",up,1,,,,,,001,2025-03-10_23h42.02.041,SL_sali,2021.2.3,Win32,60.60606061,2.1878,,,111,0,111,0,1,,,,,,,,
,,"[""circle"",""red"",""vert"",""up"",[0,150],[106,106]]",circle,red,vert,up,"[0,150]","[106,106]",up,1,,,,,,001,2025-03-10_23h42.02.041,SL_sali,2021.2.3,Win32,60.60606061,1.9656,,,112,0,112,0,1,,,,,,,,
,,"[""circle"",""green"",""vert"",""up"",[150,0],[106,106]]",circle,green,vert,up,"[150,0]","[106,106]",up,1,,,,,,001,2025-03-10_23h42.02.041,SL_sali,2021.2.3,Win32,60.60606061,1.4751,,,113,0,113,0,1,,,,,,,,
,,"[""diamond"",""red"",""vert"",""up"",[-150,0],[0,150]]",diamond,red,vert,up,"[-150,0]","[0,150]",up,1,,,,,,001,2025-03-10_23h42.02.041,SL_sali,2021.2.3,Win32,60.60606061,1.218,,,114,0,114,0,1,,,,,,,,
,,"[""diamond"",""no_dis"",""vert"",""up"",[99999,99999],[106,106]]",diamond,no_dis,vert,up,"[99999,99999]","[106,106]",left,0,,,,,,001,2025-03-10_23h42.02.041,SL_sali,2021.2.3,Win32,60.60606061,1.3014,,,115,0,115,0,1,,,,,,,,
,,"[""circle"",""red"",""hori"",""left"",[0,150],[106,-106]]",circle,red,hori,left,"[0,150]","[106,-106]",left,1,,,,,,001,2025-03-10_23h42.02.041,SL_sali,2021.2.3,Win32,60.60606061,1.2673,,,116,0,116,0,1,,,,,,,,
,,"[""circle"",""red"",""hori"",""left"",[106,-106],[-150,0]]",circle,red,hori,left,"[106,-106]","[-150,0]",left,1,,,,,,001,2025-03-10_23h42.02.041,SL_sali,2021.2.3,Win32,60.60606061,1.8684,,,117,0,117,0,1,,,,,,,,
,,"[""circle"",""red"",""hori"",""left"",[-150,0],[-106,-106]]",circle,red,hori,left,"[-150,0]","[-106,-106]",left,1,,,,,,001,2025-03-10_23h42.02.041,SL_sali,2021.2.3,Win32,60.60606061,1.4892,,,118,0,118,0,1,,,,,,,,
,,"[""diamond"",""green"",""vert"",""up"",[0,-150],[106,-106]]",diamond,green,vert,up,"[0,-150]","[106,-106]",up,1,,,,,,001,2025-03-10_23h42.02.041,SL_sali,2021.2.3,Win32,60.60606061,1.5169,,,119,0,119,0,1,,,,,,,,
,,,,,,,,,,,,,,,,001,2025-03-10_23h42.02.041,SL_sali,2021.2.3,Win32,60.60606061,,,,,,,,,1,space,41.9717,0,0,0,0,1
,,"[""circle"",""no_dis"",""vert"",""up"",[99999,99999],[106,-106]]",circle,no_dis,vert,up,"[99999,99999]","[106,-106]",up,1,,,,,,001,2025-03-10_23h42.02.041,SL_sali,2021.2.3,Win32,60.60606061,1.1495,,,0,0,0,0,1,,,,,,,,
,,"[""diamond"",""red"",""hori"",""left"",[150,0],[-150,0]]",diamond,red,hori,left,"[150,0]","[-150,0]",left,1,,,,,,001,2025-03-10_23h42.02.041,SL_sali,2021.2.3,Win32,60.60606061,1.1504,,,1,0,1,0,1,,,,,,,,
,,"[""circle"",""green"",""hori"",""left"",[-106,106],[0,150]]",circle,green,hori,left,"[-106,106]","[0,150]",left,1,,,,,,001,2025-03-10_23h42.02.041,SL_sali,2021.2.3,Win32,60.60606061,1.2837,,,2,0,2,0,1,,,,,,,,
,,"[""diamond"",""red"",""vert"",""up"",[-150,0],[0,150]]",diamond,red,vert,up,"[-150,0]","[0,150]",up,1,,,,,,001,2025-03-10_23h42.02.041,SL_sali,2021.2.3,Win32,60.60606061,0.9942,,,3,0,3,0,1,,,,,,,,
,,"[""circle"",""green"",""hori"",""left"",[106,106],[0,150]]",circle,green,hori,left,"[106,106]","[0,150]",up,0,,,,,,001,2025-03-10_23h42.02.041,SL_sali,2021.2.3,Win32,60.60606061,1.0706,,,4,0,4,0,1,,,,,,,,
,,"[""diamond"",""green"",""vert"",""up"",[-150,0],[-106,106]]",diamond,green,vert,up,"[-150,0]","[-106,106]",left,0,,,,,,001,2025-03-10_23h42.02.041,SL_sali,2021.2.3,Win32,60.60606061,1.9664,,,5,0,5,0,1,,,,,,,,
,,"[""circle"",""no_dis"",""hori"",""left"",[99999,99999],[-106,-106]]",circle,no_dis,hori,left,"[99999,99999]","[-106,-106]",left,1,,,,,,001,2025-03-10_23h42.02.041,SL_sali,2021.2.3,Win32,60.60606061,1.8486,,,6,0,6,0,1,,,,,,,,
,,"[""circle"",""green"",""hori"",""left"",[150,0],[-106,-106]]",circle,green,hori,left,"[150,0]","[-106,-106]",left,1,,,,,,001,2025-03-10_23h42.02.041,SL_sali,2021.2.3,Win32,60.60606061,2.1162,,,7,0,7,0,1,,,,,,,,
,,"[""diamond"",""red"",""hori"",""left"",[-106,106],[-106,-106]]",diamond,red,hori,left,"[-106,106]","[-106,-106]",left,1,,,,,,001,2025-03-10_23h42.02.041,SL_sali,2021.2.3,Win32,60.60606061,1.5842,,,8,0,8,0,1,,,,,,,,
,,"[""circle"",""no_dis"",""vert"",""up"",[99999,99999],[106,-106]]",circle,no_dis,vert,up,"[99999,99999]","[106,-106]",left,0,,,,,,001,2025-03-10_23h42.02.041,SL_sali,2021.2.3,Win32,60.60606061,1.1417,,,9,0,9,0,1,,,,,,,,
,,"[""diamond"",""green"",""vert"",""up"",[106,-106],[-106,-106]]",diamond,green,vert,up,"[106,-106]","[-106,-106]",up,1,,,,,,001,2025-03-10_23h42.02.041,SL_sali,2021.2.3,Win32,60.60606061,1.0166,,,10,0,10,0,1,,,,,,,,
,,"[""circle"",""red"",""vert"",""up"",[150,0],[106,106]]",circle,red,vert,up,"[150,0]","[106,106]",up,1,,,,,,001,2025-03-10_23h42.02.041,SL_sali,2021.2.3,Win32,60.60606061,1.5363,,,11,0,11,0,1,,,,,,,,
,,"[""diamond"",""red"",""vert"",""up"",[-106,-106],[0,150]]",diamond,red,vert,up,"[-106,-106]","[0,150]",up,1,,,,,,001,2025-03-10_23h42.02.041,SL_sali,2021.2.3,Win32,60.60606061,1.1506,,,12,0,12,0,1,,,,,,,,
,,"[""diamond"",""green"",""vert"",""up"",[106,-106],[150,0]]",diamond,green,vert,up,"[106,-106]","[150,0]",up,1,,,,,,001,2025-03-10_23h42.02.041,SL_sali,2021.2.3,Win32,60.60606061,1.7342,,,13,0,13,0,1,,,,,,,,
,,"[""circle"",""no_dis"",""hori"",""left"",[99999,99999],[-106,106]]",circle,no_dis,hori,left,"[99999,99999]","[-106,106]",left,1,,,,,,001,2025-03-10_23h42.02.041,SL_sali,2021.2.3,Win32,60.60606061,1.4577,,,14,0,14,0,1,,,,,,,,
,,"[""circle"",""green"",""hori"",""left"",[-150,0],[0,150]]",circle,green,hori,left,"[-150,0]","[0,150]",left,1,,,,,,001,2025-03-10_23h42.02.041,SL_sali,2021.2.3,Win32,60.60606061,1.0985,,,15,0,15,0,1,,,,,,,,
,,"[""diamond"",""no_dis"",""vert"",""up"",[99999,99999],[-150,0]]",diamond,no_dis,vert,up,"[99999,99999]","[-150,0]",up,1,,,,,,001,2025-03-10_23h42.02.041,SL_sali,2021.2.3,Win32,60.60606061,0.9692,,,16,0,16,0,1,,,,,,,,
,,"[""circle"",""green"",""vert"",""up"",[106,-106],[-106,106]]",circle,green,vert,up,"[106,-106]","[-106,106]",up,1,,,,,,001,2025-03-10_23h42.02.041,SL_sali,2021.2.3,Win32,60.60606061,1.3688,,,17,0,17,0,1,,,,,,,,
,,"[""diamond"",""no_dis"",""hori"",""left"",[99999,99999],[0,150]]",diamond,no_dis,hori,left,"[99999,99999]","[0,150]",left,1,,,,,,001,2025-03-10_23h42.02.041,SL_sali,2021.2.3,Win32,60.60606061,1.6398,,,18,0,18,0,1,,,,,,,,
,,"[""diamond"",""green"",""vert"",""up"",[-106,-106],[106,106]]",diamond,green,vert,up,"[-106,-106]","[106,106]",up,1,,,,,,001,2025-03-10_23h42.02.041,SL_sali,2021.2.3,Win32,60.60606061,1.0181,,,19,0,19,0,1,,,,,,,,
,,"[""circle"",""green"",""hori"",""left"",[150,0],[-106,-106]]",circle,green,hori,left,"[150,0]","[-106,-106]",left,1,,,,,,001,2025-03-10_23h42.02.041,SL_sali,2021.2.3,Win32,60.60606061,1.1251,,,20,0,20,0,1,,,,,,,,
,,"[""diamond"",""red"",""hori"",""left"",[-106,106],[106,106]]",diamond,red,hori,left,"[-106,106]","[106,106]",left,1,,,,,,001,2025-03-10_23h42.02.041,SL_sali,2021.2.3,Win32,60.60606061,1.0739,,,21,0,21,0,1,,,,,,,,
,,"[""circle"",""red"",""hori"",""left"",[106,-106],[-150,0]]",circle,red,hori,left,"[106,-106]","[-150,0]",left,1,,,,,,001,2025-03-10_23h42.02.041,SL_sali,2021.2.3,Win32,60.60606061,1.4846,,,22,0,22,0,1,,,,,,,,
,,"[""diamond"",""no_dis"",""hori"",""left"",[99999,99999],[-150,0]]",diamond,no_dis,hori,left,"[99999,99999]","[-150,0]",left,1,,,,,,001,2025-03-10_23h42.02.041,SL_sali,2021.2.3,Win32,60.60606061,1.5919,,,23,0,23,0,1,,,,,,,,
,,"[""circle"",""no_dis"",""hori"",""left"",[99999,99999],[-150,0]]",circle,no_dis,hori,left,"[99999,99999]","[-150,0]",left,1,,,,,,001,2025-03-10_23h42.02.041,SL_sali,2021.2.3,Win32,60.60606061,1.2235,,,24,0,24,0,1,,,,,,,,
,,"[""circle"",""no_dis"",""hori"",""left"",[99999,99999],[-106,-106]]",circle,no_dis,hori,left,"[99999,99999]","[-106,-106]",left,1,,,,,,001,2025-03-10_23h42.02.041,SL_sali,2021.2.3,Win32,60.60606061,1.8029,,,25,0,25,0,1,,,,,,,,
,,"[""diamond"",""no_dis"",""hori"",""left"",[99999,99999],[0,-150]]",diamond,no_dis,hori,left,"[99999,99999]","[0,-150]",left,1,,,,,,001,2025-03-10_23h42.02.041,SL_sali,2021.2.3,Win32,60.60606061,2.0676,,,26,0,26,0,1,,,,,,,,
,,"[""circle"",""red"",""hori"",""left"",[-150,0],[-106,106]]",circle,red,hori,left,"[-150,0]","[-106,106]",left,1,,,,,,001,2025-03-10_23h42.02.041,SL_sali,2021.2.3,Win32,60.60606061,1.9514,,,27,0,27,0,1,,,,,,,,
,,"[""diamond"",""red"",""hori"",""left"",[106,-106],[106,106]]",diamond,red,hori,left,"[106,-106]","[106,106]",left,1,,,,,,001,2025-03-10_23h42.02.041,SL_sali,2021.2.3,Win32,60.60606061,1.417,,,28,0,28,0,1,,,,,,,,
,,"[""diamond"",""red"",""vert"",""up"",[-106,106],[-150,0]]",diamond,red,vert,up,"[-106,106]","[-150,0]",up,1,,,,,,001,2025-03-10_23h42.02.041,SL_sali,2021.2.3,Win32,60.60606061,1.3347,,,29,0,29,0,1,,,,,,,,
,,"[""circle"",""red"",""hori"",""left"",[-106,106],[106,-106]]",circle,red,hori,left,"[-106,106]","[106,-106]",up,0,,,,,,001,2025-03-10_23h42.02.041,SL_sali,2021.2.3,Win32,60.60606061,1.5006,,,30,0,30,0,1,,,,,,,,
,,"[""diamond"",""red"",""vert"",""up"",[106,-106],[-106,-106]]",diamond,red,vert,up,"[106,-106]","[-106,-106]",up,1,,,,,,001,2025-03-10_23h42.02.041,SL_sali,2021.2.3,Win32,60.60606061,1.617,,,31,0,31,0,1,,,,,,,,
,,"[""circle"",""green"",""hori"",""left"",[106,106],[0,-150]]",circle,green,hori,left,"[106,106]","[0,-150]",left,1,,,,,,001,2025-03-10_23h42.02.041,SL_sali,2021.2.3,Win32,60.60606061,1.1009,,,32,0,32,0,1,,,,,,,,
,,"[""diamond"",""red"",""vert"",""up"",[150,0],[0,-150]]",diamond,red,vert,up,"[150,0]","[0,-150]",up,1,,,,,,001,2025-03-10_23h42.02.041,SL_sali,2021.2.3,Win32,60.60606061,1.7846,,,33,0,33,0,1,,,,,,,,
,,"[""circle"",""no_dis"",""hori"",""left"",[99999,99999],[0,150]]",circle,no_dis,hori,left,"[99999,99999]","[0,150]",left,1,,,,,,001,2025-03-10_23h42.02.041,SL_sali,2021.2.3,Win32,60.60606061,1.149,,,34,0,34,0,1,,,,,,,,
,,"[""circle"",""red"",""hori"",""left"",[-150,0],[-106,-106]]",circle,red,hori,left,"[-150,0]","[-106,-106]",left,1,,,,,,001,2025-03-10_23h42.02.041,SL_sali,2021.2.3,Win32,60.60606061,1.732,,,35,0,35,0,1,,,,,,,,
,,"[""circle"",""red"",""vert"",""up"",[-106,-106],[-150,0]]",circle,red,vert,up,"[-106,-106]","[-150,0]",up,1,,,,,,001,2025-03-10_23h42.02.041,SL_sali,2021.2.3,Win32,60.60606061,2.1392,,,36,0,36,0,1,,,,,,,,
,,"[""diamond"",""no_dis"",""hori"",""left"",[99999,99999],[150,0]]",diamond,no_dis,hori,left,"[99999,99999]","[150,0]",left,1,,,,,,001,2025-03-10_23h42.02.041,SL_sali,2021.2.3,Win32,60.60606061,1.5723,,,37,0,37,0,1,,,,,,,,
,,"[""diamond"",""red"",""vert"",""up"",[150,0],[0,-150]]",diamond,red,vert,up,"[150,0]","[0,-150]",up,1,,,,,,001,2025-03-10_23h42.02.041,SL_sali,2021.2.3,Win32,60.60606061,1.7901,,,38,0,38,0,1,,,,,,,,
,,"[""circle"",""red"",""vert"",""up"",[106,106],[-106,-106]]",circle,red,vert,up,"[106,106]","[-106,-106]",up,1,,,,,,001,2025-03-10_23h42.02.041,SL_sali,2021.2.3,Win32,60.60606061,2.0342,,,39,0,39,0,1,,,,,,,,
,,"[""diamond"",""red"",""hori"",""left"",[150,0],[0,150]]",diamond,red,hori,left,"[150,0]","[0,150]",left,1,,,,,,001,2025-03-10_23h42.02.041,SL_sali,2021.2.3,Win32,60.60606061,1.5041,,,40,0,40,0,1,,,,,,,,
,,"[""diamond"",""green"",""hori"",""left"",[-106,106],[0,150]]",diamond,green,hori,left,"[-106,106]","[0,150]",left,1,,,,,,001,2025-03-10_23h42.02.041,SL_sali,2021.2.3,Win32,60.60606061,2.0774,,,41,0,41,0,1,,,,,,,,
,,"[""circle"",""red"",""hori"",""left"",[0,-150],[-150,0]]",circle,red,hori,left,"[0,-150]","[-150,0]",left,1,,,,,,001,2025-03-10_23h42.02.041,SL_sali,2021.2.3,Win32,60.60606061,1.3358,,,42,0,42,0,1,,,,,,,,
,,"[""diamond"",""green"",""hori"",""left"",[106,-106],[-106,-106]]",diamond,green,hori,left,"[106,-106]","[-106,-106]",left,1,,,,,,001,2025-03-10_23h42.02.041,SL_sali,2021.2.3,Win32,60.60606061,1.5004,,,43,0,43,0,1,,,,,,,,
,,"[""diamond"",""red"",""vert"",""up"",[-106,-106],[0,150]]",diamond,red,vert,up,"[-106,-106]","[0,150]",up,1,,,,,,001,2025-03-10_23h42.02.041,SL_sali,2021.2.3,Win32,60.60606061,1.1721,,,44,0,44,0,1,,,,,,,,
,,"[""circle"",""green"",""vert"",""up"",[150,0],[106,106]]",circle,green,vert,up,"[150,0]","[106,106]",up,1,,,,,,001,2025-03-10_23h42.02.041,SL_sali,2021.2.3,Win32,60.60606061,1.669,,,45,0,45,0,1,,,,,,,,
,,"[""circle"",""red"",""hori"",""left"",[0,-150],[0,150]]",circle,red,hori,left,"[0,-150]","[0,150]",left,1,,,,,,001,2025-03-10_23h42.02.041,SL_sali,2021.2.3,Win32,60.60606061,1.555,,,46,0,46,0,1,,,,,,,,
,,"[""diamond"",""green"",""vert"",""up"",[150,0],[0,150]]",diamond,green,vert,up,"[150,0]","[0,150]",up,1,,,,,,001,2025-03-10_23h42.02.041,SL_sali,2021.2.3,Win32,60.60606061,1.8577,,,47,0,47,0,1,,,,,,,,
,,"[""circle"",""no_dis"",""hori"",""left"",[99999,99999],[106,106]]",circle,no_dis,hori,left,"[99999,99999]","[106,106]",left,1,,,,,,001,2025-03-10_23h42.02.041,SL_sali,2021.2.3,Win32,60.60606061,1.384,,,48,0,48,0,1,,,,,,,,
,,"[""circle"",""no_dis"",""vert"",""up"",[99999,99999],[-106,106]]",circle,no_dis,vert,up,"[99999,99999]","[-106,106]",up,1,,,,,,001,2025-03-10_23h42.02.041,SL_sali,2021.2.3,Win32,60.60606061,1.5553,,,49,0,49,0,1,,,,,,,,
,,"[""diamond"",""green"",""hori"",""left"",[0,150],[-150,0]]",diamond,green,hori,left,"[0,150]","[-150,0]",left,1,,,,,,001,2025-03-10_23h42.02.041,SL_sali,2021.2.3,Win32,60.60606061,1.3212,,,50,0,50,0,1,,,,,,,,
,,"[""diamond"",""red"",""vert"",""up"",[150,0],[0,150]]",diamond,red,vert,up,"[150,0]","[0,150]",up,1,,,,,,001,2025-03-10_23h42.02.041,SL_sali,2021.2.3,Win32,60.60606061,1.0393,,,51,0,51,0,1,,,,,,,,
,,"[""circle"",""no_dis"",""vert"",""up"",[99999,99999],[-106,-106]]",circle,no_dis,vert,up,"[99999,99999]","[-106,-106]",up,1,,,,,,001,2025-03-10_23h42.02.041,SL_sali,2021.2.3,Win32,60.60606061,1.4509,,,52,0,52,0,1,,,,,,,,
,,"[""circle"",""green"",""hori"",""left"",[-150,0],[150,0]]",circle,green,hori,left,"[-150,0]","[150,0]",left,1,,,,,,001,2025-03-10_23h42.02.041,SL_sali,2021.2.3,Win32,60.60606061,1.5386,,,53,0,53,0,1,,,,,,,,
,,"[""circle"",""red"",""hori"",""left"",[0,150],[150,0]]",circle,red,hori,left,"[0,150]","[150,0]",left,1,,,,,,001,2025-03-10_23h42.02.041,SL_sali,2021.2.3,Win32,60.60606061,1.3537,,,54,0,54,0,1,,,,,,,,
,,"[""circle"",""no_dis"",""hori"",""left"",[99999,99999],[106,106]]",circle,no_dis,hori,left,"[99999,99999]","[106,106]",left,1,,,,,,001,2025-03-10_23h42.02.041,SL_sali,2021.2.3,Win32,60.60606061,1.3187,,,55,0,55,0,1,,,,,,,,
,,"[""diamond"",""red"",""vert"",""up"",[0,150],[-106,106]]",diamond,red,vert,up,"[0,150]","[-106,106]",up,1,,,,,,001,2025-03-10_23h42.02.041,SL_sali,2021.2.3,Win32,60.60606061,1.1251,,,56,0,56,0,1,,,,,,,,
,,"[""circle"",""no_dis"",""vert"",""up"",[99999,99999],[0,-150]]",circle,no_dis,vert,up,"[99999,99999]","[0,-150]",up,1,,,,,,001,2025-03-10_23h42.02.041,SL_sali,2021.2.3,Win32,60.60606061,1.385,,,57,0,57,0,1,,,,,,,,
,,"[""diamond"",""no_dis"",""vert"",""up"",[99999,99999],[-150,0]]",diamond,no_dis,vert,up,"[99999,99999]","[-150,0]",left,0,,,,,,001,2025-03-10_23h42.02.041,SL_sali,2021.2.3,Win32,60.60606061,1.3831,,,58,0,58,0,1,,,,,,,,
,,"[""circle"",""red"",""vert"",""up"",[-106,106],[-150,0]]",circle,red,vert,up,"[-106,106]","[-150,0]",up,1,,,,,,001,2025-03-10_23h42.02.041,SL_sali,2021.2.3,Win32,60.60606061,1.6951,,,59,0,59,0,1,,,,,,,,
,,"[""diamond"",""green"",""hori"",""left"",[-106,-106],[106,106]]",diamond,green,hori,left,"[-106,-106]","[106,106]",left,1,,,,,,001,2025-03-10_23h42.02.041,SL_sali,2021.2.3,Win32,60.60606061,1.2939,,,60,0,60,0,1,,,,,,,,
,,"[""circle"",""no_dis"",""vert"",""up"",[99999,99999],[-106,106]]",circle,no_dis,vert,up,"[99999,99999]","[-106,106]",up,1,,,,,,001,2025-03-10_23h42.02.041,SL_sali,2021.2.3,Win32,60.60606061,1.1001,,,61,0,61,0,1,,,,,,,,
,,"[""diamond"",""green"",""hori"",""left"",[-106,-106],[-150,0]]",diamond,green,hori,left,"[-106,-106]","[-150,0]",left,1,,,,,,001,2025-03-10_23h42.02.041,SL_sali,2021.2.3,Win32,60.60606061,1.5277,,,62,0,62,0,1,,,,,,,,
,,"[""circle"",""red"",""vert"",""up"",[-106,106],[106,-106]]",circle,red,vert,up,"[-106,106]","[106,-106]",up,1,,,,,,001,2025-03-10_23h42.02.041,SL_sali,2021.2.3,Win32,60.60606061,1.8386,,,63,0,63,0,1,,,,,,,,
,,"[""circle"",""green"",""vert"",""up"",[150,0],[-150,0]]",circle,green,vert,up,"[150,0]","[-150,0]",up,1,,,,,,001,2025-03-10_23h42.02.041,SL_sali,2021.2.3,Win32,60.60606061,0.9106,,,64,0,64,0,1,,,,,,,,
,,"[""circle"",""no_dis"",""vert"",""up"",[99999,99999],[106,106]]",circle,no_dis,vert,up,"[99999,99999]","[106,106]",up,1,,,,,,001,2025-03-10_23h42.02.041,SL_sali,2021.2.3,Win32,60.60606061,1.6349,,,65,0,65,0,1,,,,,,,,
,,"[""diamond"",""no_dis"",""vert"",""up"",[99999,99999],[150,0]]",diamond,no_dis,vert,up,"[99999,99999]","[150,0]",up,1,,,,,,001,2025-03-10_23h42.02.041,SL_sali,2021.2.3,Win32,60.60606061,1.2444,,,66,0,66,0,1,,,,,,,,
,,"[""diamond"",""no_dis"",""hori"",""left"",[99999,99999],[-106,106]]",diamond,no_dis,hori,left,"[99999,99999]","[-106,106]",left,1,,,,,,001,2025-03-10_23h42.02.041,SL_sali,2021.2.3,Win32,60.60606061,1.5672,,,67,0,67,0,1,,,,,,,,
,,"[""circle"",""no_dis"",""vert"",""up"",[99999,99999],[106,-106]]",circle,no_dis,vert,up,"[99999,99999]","[106,-106]",up,1,,,,,,001,2025-03-10_23h42.02.041,SL_sali,2021.2.3,Win32,60.60606061,1.4189,,,68,0,68,0,1,,,,,,,,
,,"[""circle"",""green"",""hori"",""left"",[-106,-106],[106,-106]]",circle,green,hori,left,"[-106,-106]","[106,-106]",up,0,,,,,,001,2025-03-10_23h42.02.041,SL_sali,2021.2.3,Win32,60.60606061,0.8326,,,69,0,69,0,1,,,,,,,,
,,"[""circle"",""red"",""vert"",""up"",[106,106],[-106,-106]]",circle,red,vert,up,"[106,106]","[-106,-106]",up,1,,,,,,001,2025-03-10_23h42.02.041,SL_sali,2021.2.3,Win32,60.60606061,2.1091,,,70,0,70,0,1,,,,,,,,
,,"[""diamond"",""green"",""hori"",""left"",[0,150],[150,0]]",diamond,green,hori,left,"[0,150]","[150,0]",left,1,,,,,,001,2025-03-10_23h42.02.041,SL_sali,2021.2.3,Win32,60.60606061,1.5523,,,71,0,71,0,1,,,,,,,,
,,"[""circle"",""green"",""vert"",""up"",[106,106],[-106,-106]]",circle,green,vert,up,"[106,106]","[-106,-106]",up,1,,,,,,001,2025-03-10_23h42.02.041,SL_sali,2021.2.3,Win32,60.60606061,1.6174,,,72,0,72,0,1,,,,,,,,
,,"[""circle"",""red"",""hori"",""left"",[0,150],[106,-106]]",circle,red,hori,left,"[0,150]","[106,-106]",left,1,,,,,,001,2025-03-10_23h42.02.041,SL_sali,2021.2.3,Win32,60.60606061,1.1656,,,73,0,73,0,1,,,,,,,,
,,"[""diamond"",""no_dis"",""vert"",""up"",[99999,99999],[106,106]]",diamond,no_dis,vert,up,"[99999,99999]","[106,106]",up,1,,,,,,001,2025-03-10_23h42.02.041,SL_sali,2021.2.3,Win32,60.60606061,0.8009,,,74,0,74,0,1,,,,,,,,
,,"[""circle"",""red"",""vert"",""up"",[0,-150],[106,106]]",circle,red,vert,up,"[0,-150]","[106,106]",up,1,,,,,,001,2025-03-10_23h42.02.041,SL_sali,2021.2.3,Win32,60.60606061,1.3174,,,75,0,75,0,1,,,,,,,,
,,"[""circle"",""no_dis"",""hori"",""left"",[99999,99999],[150,0]]",circle,no_dis,hori,left,"[99999,99999]","[150,0]",left,1,,,,,,001,2025-03-10_23h42.02.041,SL_sali,2021.2.3,Win32,60.60606061,1.4998,,,76,0,76,0,1,,,,,,,,
,,"[""circle"",""green"",""vert"",""up"",[150,0],[-150,0]]",circle,green,vert,up,"[150,0]","[-150,0]",up,1,,,,,,001,2025-03-10_23h42.02.041,SL_sali,2021.2.3,Win32,60.60606061,1.2156,,,77,0,77,0,1,,,,,,,,
,,"[""circle"",""green"",""vert"",""up"",[0,-150],[0,150]]",circle,green,vert,up,"[0,-150]","[0,150]",up,1,,,,,,001,2025-03-10_23h42.02.041,SL_sali,2021.2.3,Win32,60.60606061,1.0728,,,78,0,78,0,1,,,,,,,,
,,"[""diamond"",""green"",""vert"",""up"",[0,-150],[106,-106]]",diamond,green,vert,up,"[0,-150]","[106,-106]",left,0,,,,,,001,2025-03-10_23h42.02.041,SL_sali,2021.2.3,Win32,60.60606061,1.3069,,,79,0,79,0,1,,,,,,,,
,,"[""circle"",""red"",""vert"",""up"",[0,150],[106,106]]",circle,red,vert,up,"[0,150]","[106,106]",up,1,,,,,,001,2025-03-10_23h42.02.041,SL_sali,2021.2.3,Win32,60.60606061,1.6715,,,80,0,80,0,1,,,,,,,,
,,"[""diamond"",""no_dis"",""hori"",""left"",[99999,99999],[150,0]]",diamond,no_dis,hori,left,"[99999,99999]","[150,0]",left,1,,,,,,001,2025-03-10_23h42.02.041,SL_sali,2021.2.3,Win32,60.60606061,1.3934,,,81,0,81,0,1,,,,,,,,
,,"[""circle"",""green"",""vert"",""up"",[150,0],[106,106]]",circle,green,vert,up,"[150,0]","[106,106]",up,1,,,,,,001,2025-03-10_23h42.02.041,SL_sali,2021.2.3,Win32,60.60606061,1.1836,,,82,0,82,0,1,,,,,,,,
,,"[""diamond"",""no_dis"",""hori"",""left"",[99999,99999],[-150,0]]",diamond,no_dis,hori,left,"[99999,99999]","[-150,0]",left,1,,,,,,001,2025-03-10_23h42.02.041,SL_sali,2021.2.3,Win32,60.60606061,1.651,,,83,0,83,0,1,,,,,,,,
,,"[""diamond"",""red"",""hori"",""left"",[106,106],[0,-150]]",diamond,red,hori,left,"[106,106]","[0,-150]",left,1,,,,,,001,2025-03-10_23h42.02.041,SL_sali,2021.2.3,Win32,60.60606061,1.2416,,,84,0,84,0,1,,,,,,,,
,,"[""diamond"",""red"",""hori"",""left"",[0,150],[-106,-106]]",diamond,red,hori,left,"[0,150]","[-106,-106]",left,1,,,,,,001,2025-03-10_23h42.02.041,SL_sali,2021.2.3,Win32,60.60606061,1.0347,,,85,0,85,0,1,,,,,,,,
,,"[""circle"",""no_dis"",""hori"",""left"",[99999,99999],[0,-150]]",circle,no_dis,hori,left,"[99999,99999]","[0,-150]",left,1,,,,,,001,2025-03-10_23h42.02.041,SL_sali,2021.2.3,Win32,60.60606061,1.4838,,,86,0,86,0,1,,,,,,,,
,,"[""diamond"",""red"",""hori"",""left"",[106,106],[-150,0]]",diamond,red,hori,left,"[106,106]","[-150,0]",left,1,,,,,,001,2025-03-10_23h42.02.041,SL_sali,2021.2.3,Win32,60.60606061,1.1336,,,87,0,87,0,1,,,,,,,,
,,"[""diamond"",""green"",""vert"",""up"",[150,0],[-106,-106]]",diamond,green,vert,up,"[150,0]","[-106,-106]",up,1,,,,,,001,2025-03-10_23h42.02.041,SL_sali,2021.2.3,Win32,60.60606061,1.0541,,,88,0,88,0,1,,,,,,,,
,,"[""diamond"",""green"",""vert"",""up"",[0,-150],[-106,106]]",diamond,green,vert,up,"[0,-150]","[-106,106]",up,1,,,,,,001,2025-03-10_23h42.02.041,SL_sali,2021.2.3,Win32,60.60606061,1.2678,,,89,0,89,0,1,,,,,,,,
,,"[""diamond"",""green"",""hori"",""left"",[0,150],[-106,106]]",diamond,green,hori,left,"[0,150]","[-106,106]",left,1,,,,,,001,2025-03-10_23h42.02.041,SL_sali,2021.2.3,Win32,60.60606061,1.0944,,,90,0,90,0,1,,,,,,,,
,,"[""circle"",""green"",""hori"",""left"",[150,0],[-150,0]]",circle,green,hori,left,"[150,0]","[-150,0]",left,1,,,,,,001,2025-03-10_23h42.02.041,SL_sali,2021.2.3,Win32,60.60606061,1.435,,,91,0,91,0,1,,,,,,,,
,,"[""circle"",""red"",""vert"",""up"",[150,0],[106,-106]]",circle,red,vert,up,"[150,0]","[106,-106]",up,1,,,,,,001,2025-03-10_23h42.02.041,SL_sali,2021.2.3,Win32,60.60606061,1.4185,,,92,0,92,0,1,,,,,,,,
,,"[""circle"",""green"",""vert"",""up"",[150,0],[-106,-106]]",circle,green,vert,up,"[150,0]","[-106,-106]",left,0,,,,,,001,2025-03-10_23h42.02.041,SL_sali,2021.2.3,Win32,60.60606061,1.5669,,,93,0,93,0,1,,,,,,,,
,,"[""diamond"",""no_dis"",""vert"",""up"",[99999,99999],[0,-150]]",diamond,no_dis,vert,up,"[99999,99999]","[0,-150]",up,1,,,,,,001,2025-03-10_23h42.02.041,SL_sali,2021.2.3,Win32,60.60606061,1.717,,,94,0,94,0,1,,,,,,,,
,,"[""diamond"",""no_dis"",""hori"",""left"",[99999,99999],[0,150]]",diamond,no_dis,hori,left,"[99999,99999]","[0,150]",left,1,,,,,,001,2025-03-10_23h42.02.041,SL_sali,2021.2.3,Win32,60.60606061,0.9977,,,95,0,95,0,1,,,,,,,,
,,"[""diamond"",""no_dis"",""vert"",""up"",[99999,99999],[-106,106]]",diamond,no_dis,vert,up,"[99999,99999]","[-106,106]",up,1,,,,,,001,2025-03-10_23h42.02.041,SL_sali,2021.2.3,Win32,60.60606061,1.0009,,,96,0,96,0,1,,,,,,,,
,,"[""diamond"",""no_dis"",""vert"",""up"",[99999,99999],[150,0]]",diamond,no_dis,vert,up,"[99999,99999]","[150,0]",up,1,,,,,,001,2025-03-10_23h42.02.041,SL_sali,2021.2.3,Win32,60.60606061,1.6331,,,97,0,97,0,1,,,,,,,,
,,"[""circle"",""green"",""vert"",""up"",[0,-150],[-150,0]]",circle,green,vert,up,"[0,-150]","[-150,0]",up,1,,,,,,001,2025-03-10_23h42.02.041,SL_sali,2021.2.3,Win32,60.60606061,2.2581,,,98,0,98,0,1,,,,,,,,
,,"[""diamond"",""no_dis"",""vert"",""up"",[99999,99999],[0,-150]]",diamond,no_dis,vert,up,"[99999,99999]","[0,-150]",up,1,,,,,,001,2025-03-10_23h42.02.041,SL_sali,2021.2.3,Win32,60.60606061,1.2505,,,99,0,99,0,1,,,,,,,,
,,"[""diamond"",""no_dis"",""vert"",""up"",[99999,99999],[106,106]]",diamond,no_dis,vert,up,"[99999,99999]","[106,106]",up,1,,,,,,001,2025-03-10_23h42.02.041,SL_sali,2021.2.3,Win32,60.60606061,1.0996,,,100,0,100,0,1,,,,,,,,
,,"[""circle"",""red"",""hori"",""left"",[150,0],[0,-150]]",circle,red,hori,left,"[150,0]","[0,-150]",left,1,,,,,,001,2025-03-10_23h42.02.041,SL_sali,2021.2.3,Win32,60.60606061,1.1219,,,101,0,101,0,1,,,,,,,,
,,"[""diamond"",""green"",""hori"",""left"",[150,0],[-106,106]]",diamond,green,hori,left,"[150,0]","[-106,106]",left,1,,,,,,001,2025-03-10_23h42.02.041,SL_sali,2021.2.3,Win32,60.60606061,1.1374,,,102,0,102,0,1,,,,,,,,
,,"[""diamond"",""no_dis"",""hori"",""left"",[99999,99999],[0,150]]",diamond,no_dis,hori,left,"[99999,99999]","[0,150]",left,1,,,,,,001,2025-03-10_23h42.02.041,SL_sali,2021.2.3,Win32,60.60606061,2.1671,,,103,0,103,0,1,,,,,,,,
,,"[""diamond"",""green"",""hori"",""left"",[150,0],[106,106]]",diamond,green,hori,left,"[150,0]","[106,106]",left,1,,,,,,001,2025-03-10_23h42.02.041,SL_sali,2021.2.3,Win32,60.60606061,1.9674,,,104,0,104,0,1,,,,,,,,
,,"[""circle"",""red"",""vert"",""up"",[0,-150],[-106,106]]",circle,red,vert,up,"[0,-150]","[-106,106]",up,1,,,,,,001,2025-03-10_23h42.02.041,SL_sali,2021.2.3,Win32,60.60606061,1.0979,,,105,0,105,0,1,,,,,,,,
,,"[""diamond"",""green"",""hori"",""left"",[150,0],[-106,-106]]",diamond,green,hori,left,"[150,0]","[-106,-106]",left,1,,,,,,001,2025-03-10_23h42.02.041,SL_sali,2021.2.3,Win32,60.60606061,1.5717,,,106,0,106,0,1,,,,,,,,
,,"[""diamond"",""no_dis"",""vert"",""up"",[99999,99999],[0,150]]",diamond,no_dis,vert,up,"[99999,99999]","[0,150]",up,1,,,,,,001,2025-03-10_23h42.02.041,SL_sali,2021.2.3,Win32,60.60606061,1.2725,,,107,0,107,0,1,,,,,,,,
,,"[""circle"",""green"",""vert"",""up"",[150,0],[0,-150]]",circle,green,vert,up,"[150,0]","[0,-150]",up,1,,,,,,001,2025-03-10_23h42.02.041,SL_sali,2021.2.3,Win32,60.60606061,1.0378,,,108,0,108,0,1,,,,,,,,
,,"[""diamond"",""no_dis"",""hori"",""left"",[99999,99999],[106,-106]]",diamond,no_dis,hori,left,"[99999,99999]","[106,-106]",up,0,,,,,,001,2025-03-10_23h42.02.041,SL_sali,2021.2.3,Win32,60.60606061,0.9726,,,109,0,109,0,1,,,,,,,,
,,"[""diamond"",""red"",""vert"",""up"",[106,106],[150,0]]",diamond,red,vert,up,"[106,106]","[150,0]",up,1,,,,,,001,2025-03-10_23h42.02.041,SL_sali,2021.2.3,Win32,60.60606061,1.1084,,,110,0,110,0,1,,,,,,,,
,,"[""circle"",""red"",""hori"",""left"",[-150,0],[150,0]]",circle,red,hori,left,"[-150,0]","[150,0]",left,1,,,,,,001,2025-03-10_23h42.02.041,SL_sali,2021.2.3,Win32,60.60606061,0.955,,,111,0,111,0,1,,,,,,,,
,,"[""diamond"",""green"",""vert"",""up"",[106,-106],[0,-150]]",diamond,green,vert,up,"[106,-106]","[0,-150]",up,1,,,,,,001,2025-03-10_23h42.02.041,SL_sali,2021.2.3,Win32,60.60606061,2.2212,,,112,0,112,0,1,,,,,,,,
,,"[""diamond"",""red"",""hori"",""left"",[150,0],[-106,-106]]",diamond,red,hori,left,"[150,0]","[-106,-106]",left,1,,,,,,001,2025-03-10_23h42.02.041,SL_sali,2021.2.3,Win32,60.60606061,1.3058,,,113,0,113,0,1,,,,,,,,
,,"[""circle"",""no_dis"",""vert"",""up"",[99999,99999],[106,-106]]",circle,no_dis,vert,up,"[99999,99999]","[106,-106]",left,0,,,,,,001,2025-03-10_23h42.02.041,SL_sali,2021.2.3,Win32,60.60606061,2.0842,,,114,0,114,0,1,,,,,,,,
,,"[""diamond"",""red"",""hori"",""left"",[150,0],[106,-106]]",diamond,red,hori,left,"[150,0]","[106,-106]",left,1,,,,,,001,2025-03-10_23h42.02.041,SL_sali,2021.2.3,Win32,60.60606061,1.8351,,,115,0,115,0,1,,,,,,,,
,,"[""circle"",""no_dis"",""vert"",""up"",[99999,99999],[-106,-106]]",circle,no_dis,vert,up,"[99999,99999]","[-106,-106]",up,1,,,,,,001,2025-03-10_23h42.02.041,SL_sali,2021.2.3,Win32,60.60606061,1.7047,,,116,0,116,0,1,,,,,,,,
,,"[""circle"",""no_dis"",""hori"",""left"",[99999,99999],[-106,-106]]",circle,no_dis,hori,left,"[99999,99999]","[-106,-106]",left,1,,,,,,001,2025-03-10_23h42.02.041,SL_sali,2021.2.3,Win32,60.60606061,1.5831,,,117,0,117,0,1,,,,,,,,
,,"[""circle"",""green"",""hori"",""left"",[-150,0],[106,106]]",circle,green,hori,left,"[-150,0]","[106,106]",left,1,,,,,,001,2025-03-10_23h42.02.041,SL_sali,2021.2.3,Win32,60.60606061,1.1903,,,118,0,118,0,1,,,,,,,,
,,"[""diamond"",""green"",""vert"",""up"",[-106,-106],[0,150]]",diamond,green,vert,up,"[-106,-106]","[0,150]",up,1,,,,,,001,2025-03-10_23h42.02.041,SL_sali,2021.2.3,Win32,60.60606061,1.1162,,,119,0,119,0,1,,,,,,,,
,,,,,,,,,,,,,,,,001,2025-03-10_23h42.02.041,SL_sali,2021.2.3,Win32,60.60606061,,,,,,,,,2,space,38.2304,1,0,1,0,1
,,"[""circle"",""red"",""vert"",""up"",[106,106],[-106,-106]]",circle,red,vert,up,"[106,106]","[-106,-106]",up,1,,,,,,001,2025-03-10_23h42.02.041,SL_sali,2021.2.3,Win32,60.60606061,2.1503,,,0,0,0,0,1,,,,,,,,
,,"[""circle"",""no_dis"",""hori"",""left"",[99999,99999],[-150,0]]",circle,no_dis,hori,left,"[99999,99999]","[-150,0]",left,1,,,,,,001,2025-03-10_23h42.02.041,SL_sali,2021.2.3,Win32,60.60606061,0.9506,,,1,0,1,0,1,,,,,,,,
,,"[""diamond"",""red"",""hori"",""left"",[106,106],[-150,0]]",diamond,red,hori,left,"[106,106]","[-150,0]",left,1,,,,,,001,2025-03-10_23h42.02.041,SL_sali,2021.2.3,Win32,60.60606061,1.0168,,,2,0,2,0,1,,,,,,,,
,,"[""circle"",""green"",""hori"",""left"",[150,0],[-106,-106]]",circle,green,hori,left,"[150,0]","[-106,-106]",left,1,,,,,,001,2025-03-10_23h42.02.041,SL_sali,2021.2.3,Win32,60.60606061,1.1316,,,3,0,3,0,1,,,,,,,,
,,"[""circle"",""red"",""hori"",""left"",[-106,106],[106,-106]]",circle,red,hori,left,"[-106,106]","[106,-106]",left,1,,,,,,001,2025-03-10_23h42.02.041,SL_sali,2021.2.3,Win32,60.60606061,1.3661,,,4,0,4,0,1,,,,,,,,
,,"[""diamond"",""no_dis"",""vert"",""up"",[99999,99999],[0,150]]",diamond,no_dis,vert,up,"[99999,99999]","[0,150]",up,1,,,,,,001,2025-03-10_23h42.02.041,SL_sali,2021.2.3,Win32,60.60606061,0.6076,,,5,0,5,0,1,,,,,,,,
,,"[""diamond"",""green"",""hori"",""left"",[-106,106],[0,150]]",diamond,green,hori,left,"[-106,106]","[0,150]",left,1,,,,,,001,2025-03-10_23h42.02.041,SL_sali,2021.2.3,Win32,60.60606061,1.0723,,,6,0,6,0,1,,,,,,,,
,,"[""diamond"",""red"",""hori"",""left"",[150,0],[-150,0]]",diamond,red,hori,left,"[150,0]","[-150,0]",left,1,,,,,,001,2025-03-10_23h42.02.041,SL_sali,2021.2.3,Win32,60.60606061,0.9103,,,7,0,7,0,1,,,,,,,,
,,"[""diamond"",""green"",""vert"",""up"",[106,-106],[0,-150]]",diamond,green,vert,up,"[106,-106]","[0,-150]",up,1,,,,,,001,2025-03-10_23h42.02.041,SL_sali,2021.2.3,Win32,60.60606061,0.8904,,,8,0,8,0,1,,,,,,,,
,,"[""circle"",""red"",""vert"",""up"",[-106,106],[-150,0]]",circle,red,vert,up,"[-106,106]","[-150,0]",up,1,,,,,,001,2025-03-10_23h42.02.041,SL_sali,2021.2.3,Win32,60.60606061,1.8558,,,9,0,9,0,1,,,,,,,,
,,"[""diamond"",""red"",""hori"",""left"",[150,0],[-106,-106]]",diamond,red,hori,left,"[150,0]","[-106,-106]",left,1,,,,,,001,2025-03-10_23h42.02.041,SL_sali,2021.2.3,Win32,60.60606061,0.9673,,,10,0,10,0,1,,,,,,,,
,,"[""circle"",""no_dis"",""vert"",""up"",[99999,99999],[-106,-106]]",circle,no_dis,vert,up,"[99999,99999]","[-106,-106]",up,1,,,,,,001,2025-03-10_23h42.02.041,SL_sali,2021.2.3,Win32,60.60606061,1.3562,,,11,0,11,0,1,,,,,,,,
,,"[""diamond"",""red"",""hori"",""left"",[-106,106],[-106,-106]]",diamond,red,hori,left,"[-106,106]","[-106,-106]",left,1,,,,,,001,2025-03-10_23h42.02.041,SL_sali,2021.2.3,Win32,60.60606061,1.5678,,,12,0,12,0,1,,,,,,,,
,,"[""circle"",""green"",""hori"",""left"",[150,0],[-106,-106]]",circle,green,hori,left,"[150,0]","[-106,-106]",left,1,,,,,,001,2025-03-10_23h42.02.041,SL_sali,2021.2.3,Win32,60.60606061,1.5165,,,13,0,13,0,1,,,,,,,,
,,"[""diamond"",""green"",""vert"",""up"",[106,-106],[-106,-106]]",diamond,green,vert,up,"[106,-106]","[-106,-106]",up,1,,,,,,001,2025-03-10_23h42.02.041,SL_sali,2021.2.3,Win32,60.60606061,0.979,,,14,0,14,0,1,,,,,,,,
,,"[""diamond"",""no_dis"",""vert"",""up"",[99999,99999],[-106,106]]",diamond,no_dis,vert,up,"[99999,99999]","[-106,106]",up,1,,,,,,001,2025-03-10_23h42.02.041,SL_sali,2021.2.3,Win32,60.60606061,1.1617,,,15,0,15,0,1,,,,,,,,
,,"[""diamond"",""green"",""hori"",""left"",[-106,-106],[106,106]]",diamond,green,hori,left,"[-106,-106]","[106,106]",left,1,,,,,,001,2025-03-10_23h42.02.041,SL_sali,2021.2.3,Win32,60.60606061,0.9391,,,16,0,16,0,1,,,,,,,,
,,"[""circle"",""red"",""hori"",""left"",[106,-106],[-150,0]]",circle,red,hori,left,"[106,-106]","[-150,0]",up,0,,,,,,001,2025-03-10_23h42.02.041,SL_sali,2021.2.3,Win32,60.60606061,1.5337,,,17,0,17,0,1,,,,,,,,
,,"[""circle"",""red"",""vert"",""up"",[150,0],[106,106]]",circle,red,vert,up,"[150,0]","[106,106]",left,0,,,,,,001,2025-03-10_23h42.02.041,SL_sali,2021.2.3,Win32,60.60606061,1.5707,,,18,0,18,0,1,,,,,,,,
,,"[""diamond"",""no_dis"",""hori"",""left"",[99999,99999],[150,0]]",diamond,no_dis,hori,left,"[99999,99999]","[150,0]",left,1,,,,,,001,2025-03-10_23h42.02.041,SL_sali,2021.2.3,Win32,60.60606061,1.349,,,19,0,19,0,1,,,,,,,,
,,"[""circle"",""green"",""hori"",""left"",[-150,0],[0,150]]",circle,green,hori,left,"[-150,0]","[0,150]",left,1,,,,,,001,2025-03-10_23h42.02.041,SL_sali,2021.2.3,Win32,60.60606061,1.3199,,,20,0,20,0,1,,,,,,,,
,,"[""circle"",""no_dis"",""hori"",""left"",[99999,99999],[150,0]]",circle,no_dis,hori,left,"[99999,99999]","[150,0]",left,1,,,,,,001,2025-03-10_23h42.02.041,SL_sali,2021.2.3,Win32,60.60606061,1.2673,,,21,0,21,0,1,,,,,,,,
,,"[""diamond"",""no_dis"",""vert"",""up"",[99999,99999],[0,-150]]",diamond,no_dis,vert,up,"[99999,99999]","[0,-150]",up,1,,,,,,001,2025-03-10_23h42.02.041,SL_sali,2021.2.3,Win32,60.60606061,0.9832,,,22,0,22,0,1,,,,,,,,
,,"[""circle"",""green"",""hori"",""left"",[-150,0],[150,0]]",circle,green,hori,left,"[-150,0]","[150,0]",left,1,,,,,,001,2025-03-10_23h42.02.041,SL_sali,2021.2.3,Win32,60.60606061,1.0528,,,23,0,23,0,1,,,,,,,,
,,"[""diamond"",""red"",""vert"",""up"",[0,150],[-106,106]]",diamond,red,vert,up,"[0,150]","[-106,106]",up,1,,,,,,001,2025-03-10_23h42.02.041,SL_sali,2021.2.3,Win32,60.60606061,1.1556,,,24,0,24,0,1,,,,,,,,
,,"[""circle"",""no_dis"",""vert"",""up"",[99999,99999],[106,-106]]",circle,no_dis,vert,up,"[99999,99999]","[106,-106]",up,1,,,,,,001,2025-03-10_23h42.02.041,SL_sali,2021.2.3,Win32,60.60606061,1.7409,,,25,0,25,0,1,,,,,,,,
,,"[""diamond"",""green"",""vert"",""up"",[0,-150],[106,-106]]",diamond,green,vert,up,"[0,-150]","[106,-106]",up,1,,,,,,001,2025-03-10_23h42.02.041,SL_sali,2021.2.3,Win32,60.60606061,1.1317,,,26,0,26,0,1,,,,,,,,
,,"[""diamond"",""green"",""hori"",""left"",[0,150],[-150,0]]",diamond,green,hori,left,"[0,150]","[-150,0]",left,1,,,,,,001,2025-03-10_23h42.02.041,SL_sali,2021.2.3,Win32,60.60606061,1.4379,,,27,0,27,0,1,,,,,,,,
,,"[""circle"",""no_dis"",""hori"",""left"",[99999,99999],[106,106]]",circle,no_dis,hori,left,"[99999,99999]","[106,106]",left,1,,,,,,001,2025-03-10_23h42.02.041,SL_sali,2021.2.3,Win32,60.60606061,1.9558,,,28,0,28,0,1,,,,,,,,
,,"[""diamond"",""red"",""vert"",""up"",[-106,-106],[0,150]]",diamond,red,vert,up,"[-106,-106]","[0,150]",up,1,,,,,,001,2025-03-10_23h42.02.041,SL_sali,2021.2.3,Win32,60.60606061,1.1521,,,29,0,29,0,1,,,,,,,,
,,"[""circle"",""red"",""hori"",""left"",[-150,0],[-106,-106]]",circle,red,hori,left,"[-150,0]","[-106,-106]",left,1,,,,,,001,2025-03-10_23h42.02.041,SL_sali,2021.2.3,Win32,60.60606061,2.0696,,,30,0,30,0,1,,,,,,,,
,,"[""diamond"",""red"",""hori"",""left"",[106,-106],[106,106]]",diamond,red,hori,left,"[106,-106]","[106,106]",left,1,,,,,,001,2025-03-10_23h42.02.041,SL_sali,2021.2.3,Win32,60.60606061,1.2276,,,31,0,31,0,1,,,,,,,,
,,"[""circle"",""no_dis"",""vert"",""up"",[99999,99999],[106,-106]]",circle,no_dis,vert,up,"[99999,99999]","[106,-106]",up,1,,,,,,001,2025-03-10_23h42.02.041,SL_sali,2021.2.3,Win32,60.60606061,1.6697,,,32,0,32,0,1,,,,,,,,
,,"[""circle"",""green"",""vert"",""up"",[150,0],[106,106]]",circle,green,vert,up,"[150,0]","[106,106]",up,1,,,,,,001,2025-03-10_23h42.02.041,SL_sali,2021.2.3,Win32,60.60606061,2.0175,,,33,0,33,0,1,,,,,,,,
,,"[""circle"",""green"",""hori"",""left"",[-106,-106],[106,-106]]",circle,green,hori,left,"[-106,-106]","[106,-106]",left,1,,,,,,001,2025-03-10_23h42.02.041,SL_sali,2021.2.3,Win32,60.60606061,0.972,,,34,0,34,0,1,,,,,,,,
,,"[""circle"",""green"",""hori"",""left"",[106,106],[0,-150]]",circle,green,hori,left,"[106,106]","[0,-150]",left,1,,,,,,001,2025-03-10_23h42.02.041,SL_sali,2021.2.3,Win32,60.60606061,1.1841,,,35,0,35,0,1,,,,,,,,
,,"[""circle"",""red"",""hori"",""left"",[0,150],[106,-106]]",circle,red,hori,left,"[0,150]","[106,-106]",left,1,,,,,,001,2025-03-10_23h42.02.041,SL_sali,2021.2.3,Win32,60.60606061,1.0173,,,36,0,36,0,1,,,,,,,,
,,"[""diamond"",""red"",""vert"",""up"",[106,106],[150,0]]",diamond,red,vert,up,"[106,106]","[150,0]",up,1,,,,,,001,2025-03-10_23h42.02.041,SL_sali,2021.2.3,Win32,60.60606061,1.0655,,,37,0,37,0,1,,,,,,,,
,,"[""circle"",""no_dis"",""vert"",""up"",[99999,99999],[106,-106]]",circle,no_dis,vert,up,"[99999,99999]","[106,-106]",up,1,,,,,,001,2025-03-10_23h42.02.041,SL_sali,2021.2.3,Win32,60.60606061,1.4215,,,38,0,38,0,1,,,,,,,,
,,"[""diamond"",""red"",""hori"",""left"",[-106,106],[106,106]]",diamond,red,hori,left,"[-106,106]","[106,106]",left,1,,,,,,001,2025-03-10_23h42.02.041,SL_sali,2021.2.3,Win32,60.60606061,1.1003,,,39,0,39,0,1,,,,,,,,
,,"[""diamond"",""green"",""vert"",""up"",[-106,-106],[0,150]]",diamond,green,vert,up,"[-106,-106]","[0,150]",up,1,,,,,,001,2025-03-10_23h42.02.041,SL_sali,2021.2.3,Win32,60.60606061,1.0168,,,40,0,40,0,1,,,,,,,,
,,"[""diamond"",""red"",""hori"",""left"",[150,0],[0,150]]",diamond,red,hori,left,"[150,0]","[0,150]",left,1,,,,,,001,2025-03-10_23h42.02.041,SL_sali,2021.2.3,Win32,60.60606061,1.0997,,,41,0,41,0,1,,,,,,,,
,,"[""circle"",""green"",""vert"",""up"",[150,0],[0,-150]]",circle,green,vert,up,"[150,0]","[0,-150]",up,1,,,,,,001,2025-03-10_23h42.02.041,SL_sali,2021.2.3,Win32,60.60606061,1.3998,,,42,0,42,0,1,,,,,,,,
,,"[""diamond"",""no_dis"",""hori"",""left"",[99999,99999],[150,0]]",diamond,no_dis,hori,left,"[99999,99999]","[150,0]",left,1,,,,,,001,2025-03-10_23h42.02.041,SL_sali,2021.2.3,Win32,60.60606061,0.7897,,,43,0,43,0,1,,,,,,,,
,,"[""diamond"",""green"",""vert"",""up"",[-150,0],[-106,106]]",diamond,green,vert,up,"[-150,0]","[-106,106]",up,1,,,,,,001,2025-03-10_23h42.02.041,SL_sali,2021.2.3,Win32,60.60606061,1.1672,,,44,0,44,0,1,,,,,,,,
,,"[""diamond"",""green"",""hori"",""left"",[150,0],[106,106]]",diamond,green,hori,left,"[150,0]","[106,106]",left,1,,,,,,001,2025-03-10_23h42.02.041,SL_sali,2021.2.3,Win32,60.60606061,0.9753,,,45,0,45,0,1,,,,,,,,
,,"[""diamond"",""no_dis"",""vert"",""up"",[99999,99999],[150,0]]",diamond,no_dis,vert,up,"[99999,99999]","[150,0]",up,1,,,,,,001,2025-03-10_23h42.02.041,SL_sali,2021.2.3,Win32,60.60606061,1.2376,,,46,0,46,0,1,,,,,,,,
,,"[""diamond"",""green"",""hori"",""left"",[150,0],[-106,-106]]",diamond,green,hori,left,"[150,0]","[-106,-106]",left,1,,,,,,001,2025-03-10_23h42.02.041,SL_sali,2021.2.3,Win32,60.60606061,1.5432,,,47,0,47,0,1,,,,,,,,
,,"[""diamond"",""no_dis"",""hori"",""left"",[99999,99999],[0,-150]]",diamond,no_dis,hori,left,"[99999,99999]","[0,-150]",left,1,,,,,,001,2025-03-10_23h42.02.041,SL_sali,2021.2.3,Win32,60.60606061,1.2171,,,48,0,48,0,1,,,,,,,,
,,"[""diamond"",""green"",""vert"",""up"",[150,0],[0,150]]",diamond,green,vert,up,"[150,0]","[0,150]",up,1,,,,,,001,2025-03-10_23h42.02.041,SL_sali,2021.2.3,Win32,60.60606061,1.0174,,,49,0,49,0,1,,,,,,,,
,,"[""diamond"",""no_dis"",""vert"",""up"",[99999,99999],[106,106]]",diamond,no_dis,vert,up,"[99999,99999]","[106,106]",up,1,,,,,,001,2025-03-10_23h42.02.041,SL_sali,2021.2.3,Win32,60.60606061,1.3508,,,50,0,50,0,1,,,,,,,,
,,"[""circle"",""red"",""hori"",""left"",[0,-150],[-150,0]]",circle,red,hori,left,"[0,-150]","[-150,0]",left,1,,,,,,001,2025-03-10_23h42.02.041,SL_sali,2021.2.3,Win32,60.60606061,1.5675,,,51,0,51,0,1,,,,,,,,
,,"[""circle"",""no_dis"",""vert"",""up"",[99999,99999],[-106,-106]]",circle,no_dis,vert,up,"[99999,99999]","[-106,-106]",up,1,,,,,,001,2025-03-10_23h42.02.041,SL_sali,2021.2.3,Win32,60.60606061,1.3843,,,52,0,52,0,1,,,,,,,,
,,"[""circle"",""green"",""vert"",""up"",[0,-150],[-150,0]]",circle,green,vert,up,"[0,-150]","[-150,0]",up,1,,,,,,001,2025-03-10_23h42.02.041,SL_sali,2021.2.3,Win32,60.60606061,1.5419,,,53,0,53,0,1,,,,,,,,
,,"[""diamond"",""no_dis"",""vert"",""up"",[99999,99999],[-150,0]]",diamond,no_dis,vert,up,"[99999,99999]","[-150,0]",up,1,,,,,,001,2025-03-10_23h42.02.041,SL_sali,2021.2.3,Win32,60.60606061,1.2665,,,54,0,54,0,1,,,,,,,,
,,"[""circle"",""no_dis"",""hori"",""left"",[99999,99999],[-106,106]]",circle,no_dis,hori,left,"[99999,99999]","[-106,106]",left,1,,,,,,001,2025-03-10_23h42.02.041,SL_sali,2021.2.3,Win32,60.60606061,1.4572,,,55,0,55,0,1,,,,,,,,
,,"[""diamond"",""green"",""hori"",""left"",[0,150],[150,0]]",diamond,green,hori,left,"[0,150]","[150,0]",left,1,,,,,,001,2025-03-10_23h42.02.041,SL_sali,2021.2.3,Win32,60.60606061,1.1167,,,56,0,56,0,1,,,,,,,,
,,"[""diamond"",""red"",""vert"",""up"",[150,0],[0,-150]]",diamond,red,vert,up,"[150,0]","[0,-150]",up,1,,,,,,001,2025-03-10_23h42.02.041,SL_sali,2021.2.3,Win32,60.60606061,1.9165,,,57,0,57,0,1,,,,,,,,
,,"[""circle"",""red"",""vert"",""up"",[150,0],[106,-106]]",circle,red,vert,up,"[150,0]","[106,-106]",up,1,,,,,,001,2025-03-10_23h42.02.041,SL_sali,2021.2.3,Win32,60.60606061,2.0435,,,58,0,58,0,1,,,,,,,,
,,"[""circle"",""red"",""hori"",""left"",[0,-150],[0,150]]",circle,red,hori,left,"[0,-150]","[0,150]",up,0,,,,,,001,2025-03-10_23h42.02.041,SL_sali,2021.2.3,Win32,60.60606061,1.5334,,,59,0,59,0,1,,,,,,,,
,,"[""circle"",""red"",""hori"",""left"",[0,150],[150,0]]",circle,red,hori,left,"[0,150]","[150,0]",left,1,,,,,,001,2025-03-10_23h42.02.041,SL_sali,2021.2.3,Win32,60.60606061,1.2927,,,60,0,60,0,1,,,,,,,,
,,"[""circle"",""red"",""vert"",""up"",[0,150],[106,106]]",circle,red,vert,up,"[0,150]","[106,106]",up,1,,,,,,001,2025-03-10_23h42.02.041,SL_sali,2021.2.3,Win32,60.60606061,1.3177,,,61,0,61,0,1,,,,,,,,
,,"[""circle"",""red"",""hori"",""left"",[-150,0],[-106,106]]",circle,red,hori,left,"[-150,0]","[-106,106]",left,1,,,,,,001,2025-03-10_23h42.02.041,SL_sali,2021.2.3,Win32,60.60606061,1.3003,,,62,0,62,0,1,,,,,,,,
,,"[""circle"",""green"",""vert"",""up"",[150,0],[-106,-106]]",circle,green,vert,up,"[150,0]","[-106,-106]",up,1,,,,,,001,2025-03-10_23h42.02.041,SL_sali,2021.2.3,Win32,60.60606061,1.1234,,,63,0,63,0,1,,,,,,,,
,,"[""circle"",""green"",""vert"",""up"",[106,106],[-106,-106]]",circle,green,vert,up,"[106,106]","[-106,-106]",up,1,,,,,,001,2025-03-10_23h42.02.041,SL_sali,2021.2.3,Win32,60.60606061,0.9018,,,64,0,64,0,1,,,,,,,,
,,"[""circle"",""no_dis"",""hori"",""left"",[99999,99999],[-106,-106]]",circle,no_dis,hori,left,"[99999,99999]","[-106,-106]",left,1,,,,,,001,2025-03-10_23h42.02.041,SL_sali,2021.2.3,Win32,60.60606061,1.2208,,,65,0,65,0,1,,,,,,,,
,,"[""circle"",""red"",""vert"",""up"",[-106,106],[106,-106]]",circle,red,vert,up,"[-106,106]","[106,-106]",up,1,,,,,,001,2025-03-10_23h42.02.041,SL_sali,2021.2.3,Win32,60.60606061,0.834,,,66,0,66,0,1,,,,,,,,
,,"[""circle"",""green"",""hori"",""left"",[-150,0],[106,106]]",circle,green,hori,left,"[-150,0]","[106,106]",left,1,,,,,,001,2025-03-10_23h42.02.041,SL_sali,2021.2.3,Win32,60.60606061,1.1509,,,67,0,67,0,1,,,,,,,,
,,"[""diamond"",""green"",""hori"",""left"",[106,-106],[-106,-106]]",diamond,green,hori,left,"[106,-106]","[-106,-106]",left,1,,,,,,001,2025-03-10_23h42.02.041,SL_sali,2021.2.3,Win32,60.60606061,1.7506,,,68,0,68,0,1,,,,,,,,
,,"[""diamond"",""red"",""vert"",""up"",[106,-106],[-106,-106]]",diamond,red,vert,up,"[106,-106]","[-106,-106]",up,1,,,,,,001,2025-03-10_23h42.02.041,SL_sali,2021.2.3,Win32,60.60606061,1.1843,,,69,0,69,0,1,,,,,,,,
,,"[""diamond"",""no_dis"",""hori"",""left"",[99999,99999],[-150,0]]",diamond,no_dis,hori,left,"[99999,99999]","[-150,0]",left,1,,,,,,001,2025-03-10_23h42.02.041,SL_sali,2021.2.3,Win32,60.60606061,0.9843,,,70,0,70,0,1,,,,,,,,
,,"[""circle"",""green"",""vert"",""up"",[106,-106],[-106,106]]",circle,green,vert,up,"[106,-106]","[-106,106]",up,1,,,,,,001,2025-03-10_23h42.02.041,SL_sali,2021.2.3,Win32,60.60606061,2.0998,,,71,0,71,0,1,,,,,,,,
,,"[""diamond"",""no_dis"",""hori"",""left"",[99999,99999],[-106,106]]",diamond,no_dis,hori,left,"[99999,99999]","[-106,106]",left,1,,,,,,001,2025-03-10_23h42.02.041,SL_sali,2021.2.3,Win32,60.60606061,1.3592,,,72,0,72,0,1,,,,,,,,
,,"[""diamond"",""no_dis"",""hori"",""left"",[99999,99999],[-150,0]]",diamond,no_dis,hori,left,"[99999,99999]","[-150,0]",left,1,,,,,,001,2025-03-10_23h42.02.041,SL_sali,2021.2.3,Win32,60.60606061,1.1167,,,73,0,73,0,1,,,,,,,,
,,"[""circle"",""green"",""hori"",""left"",[106,106],[0,150]]",circle,green,hori,left,"[106,106]","[0,150]",left,1,,,,,,001,2025-03-10_23h42.02.041,SL_sali,2021.2.3,Win32,60.60606061,1.9045,,,74,0,74,0,1,,,,,,,,
,,"[""circle"",""no_dis"",""hori"",""left"",[99999,99999],[0,150]]",circle,no_dis,hori,left,"[99999,99999]","[0,150]",left,1,,,,,,001,2025-03-10_23h42.02.041,SL_sali,2021.2.3,Win32,60.60606061,1.0935,,,75,0,75,0,1,,,,,,,,
,,"[""circle"",""red"",""vert"",""up"",[0,-150],[-106,106]]",circle,red,vert,up,"[0,-150]","[-106,106]",up,1,,,,,,001,2025-03-10_23h42.02.041,SL_sali,2021.2.3,Win32,60.60606061,0.9831,,,76,0,76,0,1,,,,,,,,
,,"[""diamond"",""green"",""hori"",""left"",[150,0],[-106,106]]",diamond,green,hori,left,"[150,0]","[-106,106]",left,1,,,,,,001,2025-03-10_23h42.02.041,SL_sali,2021.2.3,Win32,60.60606061,1.701,,,77,0,77,0,1,,,,,,,,
,,"[""diamond"",""green"",""vert"",""up"",[-106,-106],[106,106]]",diamond,green,vert,up,"[-106,-106]","[106,106]",up,1,,,,,,001,2025-03-10_23h42.02.041,SL_sali,2021.2.3,Win32,60.60606061,1.0223,,,78,0,78,0,1,,,,,,,,
,,"[""circle"",""no_dis"",""hori"",""left"",[99999,99999],[0,-150]]",circle,no_dis,hori,left,"[99999,99999]","[0,-150]",left,1,,,,,,001,2025-03-10_23h42.02.041,SL_sali,2021.2.3,Win32,60.60606061,1.1674,,,79,0,79,0,1,,,,,,,,
,,"[""circle"",""red"",""vert"",""up"",[0,-150],[106,106]]",circle,red,vert,up,"[0,-150]","[106,106]",up,1,,,,,,001,2025-03-10_23h42.02.041,SL_sali,2021.2.3,Win32,60.60606061,1.8024,,,80,0,80,0,1,,,,,,,,
,,"[""circle"",""red"",""vert"",""up"",[106,106],[-106,-106]]",circle,red,vert,up,"[106,106]","[-106,-106]",up,1,,,,,,001,2025-03-10_23h42.02.041,SL_sali,2021.2.3,Win32,60.60606061,1.0562,,,81,0,81,0,1,,,,,,,,
,,"[""circle"",""no_dis"",""vert"",""up"",[99999,99999],[106,-106]]",circle,no_dis,vert,up,"[99999,99999]","[106,-106]",up,1,,,,,,001,2025-03-10_23h42.02.041,SL_sali,2021.2.3,Win32,60.60606061,1.1417,,,82,0,82,0,1,,,,,,,,
,,"[""diamond"",""red"",""vert"",""up"",[-106,106],[-150,0]]",diamond,red,vert,up,"[-106,106]","[-150,0]",up,1,,,,,,001,2025-03-10_23h42.02.041,SL_sali,2021.2.3,Win32,60.60606061,1.3499,,,83,0,83,0,1,,,,,,,,
,,"[""diamond"",""green"",""vert"",""up"",[150,0],[-106,-106]]",diamond,green,vert,up,"[150,0]","[-106,-106]",up,1,,,,,,001,2025-03-10_23h42.02.041,SL_sali,2021.2.3,Win32,60.60606061,1.0164,,,84,0,84,0,1,,,,,,,,
,,"[""diamond"",""green"",""hori"",""left"",[-106,-106],[-150,0]]",diamond,green,hori,left,"[-106,-106]","[-150,0]",left,1,,,,,,001,2025-03-10_23h42.02.041,SL_sali,2021.2.3,Win32,60.60606061,1.7849,,,85,0,85,0,1,,,,,,,,
,,"[""circle"",""red"",""hori"",""left"",[150,0],[0,-150]]",circle,red,hori,left,"[150,0]","[0,-150]",left,1,,,,,,001,2025-03-10_23h42.02.041,SL_sali,2021.2.3,Win32,60.60606061,1.2166,,,86,0,86,0,1,,,,,,,,
,,"[""diamond"",""green"",""vert"",""up"",[0,-150],[-106,106]]",diamond,green,vert,up,"[0,-150]","[-106,106]",up,1,,,,,,001,2025-03-10_23h42.02.041,SL_sali,2021.2.3,Win32,60.60606061,1.1147,,,87,0,87,0,1,,,,,,,,
,,"[""diamond"",""green"",""vert"",""up"",[106,-106],[150,0]]",diamond,green,vert,up,"[106,-106]","[150,0]",left,0,,,,,,001,2025-03-10_23h42.02.041,SL_sali,2021.2.3,Win32,60.60606061,1.6578,,,88,0,88,0,1,,,,,,,,
,,"[""circle"",""red"",""vert"",""up"",[-106,-106],[-150,0]]",circle,red,vert,up,"[-106,-106]","[-150,0]",up,1,,,,,,001,2025-03-10_23h42.02.041,SL_sali,2021.2.3,Win32,60.60606061,1.2425,,,89,0,89,0,1,,,,,,,,
,,"[""circle"",""no_dis"",""vert"",""up"",[99999,99999],[106,106]]",circle,no_dis,vert,up,"[99999,99999]","[106,106]",up,1,,,,,,001,2025-03-10_23h42.02.041,SL_sali,2021.2.3,Win32,60.60606061,0.8666,,,90,0,90,0,1,,,,,,,,
,,"[""diamond"",""red"",""hori"",""left"",[150,0],[106,-106]]",diamond,red,hori,left,"[150,0]","[106,-106]",left,1,,,,,,001,2025-03-10_23h42.02.041,SL_sali,2021.2.3,Win32,60.60606061,1.318,,,91,0,91,0,1,,,,,,,,
,,"[""circle"",""green"",""hori"",""left"",[150,0],[-150,0]]",circle,green,hori,left,"[150,0]","[-150,0]",left,1,,,,,,001,2025-03-10_23h42.02.041,SL_sali,2021.2.3,Win32,60.60606061,1.9398,,,92,0,92,0,1,,,,,,,,
,,"[""circle"",""green"",""vert"",""up"",[0,-150],[0,150]]",circle,green,vert,up,"[0,-150]","[0,150]",up,1,,,,,,001,2025-03-10_23h42.02.041,SL_sali,2021.2.3,Win32,60.60606061,0.8871,,,93,0,93,0,1,,,,,,,,
,,"[""diamond"",""red"",""vert"",""up"",[-150,0],[0,150]]",diamond,red,vert,up,"[-150,0]","[0,150]",up,1,,,,,,001,2025-03-10_23h42.02.041,SL_sali,2021.2.3,Win32,60.60606061,1.0996,,,94,0,94,0,1,,,,,,,,
,,"[""circle"",""no_dis"",""vert"",""up"",[99999,99999],[0,-150]]",circle,no_dis,vert,up,"[99999,99999]","[0,-150]",up,1,,,,,,001,2025-03-10_23h42.02.041,SL_sali,2021.2.3,Win32,60.60606061,0.9832,,,95,0,95,0,1,,,,,,,,
,,"[""diamond"",""red"",""vert"",""up"",[-106,-106],[0,150]]",diamond,red,vert,up,"[-106,-106]","[0,150]",up,1,,,,,,001,2025-03-10_23h42.02.041,SL_sali,2021.2.3,Win32,60.60606061,0.9831,,,96,0,96,0,1,,,,,,,,
,,"[""circle"",""green"",""vert"",""up"",[150,0],[-150,0]]",circle,green,vert,up,"[150,0]","[-150,0]",left,0,,,,,,001,2025-03-10_23h42.02.041,SL_sali,2021.2.3,Win32,60.60606061,0.7003,,,97,0,97,0,1,,,,,,,,
,,"[""diamond"",""no_dis"",""vert"",""up"",[99999,99999],[0,-150]]",diamond,no_dis,vert,up,"[99999,99999]","[0,-150]",up,1,,,,,,001,2025-03-10_23h42.02.041,SL_sali,2021.2.3,Win32,60.60606061,1.2007,,,98,0,98,0,1,,,,,,,,
,,"[""diamond"",""red"",""vert"",""up"",[150,0],[0,-150]]",diamond,red,vert,up,"[150,0]","[0,-150]",up,1,,,,,,001,2025-03-10_23h42.02.041,SL_sali,2021.2.3,Win32,60.60606061,1.7717,,,99,0,99,0,1,,,,,,,,
,,"[""diamond"",""no_dis"",""vert"",""up"",[99999,99999],[-150,0]]",diamond,no_dis,vert,up,"[99999,99999]","[-150,0]",up,1,,,,,,001,2025-03-10_23h42.02.041,SL_sali,2021.2.3,Win32,60.60606061,1.3335,,,100,0,100,0,1,,,,,,,,
,,"[""circle"",""red"",""hori"",""left"",[-150,0],[150,0]]",circle,red,hori,left,"[-150,0]","[150,0]",left,1,,,,,,001,2025-03-10_23h42.02.041,SL_sali,2021.2.3,Win32,60.60606061,0.8831,,,101,0,101,0,1,,,,,,,,
,,"[""circle"",""no_dis"",""hori"",""left"",[99999,99999],[106,106]]",circle,no_dis,hori,left,"[99999,99999]","[106,106]",left,1,,,,,,001,2025-03-10_23h42.02.041,SL_sali,2021.2.3,Win32,60.60606061,0.9669,,,102,0,102,0,1,,,,,,,,
,,"[""diamond"",""red"",""vert"",""up"",[150,0],[0,150]]",diamond,red,vert,up,"[150,0]","[0,150]",up,1,,,,,,001,2025-03-10_23h42.02.041,SL_sali,2021.2.3,Win32,60.60606061,0.9349,,,103,0,103,0,1,,,,,,,,
,,"[""diamond"",""red"",""hori"",""left"",[106,106],[0,-150]]",diamond,red,hori,left,"[106,106]","[0,-150]",left,1,,,,,,001,2025-03-10_23h42.02.041,SL_sali,2021.2.3,Win32,60.60606061,1.4496,,,104,0,104,0,1,,,,,,,,
,,"[""circle"",""green"",""hori"",""left"",[-106,106],[0,150]]",circle,green,hori,left,"[-106,106]","[0,150]",left,1,,,,,,001,2025-03-10_23h42.02.041,SL_sali,2021.2.3,Win32,60.60606061,1.1519,,,105,0,105,0,1,,,,,,,,
,,"[""circle"",""no_dis"",""hori"",""left"",[99999,99999],[-106,-106]]",circle,no_dis,hori,left,"[99999,99999]","[-106,-106]",left,1,,,,,,001,2025-03-10_23h42.02.041,SL_sali,2021.2.3,Win32,60.60606061,0.8336,,,106,0,106,0,1,,,,,,,,
,,"[""diamond"",""red"",""hori"",""left"",[0,150],[-106,-106]]",diamond,red,hori,left,"[0,150]","[-106,-106]",left,1,,,,,,001,2025-03-10_23h42.02.041,SL_sali,2021.2.3,Win32,60.60606061,1.0614,,,107,0,107,0,1,,,,,,,,
,,"[""diamond"",""no_dis"",""hori"",""left"",[99999,99999],[0,150]]",diamond,no_dis,hori,left,"[99999,99999]","[0,150]",left,1,,,,,,001,2025-03-10_23h42.02.041,SL_sali,2021.2.3,Win32,60.60606061,1.9998,,,108,0,108,0,1,,,,,,,,
,,"[""diamond"",""no_dis"",""hori"",""left"",[99999,99999],[0,150]]",diamond,no_dis,hori,left,"[99999,99999]","[0,150]",left,1,,,,,,001,2025-03-10_23h42.02.041,SL_sali,2021.2.3,Win32,60.60606061,1.3337,,,109,0,109,0,1,,,,,,,,
,,"[""circle"",""no_dis"",""hori"",""left"",[99999,99999],[-106,-106]]",circle,no_dis,hori,left,"[99999,99999]","[-106,-106]",left,1,,,,,,001,2025-03-10_23h42.02.041,SL_sali,2021.2.3,Win32,60.60606061,1.5341,,,110,0,110,0,1,,,,,,,,
,,"[""diamond"",""no_dis"",""vert"",""up"",[99999,99999],[106,106]]",diamond,no_dis,vert,up,"[99999,99999]","[106,106]",up,1,,,,,,001,2025-03-10_23h42.02.041,SL_sali,2021.2.3,Win32,60.60606061,1.1896,,,111,0,111,0,1,,,,,,,,
,,"[""diamond"",""green"",""hori"",""left"",[0,150],[-106,106]]",diamond,green,hori,left,"[0,150]","[-106,106]",left,1,,,,,,001,2025-03-10_23h42.02.041,SL_sali,2021.2.3,Win32,60.60606061,1.981,,,112,0,112,0,1,,,,,,,,
,,"[""circle"",""no_dis"",""vert"",""up"",[99999,99999],[-106,106]]",circle,no_dis,vert,up,"[99999,99999]","[-106,106]",up,1,,,,,,001,2025-03-10_23h42.02.041,SL_sali,2021.2.3,Win32,60.60606061,1.3685,,,113,0,113,0,1,,,,,,,,
,,"[""diamond"",""no_dis"",""hori"",""left"",[99999,99999],[0,150]]",diamond,no_dis,hori,left,"[99999,99999]","[0,150]",left,1,,,,,,001,2025-03-10_23h42.02.041,SL_sali,2021.2.3,Win32,60.60606061,1.0329,,,114,0,114,0,1,,,,,,,,
,,"[""diamond"",""no_dis"",""hori"",""left"",[99999,99999],[106,-106]]",diamond,no_dis,hori,left,"[99999,99999]","[106,-106]",left,1,,,,,,001,2025-03-10_23h42.02.041,SL_sali,2021.2.3,Win32,60.60606061,1.0844,,,115,0,115,0,1,,,,,,,,
,,"[""circle"",""green"",""vert"",""up"",[150,0],[-150,0]]",circle,green,vert,up,"[150,0]","[-150,0]",up,1,,,,,,001,2025-03-10_23h42.02.041,SL_sali,2021.2.3,Win32,60.60606061,1.035,,,116,0,116,0,1,,,,,,,,
,,"[""circle"",""green"",""vert"",""up"",[150,0],[106,106]]",circle,green,vert,up,"[150,0]","[106,106]",left,0,,,,,,001,2025-03-10_23h42.02.041,SL_sali,2021.2.3,Win32,60.60606061,0.8742,,,117,0,117,0,1,,,,,,,,
,,"[""circle"",""no_dis"",""vert"",""up"",[99999,99999],[-106,106]]",circle,no_dis,vert,up,"[99999,99999]","[-106,106]",up,1,,,,,,001,2025-03-10_23h42.02.041,SL_sali,2021.2.3,Win32,60.60606061,1.3679,,,118,0,118,0,1,,,,,,,,
,,"[""diamond"",""no_dis"",""vert"",""up"",[99999,99999],[150,0]]",diamond,no_dis,vert,up,"[99999,99999]","[150,0]",up,1,,,,,,001,2025-03-10_23h42.02.041,SL_sali,2021.2.3,Win32,60.60606061,1.0999,,,119,0,119,0,1,,,,,,,,
,,,,,,,,,,,,,,,,001,2025-03-10_23h42.02.041,SL_sali,2021.2.3,Win32,60.60606061,,,,,,,,,3,space,25.6833,2,0,2,0,1
,,"[""circle"",""no_dis"",""vert"",""up"",[99999,99999],[-106,-106]]",circle,no_dis,vert,up,"[99999,99999]","[-106,-106]",up,1,,,,,,001,2025-03-10_23h42.02.041,SL_sali,2021.2.3,Win32,60.60606061,1.7757,,,0,0,0,0,1,,,,,,,,
,,"[""circle"",""no_dis"",""vert"",""up"",[99999,99999],[106,-106]]",circle,no_dis,vert,up,"[99999,99999]","[106,-106]",up,1,,,,,,001,2025-03-10_23h42.02.041,SL_sali,2021.2.3,Win32,60.60606061,1.134,,,1,0,1,0,1,,,,,,,,
,,"[""diamond"",""no_dis"",""vert"",""up"",[99999,99999],[-106,106]]",diamond,no_dis,vert,up,"[99999,99999]","[-106,106]",up,1,,,,,,001,2025-03-10_23h42.02.041,SL_sali,2021.2.3,Win32,60.60606061,1.2663,,,2,0,2,0,1,,,,,,,,
,,"[""circle"",""no_dis"",""hori"",""left"",[99999,99999],[-106,-106]]",circle,no_dis,hori,left,"[99999,99999]","[-106,-106]",left,1,,,,,,001,2025-03-10_23h42.02.041,SL_sali,2021.2.3,Win32,60.60606061,1.4156,,,3,0,3,0,1,,,,,,,,
,,"[""circle"",""red"",""hori"",""left"",[-150,0],[-106,106]]",circle,red,hori,left,"[-150,0]","[-106,106]",left,1,,,,,,001,2025-03-10_23h42.02.041,SL_sali,2021.2.3,Win32,60.60606061,1.316,,,4,0,4,0,1,,,,,,,,
,,"[""circle"",""green"",""hori"",""left"",[106,106],[0,-150]]",circle,green,hori,left,"[106,106]","[0,-150]",left,1,,,,,,001,2025-03-10_23h42.02.041,SL_sali,2021.2.3,Win32,60.60606061,1.2681,,,5,0,5,0,1,,,,,,,,
,,"[""circle"",""green"",""vert"",""up"",[150,0],[-106,-106]]",circle,green,vert,up,"[150,0]","[-106,-106]",up,1,,,,,,001,2025-03-10_23h42.02.041,SL_sali,2021.2.3,Win32,60.60606061,1.22,,,6,0,6,0,1,,,,,,,,
,,"[""diamond"",""red"",""vert"",""up"",[-106,106],[-150,0]]",diamond,red,vert,up,"[-106,106]","[-150,0]",up,1,,,,,,001,2025-03-10_23h42.02.041,SL_sali,2021.2.3,Win32,60.60606061,0.942,,,7,0,7,0,1,,,,,,,,
,,"[""diamond"",""green"",""hori"",""left"",[0,150],[150,0]]",diamond,green,hori,left,"[0,150]","[150,0]",left,1,,,,,,001,2025-03-10_23h42.02.041,SL_sali,2021.2.3,Win32,60.60606061,1.0895,,,8,0,8,0,1,,,,,,,,
,,"[""diamond"",""red"",""hori"",""left"",[150,0],[-150,0]]",diamond,red,hori,left,"[150,0]","[-150,0]",left,1,,,,,,001,2025-03-10_23h42.02.041,SL_sali,2021.2.3,Win32,60.60606061,0.9016,,,9,0,9,0,1,,,,,,,,
,,"[""circle"",""green"",""vert"",""up"",[150,0],[0,-150]]",circle,green,vert,up,"[150,0]","[0,-150]",up,1,,,,,,001,2025-03-10_23h42.02.041,SL_sali,2021.2.3,Win32,60.60606061,1.951,,,10,0,10,0,1,,,,,,,,
,,"[""diamond"",""green"",""hori"",""left"",[-106,-106],[106,106]]",diamond,green,hori,left,"[-106,-106]","[106,106]",left,1,,,,,,001,2025-03-10_23h42.02.041,SL_sali,2021.2.3,Win32,60.60606061,1.2681,,,11,0,11,0,1,,,,,,,,
,,"[""circle"",""no_dis"",""vert"",""up"",[99999,99999],[106,-106]]",circle,no_dis,vert,up,"[99999,99999]","[106,-106]",up,1,,,,,,001,2025-03-10_23h42.02.041,SL_sali,2021.2.3,Win32,60.60606061,0.806,,,12,0,12,0,1,,,,,,,,
,,"[""circle"",""no_dis"",""hori"",""left"",[99999,99999],[106,106]]",circle,no_dis,hori,left,"[99999,99999]","[106,106]",left,1,,,,,,001,2025-03-10_23h42.02.041,SL_sali,2021.2.3,Win32,60.60606061,0.9177,,,13,0,13,0,1,,,,,,,,
,,"[""circle"",""red"",""hori"",""left"",[0,150],[150,0]]",circle,red,hori,left,"[0,150]","[150,0]",left,1,,,,,,001,2025-03-10_23h42.02.041,SL_sali,2021.2.3,Win32,60.60606061,1.718,,,14,0,14,0,1,,,,,,,,
,,"[""circle"",""red"",""hori"",""left"",[-150,0],[-106,-106]]",circle,red,hori,left,"[-150,0]","[-106,-106]",left,1,,,,,,001,2025-03-10_23h42.02.041,SL_sali,2021.2.3,Win32,60.60606061,1.2255,,,15,0,15,0,1,,,,,,,,
,,"[""diamond"",""red"",""hori"",""left"",[106,-106],[106,106]]",diamond,red,hori,left,"[106,-106]","[106,106]",left,1,,,,,,001,2025-03-10_23h42.02.041,SL_sali,2021.2.3,Win32,60.60606061,1.8843,,,16,0,16,0,1,,,,,,,,
,,"[""diamond"",""red"",""vert"",""up"",[106,-106],[-106,-106]]",diamond,red,vert,up,"[106,-106]","[-106,-106]",up,1,,,,,,001,2025-03-10_23h42.02.041,SL_sali,2021.2.3,Win32,60.60606061,0.8852,,,17,0,17,0,1,,,,,,,,
,,"[""diamond"",""no_dis"",""hori"",""left"",[99999,99999],[0,150]]",diamond,no_dis,hori,left,"[99999,99999]","[0,150]",left,1,,,,,,001,2025-03-10_23h42.02.041,SL_sali,2021.2.3,Win32,60.60606061,1.4075,,,18,0,18,0,1,,,,,,,,
,,"[""diamond"",""no_dis"",""vert"",""up"",[99999,99999],[0,-150]]",diamond,no_dis,vert,up,"[99999,99999]","[0,-150]",up,1,,,,,,001,2025-03-10_23h42.02.041,SL_sali,2021.2.3,Win32,60.60606061,0.8166,,,19,0,19,0,1,,,,,,,,
,,"[""circle"",""red"",""vert"",""up"",[150,0],[106,-106]]",circle,red,vert,up,"[150,0]","[106,-106]",up,1,,,,,,001,2025-03-10_23h42.02.041,SL_sali,2021.2.3,Win32,60.60606061,1.2512,,,20,0,20,0,1,,,,,,,,
,,"[""circle"",""red"",""vert"",""up"",[-106,-106],[-150,0]]",circle,red,vert,up,"[-106,-106]","[-150,0]",up,1,,,,,,001,2025-03-10_23h42.02.041,SL_sali,2021.2.3,Win32,60.60606061,1.5171,,,21,0,21,0,1,,,,,,,,
,,"[""diamond"",""no_dis"",""hori"",""left"",[99999,99999],[-150,0]]",diamond,no_dis,hori,left,"[99999,99999]","[-150,0]",left,1,,,,,,001,2025-03-10_23h42.02.041,SL_sali,2021.2.3,Win32,60.60606061,1.5874,,,22,0,22,0,1,,,,,,,,
,,"[""diamond"",""no_dis"",""hori"",""left"",[99999,99999],[0,150]]",diamond,no_dis,hori,left,"[99999,99999]","[0,150]",left,1,,,,,,001,2025-03-10_23h42.02.041,SL_sali,2021.2.3,Win32,60.60606061,1.151,,,23,0,23,0,1,,,,,,,,
,,"[""circle"",""no_dis"",""hori"",""left"",[99999,99999],[-106,-106]]",circle,no_dis,hori,left,"[99999,99999]","[-106,-106]",left,1,,,,,,001,2025-03-10_23h42.02.041,SL_sali,2021.2.3,Win32,60.60606061,1.5515,,,24,0,24,0,1,,,,,,,,
,,"[""diamond"",""no_dis"",""hori"",""left"",[99999,99999],[150,0]]",diamond,no_dis,hori,left,"[99999,99999]","[150,0]",left,1,,,,,,001,2025-03-10_23h42.02.041,SL_sali,2021.2.3,Win32,60.60606061,1.0671,,,25,0,25,0,1,,,,,,,,
,,"[""diamond"",""green"",""vert"",""up"",[150,0],[-106,-106]]",diamond,green,vert,up,"[150,0]","[-106,-106]",up,1,,,,,,001,2025-03-10_23h42.02.041,SL_sali,2021.2.3,Win32,60.60606061,0.8348,,,26,0,26,0,1,,,,,,,,
,,"[""diamond"",""no_dis"",""vert"",""up"",[99999,99999],[150,0]]",diamond,no_dis,vert,up,"[99999,99999]","[150,0]",up,1,,,,,,001,2025-03-10_23h42.02.041,SL_sali,2021.2.3,Win32,60.60606061,0.85,,,27,0,27,0,1,,,,,,,,
,,"[""diamond"",""red"",""hori"",""left"",[0,150],[-106,-106]]",diamond,red,hori,left,"[0,150]","[-106,-106]",left,1,,,,,,001,2025-03-10_23h42.02.041,SL_sali,2021.2.3,Win32,60.60606061,1.2678,,,28,0,28,0,1,,,,,,,,
,,"[""circle"",""red"",""vert"",""up"",[106,106],[-106,-106]]",circle,red,vert,up,"[106,106]","[-106,-106]",up,1,,,,,,001,2025-03-10_23h42.02.041,SL_sali,2021.2.3,Win32,60.60606061,1.2695,,,29,0,29,0,1,,,,,,,,
,,"[""circle"",""green"",""hori"",""left"",[-150,0],[150,0]]",circle,green,hori,left,"[-150,0]","[150,0]",left,1,,,,,,001,2025-03-10_23h42.02.041,SL_sali,2021.2.3,Win32,60.60606061,1.0713,,,30,0,30,0,1,,,,,,,,
,,"[""diamond"",""red"",""hori"",""left"",[106,106],[-150,0]]",diamond,red,hori,left,"[106,106]","[-150,0]",left,1,,,,,,001,2025-03-10_23h42.02.041,SL_sali,2021.2.3,Win32,60.60606061,1.0227,,,31,0,31,0,1,,,,,,,,
,,"[""circle"",""green"",""hori"",""left"",[-150,0],[106,106]]",circle,green,hori,left,"[-150,0]","[106,106]",left,1,,,,,,001,2025-03-10_23h42.02.041,SL_sali,2021.2.3,Win32,60.60606061,1.4331,,,32,0,32,0,1,,,,,,,,
,,"[""diamond"",""no_dis"",""vert"",""up"",[99999,99999],[-150,0]]",diamond,no_dis,vert,up,"[99999,99999]","[-150,0]",up,1,,,,,,001,2025-03-10_23h42.02.041,SL_sali,2021.2.3,Win32,60.60606061,0.9846,,,33,0,33,0,1,,,,,,,,
,,"[""circle"",""red"",""hori"",""left"",[-106,106],[106,-106]]",circle,red,hori,left,"[-106,106]","[106,-106]",left,1,,,,,,001,2025-03-10_23h42.02.041,SL_sali,2021.2.3,Win32,60.60606061,1.2371,,,34,0,34,0,1,,,,,,,,
,,"[""diamond"",""red"",""hori"",""left"",[150,0],[0,150]]",diamond,red,hori,left,"[150,0]","[0,150]",left,1,,,,,,001,2025-03-10_23h42.02.041,SL_sali,2021.2.3,Win32,60.60606061,1.7717,,,35,0,35,0,1,,,,,,,,
,,"[""diamond"",""no_dis"",""vert"",""up"",[99999,99999],[106,106]]",diamond,no_dis,vert,up,"[99999,99999]","[106,106]",up,1,,,,,,001,2025-03-10_23h42.02.041,SL_sali,2021.2.3,Win32,60.60606061,0.9328,,,36,0,36,0,1,,,,,,,,
,,"[""circle"",""red"",""vert"",""up"",[106,106],[-106,-106]]",circle,red,vert,up,"[106,106]","[-106,-106]",left,0,,,,,,001,2025-03-10_23h42.02.041,SL_sali,2021.2.3,Win32,60.60606061,0.9257,,,37,0,37,0,1,,,,,,,,
,,"[""diamond"",""no_dis"",""vert"",""up"",[99999,99999],[-150,0]]",diamond,no_dis,vert,up,"[99999,99999]","[-150,0]",up,1,,,,,,001,2025-03-10_23h42.02.041,SL_sali,2021.2.3,Win32,60.60606061,0.8398,,,38,0,38,0,1,,,,,,,,
,,"[""circle"",""red"",""vert"",""up"",[0,150],[106,106]]",circle,red,vert,up,"[0,150]","[106,106]",up,1,,,,,,001,2025-03-10_23h42.02.041,SL_sali,2021.2.3,Win32,60.60606061,1.5842,,,39,0,39,0,1,,,,,,,,
,,"[""circle"",""green"",""vert"",""up"",[150,0],[106,106]]",circle,green,vert,up,"[150,0]","[106,106]",left,0,,,,,,001,2025-03-10_23h42.02.041,SL_sali,2021.2.3,Win32,60.60606061,1.4814,,,40,0,40,0,1,,,,,,,,
,,"[""diamond"",""green"",""vert"",""up"",[106,-106],[150,0]]",diamond,green,vert,up,"[106,-106]","[150,0]",up,1,,,,,,001,2025-03-10_23h42.02.041,SL_sali,2021.2.3,Win32,60.60606061,1.039,,,41,0,41,0,1,,,,,,,,
,,"[""circle"",""red"",""vert"",""up"",[-106,106],[-150,0]]",circle,red,vert,up,"[-106,106]","[-150,0]",up,1,,,,,,001,2025-03-10_23h42.02.041,SL_sali,2021.2.3,Win32,60.60606061,1.1983,,,42,0,42,0,1,,,,,,,,
,,"[""diamond"",""red"",""vert"",""up"",[-106,-106],[0,150]]",diamond,red,vert,up,"[-106,-106]","[0,150]",up,1,,,,,,001,2025-03-10_23h42.02.041,SL_sali,2021.2.3,Win32,60.60606061,0.8203,,,43,0,43,0,1,,,,,,,,
,,"[""circle"",""green"",""hori"",""left"",[-150,0],[0,150]]",circle,green,hori,left,"[-150,0]","[0,150]",left,1,,,,,,001,2025-03-10_23h42.02.041,SL_sali,2021.2.3,Win32,60.60606061,1.122,,,44,0,44,0,1,,,,,,,,
,,"[""diamond"",""red"",""vert"",""up"",[0,150],[-106,106]]",diamond,red,vert,up,"[0,150]","[-106,106]",up,1,,,,,,001,2025-03-10_23h42.02.041,SL_sali,2021.2.3,Win32,60.60606061,1.2681,,,45,0,45,0,1,,,,,,,,
,,"[""circle"",""green"",""hori"",""left"",[-106,-106],[106,-106]]",circle,green,hori,left,"[-106,-106]","[106,-106]",left,1,,,,,,001,2025-03-10_23h42.02.041,SL_sali,2021.2.3,Win32,60.60606061,0.9838,,,46,0,46,0,1,,,,,,,,
,,"[""circle"",""no_dis"",""vert"",""up"",[99999,99999],[106,-106]]",circle,no_dis,vert,up,"[99999,99999]","[106,-106]",up,1,,,,,,001,2025-03-10_23h42.02.041,SL_sali,2021.2.3,Win32,60.60606061,0.8069,,,47,0,47,0,1,,,,,,,,
,,"[""circle"",""green"",""vert"",""up"",[106,-106],[-106,106]]",circle,green,vert,up,"[106,-106]","[-106,106]",up,1,,,,,,001,2025-03-10_23h42.02.041,SL_sali,2021.2.3,Win32,60.60606061,1.4704,,,48,0,48,0,1,,,,,,,,
,,"[""circle"",""no_dis"",""hori"",""left"",[99999,99999],[150,0]]",circle,no_dis,hori,left,"[99999,99999]","[150,0]",left,1,,,,,,001,2025-03-10_23h42.02.041,SL_sali,2021.2.3,Win32,60.60606061,0.8171,,,49,0,49,0,1,,,,,,,,
,,"[""circle"",""green"",""vert"",""up"",[0,-150],[0,150]]",circle,green,vert,up,"[0,-150]","[0,150]",up,1,,,,,,001,2025-03-10_23h42.02.041,SL_sali,2021.2.3,Win32,60.60606061,0.8232,,,50,0,50,0,1,,,,,,,,
,,"[""diamond"",""green"",""hori"",""left"",[106,-106],[-106,-106]]",diamond,green,hori,left,"[106,-106]","[-106,-106]",left,1,,,,,,001,2025-03-10_23h42.02.041,SL_sali,2021.2.3,Win32,60.60606061,0.9051,,,51,0,51,0,1,,,,,,,,
,,"[""circle"",""red"",""hori"",""left"",[-150,0],[150,0]]",circle,red,hori,left,"[-150,0]","[150,0]",left,1,,,,,,001,2025-03-10_23h42.02.041,SL_sali,2021.2.3,Win32,60.60606061,0.9021,,,52,0,52,0,1,,,,,,,,
,,"[""circle"",""red"",""hori"",""left"",[0,150],[106,-106]]",circle,red,hori,left,"[0,150]","[106,-106]",left,1,,,,,,001,2025-03-10_23h42.02.041,SL_sali,2021.2.3,Win32,60.60606061,0.8741,,,53,0,53,0,1,,,,,,,,
,,"[""diamond"",""green"",""hori"",""left"",[0,150],[-150,0]]",diamond,green,hori,left,"[0,150]","[-150,0]",left,1,,,,,,001,2025-03-10_23h42.02.041,SL_sali,2021.2.3,Win32,60.60606061,1.4502,,,54,0,54,0,1,,,,,,,,
,,"[""circle"",""green"",""hori"",""left"",[106,106],[0,150]]",circle,green,hori,left,"[106,106]","[0,150]",left,1,,,,,,001,2025-03-10_23h42.02.041,SL_sali,2021.2.3,Win32,60.60606061,0.9033,,,55,0,55,0,1,,,,,,,,
,,"[""circle"",""red"",""hori"",""left"",[0,-150],[0,150]]",circle,red,hori,left,"[0,-150]","[0,150]",left,1,,,,,,001,2025-03-10_23h42.02.041,SL_sali,2021.2.3,Win32,60.60606061,0.9333,,,56,0,56,0,1,,,,,,,,
,,"[""diamond"",""green"",""hori"",""left"",[150,0],[106,106]]",diamond,green,hori,left,"[150,0]","[106,106]",left,1,,,,,,001,2025-03-10_23h42.02.041,SL_sali,2021.2.3,Win32,60.60606061,0.9166,,,57,0,57,0,1,,,,,,,,
,,"[""circle"",""no_dis"",""vert"",""up"",[99999,99999],[106,106]]",circle,no_dis,vert,up,"[99999,99999]","[106,106]",up,1,,,,,,001,2025-03-10_23h42.02.041,SL_sali,2021.2.3,Win32,60.60606061,0.8706,,,58,0,58,0,1,,,,,,,,
,,"[""diamond"",""red"",""vert"",""up"",[-106,-106],[0,150]]",diamond,red,vert,up,"[-106,-106]","[0,150]",up,1,,,,,,001,2025-03-10_23h42.02.041,SL_sali,2021.2.3,Win32,60.60606061,0.8217,,,59,0,59,0,1,,,,,,,,
,,"[""diamond"",""no_dis"",""hori"",""left"",[99999,99999],[-150,0]]",diamond,no_dis,hori,left,"[99999,99999]","[-150,0]",left,1,,,,,,001,2025-03-10_23h42.02.041,SL_sali,2021.2.3,Win32,60.60606061,1.1355,,,60,0,60,0,1,,,,,,,,
,,"[""circle"",""no_dis"",""vert"",""up"",[99999,99999],[0,-150]]",circle,no_dis,vert,up,"[99999,99999]","[0,-150]",up,1,,,,,,001,2025-03-10_23h42.02.041,SL_sali,2021.2.3,Win32,60.60606061,1.3685,,,61,0,61,0,1,,,,,,,,
,,"[""diamond"",""green"",""hori"",""left"",[150,0],[-106,-106]]",diamond,green,hori,left,"[150,0]","[-106,-106]",left,1,,,,,,001,2025-03-10_23h42.02.041,SL_sali,2021.2.3,Win32,60.60606061,1.7486,,,62,0,62,0,1,,,,,,,,
,,"[""diamond"",""green"",""hori"",""left"",[0,150],[-106,106]]",diamond,green,hori,left,"[0,150]","[-106,106]",left,1,,,,,,001,2025-03-10_23h42.02.041,SL_sali,2021.2.3,Win32,60.60606061,1.6525,,,63,0,63,0,1,,,,,,,,
,,"[""diamond"",""green"",""vert"",""up"",[150,0],[0,150]]",diamond,green,vert,up,"[150,0]","[0,150]",up,1,,,,,,001,2025-03-10_23h42.02.041,SL_sali,2021.2.3,Win32,60.60606061,1.0332,,,64,0,64,0,1,,,,,,,,
,,"[""circle"",""red"",""vert"",""up"",[0,-150],[106,106]]",circle,red,vert,up,"[0,-150]","[106,106]",up,1,,,,,,001,2025-03-10_23h42.02.041,SL_sali,2021.2.3,Win32,60.60606061,1.4694,,,65,0,65,0,1,,,,,,,,
,,"[""diamond"",""red"",""vert"",""up"",[150,0],[0,-150]]",diamond,red,vert,up,"[150,0]","[0,-150]",left,0,,,,,,001,2025-03-10_23h42.02.041,SL_sali,2021.2.3,Win32,60.60606061,1.6184,,,66,0,66,0,1,,,,,,,,
,,"[""circle"",""green"",""vert"",""up"",[150,0],[-150,0]]",circle,green,vert,up,"[150,0]","[-150,0]",up,1,,,,,,001,2025-03-10_23h42.02.041,SL_sali,2021.2.3,Win32,60.60606061,1.2506,,,67,0,67,0,1,,,,,,,,
,,"[""circle"",""no_dis"",""vert"",""up"",[99999,99999],[-106,106]]",circle,no_dis,vert,up,"[99999,99999]","[-106,106]",up,1,,,,,,001,2025-03-10_23h42.02.041,SL_sali,2021.2.3,Win32,60.60606061,2.4832,,,68,0,68,0,1,,,,,,,,
,,"[""circle"",""green"",""vert"",""up"",[106,106],[-106,-106]]",circle,green,vert,up,"[106,106]","[-106,-106]",up,1,,,,,,001,2025-03-10_23h42.02.041,SL_sali,2021.2.3,Win32,60.60606061,1.527,,,69,0,69,0,1,,,,,,,,
,,"[""circle"",""green"",""hori"",""left"",[150,0],[-150,0]]",circle,green,hori,left,"[150,0]","[-150,0]",left,1,,,,,,001,2025-03-10_23h42.02.041,SL_sali,2021.2.3,Win32,60.60606061,1.4182,,,70,0,70,0,1,,,,,,,,
,,"[""diamond"",""green"",""vert"",""up"",[0,-150],[106,-106]]",diamond,green,vert,up,"[0,-150]","[106,-106]",up,1,,,,,,001,2025-03-10_23h42.02.041,SL_sali,2021.2.3,Win32,60.60606061,1.6661,,,71,0,71,0,1,,,,,,,,
,,"[""diamond"",""green"",""vert"",""up"",[106,-106],[0,-150]]",diamond,green,vert,up,"[106,-106]","[0,-150]",up,1,,,,,,001,2025-03-10_23h42.02.041,SL_sali,2021.2.3,Win32,60.60606061,1.0175,,,72,0,72,0,1,,,,,,,,
,,"[""diamond"",""green"",""vert"",""up"",[0,-150],[-106,106]]",diamond,green,vert,up,"[0,-150]","[-106,106]",up,1,,,,,,001,2025-03-10_23h42.02.041,SL_sali,2021.2.3,Win32,60.60606061,0.9489,,,73,0,73,0,1,,,,,,,,
,,"[""diamond"",""red"",""hori"",""left"",[106,106],[0,-150]]",diamond,red,hori,left,"[106,106]","[0,-150]",left,1,,,,,,001,2025-03-10_23h42.02.041,SL_sali,2021.2.3,Win32,60.60606061,1.4499,,,74,0,74,0,1,,,,,,,,
,,"[""diamond"",""green"",""hori"",""left"",[-106,-106],[-150,0]]",diamond,green,hori,left,"[-106,-106]","[-150,0]",left,1,,,,,,001,2025-03-10_23h42.02.041,SL_sali,2021.2.3,Win32,60.60606061,1.2495,,,75,0,75,0,1,,,,,,,,
,,"[""diamond"",""no_dis"",""vert"",""up"",[99999,99999],[106,106]]",diamond,no_dis,vert,up,"[99999,99999]","[106,106]",up,1,,,,,,001,2025-03-10_23h42.02.041,SL_sali,2021.2.3,Win32,60.60606061,1.0676,,,76,0,76,0,1,,,,,,,,
,,"[""diamond"",""no_dis"",""vert"",""up"",[99999,99999],[150,0]]",diamond,no_dis,vert,up,"[99999,99999]","[150,0]",up,1,,,,,,001,2025-03-10_23h42.02.041,SL_sali,2021.2.3,Win32,60.60606061,1.1013,,,77,0,77,0,1,,,,,,,,
,,"[""diamond"",""green"",""vert"",""up"",[-106,-106],[0,150]]",diamond,green,vert,up,"[-106,-106]","[0,150]",up,1,,,,,,001,2025-03-10_23h42.02.041,SL_sali,2021.2.3,Win32,60.60606061,0.8827,,,78,0,78,0,1,,,,,,,,
,,"[""diamond"",""no_dis"",""hori"",""left"",[99999,99999],[0,150]]",diamond,no_dis,hori,left,"[99999,99999]","[0,150]",left,1,,,,,,001,2025-03-10_23h42.02.041,SL_sali,2021.2.3,Win32,60.60606061,2.0707,,,79,0,79,0,1,,,,,,,,
,,"[""diamond"",""red"",""vert"",""up"",[106,106],[150,0]]",diamond,red,vert,up,"[106,106]","[150,0]",up,1,,,,,,001,2025-03-10_23h42.02.041,SL_sali,2021.2.3,Win32,60.60606061,1.233,,,80,0,80,0,1,,,,,,,,
,,"[""diamond"",""green"",""vert"",""up"",[-106,-106],[106,106]]",diamond,green,vert,up,"[-106,-106]","[106,106]",up,1,,,,,,001,2025-03-10_23h42.02.041,SL_sali,2021.2.3,Win32,60.60606061,0.8249,,,81,0,81,0,1,,,,,,,,
,,"[""circle"",""green"",""vert"",""up"",[0,-150],[-150,0]]",circle,green,vert,up,"[0,-150]","[-150,0]",up,1,,,,,,001,2025-03-10_23h42.02.041,SL_sali,2021.2.3,Win32,60.60606061,1.2683,,,82,0,82,0,1,,,,,,,,
,,"[""circle"",""red"",""vert"",""up"",[-106,106],[106,-106]]",circle,red,vert,up,"[-106,106]","[106,-106]",up,1,,,,,,001,2025-03-10_23h42.02.041,SL_sali,2021.2.3,Win32,60.60606061,1.4182,,,83,0,83,0,1,,,,,,,,
,,"[""circle"",""green"",""hori"",""left"",[150,0],[-106,-106]]",circle,green,hori,left,"[150,0]","[-106,-106]",left,1,,,,,,001,2025-03-10_23h42.02.041,SL_sali,2021.2.3,Win32,60.60606061,1.1012,,,84,0,84,0,1,,,,,,,,
,,"[""diamond"",""green"",""hori"",""left"",[-106,106],[0,150]]",diamond,green,hori,left,"[-106,106]","[0,150]",left,1,,,,,,001,2025-03-10_23h42.02.041,SL_sali,2021.2.3,Win32,60.60606061,1.2959,,,85,0,85,0,1,,,,,,,,
,,"[""diamond"",""red"",""vert"",""up"",[-150,0],[0,150]]",diamond,red,vert,up,"[-150,0]","[0,150]",up,1,,,,,,001,2025-03-10_23h42.02.041,SL_sali,2021.2.3,Win32,60.60606061,0.9512,,,86,0,86,0,1,,,,,,,,
,,"[""circle"",""red"",""vert"",""up"",[0,-150],[-106,106]]",circle,red,vert,up,"[0,-150]","[-106,106]",up,1,,,,,,001,2025-03-10_23h42.02.041,SL_sali,2021.2.3,Win32,60.60606061,1.1882,,,87,0,87,0,1,,,,,,,,
,,"[""circle"",""green"",""vert"",""up"",[150,0],[-150,0]]",circle,green,vert,up,"[150,0]","[-150,0]",up,1,,,,,,001,2025-03-10_23h42.02.041,SL_sali,2021.2.3,Win32,60.60606061,0.9673,,,88,0,88,0,1,,,,,,,,
,,"[""diamond"",""red"",""hori"",""left"",[150,0],[106,-106]]",diamond,red,hori,left,"[150,0]","[106,-106]",left,1,,,,,,001,2025-03-10_23h42.02.041,SL_sali,2021.2.3,Win32,60.60606061,1.1263,,,89,0,89,0,1,,,,,,,,
,,"[""diamond"",""red"",""vert"",""up"",[150,0],[0,150]]",diamond,red,vert,up,"[150,0]","[0,150]",up,1,,,,,,001,2025-03-10_23h42.02.041,SL_sali,2021.2.3,Win32,60.60606061,1.0545,,,90,0,90,0,1,,,,,,,,
,,"[""circle"",""red"",""hori"",""left"",[0,-150],[-150,0]]",circle,red,hori,left,"[0,-150]","[-150,0]",left,1,,,,,,001,2025-03-10_23h42.02.041,SL_sali,2021.2.3,Win32,60.60606061,1.0653,,,91,0,91,0,1,,,,,,,,
