﻿key_resp.keys,key_resp.rt,trial_para,tar_shape,dis_color_condi,tar_line,cor_resp,dis_loc,tar_loc,resp.keys,resp.corr,trials.thisRepN,trials.thisTrialN,trials.thisN,trials.thisIndex,trials.ran,participant,date,expName,psychopyVersion,OS,frameRate,resp.rt,key_resp_2.keys,key_resp_2.rt,trials_2.thisRepN,trials_2.thisTrialN,trials_2.thisN,trials_2.thisIndex,trials_2.ran,block_num,key_resp_3.keys,key_resp_3.rt,trials_3.thisRepN,trials_3.thisTrialN,trials_3.thisN,trials_3.thisIndex,trials_3.ran
space,18.3621,"[""diamond"",""red"",""vert"",""up"",[0,150],[106,-106]]",diamond,red,vert,up,"[0,150]","[106,-106]",,0,0,0,0,0,1,001,2025-03-11_19h44.32.103,SL_sali,2021.2.3,Win32,59.17159763,,,,,,,,,,,,,,,,
,,"[""diamond"",""no_dis"",""hori"",""left"",[99999,99999],[-106,106]]",diamond,no_dis,hori,left,"[99999,99999]","[-106,106]",left,1,1,0,1,0,1,001,2025-03-11_19h44.32.103,SL_sali,2021.2.3,Win32,59.17159763,2.2396,,,,,,,,,,,,,,,
,,"[""circle"",""green"",""hori"",""left"",[106,-106],[-150,0]]",circle,green,hori,left,"[106,-106]","[-150,0]",,0,2,0,2,0,1,001,2025-03-11_19h44.32.103,SL_sali,2021.2.3,Win32,59.17159763,,,,,,,,,,,,,,,,
,,"[""circle"",""green"",""vert"",""up"",[106,-106],[150,0]]",circle,green,vert,up,"[106,-106]","[150,0]",up,1,3,0,3,0,1,001,2025-03-11_19h44.32.103,SL_sali,2021.2.3,Win32,59.17159763,1.617,,,,,,,,,,,,,,,
,,"[""circle"",""green"",""hori"",""left"",[106,106],[106,-106]]",circle,green,hori,left,"[106,106]","[106,-106]",left,1,4,0,4,0,1,001,2025-03-11_19h44.32.103,SL_sali,2021.2.3,Win32,59.17159763,1.433,,,,,,,,,,,,,,,
,,"[""circle"",""no_dis"",""hori"",""left"",[99999,99999],[0,150]]",circle,no_dis,hori,left,"[99999,99999]","[0,150]",left,1,5,0,5,0,1,001,2025-03-11_19h44.32.103,SL_sali,2021.2.3,Win32,59.17159763,1.0724,,,,,,,,,,,,,,,
,,"[""circle"",""red"",""vert"",""up"",[-106,-106],[-106,106]]",circle,red,vert,up,"[-106,-106]","[-106,106]",up,1,6,0,6,0,1,001,2025-03-11_19h44.32.103,SL_sali,2021.2.3,Win32,59.17159763,1.4484,,,,,,,,,,,,,,,
,,"[""circle"",""green"",""vert"",""up"",[-106,106],[0,-150]]",circle,green,vert,up,"[-106,106]","[0,-150]",up,1,7,0,7,0,1,001,2025-03-11_19h44.32.103,SL_sali,2021.2.3,Win32,59.17159763,2.3318,,,,,,,,,,,,,,,
,,"[""circle"",""red"",""vert"",""up"",[-106,-106],[106,106]]",circle,red,vert,up,"[-106,-106]","[106,106]",up,1,8,0,8,0,1,001,2025-03-11_19h44.32.103,SL_sali,2021.2.3,Win32,59.17159763,1.9162,,,,,,,,,,,,,,,
,,"[""diamond"",""red"",""vert"",""up"",[0,150],[-150,0]]",diamond,red,vert,up,"[0,150]","[-150,0]",left,0,9,0,9,0,1,001,2025-03-11_19h44.32.103,SL_sali,2021.2.3,Win32,59.17159763,2.3992,,,,,,,,,,,,,,,
,,"[""diamond"",""red"",""vert"",""up"",[0,150],[106,-106]]",diamond,red,vert,up,"[0,150]","[106,-106]",up,1,,,,,,001,2025-03-11_19h44.32.103,SL_sali,2021.2.3,Win32,59.17159763,1.3658,space,5.4863,0,0,0,0,1,,,,,,,,
,,"[""diamond"",""no_dis"",""hori"",""left"",[99999,99999],[-106,106]]",diamond,no_dis,hori,left,"[99999,99999]","[-106,106]",left,1,,,,,,001,2025-03-11_19h44.32.103,SL_sali,2021.2.3,Win32,59.17159763,2.1013,,,1,0,1,0,1,,,,,,,,
,,"[""circle"",""green"",""hori"",""left"",[106,-106],[-150,0]]",circle,green,hori,left,"[106,-106]","[-150,0]",left,1,,,,,,001,2025-03-11_19h44.32.103,SL_sali,2021.2.3,Win32,59.17159763,2.1298,,,2,0,2,0,1,,,,,,,,
,,"[""circle"",""green"",""vert"",""up"",[106,-106],[150,0]]",circle,green,vert,up,"[106,-106]","[150,0]",up,1,,,,,,001,2025-03-11_19h44.32.103,SL_sali,2021.2.3,Win32,59.17159763,1.2132,,,3,0,3,0,1,,,,,,,,
,,"[""circle"",""green"",""hori"",""left"",[106,106],[106,-106]]",circle,green,hori,left,"[106,106]","[106,-106]",left,1,,,,,,001,2025-03-11_19h44.32.103,SL_sali,2021.2.3,Win32,59.17159763,1.204,,,4,0,4,0,1,,,,,,,,
,,"[""circle"",""no_dis"",""hori"",""left"",[99999,99999],[0,150]]",circle,no_dis,hori,left,"[99999,99999]","[0,150]",left,1,,,,,,001,2025-03-11_19h44.32.103,SL_sali,2021.2.3,Win32,59.17159763,1.0608,,,5,0,5,0,1,,,,,,,,
,,"[""circle"",""red"",""vert"",""up"",[-106,-106],[-106,106]]",circle,red,vert,up,"[-106,-106]","[-106,106]",up,1,,,,,,001,2025-03-11_19h44.32.103,SL_sali,2021.2.3,Win32,59.17159763,1.745,,,6,0,6,0,1,,,,,,,,
,,"[""circle"",""green"",""vert"",""up"",[-106,106],[0,-150]]",circle,green,vert,up,"[-106,106]","[0,-150]",up,1,,,,,,001,2025-03-11_19h44.32.103,SL_sali,2021.2.3,Win32,59.17159763,1.3969,,,7,0,7,0,1,,,,,,,,
,,"[""circle"",""red"",""vert"",""up"",[-106,-106],[106,106]]",circle,red,vert,up,"[-106,-106]","[106,106]",up,1,,,,,,001,2025-03-11_19h44.32.103,SL_sali,2021.2.3,Win32,59.17159763,2.0019,,,8,0,8,0,1,,,,,,,,
,,"[""diamond"",""red"",""vert"",""up"",[0,150],[-150,0]]",diamond,red,vert,up,"[0,150]","[-150,0]",left,0,,,,,,001,2025-03-11_19h44.32.103,SL_sali,2021.2.3,Win32,59.17159763,2.224,,,9,0,9,0,1,,,,,,,,
,,"[""circle"",""no_dis"",""vert"",""up"",[99999,99999],[0,-150]]",circle,no_dis,vert,up,"[99999,99999]","[0,-150]",up,1,,,,,,001,2025-03-11_19h44.32.103,SL_sali,2021.2.3,Win32,59.17159763,1.6262,,,10,0,10,0,1,,,,,,,,
,,"[""circle"",""green"",""hori"",""left"",[106,-106],[150,0]]",circle,green,hori,left,"[106,-106]","[150,0]",left,1,,,,,,001,2025-03-11_19h44.32.103,SL_sali,2021.2.3,Win32,59.17159763,1.9106,,,11,0,11,0,1,,,,,,,,
,,"[""circle"",""green"",""hori"",""left"",[0,-150],[-106,106]]",circle,green,hori,left,"[0,-150]","[-106,106]",left,1,,,,,,001,2025-03-11_19h44.32.103,SL_sali,2021.2.3,Win32,59.17159763,1.216,,,12,0,12,0,1,,,,,,,,
,,"[""circle"",""red"",""vert"",""up"",[106,-106],[-106,-106]]",circle,red,vert,up,"[106,-106]","[-106,-106]",up,1,,,,,,001,2025-03-11_19h44.32.103,SL_sali,2021.2.3,Win32,59.17159763,1.2832,,,13,0,13,0,1,,,,,,,,
,,"[""circle"",""no_dis"",""hori"",""left"",[99999,99999],[106,106]]",circle,no_dis,hori,left,"[99999,99999]","[106,106]",left,1,,,,,,001,2025-03-11_19h44.32.103,SL_sali,2021.2.3,Win32,59.17159763,1.199,,,14,0,14,0,1,,,,,,,,
,,"[""circle"",""red"",""vert"",""up"",[106,-106],[106,106]]",circle,red,vert,up,"[106,-106]","[106,106]",up,1,,,,,,001,2025-03-11_19h44.32.103,SL_sali,2021.2.3,Win32,59.17159763,1.9518,,,15,0,15,0,1,,,,,,,,
,,"[""diamond"",""green"",""vert"",""up"",[0,-150],[-106,106]]",diamond,green,vert,up,"[0,-150]","[-106,106]",up,1,,,,,,001,2025-03-11_19h44.32.103,SL_sali,2021.2.3,Win32,59.17159763,2.2819,,,16,0,16,0,1,,,,,,,,
,,"[""diamond"",""red"",""vert"",""up"",[-106,106],[0,-150]]",diamond,red,vert,up,"[-106,106]","[0,-150]",up,1,,,,,,001,2025-03-11_19h44.32.103,SL_sali,2021.2.3,Win32,59.17159763,1.5864,,,17,0,17,0,1,,,,,,,,
,,"[""diamond"",""green"",""vert"",""up"",[106,-106],[-106,106]]",diamond,green,vert,up,"[106,-106]","[-106,106]",up,1,,,,,,001,2025-03-11_19h44.32.103,SL_sali,2021.2.3,Win32,59.17159763,1.8184,,,18,0,18,0,1,,,,,,,,
,,"[""diamond"",""red"",""hori"",""left"",[150,0],[-150,0]]",diamond,red,hori,left,"[150,0]","[-150,0]",left,1,,,,,,001,2025-03-11_19h44.32.103,SL_sali,2021.2.3,Win32,59.17159763,1.4566,,,19,0,19,0,1,,,,,,,,
,,"[""diamond"",""no_dis"",""vert"",""up"",[99999,99999],[0,-150]]",diamond,no_dis,vert,up,"[99999,99999]","[0,-150]",up,1,,,,,,001,2025-03-11_19h44.32.103,SL_sali,2021.2.3,Win32,59.17159763,1.1801,,,20,0,20,0,1,,,,,,,,
,,"[""diamond"",""green"",""hori"",""left"",[106,-106],[-106,106]]",diamond,green,hori,left,"[106,-106]","[-106,106]",left,1,,,,,,001,2025-03-11_19h44.32.103,SL_sali,2021.2.3,Win32,59.17159763,1.6308,,,21,0,21,0,1,,,,,,,,
,,"[""circle"",""no_dis"",""vert"",""up"",[99999,99999],[-106,106]]",circle,no_dis,vert,up,"[99999,99999]","[-106,106]",up,1,,,,,,001,2025-03-11_19h44.32.103,SL_sali,2021.2.3,Win32,59.17159763,1.8757,,,22,0,22,0,1,,,,,,,,
,,"[""diamond"",""red"",""hori"",""left"",[-106,106],[0,150]]",diamond,red,hori,left,"[-106,106]","[0,150]",left,1,,,,,,001,2025-03-11_19h44.32.103,SL_sali,2021.2.3,Win32,59.17159763,2.1837,,,23,0,23,0,1,,,,,,,,
,,"[""diamond"",""no_dis"",""hori"",""left"",[99999,99999],[106,106]]",diamond,no_dis,hori,left,"[99999,99999]","[106,106]",left,1,,,,,,001,2025-03-11_19h44.32.103,SL_sali,2021.2.3,Win32,59.17159763,1.3643,,,24,0,24,0,1,,,,,,,,
,,"[""diamond"",""green"",""vert"",""up"",[-150,0],[106,-106]]",diamond,green,vert,up,"[-150,0]","[106,-106]",up,1,,,,,,001,2025-03-11_19h44.32.103,SL_sali,2021.2.3,Win32,59.17159763,1.5825,,,25,0,25,0,1,,,,,,,,
,,"[""diamond"",""green"",""vert"",""up"",[106,-106],[150,0]]",diamond,green,vert,up,"[106,-106]","[150,0]",up,1,,,,,,001,2025-03-11_19h44.32.103,SL_sali,2021.2.3,Win32,59.17159763,2.0155,,,26,0,26,0,1,,,,,,,,
,,"[""circle"",""red"",""hori"",""left"",[0,-150],[0,150]]",circle,red,hori,left,"[0,-150]","[0,150]",left,1,,,,,,001,2025-03-11_19h44.32.103,SL_sali,2021.2.3,Win32,59.17159763,1.6204,,,27,0,27,0,1,,,,,,,,
,,"[""circle"",""red"",""hori"",""left"",[0,150],[-150,0]]",circle,red,hori,left,"[0,150]","[-150,0]",left,1,,,,,,001,2025-03-11_19h44.32.103,SL_sali,2021.2.3,Win32,59.17159763,1.6843,,,28,0,28,0,1,,,,,,,,
,,"[""circle"",""red"",""vert"",""up"",[150,0],[0,150]]",circle,red,vert,up,"[150,0]","[0,150]",up,1,,,,,,001,2025-03-11_19h44.32.103,SL_sali,2021.2.3,Win32,59.17159763,1.4371,,,29,0,29,0,1,,,,,,,,
,,"[""circle"",""no_dis"",""hori"",""left"",[99999,99999],[0,-150]]",circle,no_dis,hori,left,"[99999,99999]","[0,-150]",left,1,,,,,,001,2025-03-11_19h44.32.103,SL_sali,2021.2.3,Win32,59.17159763,2.2473,,,30,0,30,0,1,,,,,,,,
,,"[""diamond"",""no_dis"",""hori"",""left"",[99999,99999],[150,0]]",diamond,no_dis,hori,left,"[99999,99999]","[150,0]",left,1,,,,,,001,2025-03-11_19h44.32.103,SL_sali,2021.2.3,Win32,59.17159763,1.3507,,,31,0,31,0,1,,,,,,,,
,,"[""circle"",""no_dis"",""hori"",""left"",[99999,99999],[106,-106]]",circle,no_dis,hori,left,"[99999,99999]","[106,-106]",left,1,,,,,,001,2025-03-11_19h44.32.103,SL_sali,2021.2.3,Win32,59.17159763,2.3925,,,32,0,32,0,1,,,,,,,,
,,"[""circle"",""red"",""hori"",""left"",[106,106],[0,150]]",circle,red,hori,left,"[106,106]","[0,150]",left,1,,,,,,001,2025-03-11_19h44.32.103,SL_sali,2021.2.3,Win32,59.17159763,2.8603,,,33,0,33,0,1,,,,,,,,
,,"[""diamond"",""no_dis"",""hori"",""left"",[99999,99999],[-150,0]]",diamond,no_dis,hori,left,"[99999,99999]","[-150,0]",,0,,,,,,001,2025-03-11_19h44.32.103,SL_sali,2021.2.3,Win32,59.17159763,,,,34,0,34,0,1,,,,,,,,
,,"[""diamond"",""no_dis"",""hori"",""left"",[99999,99999],[-106,106]]",diamond,no_dis,hori,left,"[99999,99999]","[-106,106]",left,1,,,,,,001,2025-03-11_19h44.32.103,SL_sali,2021.2.3,Win32,59.17159763,2.1438,,,35,0,35,0,1,,,,,,,,
,,"[""diamond"",""green"",""vert"",""up"",[106,-106],[0,-150]]",diamond,green,vert,up,"[106,-106]","[0,-150]",up,1,,,,,,001,2025-03-11_19h44.32.103,SL_sali,2021.2.3,Win32,59.17159763,2.35,,,36,0,36,0,1,,,,,,,,
,,"[""diamond"",""green"",""hori"",""left"",[106,-106],[-106,-106]]",diamond,green,hori,left,"[106,-106]","[-106,-106]",left,1,,,,,,001,2025-03-11_19h44.32.103,SL_sali,2021.2.3,Win32,59.17159763,1.4053,,,37,0,37,0,1,,,,,,,,
,,"[""diamond"",""red"",""vert"",""up"",[106,106],[0,-150]]",diamond,red,vert,up,"[106,106]","[0,-150]",left,0,,,,,,001,2025-03-11_19h44.32.103,SL_sali,2021.2.3,Win32,59.17159763,1.7188,,,38,0,38,0,1,,,,,,,,
,,"[""circle"",""green"",""hori"",""left"",[106,-106],[0,-150]]",circle,green,hori,left,"[106,-106]","[0,-150]",left,1,,,,,,001,2025-03-11_19h44.32.103,SL_sali,2021.2.3,Win32,59.17159763,2.118,,,39,0,39,0,1,,,,,,,,
,,"[""circle"",""green"",""hori"",""left"",[106,-106],[150,0]]",circle,green,hori,left,"[106,-106]","[150,0]",left,1,,,,,,001,2025-03-11_19h44.32.103,SL_sali,2021.2.3,Win32,59.17159763,1.9667,,,40,0,40,0,1,,,,,,,,
,,"[""circle"",""green"",""vert"",""up"",[-106,106],[150,0]]",circle,green,vert,up,"[-106,106]","[150,0]",up,1,,,,,,001,2025-03-11_19h44.32.103,SL_sali,2021.2.3,Win32,59.17159763,1.4863,,,41,0,41,0,1,,,,,,,,
,,"[""diamond"",""no_dis"",""vert"",""up"",[99999,99999],[-150,0]]",diamond,no_dis,vert,up,"[99999,99999]","[-150,0]",up,1,,,,,,001,2025-03-11_19h44.32.103,SL_sali,2021.2.3,Win32,59.17159763,1.9397,,,42,0,42,0,1,,,,,,,,
,,"[""diamond"",""green"",""hori"",""left"",[106,-106],[-106,-106]]",diamond,green,hori,left,"[106,-106]","[-106,-106]",left,1,,,,,,001,2025-03-11_19h44.32.103,SL_sali,2021.2.3,Win32,59.17159763,1.8169,,,43,0,43,0,1,,,,,,,,
,,"[""diamond"",""no_dis"",""vert"",""up"",[99999,99999],[-106,-106]]",diamond,no_dis,vert,up,"[99999,99999]","[-106,-106]",up,1,,,,,,001,2025-03-11_19h44.32.103,SL_sali,2021.2.3,Win32,59.17159763,1.5191,,,44,0,44,0,1,,,,,,,,
,,"[""diamond"",""red"",""hori"",""left"",[106,-106],[-106,106]]",diamond,red,hori,left,"[106,-106]","[-106,106]",left,1,,,,,,001,2025-03-11_19h44.32.103,SL_sali,2021.2.3,Win32,59.17159763,1.785,,,45,0,45,0,1,,,,,,,,
,,"[""circle"",""red"",""hori"",""left"",[-106,106],[-150,0]]",circle,red,hori,left,"[-106,106]","[-150,0]",left,1,,,,,,001,2025-03-11_19h44.32.103,SL_sali,2021.2.3,Win32,59.17159763,1.4724,,,46,0,46,0,1,,,,,,,,
,,"[""diamond"",""red"",""hori"",""left"",[-106,-106],[-106,106]]",diamond,red,hori,left,"[-106,-106]","[-106,106]",left,1,,,,,,001,2025-03-11_19h44.32.103,SL_sali,2021.2.3,Win32,59.17159763,2.5419,,,47,0,47,0,1,,,,,,,,
,,"[""diamond"",""no_dis"",""hori"",""left"",[99999,99999],[150,0]]",diamond,no_dis,hori,left,"[99999,99999]","[150,0]",left,1,,,,,,001,2025-03-11_19h44.32.103,SL_sali,2021.2.3,Win32,59.17159763,2.072,,,48,0,48,0,1,,,,,,,,
,,"[""diamond"",""green"",""vert"",""up"",[106,-106],[0,-150]]",diamond,green,vert,up,"[106,-106]","[0,-150]",left,0,,,,,,001,2025-03-11_19h44.32.103,SL_sali,2021.2.3,Win32,59.17159763,1.3946,,,49,0,49,0,1,,,,,,,,
,,"[""diamond"",""green"",""hori"",""left"",[0,150],[-150,0]]",diamond,green,hori,left,"[0,150]","[-150,0]",left,1,,,,,,001,2025-03-11_19h44.32.103,SL_sali,2021.2.3,Win32,59.17159763,2.4458,,,50,0,50,0,1,,,,,,,,
,,"[""diamond"",""green"",""hori"",""left"",[150,0],[0,-150]]",diamond,green,hori,left,"[150,0]","[0,-150]",left,1,,,,,,001,2025-03-11_19h44.32.103,SL_sali,2021.2.3,Win32,59.17159763,1.4807,,,51,0,51,0,1,,,,,,,,
,,"[""circle"",""no_dis"",""vert"",""up"",[99999,99999],[-106,106]]",circle,no_dis,vert,up,"[99999,99999]","[-106,106]",up,1,,,,,,001,2025-03-11_19h44.32.103,SL_sali,2021.2.3,Win32,59.17159763,2.4182,,,52,0,52,0,1,,,,,,,,
,,"[""circle"",""green"",""vert"",""up"",[150,0],[0,-150]]",circle,green,vert,up,"[150,0]","[0,-150]",up,1,,,,,,001,2025-03-11_19h44.32.103,SL_sali,2021.2.3,Win32,59.17159763,1.47,,,53,0,53,0,1,,,,,,,,
,,"[""diamond"",""no_dis"",""hori"",""left"",[99999,99999],[106,-106]]",diamond,no_dis,hori,left,"[99999,99999]","[106,-106]",left,1,,,,,,001,2025-03-11_19h44.32.103,SL_sali,2021.2.3,Win32,59.17159763,1.5037,,,54,0,54,0,1,,,,,,,,
,,"[""circle"",""red"",""vert"",""up"",[106,-106],[-106,-106]]",circle,red,vert,up,"[106,-106]","[-106,-106]",up,1,,,,,,001,2025-03-11_19h44.32.103,SL_sali,2021.2.3,Win32,59.17159763,2.772,,,55,0,55,0,1,,,,,,,,
,,"[""circle"",""no_dis"",""vert"",""up"",[99999,99999],[150,0]]",circle,no_dis,vert,up,"[99999,99999]","[150,0]",up,1,,,,,,001,2025-03-11_19h44.32.103,SL_sali,2021.2.3,Win32,59.17159763,1.7018,,,56,0,56,0,1,,,,,,,,
,,"[""diamond"",""green"",""vert"",""up"",[106,106],[150,0]]",diamond,green,vert,up,"[106,106]","[150,0]",up,1,,,,,,001,2025-03-11_19h44.32.103,SL_sali,2021.2.3,Win32,59.17159763,2.0159,,,57,0,57,0,1,,,,,,,,
,,"[""diamond"",""red"",""vert"",""up"",[106,106],[0,-150]]",diamond,red,vert,up,"[106,106]","[0,-150]",up,1,,,,,,001,2025-03-11_19h44.32.103,SL_sali,2021.2.3,Win32,59.17159763,1.7693,,,58,0,58,0,1,,,,,,,,
,,"[""circle"",""no_dis"",""hori"",""left"",[99999,99999],[-106,-106]]",circle,no_dis,hori,left,"[99999,99999]","[-106,-106]",left,1,,,,,,001,2025-03-11_19h44.32.103,SL_sali,2021.2.3,Win32,59.17159763,2.037,,,59,0,59,0,1,,,,,,,,
,,"[""circle"",""red"",""hori"",""left"",[106,106],[150,0]]",circle,red,hori,left,"[106,106]","[150,0]",left,1,,,,,,001,2025-03-11_19h44.32.103,SL_sali,2021.2.3,Win32,59.17159763,1.3334,,,60,0,60,0,1,,,,,,,,
,,"[""circle"",""no_dis"",""hori"",""left"",[99999,99999],[-106,106]]",circle,no_dis,hori,left,"[99999,99999]","[-106,106]",left,1,,,,,,001,2025-03-11_19h44.32.103,SL_sali,2021.2.3,Win32,59.17159763,1.4549,,,61,0,61,0,1,,,,,,,,
,,"[""circle"",""no_dis"",""vert"",""up"",[99999,99999],[-150,0]]",circle,no_dis,vert,up,"[99999,99999]","[-150,0]",up,1,,,,,,001,2025-03-11_19h44.32.103,SL_sali,2021.2.3,Win32,59.17159763,0.8845,,,62,0,62,0,1,,,,,,,,
,,"[""circle"",""red"",""hori"",""left"",[106,-106],[-106,-106]]",circle,red,hori,left,"[106,-106]","[-106,-106]",left,1,,,,,,001,2025-03-11_19h44.32.103,SL_sali,2021.2.3,Win32,59.17159763,1.877,,,63,0,63,0,1,,,,,,,,
,,"[""diamond"",""green"",""vert"",""up"",[106,-106],[0,150]]",diamond,green,vert,up,"[106,-106]","[0,150]",up,1,,,,,,001,2025-03-11_19h44.32.103,SL_sali,2021.2.3,Win32,59.17159763,2.0916,,,64,0,64,0,1,,,,,,,,
,,"[""circle"",""no_dis"",""hori"",""left"",[99999,99999],[106,106]]",circle,no_dis,hori,left,"[99999,99999]","[106,106]",left,1,,,,,,001,2025-03-11_19h44.32.103,SL_sali,2021.2.3,Win32,59.17159763,1.1497,,,65,0,65,0,1,,,,,,,,
,,"[""circle"",""no_dis"",""hori"",""left"",[99999,99999],[150,0]]",circle,no_dis,hori,left,"[99999,99999]","[150,0]",left,1,,,,,,001,2025-03-11_19h44.32.103,SL_sali,2021.2.3,Win32,59.17159763,2.1076,,,66,0,66,0,1,,,,,,,,
,,"[""circle"",""red"",""vert"",""up"",[-106,-106],[106,-106]]",circle,red,vert,up,"[-106,-106]","[106,-106]",up,1,,,,,,001,2025-03-11_19h44.32.103,SL_sali,2021.2.3,Win32,59.17159763,2.8891,,,67,0,67,0,1,,,,,,,,
,,"[""diamond"",""red"",""hori"",""left"",[-150,0],[-106,-106]]",diamond,red,hori,left,"[-150,0]","[-106,-106]",left,1,,,,,,001,2025-03-11_19h44.32.103,SL_sali,2021.2.3,Win32,59.17159763,1.6842,,,68,0,68,0,1,,,,,,,,
,,"[""diamond"",""red"",""vert"",""up"",[-150,0],[0,-150]]",diamond,red,vert,up,"[-150,0]","[0,-150]",up,1,,,,,,001,2025-03-11_19h44.32.103,SL_sali,2021.2.3,Win32,59.17159763,1.7057,,,69,0,69,0,1,,,,,,,,
,,"[""diamond"",""red"",""vert"",""up"",[106,-106],[0,-150]]",diamond,red,vert,up,"[106,-106]","[0,-150]",up,1,,,,,,001,2025-03-11_19h44.32.103,SL_sali,2021.2.3,Win32,59.17159763,1.749,,,70,0,70,0,1,,,,,,,,
,,"[""diamond"",""green"",""vert"",""up"",[-106,106],[-150,0]]",diamond,green,vert,up,"[-106,106]","[-150,0]",up,1,,,,,,001,2025-03-11_19h44.32.103,SL_sali,2021.2.3,Win32,59.17159763,1.4759,,,71,0,71,0,1,,,,,,,,
,,"[""diamond"",""no_dis"",""hori"",""left"",[99999,99999],[106,-106]]",diamond,no_dis,hori,left,"[99999,99999]","[106,-106]",left,1,,,,,,001,2025-03-11_19h44.32.103,SL_sali,2021.2.3,Win32,59.17159763,1.0811,,,72,0,72,0,1,,,,,,,,
,,"[""circle"",""no_dis"",""vert"",""up"",[99999,99999],[0,150]]",circle,no_dis,vert,up,"[99999,99999]","[0,150]",up,1,,,,,,001,2025-03-11_19h44.32.103,SL_sali,2021.2.3,Win32,59.17159763,1.6186,,,73,0,73,0,1,,,,,,,,
,,"[""circle"",""no_dis"",""vert"",""up"",[99999,99999],[0,-150]]",circle,no_dis,vert,up,"[99999,99999]","[0,-150]",up,1,,,,,,001,2025-03-11_19h44.32.103,SL_sali,2021.2.3,Win32,59.17159763,2.5337,,,74,0,74,0,1,,,,,,,,
,,"[""diamond"",""red"",""vert"",""up"",[-106,-106],[106,106]]",diamond,red,vert,up,"[-106,-106]","[106,106]",up,1,,,,,,001,2025-03-11_19h44.32.103,SL_sali,2021.2.3,Win32,59.17159763,1.8036,,,75,0,75,0,1,,,,,,,,
,,"[""diamond"",""no_dis"",""vert"",""up"",[99999,99999],[106,-106]]",diamond,no_dis,vert,up,"[99999,99999]","[106,-106]",up,1,,,,,,001,2025-03-11_19h44.32.103,SL_sali,2021.2.3,Win32,59.17159763,1.3016,,,76,0,76,0,1,,,,,,,,
,,"[""diamond"",""no_dis"",""vert"",""up"",[99999,99999],[0,150]]",diamond,no_dis,vert,up,"[99999,99999]","[0,150]",up,1,,,,,,001,2025-03-11_19h44.32.103,SL_sali,2021.2.3,Win32,59.17159763,1.1281,,,77,0,77,0,1,,,,,,,,
,,"[""circle"",""red"",""vert"",""up"",[-106,-106],[150,0]]",circle,red,vert,up,"[-106,-106]","[150,0]",up,1,,,,,,001,2025-03-11_19h44.32.103,SL_sali,2021.2.3,Win32,59.17159763,1.6393,,,78,0,78,0,1,,,,,,,,
,,"[""diamond"",""no_dis"",""vert"",""up"",[99999,99999],[-150,0]]",diamond,no_dis,vert,up,"[99999,99999]","[-150,0]",up,1,,,,,,001,2025-03-11_19h44.32.103,SL_sali,2021.2.3,Win32,59.17159763,2.0414,,,79,0,79,0,1,,,,,,,,
,,"[""circle"",""green"",""vert"",""up"",[150,0],[-106,-106]]",circle,green,vert,up,"[150,0]","[-106,-106]",up,1,,,,,,001,2025-03-11_19h44.32.103,SL_sali,2021.2.3,Win32,59.17159763,1.8228,,,80,0,80,0,1,,,,,,,,
,,"[""diamond"",""no_dis"",""vert"",""up"",[99999,99999],[106,106]]",diamond,no_dis,vert,up,"[99999,99999]","[106,106]",up,1,,,,,,001,2025-03-11_19h44.32.103,SL_sali,2021.2.3,Win32,59.17159763,2.5983,,,81,0,81,0,1,,,,,,,,
,,"[""diamond"",""red"",""hori"",""left"",[106,-106],[0,-150]]",diamond,red,hori,left,"[106,-106]","[0,-150]",left,1,,,,,,001,2025-03-11_19h44.32.103,SL_sali,2021.2.3,Win32,59.17159763,2.189,,,82,0,82,0,1,,,,,,,,
,,"[""circle"",""red"",""vert"",""up"",[0,150],[150,0]]",circle,red,vert,up,"[0,150]","[150,0]",up,1,,,,,,001,2025-03-11_19h44.32.103,SL_sali,2021.2.3,Win32,59.17159763,2.3166,,,83,0,83,0,1,,,,,,,,
,,"[""diamond"",""red"",""hori"",""left"",[0,150],[-106,-106]]",diamond,red,hori,left,"[0,150]","[-106,-106]",left,1,,,,,,001,2025-03-11_19h44.32.103,SL_sali,2021.2.3,Win32,59.17159763,1.5378,,,84,0,84,0,1,,,,,,,,
,,"[""diamond"",""green"",""hori"",""left"",[-106,106],[-106,-106]]",diamond,green,hori,left,"[-106,106]","[-106,-106]",left,1,,,,,,001,2025-03-11_19h44.32.103,SL_sali,2021.2.3,Win32,59.17159763,1.7684,,,85,0,85,0,1,,,,,,,,
,,"[""diamond"",""red"",""vert"",""up"",[0,-150],[-106,106]]",diamond,red,vert,up,"[0,-150]","[-106,106]",up,1,,,,,,001,2025-03-11_19h44.32.103,SL_sali,2021.2.3,Win32,59.17159763,1.1987,,,86,0,86,0,1,,,,,,,,
,,"[""circle"",""red"",""hori"",""left"",[0,150],[-150,0]]",circle,red,hori,left,"[0,150]","[-150,0]",left,1,,,,,,001,2025-03-11_19h44.32.103,SL_sali,2021.2.3,Win32,59.17159763,1.5032,,,87,0,87,0,1,,,,,,,,
,,"[""diamond"",""green"",""vert"",""up"",[-106,106],[106,106]]",diamond,green,vert,up,"[-106,106]","[106,106]",up,1,,,,,,001,2025-03-11_19h44.32.103,SL_sali,2021.2.3,Win32,59.17159763,1.2386,,,88,0,88,0,1,,,,,,,,
,,"[""diamond"",""no_dis"",""hori"",""left"",[99999,99999],[150,0]]",diamond,no_dis,hori,left,"[99999,99999]","[150,0]",left,1,,,,,,001,2025-03-11_19h44.32.103,SL_sali,2021.2.3,Win32,59.17159763,1.3146,,,89,0,89,0,1,,,,,,,,
,,"[""diamond"",""green"",""hori"",""left"",[-106,-106],[150,0]]",diamond,green,hori,left,"[-106,-106]","[150,0]",left,1,,,,,,001,2025-03-11_19h44.32.103,SL_sali,2021.2.3,Win32,59.17159763,1.1372,,,90,0,90,0,1,,,,,,,,
,,"[""circle"",""no_dis"",""vert"",""up"",[99999,99999],[-106,-106]]",circle,no_dis,vert,up,"[99999,99999]","[-106,-106]",up,1,,,,,,001,2025-03-11_19h44.32.103,SL_sali,2021.2.3,Win32,59.17159763,1.5683,,,91,0,91,0,1,,,,,,,,
,,"[""diamond"",""red"",""vert"",""up"",[-150,0],[-106,-106]]",diamond,red,vert,up,"[-150,0]","[-106,-106]",up,1,,,,,,001,2025-03-11_19h44.32.103,SL_sali,2021.2.3,Win32,59.17159763,1.4538,,,92,0,92,0,1,,,,,,,,
,,"[""circle"",""green"",""vert"",""up"",[-150,0],[-106,-106]]",circle,green,vert,up,"[-150,0]","[-106,-106]",up,1,,,,,,001,2025-03-11_19h44.32.103,SL_sali,2021.2.3,Win32,59.17159763,1.6368,,,93,0,93,0,1,,,,,,,,
,,"[""diamond"",""no_dis"",""vert"",""up"",[99999,99999],[-150,0]]",diamond,no_dis,vert,up,"[99999,99999]","[-150,0]",up,1,,,,,,001,2025-03-11_19h44.32.103,SL_sali,2021.2.3,Win32,59.17159763,1.3898,,,94,0,94,0,1,,,,,,,,
,,"[""diamond"",""no_dis"",""vert"",""up"",[99999,99999],[0,150]]",diamond,no_dis,vert,up,"[99999,99999]","[0,150]",up,1,,,,,,001,2025-03-11_19h44.32.103,SL_sali,2021.2.3,Win32,59.17159763,1.1649,,,95,0,95,0,1,,,,,,,,
,,"[""diamond"",""no_dis"",""hori"",""left"",[99999,99999],[106,106]]",diamond,no_dis,hori,left,"[99999,99999]","[106,106]",left,1,,,,,,001,2025-03-11_19h44.32.103,SL_sali,2021.2.3,Win32,59.17159763,1.668,,,96,0,96,0,1,,,,,,,,
,,"[""circle"",""green"",""vert"",""up"",[106,-106],[-150,0]]",circle,green,vert,up,"[106,-106]","[-150,0]",up,1,,,,,,001,2025-03-11_19h44.32.103,SL_sali,2021.2.3,Win32,59.17159763,1.9194,,,97,0,97,0,1,,,,,,,,
,,"[""diamond"",""green"",""hori"",""left"",[-150,0],[-106,106]]",diamond,green,hori,left,"[-150,0]","[-106,106]",left,1,,,,,,001,2025-03-11_19h44.32.103,SL_sali,2021.2.3,Win32,59.17159763,1.9395,,,98,0,98,0,1,,,,,,,,
,,"[""circle"",""green"",""vert"",""up"",[0,150],[0,-150]]",circle,green,vert,up,"[0,150]","[0,-150]",up,1,,,,,,001,2025-03-11_19h44.32.103,SL_sali,2021.2.3,Win32,59.17159763,2.5339,,,99,0,99,0,1,,,,,,,,
,,"[""circle"",""green"",""hori"",""left"",[-106,-106],[150,0]]",circle,green,hori,left,"[-106,-106]","[150,0]",left,1,,,,,,001,2025-03-11_19h44.32.103,SL_sali,2021.2.3,Win32,59.17159763,1.5326,,,100,0,100,0,1,,,,,,,,
,,"[""circle"",""green"",""vert"",""up"",[106,106],[-150,0]]",circle,green,vert,up,"[106,106]","[-150,0]",up,1,,,,,,001,2025-03-11_19h44.32.103,SL_sali,2021.2.3,Win32,59.17159763,1.1161,,,101,0,101,0,1,,,,,,,,
,,"[""circle"",""green"",""hori"",""left"",[0,-150],[0,150]]",circle,green,hori,left,"[0,-150]","[0,150]",left,1,,,,,,001,2025-03-11_19h44.32.103,SL_sali,2021.2.3,Win32,59.17159763,1.0819,,,102,0,102,0,1,,,,,,,,
,,"[""circle"",""red"",""vert"",""up"",[106,-106],[0,150]]",circle,red,vert,up,"[106,-106]","[0,150]",up,1,,,,,,001,2025-03-11_19h44.32.103,SL_sali,2021.2.3,Win32,59.17159763,1.205,,,103,0,103,0,1,,,,,,,,
,,"[""circle"",""green"",""hori"",""left"",[150,0],[106,-106]]",circle,green,hori,left,"[150,0]","[106,-106]",left,1,,,,,,001,2025-03-11_19h44.32.103,SL_sali,2021.2.3,Win32,59.17159763,1.4739,,,104,0,104,0,1,,,,,,,,
,,"[""diamond"",""red"",""hori"",""left"",[150,0],[106,-106]]",diamond,red,hori,left,"[150,0]","[106,-106]",left,1,,,,,,001,2025-03-11_19h44.32.103,SL_sali,2021.2.3,Win32,59.17159763,1.7036,,,105,0,105,0,1,,,,,,,,
,,"[""diamond"",""red"",""hori"",""left"",[150,0],[-106,-106]]",diamond,red,hori,left,"[150,0]","[-106,-106]",left,1,,,,,,001,2025-03-11_19h44.32.103,SL_sali,2021.2.3,Win32,59.17159763,1.4075,,,106,0,106,0,1,,,,,,,,
,,"[""circle"",""red"",""hori"",""left"",[0,-150],[-106,106]]",circle,red,hori,left,"[0,-150]","[-106,106]",left,1,,,,,,001,2025-03-11_19h44.32.103,SL_sali,2021.2.3,Win32,59.17159763,0.8486,,,107,0,107,0,1,,,,,,,,
,,"[""circle"",""green"",""vert"",""up"",[106,106],[0,150]]",circle,green,vert,up,"[106,106]","[0,150]",up,1,,,,,,001,2025-03-11_19h44.32.103,SL_sali,2021.2.3,Win32,59.17159763,0.8217,,,108,0,108,0,1,,,,,,,,
,,"[""circle"",""no_dis"",""hori"",""left"",[99999,99999],[106,-106]]",circle,no_dis,hori,left,"[99999,99999]","[106,-106]",left,1,,,,,,001,2025-03-11_19h44.32.103,SL_sali,2021.2.3,Win32,59.17159763,0.8972,,,109,0,109,0,1,,,,,,,,
,,"[""diamond"",""green"",""hori"",""left"",[0,-150],[-106,-106]]",diamond,green,hori,left,"[0,-150]","[-106,-106]",left,1,,,,,,001,2025-03-11_19h44.32.103,SL_sali,2021.2.3,Win32,59.17159763,1.038,,,110,0,110,0,1,,,,,,,,
,,"[""diamond"",""green"",""hori"",""left"",[106,-106],[0,-150]]",diamond,green,hori,left,"[106,-106]","[0,-150]",left,1,,,,,,001,2025-03-11_19h44.32.103,SL_sali,2021.2.3,Win32,59.17159763,1.3728,,,111,0,111,0,1,,,,,,,,
,,"[""circle"",""green"",""hori"",""left"",[0,-150],[-150,0]]",circle,green,hori,left,"[0,-150]","[-150,0]",left,1,,,,,,001,2025-03-11_19h44.32.103,SL_sali,2021.2.3,Win32,59.17159763,0.7705,,,112,0,112,0,1,,,,,,,,
,,"[""circle"",""no_dis"",""hori"",""left"",[99999,99999],[-106,-106]]",circle,no_dis,hori,left,"[99999,99999]","[-106,-106]",left,1,,,,,,001,2025-03-11_19h44.32.103,SL_sali,2021.2.3,Win32,59.17159763,0.6827,,,113,0,113,0,1,,,,,,,,
,,"[""circle"",""red"",""hori"",""left"",[-150,0],[-106,-106]]",circle,red,hori,left,"[-150,0]","[-106,-106]",left,1,,,,,,001,2025-03-11_19h44.32.103,SL_sali,2021.2.3,Win32,59.17159763,2.1673,,,114,0,114,0,1,,,,,,,,
,,"[""diamond"",""red"",""hori"",""left"",[-150,0],[150,0]]",diamond,red,hori,left,"[-150,0]","[150,0]",left,1,,,,,,001,2025-03-11_19h44.32.103,SL_sali,2021.2.3,Win32,59.17159763,1.5148,,,115,0,115,0,1,,,,,,,,
,,"[""circle"",""red"",""hori"",""left"",[106,-106],[150,0]]",circle,red,hori,left,"[106,-106]","[150,0]",left,1,,,,,,001,2025-03-11_19h44.32.103,SL_sali,2021.2.3,Win32,59.17159763,1.7777,,,116,0,116,0,1,,,,,,,,
,,"[""circle"",""no_dis"",""vert"",""up"",[99999,99999],[0,-150]]",circle,no_dis,vert,up,"[99999,99999]","[0,-150]",up,1,,,,,,001,2025-03-11_19h44.32.103,SL_sali,2021.2.3,Win32,59.17159763,1.6137,,,117,0,117,0,1,,,,,,,,
,,"[""diamond"",""no_dis"",""vert"",""up"",[99999,99999],[0,150]]",diamond,no_dis,vert,up,"[99999,99999]","[0,150]",up,1,,,,,,001,2025-03-11_19h44.32.103,SL_sali,2021.2.3,Win32,59.17159763,1.6158,,,118,0,118,0,1,,,,,,,,
,,"[""circle"",""no_dis"",""vert"",""up"",[99999,99999],[-106,-106]]",circle,no_dis,vert,up,"[99999,99999]","[-106,-106]",up,1,,,,,,001,2025-03-11_19h44.32.103,SL_sali,2021.2.3,Win32,59.17159763,0.9176,,,119,0,119,0,1,,,,,,,,
,,,,,,,,,,,,,,,,001,2025-03-11_19h44.32.103,SL_sali,2021.2.3,Win32,59.17159763,,,,,,,,,1,space,11.5292,0,0,0,0,1
,,"[""diamond"",""no_dis"",""hori"",""left"",[99999,99999],[106,106]]",diamond,no_dis,hori,left,"[99999,99999]","[106,106]",left,1,,,,,,001,2025-03-11_19h44.32.103,SL_sali,2021.2.3,Win32,59.17159763,2.1544,,,0,0,0,0,1,,,,,,,,
,,"[""circle"",""green"",""vert"",""up"",[106,106],[0,150]]",circle,green,vert,up,"[106,106]","[0,150]",up,1,,,,,,001,2025-03-11_19h44.32.103,SL_sali,2021.2.3,Win32,59.17159763,1.2418,,,1,0,1,0,1,,,,,,,,
,,"[""circle"",""red"",""hori"",""left"",[-150,0],[-106,-106]]",circle,red,hori,left,"[-150,0]","[-106,-106]",left,1,,,,,,001,2025-03-11_19h44.32.103,SL_sali,2021.2.3,Win32,59.17159763,1.3269,,,2,0,2,0,1,,,,,,,,
,,"[""circle"",""red"",""hori"",""left"",[106,-106],[-106,-106]]",circle,red,hori,left,"[106,-106]","[-106,-106]",left,1,,,,,,001,2025-03-11_19h44.32.103,SL_sali,2021.2.3,Win32,59.17159763,1.2202,,,3,0,3,0,1,,,,,,,,
,,"[""circle"",""red"",""vert"",""up"",[-106,-106],[106,106]]",circle,red,vert,up,"[-106,-106]","[106,106]",up,1,,,,,,001,2025-03-11_19h44.32.103,SL_sali,2021.2.3,Win32,59.17159763,0.7546,,,4,0,4,0,1,,,,,,,,
,,"[""circle"",""green"",""hori"",""left"",[0,-150],[-106,106]]",circle,green,hori,left,"[0,-150]","[-106,106]",left,1,,,,,,001,2025-03-11_19h44.32.103,SL_sali,2021.2.3,Win32,59.17159763,0.7459,,,5,0,5,0,1,,,,,,,,
,,"[""circle"",""green"",""hori"",""left"",[106,106],[106,-106]]",circle,green,hori,left,"[106,106]","[106,-106]",left,1,,,,,,001,2025-03-11_19h44.32.103,SL_sali,2021.2.3,Win32,59.17159763,0.9264,,,6,0,6,0,1,,,,,,,,
,,"[""circle"",""no_dis"",""vert"",""up"",[99999,99999],[-150,0]]",circle,no_dis,vert,up,"[99999,99999]","[-150,0]",up,1,,,,,,001,2025-03-11_19h44.32.103,SL_sali,2021.2.3,Win32,59.17159763,0.9303,,,7,0,7,0,1,,,,,,,,
,,"[""circle"",""green"",""hori"",""left"",[-106,-106],[150,0]]",circle,green,hori,left,"[-106,-106]","[150,0]",left,1,,,,,,001,2025-03-11_19h44.32.103,SL_sali,2021.2.3,Win32,59.17159763,1.0371,,,8,0,8,0,1,,,,,,,,
,,"[""diamond"",""red"",""hori"",""left"",[-106,-106],[-106,106]]",diamond,red,hori,left,"[-106,-106]","[-106,106]",left,1,,,,,,001,2025-03-11_19h44.32.103,SL_sali,2021.2.3,Win32,59.17159763,2.2498,,,9,0,9,0,1,,,,,,,,
,,"[""circle"",""no_dis"",""hori"",""left"",[99999,99999],[106,-106]]",circle,no_dis,hori,left,"[99999,99999]","[106,-106]",left,1,,,,,,001,2025-03-11_19h44.32.103,SL_sali,2021.2.3,Win32,59.17159763,1.7517,,,10,0,10,0,1,,,,,,,,
,,"[""diamond"",""green"",""hori"",""left"",[0,150],[-150,0]]",diamond,green,hori,left,"[0,150]","[-150,0]",left,1,,,,,,001,2025-03-11_19h44.32.103,SL_sali,2021.2.3,Win32,59.17159763,1.7472,,,11,0,11,0,1,,,,,,,,
,,"[""diamond"",""no_dis"",""vert"",""up"",[99999,99999],[-150,0]]",diamond,no_dis,vert,up,"[99999,99999]","[-150,0]",up,1,,,,,,001,2025-03-11_19h44.32.103,SL_sali,2021.2.3,Win32,59.17159763,2.2202,,,12,0,12,0,1,,,,,,,,
,,"[""circle"",""no_dis"",""vert"",""up"",[99999,99999],[-106,106]]",circle,no_dis,vert,up,"[99999,99999]","[-106,106]",up,1,,,,,,001,2025-03-11_19h44.32.103,SL_sali,2021.2.3,Win32,59.17159763,1.4825,,,13,0,13,0,1,,,,,,,,
,,"[""diamond"",""green"",""vert"",""up"",[106,-106],[-106,106]]",diamond,green,vert,up,"[106,-106]","[-106,106]",up,1,,,,,,001,2025-03-11_19h44.32.103,SL_sali,2021.2.3,Win32,59.17159763,1.0176,,,14,0,14,0,1,,,,,,,,
,,"[""diamond"",""green"",""vert"",""up"",[0,-150],[-106,106]]",diamond,green,vert,up,"[0,-150]","[-106,106]",up,1,,,,,,001,2025-03-11_19h44.32.103,SL_sali,2021.2.3,Win32,59.17159763,0.981,,,15,0,15,0,1,,,,,,,,
,,"[""circle"",""no_dis"",""hori"",""left"",[99999,99999],[-106,-106]]",circle,no_dis,hori,left,"[99999,99999]","[-106,-106]",left,1,,,,,,001,2025-03-11_19h44.32.103,SL_sali,2021.2.3,Win32,59.17159763,1.1995,,,16,0,16,0,1,,,,,,,,
,,"[""diamond"",""red"",""hori"",""left"",[150,0],[-106,-106]]",diamond,red,hori,left,"[150,0]","[-106,-106]",left,1,,,,,,001,2025-03-11_19h44.32.103,SL_sali,2021.2.3,Win32,59.17159763,1.2735,,,17,0,17,0,1,,,,,,,,
,,"[""circle"",""green"",""hori"",""left"",[106,-106],[-150,0]]",circle,green,hori,left,"[106,-106]","[-150,0]",left,1,,,,,,001,2025-03-11_19h44.32.103,SL_sali,2021.2.3,Win32,59.17159763,1.069,,,18,0,18,0,1,,,,,,,,
,,"[""diamond"",""red"",""hori"",""left"",[-106,106],[0,150]]",diamond,red,hori,left,"[-106,106]","[0,150]",left,1,,,,,,001,2025-03-11_19h44.32.103,SL_sali,2021.2.3,Win32,59.17159763,2.5104,,,19,0,19,0,1,,,,,,,,
,,"[""diamond"",""red"",""hori"",""left"",[106,-106],[-106,106]]",diamond,red,hori,left,"[106,-106]","[-106,106]",left,1,,,,,,001,2025-03-11_19h44.32.103,SL_sali,2021.2.3,Win32,59.17159763,0.9873,,,20,0,20,0,1,,,,,,,,
,,"[""diamond"",""red"",""hori"",""left"",[106,-106],[0,-150]]",diamond,red,hori,left,"[106,-106]","[0,-150]",left,1,,,,,,001,2025-03-11_19h44.32.103,SL_sali,2021.2.3,Win32,59.17159763,1.3325,,,21,0,21,0,1,,,,,,,,
,,"[""diamond"",""green"",""hori"",""left"",[-106,-106],[150,0]]",diamond,green,hori,left,"[-106,-106]","[150,0]",left,1,,,,,,001,2025-03-11_19h44.32.103,SL_sali,2021.2.3,Win32,59.17159763,0.9948,,,22,0,22,0,1,,,,,,,,
,,"[""circle"",""green"",""vert"",""up"",[-106,106],[150,0]]",circle,green,vert,up,"[-106,106]","[150,0]",up,1,,,,,,001,2025-03-11_19h44.32.103,SL_sali,2021.2.3,Win32,59.17159763,1.1033,,,23,0,23,0,1,,,,,,,,
,,"[""circle"",""no_dis"",""hori"",""left"",[99999,99999],[106,-106]]",circle,no_dis,hori,left,"[99999,99999]","[106,-106]",left,1,,,,,,001,2025-03-11_19h44.32.103,SL_sali,2021.2.3,Win32,59.17159763,1.9398,,,24,0,24,0,1,,,,,,,,
,,"[""diamond"",""green"",""vert"",""up"",[106,-106],[0,-150]]",diamond,green,vert,up,"[106,-106]","[0,-150]",up,1,,,,,,001,2025-03-11_19h44.32.103,SL_sali,2021.2.3,Win32,59.17159763,1.3582,,,25,0,25,0,1,,,,,,,,
,,"[""circle"",""green"",""hori"",""left"",[150,0],[106,-106]]",circle,green,hori,left,"[150,0]","[106,-106]",left,1,,,,,,001,2025-03-11_19h44.32.103,SL_sali,2021.2.3,Win32,59.17159763,1.2403,,,26,0,26,0,1,,,,,,,,
,,"[""diamond"",""red"",""vert"",""up"",[106,106],[0,-150]]",diamond,red,vert,up,"[106,106]","[0,-150]",up,1,,,,,,001,2025-03-11_19h44.32.103,SL_sali,2021.2.3,Win32,59.17159763,1.3173,,,27,0,27,0,1,,,,,,,,
,,"[""circle"",""red"",""hori"",""left"",[0,150],[-150,0]]",circle,red,hori,left,"[0,150]","[-150,0]",left,1,,,,,,001,2025-03-11_19h44.32.103,SL_sali,2021.2.3,Win32,59.17159763,1.0582,,,28,0,28,0,1,,,,,,,,
,,"[""circle"",""no_dis"",""hori"",""left"",[99999,99999],[0,-150]]",circle,no_dis,hori,left,"[99999,99999]","[0,-150]",left,1,,,,,,001,2025-03-11_19h44.32.103,SL_sali,2021.2.3,Win32,59.17159763,1.7652,,,29,0,29,0,1,,,,,,,,
,,"[""diamond"",""green"",""vert"",""up"",[-106,106],[106,106]]",diamond,green,vert,up,"[-106,106]","[106,106]",up,1,,,,,,001,2025-03-11_19h44.32.103,SL_sali,2021.2.3,Win32,59.17159763,1.0199,,,30,0,30,0,1,,,,,,,,
,,"[""diamond"",""no_dis"",""hori"",""left"",[99999,99999],[106,-106]]",diamond,no_dis,hori,left,"[99999,99999]","[106,-106]",left,1,,,,,,001,2025-03-11_19h44.32.103,SL_sali,2021.2.3,Win32,59.17159763,1.0247,,,31,0,31,0,1,,,,,,,,
,,"[""circle"",""red"",""vert"",""up"",[150,0],[0,150]]",circle,red,vert,up,"[150,0]","[0,150]",up,1,,,,,,001,2025-03-11_19h44.32.103,SL_sali,2021.2.3,Win32,59.17159763,1.351,,,32,0,32,0,1,,,,,,,,
,,"[""diamond"",""no_dis"",""hori"",""left"",[99999,99999],[150,0]]",diamond,no_dis,hori,left,"[99999,99999]","[150,0]",left,1,,,,,,001,2025-03-11_19h44.32.103,SL_sali,2021.2.3,Win32,59.17159763,0.9206,,,33,0,33,0,1,,,,,,,,
,,"[""circle"",""red"",""vert"",""up"",[0,150],[150,0]]",circle,red,vert,up,"[0,150]","[150,0]",up,1,,,,,,001,2025-03-11_19h44.32.103,SL_sali,2021.2.3,Win32,59.17159763,1.1439,,,34,0,34,0,1,,,,,,,,
,,"[""diamond"",""no_dis"",""hori"",""left"",[99999,99999],[106,106]]",diamond,no_dis,hori,left,"[99999,99999]","[106,106]",left,1,,,,,,001,2025-03-11_19h44.32.103,SL_sali,2021.2.3,Win32,59.17159763,2.0339,,,35,0,35,0,1,,,,,,,,
,,"[""circle"",""green"",""vert"",""up"",[106,106],[-150,0]]",circle,green,vert,up,"[106,106]","[-150,0]",,0,,,,,,001,2025-03-11_19h44.32.103,SL_sali,2021.2.3,Win32,59.17159763,,,,36,0,36,0,1,,,,,,,,
,,"[""circle"",""red"",""vert"",""up"",[106,-106],[0,150]]",circle,red,vert,up,"[106,-106]","[0,150]",left,0,,,,,,001,2025-03-11_19h44.32.103,SL_sali,2021.2.3,Win32,59.17159763,2.3082,,,37,0,37,0,1,,,,,,,,
,,"[""diamond"",""red"",""vert"",""up"",[106,-106],[0,-150]]",diamond,red,vert,up,"[106,-106]","[0,-150]",up,1,,,,,,001,2025-03-11_19h44.32.103,SL_sali,2021.2.3,Win32,59.17159763,1.5286,,,38,0,38,0,1,,,,,,,,
,,"[""diamond"",""no_dis"",""vert"",""up"",[99999,99999],[0,-150]]",diamond,no_dis,vert,up,"[99999,99999]","[0,-150]",up,1,,,,,,001,2025-03-11_19h44.32.103,SL_sali,2021.2.3,Win32,59.17159763,1.9626,,,39,0,39,0,1,,,,,,,,
,,"[""diamond"",""green"",""hori"",""left"",[0,-150],[-106,-106]]",diamond,green,hori,left,"[0,-150]","[-106,-106]",up,0,,,,,,001,2025-03-11_19h44.32.103,SL_sali,2021.2.3,Win32,59.17159763,1.9512,,,40,0,40,0,1,,,,,,,,
,,"[""circle"",""red"",""hori"",""left"",[106,-106],[150,0]]",circle,red,hori,left,"[106,-106]","[150,0]",left,1,,,,,,001,2025-03-11_19h44.32.103,SL_sali,2021.2.3,Win32,59.17159763,1.747,,,41,0,41,0,1,,,,,,,,
,,"[""diamond"",""no_dis"",""vert"",""up"",[99999,99999],[-150,0]]",diamond,no_dis,vert,up,"[99999,99999]","[-150,0]",up,1,,,,,,001,2025-03-11_19h44.32.103,SL_sali,2021.2.3,Win32,59.17159763,1.4177,,,42,0,42,0,1,,,,,,,,
,,"[""diamond"",""green"",""hori"",""left"",[-106,106],[-106,-106]]",diamond,green,hori,left,"[-106,106]","[-106,-106]",left,1,,,,,,001,2025-03-11_19h44.32.103,SL_sali,2021.2.3,Win32,59.17159763,1.2547,,,43,0,43,0,1,,,,,,,,
,,"[""circle"",""no_dis"",""hori"",""left"",[99999,99999],[-106,106]]",circle,no_dis,hori,left,"[99999,99999]","[-106,106]",left,1,,,,,,001,2025-03-11_19h44.32.103,SL_sali,2021.2.3,Win32,59.17159763,1.0036,,,44,0,44,0,1,,,,,,,,
,,"[""circle"",""no_dis"",""vert"",""up"",[99999,99999],[0,-150]]",circle,no_dis,vert,up,"[99999,99999]","[0,-150]",up,1,,,,,,001,2025-03-11_19h44.32.103,SL_sali,2021.2.3,Win32,59.17159763,1.6967,,,45,0,45,0,1,,,,,,,,
,,"[""diamond"",""green"",""vert"",""up"",[-106,106],[-150,0]]",diamond,green,vert,up,"[-106,106]","[-150,0]",left,0,,,,,,001,2025-03-11_19h44.32.103,SL_sali,2021.2.3,Win32,59.17159763,1.4319,,,46,0,46,0,1,,,,,,,,
,,"[""circle"",""red"",""vert"",""up"",[106,-106],[-106,-106]]",circle,red,vert,up,"[106,-106]","[-106,-106]",up,1,,,,,,001,2025-03-11_19h44.32.103,SL_sali,2021.2.3,Win32,59.17159763,1.8017,,,47,0,47,0,1,,,,,,,,
,,"[""diamond"",""no_dis"",""hori"",""left"",[99999,99999],[-106,106]]",diamond,no_dis,hori,left,"[99999,99999]","[-106,106]",left,1,,,,,,001,2025-03-11_19h44.32.103,SL_sali,2021.2.3,Win32,59.17159763,1.1665,,,48,0,48,0,1,,,,,,,,
,,"[""diamond"",""green"",""vert"",""up"",[106,-106],[0,150]]",diamond,green,vert,up,"[106,-106]","[0,150]",up,1,,,,,,001,2025-03-11_19h44.32.103,SL_sali,2021.2.3,Win32,59.17159763,1.5886,,,49,0,49,0,1,,,,,,,,
,,"[""circle"",""green"",""vert"",""up"",[-150,0],[-106,-106]]",circle,green,vert,up,"[-150,0]","[-106,-106]",up,1,,,,,,001,2025-03-11_19h44.32.103,SL_sali,2021.2.3,Win32,59.17159763,1.8845,,,50,0,50,0,1,,,,,,,,
,,"[""circle"",""red"",""hori"",""left"",[0,150],[-150,0]]",circle,red,hori,left,"[0,150]","[-150,0]",left,1,,,,,,001,2025-03-11_19h44.32.103,SL_sali,2021.2.3,Win32,59.17159763,1.3834,,,51,0,51,0,1,,,,,,,,
,,"[""circle"",""green"",""hori"",""left"",[106,-106],[150,0]]",circle,green,hori,left,"[106,-106]","[150,0]",left,1,,,,,,001,2025-03-11_19h44.32.103,SL_sali,2021.2.3,Win32,59.17159763,1.4929,,,52,0,52,0,1,,,,,,,,
,,"[""diamond"",""green"",""hori"",""left"",[106,-106],[-106,-106]]",diamond,green,hori,left,"[106,-106]","[-106,-106]",left,1,,,,,,001,2025-03-11_19h44.32.103,SL_sali,2021.2.3,Win32,59.17159763,1.3974,,,53,0,53,0,1,,,,,,,,
,,"[""circle"",""no_dis"",""vert"",""up"",[99999,99999],[-106,-106]]",circle,no_dis,vert,up,"[99999,99999]","[-106,-106]",up,1,,,,,,001,2025-03-11_19h44.32.103,SL_sali,2021.2.3,Win32,59.17159763,1.0806,,,54,0,54,0,1,,,,,,,,
,,"[""circle"",""no_dis"",""hori"",""left"",[99999,99999],[150,0]]",circle,no_dis,hori,left,"[99999,99999]","[150,0]",left,1,,,,,,001,2025-03-11_19h44.32.103,SL_sali,2021.2.3,Win32,59.17159763,2.0677,,,55,0,55,0,1,,,,,,,,
,,"[""circle"",""red"",""hori"",""left"",[106,106],[0,150]]",circle,red,hori,left,"[106,106]","[0,150]",left,1,,,,,,001,2025-03-11_19h44.32.103,SL_sali,2021.2.3,Win32,59.17159763,2.0592,,,56,0,56,0,1,,,,,,,,
,,"[""diamond"",""red"",""vert"",""up"",[-106,106],[0,-150]]",diamond,red,vert,up,"[-106,106]","[0,-150]",up,1,,,,,,001,2025-03-11_19h44.32.103,SL_sali,2021.2.3,Win32,59.17159763,1.7586,,,57,0,57,0,1,,,,,,,,
,,"[""diamond"",""red"",""vert"",""up"",[-150,0],[-106,-106]]",diamond,red,vert,up,"[-150,0]","[-106,-106]",up,1,,,,,,001,2025-03-11_19h44.32.103,SL_sali,2021.2.3,Win32,59.17159763,1.2463,,,58,0,58,0,1,,,,,,,,
,,"[""diamond"",""green"",""vert"",""up"",[106,106],[150,0]]",diamond,green,vert,up,"[106,106]","[150,0]",up,1,,,,,,001,2025-03-11_19h44.32.103,SL_sali,2021.2.3,Win32,59.17159763,1.1984,,,59,0,59,0,1,,,,,,,,
,,"[""diamond"",""red"",""hori"",""left"",[-150,0],[150,0]]",diamond,red,hori,left,"[-150,0]","[150,0]",left,1,,,,,,001,2025-03-11_19h44.32.103,SL_sali,2021.2.3,Win32,59.17159763,1.4538,,,60,0,60,0,1,,,,,,,,
,,"[""diamond"",""red"",""hori"",""left"",[150,0],[106,-106]]",diamond,red,hori,left,"[150,0]","[106,-106]",left,1,,,,,,001,2025-03-11_19h44.32.103,SL_sali,2021.2.3,Win32,59.17159763,1.336,,,61,0,61,0,1,,,,,,,,
,,"[""circle"",""green"",""hori"",""left"",[106,-106],[150,0]]",circle,green,hori,left,"[106,-106]","[150,0]",left,1,,,,,,001,2025-03-11_19h44.32.103,SL_sali,2021.2.3,Win32,59.17159763,1.5315,,,62,0,62,0,1,,,,,,,,
,,"[""diamond"",""red"",""vert"",""up"",[-106,-106],[106,106]]",diamond,red,vert,up,"[-106,-106]","[106,106]",up,1,,,,,,001,2025-03-11_19h44.32.103,SL_sali,2021.2.3,Win32,59.17159763,0.9887,,,63,0,63,0,1,,,,,,,,
,,"[""circle"",""red"",""hori"",""left"",[-106,106],[-150,0]]",circle,red,hori,left,"[-106,106]","[-150,0]",left,1,,,,,,001,2025-03-11_19h44.32.103,SL_sali,2021.2.3,Win32,59.17159763,2.6914,,,64,0,64,0,1,,,,,,,,
,,"[""circle"",""green"",""vert"",""up"",[-106,106],[0,-150]]",circle,green,vert,up,"[-106,106]","[0,-150]",up,1,,,,,,001,2025-03-11_19h44.32.103,SL_sali,2021.2.3,Win32,59.17159763,0.9553,,,65,0,65,0,1,,,,,,,,
,,"[""diamond"",""no_dis"",""hori"",""left"",[99999,99999],[150,0]]",diamond,no_dis,hori,left,"[99999,99999]","[150,0]",left,1,,,,,,001,2025-03-11_19h44.32.103,SL_sali,2021.2.3,Win32,59.17159763,1.3688,,,66,0,66,0,1,,,,,,,,
,,"[""circle"",""no_dis"",""vert"",""up"",[99999,99999],[0,150]]",circle,no_dis,vert,up,"[99999,99999]","[0,150]",up,1,,,,,,001,2025-03-11_19h44.32.103,SL_sali,2021.2.3,Win32,59.17159763,1.6828,,,67,0,67,0,1,,,,,,,,
,,"[""diamond"",""green"",""vert"",""up"",[106,-106],[0,-150]]",diamond,green,vert,up,"[106,-106]","[0,-150]",up,1,,,,,,001,2025-03-11_19h44.32.103,SL_sali,2021.2.3,Win32,59.17159763,1.5152,,,68,0,68,0,1,,,,,,,,
,,"[""diamond"",""no_dis"",""vert"",""up"",[99999,99999],[-106,-106]]",diamond,no_dis,vert,up,"[99999,99999]","[-106,-106]",up,1,,,,,,001,2025-03-11_19h44.32.103,SL_sali,2021.2.3,Win32,59.17159763,1.0821,,,69,0,69,0,1,,,,,,,,
,,"[""circle"",""green"",""vert"",""up"",[106,-106],[150,0]]",circle,green,vert,up,"[106,-106]","[150,0]",up,1,,,,,,001,2025-03-11_19h44.32.103,SL_sali,2021.2.3,Win32,59.17159763,1.724,,,70,0,70,0,1,,,,,,,,
,,"[""circle"",""green"",""vert"",""up"",[0,150],[0,-150]]",circle,green,vert,up,"[0,150]","[0,-150]",up,1,,,,,,001,2025-03-11_19h44.32.103,SL_sali,2021.2.3,Win32,59.17159763,1.0514,,,71,0,71,0,1,,,,,,,,
,,"[""circle"",""no_dis"",""hori"",""left"",[99999,99999],[0,150]]",circle,no_dis,hori,left,"[99999,99999]","[0,150]",left,1,,,,,,001,2025-03-11_19h44.32.103,SL_sali,2021.2.3,Win32,59.17159763,1.3906,,,72,0,72,0,1,,,,,,,,
,,"[""diamond"",""red"",""vert"",""up"",[0,-150],[-106,106]]",diamond,red,vert,up,"[0,-150]","[-106,106]",up,1,,,,,,001,2025-03-11_19h44.32.103,SL_sali,2021.2.3,Win32,59.17159763,1.1862,,,73,0,73,0,1,,,,,,,,
,,"[""diamond"",""green"",""vert"",""up"",[-150,0],[106,-106]]",diamond,green,vert,up,"[-150,0]","[106,-106]",up,1,,,,,,001,2025-03-11_19h44.32.103,SL_sali,2021.2.3,Win32,59.17159763,1.4202,,,74,0,74,0,1,,,,,,,,
,,"[""diamond"",""no_dis"",""hori"",""left"",[99999,99999],[106,-106]]",diamond,no_dis,hori,left,"[99999,99999]","[106,-106]",left,1,,,,,,001,2025-03-11_19h44.32.103,SL_sali,2021.2.3,Win32,59.17159763,2.3176,,,75,0,75,0,1,,,,,,,,
,,"[""circle"",""green"",""hori"",""left"",[0,-150],[-150,0]]",circle,green,hori,left,"[0,-150]","[-150,0]",left,1,,,,,,001,2025-03-11_19h44.32.103,SL_sali,2021.2.3,Win32,59.17159763,1.5044,,,76,0,76,0,1,,,,,,,,
,,"[""diamond"",""red"",""vert"",""up"",[0,150],[-150,0]]",diamond,red,vert,up,"[0,150]","[-150,0]",up,1,,,,,,001,2025-03-11_19h44.32.103,SL_sali,2021.2.3,Win32,59.17159763,1.3821,,,77,0,77,0,1,,,,,,,,
,,"[""diamond"",""green"",""hori"",""left"",[106,-106],[0,-150]]",diamond,green,hori,left,"[106,-106]","[0,-150]",,0,,,,,,001,2025-03-11_19h44.32.103,SL_sali,2021.2.3,Win32,59.17159763,,,,78,0,78,0,1,,,,,,,,
,,"[""diamond"",""red"",""hori"",""left"",[0,150],[-106,-106]]",diamond,red,hori,left,"[0,150]","[-106,-106]",left,1,,,,,,001,2025-03-11_19h44.32.103,SL_sali,2021.2.3,Win32,59.17159763,1.3345,,,79,0,79,0,1,,,,,,,,
,,"[""circle"",""no_dis"",""vert"",""up"",[99999,99999],[-106,106]]",circle,no_dis,vert,up,"[99999,99999]","[-106,106]",up,1,,,,,,001,2025-03-11_19h44.32.103,SL_sali,2021.2.3,Win32,59.17159763,1.4574,,,80,0,80,0,1,,,,,,,,
,,"[""diamond"",""no_dis"",""vert"",""up"",[99999,99999],[0,150]]",diamond,no_dis,vert,up,"[99999,99999]","[0,150]",up,1,,,,,,001,2025-03-11_19h44.32.103,SL_sali,2021.2.3,Win32,59.17159763,2.1022,,,81,0,81,0,1,,,,,,,,
,,"[""diamond"",""no_dis"",""hori"",""left"",[99999,99999],[-106,106]]",diamond,no_dis,hori,left,"[99999,99999]","[-106,106]",left,1,,,,,,001,2025-03-11_19h44.32.103,SL_sali,2021.2.3,Win32,59.17159763,1.3578,,,82,0,82,0,1,,,,,,,,
,,"[""diamond"",""no_dis"",""hori"",""left"",[99999,99999],[150,0]]",diamond,no_dis,hori,left,"[99999,99999]","[150,0]",left,1,,,,,,001,2025-03-11_19h44.32.103,SL_sali,2021.2.3,Win32,59.17159763,1.1238,,,83,0,83,0,1,,,,,,,,
,,"[""diamond"",""green"",""hori"",""left"",[106,-106],[-106,106]]",diamond,green,hori,left,"[106,-106]","[-106,106]",left,1,,,,,,001,2025-03-11_19h44.32.103,SL_sali,2021.2.3,Win32,59.17159763,0.958,,,84,0,84,0,1,,,,,,,,
,,"[""circle"",""no_dis"",""vert"",""up"",[99999,99999],[-106,-106]]",circle,no_dis,vert,up,"[99999,99999]","[-106,-106]",up,1,,,,,,001,2025-03-11_19h44.32.103,SL_sali,2021.2.3,Win32,59.17159763,1.4737,,,85,0,85,0,1,,,,,,,,
,,"[""diamond"",""red"",""vert"",""up"",[106,106],[0,-150]]",diamond,red,vert,up,"[106,106]","[0,-150]",up,1,,,,,,001,2025-03-11_19h44.32.103,SL_sali,2021.2.3,Win32,59.17159763,1.5353,,,86,0,86,0,1,,,,,,,,
,,"[""diamond"",""green"",""hori"",""left"",[-150,0],[-106,106]]",diamond,green,hori,left,"[-150,0]","[-106,106]",left,1,,,,,,001,2025-03-11_19h44.32.103,SL_sali,2021.2.3,Win32,59.17159763,1.4464,,,87,0,87,0,1,,,,,,,,
,,"[""circle"",""red"",""vert"",""up"",[106,-106],[-106,-106]]",circle,red,vert,up,"[106,-106]","[-106,-106]",up,1,,,,,,001,2025-03-11_19h44.32.103,SL_sali,2021.2.3,Win32,59.17159763,1.6168,,,88,0,88,0,1,,,,,,,,
,,"[""diamond"",""no_dis"",""hori"",""left"",[99999,99999],[-150,0]]",diamond,no_dis,hori,left,"[99999,99999]","[-150,0]",left,1,,,,,,001,2025-03-11_19h44.32.103,SL_sali,2021.2.3,Win32,59.17159763,1.2952,,,89,0,89,0,1,,,,,,,,
,,"[""circle"",""red"",""hori"",""left"",[0,-150],[-106,106]]",circle,red,hori,left,"[0,-150]","[-106,106]",left,1,,,,,,001,2025-03-11_19h44.32.103,SL_sali,2021.2.3,Win32,59.17159763,1.0728,,,90,0,90,0,1,,,,,,,,
,,"[""diamond"",""red"",""hori"",""left"",[150,0],[-150,0]]",diamond,red,hori,left,"[150,0]","[-150,0]",left,1,,,,,,001,2025-03-11_19h44.32.103,SL_sali,2021.2.3,Win32,59.17159763,1.48,,,91,0,91,0,1,,,,,,,,
,,"[""diamond"",""no_dis"",""vert"",""up"",[99999,99999],[0,150]]",diamond,no_dis,vert,up,"[99999,99999]","[0,150]",up,1,,,,,,001,2025-03-11_19h44.32.103,SL_sali,2021.2.3,Win32,59.17159763,1.3368,,,92,0,92,0,1,,,,,,,,
,,"[""circle"",""red"",""vert"",""up"",[-106,-106],[-106,106]]",circle,red,vert,up,"[-106,-106]","[-106,106]",up,1,,,,,,001,2025-03-11_19h44.32.103,SL_sali,2021.2.3,Win32,59.17159763,1.014,,,93,0,93,0,1,,,,,,,,
,,"[""circle"",""no_dis"",""hori"",""left"",[99999,99999],[-106,-106]]",circle,no_dis,hori,left,"[99999,99999]","[-106,-106]",left,1,,,,,,001,2025-03-11_19h44.32.103,SL_sali,2021.2.3,Win32,59.17159763,1.1499,,,94,0,94,0,1,,,,,,,,
,,"[""circle"",""no_dis"",""vert"",""up"",[99999,99999],[150,0]]",circle,no_dis,vert,up,"[99999,99999]","[150,0]",up,1,,,,,,001,2025-03-11_19h44.32.103,SL_sali,2021.2.3,Win32,59.17159763,0.8509,,,95,0,95,0,1,,,,,,,,
,,"[""circle"",""green"",""vert"",""up"",[106,-106],[-150,0]]",circle,green,vert,up,"[106,-106]","[-150,0]",up,1,,,,,,001,2025-03-11_19h44.32.103,SL_sali,2021.2.3,Win32,59.17159763,1.1997,,,96,0,96,0,1,,,,,,,,
,,"[""circle"",""red"",""hori"",""left"",[106,106],[150,0]]",circle,red,hori,left,"[106,106]","[150,0]",left,1,,,,,,001,2025-03-11_19h44.32.103,SL_sali,2021.2.3,Win32,59.17159763,1.1665,,,97,0,97,0,1,,,,,,,,
,,"[""diamond"",""no_dis"",""vert"",""up"",[99999,99999],[106,-106]]",diamond,no_dis,vert,up,"[99999,99999]","[106,-106]",up,1,,,,,,001,2025-03-11_19h44.32.103,SL_sali,2021.2.3,Win32,59.17159763,1.2967,,,98,0,98,0,1,,,,,,,,
,,"[""diamond"",""no_dis"",""vert"",""up"",[99999,99999],[0,150]]",diamond,no_dis,vert,up,"[99999,99999]","[0,150]",up,1,,,,,,001,2025-03-11_19h44.32.103,SL_sali,2021.2.3,Win32,59.17159763,1.1061,,,99,0,99,0,1,,,,,,,,
,,"[""diamond"",""green"",""hori"",""left"",[106,-106],[-106,-106]]",diamond,green,hori,left,"[106,-106]","[-106,-106]",left,1,,,,,,001,2025-03-11_19h44.32.103,SL_sali,2021.2.3,Win32,59.17159763,1.1826,,,100,0,100,0,1,,,,,,,,
,,"[""circle"",""red"",""hori"",""left"",[0,-150],[0,150]]",circle,red,hori,left,"[0,-150]","[0,150]",left,1,,,,,,001,2025-03-11_19h44.32.103,SL_sali,2021.2.3,Win32,59.17159763,1.203,,,101,0,101,0,1,,,,,,,,
,,"[""diamond"",""red"",""hori"",""left"",[-150,0],[-106,-106]]",diamond,red,hori,left,"[-150,0]","[-106,-106]",left,1,,,,,,001,2025-03-11_19h44.32.103,SL_sali,2021.2.3,Win32,59.17159763,1.183,,,102,0,102,0,1,,,,,,,,
,,"[""circle"",""no_dis"",""hori"",""left"",[99999,99999],[106,106]]",circle,no_dis,hori,left,"[99999,99999]","[106,106]",up,0,,,,,,001,2025-03-11_19h44.32.103,SL_sali,2021.2.3,Win32,59.17159763,1.1421,,,103,0,103,0,1,,,,,,,,
,,"[""circle"",""no_dis"",""hori"",""left"",[99999,99999],[106,106]]",circle,no_dis,hori,left,"[99999,99999]","[106,106]",left,1,,,,,,001,2025-03-11_19h44.32.103,SL_sali,2021.2.3,Win32,59.17159763,1.8275,,,104,0,104,0,1,,,,,,,,
,,"[""diamond"",""red"",""vert"",""up"",[0,150],[106,-106]]",diamond,red,vert,up,"[0,150]","[106,-106]",up,1,,,,,,001,2025-03-11_19h44.32.103,SL_sali,2021.2.3,Win32,59.17159763,1.3719,,,105,0,105,0,1,,,,,,,,
,,"[""circle"",""green"",""vert"",""up"",[150,0],[0,-150]]",circle,green,vert,up,"[150,0]","[0,-150]",up,1,,,,,,001,2025-03-11_19h44.32.103,SL_sali,2021.2.3,Win32,59.17159763,1.2524,,,106,0,106,0,1,,,,,,,,
,,"[""diamond"",""green"",""vert"",""up"",[106,-106],[150,0]]",diamond,green,vert,up,"[106,-106]","[150,0]",up,1,,,,,,001,2025-03-11_19h44.32.103,SL_sali,2021.2.3,Win32,59.17159763,1.32,,,107,0,107,0,1,,,,,,,,
,,"[""circle"",""green"",""hori"",""left"",[0,-150],[0,150]]",circle,green,hori,left,"[0,-150]","[0,150]",left,1,,,,,,001,2025-03-11_19h44.32.103,SL_sali,2021.2.3,Win32,59.17159763,1.6,,,108,0,108,0,1,,,,,,,,
,,"[""circle"",""green"",""hori"",""left"",[106,-106],[0,-150]]",circle,green,hori,left,"[106,-106]","[0,-150]",left,1,,,,,,001,2025-03-11_19h44.32.103,SL_sali,2021.2.3,Win32,59.17159763,1.4085,,,109,0,109,0,1,,,,,,,,
,,"[""circle"",""red"",""vert"",""up"",[-106,-106],[106,-106]]",circle,red,vert,up,"[-106,-106]","[106,-106]",up,1,,,,,,001,2025-03-11_19h44.32.103,SL_sali,2021.2.3,Win32,59.17159763,1.1637,,,110,0,110,0,1,,,,,,,,
,,"[""diamond"",""red"",""vert"",""up"",[-150,0],[0,-150]]",diamond,red,vert,up,"[-150,0]","[0,-150]",up,1,,,,,,001,2025-03-11_19h44.32.103,SL_sali,2021.2.3,Win32,59.17159763,2.1856,,,111,0,111,0,1,,,,,,,,
,,"[""diamond"",""no_dis"",""vert"",""up"",[99999,99999],[106,106]]",diamond,no_dis,vert,up,"[99999,99999]","[106,106]",up,1,,,,,,001,2025-03-11_19h44.32.103,SL_sali,2021.2.3,Win32,59.17159763,1.0722,,,112,0,112,0,1,,,,,,,,
,,"[""circle"",""green"",""vert"",""up"",[150,0],[-106,-106]]",circle,green,vert,up,"[150,0]","[-106,-106]",up,1,,,,,,001,2025-03-11_19h44.32.103,SL_sali,2021.2.3,Win32,59.17159763,1.1775,,,113,0,113,0,1,,,,,,,,
,,"[""circle"",""no_dis"",""vert"",""up"",[99999,99999],[0,-150]]",circle,no_dis,vert,up,"[99999,99999]","[0,-150]",up,1,,,,,,001,2025-03-11_19h44.32.103,SL_sali,2021.2.3,Win32,59.17159763,0.9208,,,114,0,114,0,1,,,,,,,,
,,"[""diamond"",""no_dis"",""vert"",""up"",[99999,99999],[-150,0]]",diamond,no_dis,vert,up,"[99999,99999]","[-150,0]",up,1,,,,,,001,2025-03-11_19h44.32.103,SL_sali,2021.2.3,Win32,59.17159763,1.2165,,,115,0,115,0,1,,,,,,,,
,,"[""circle"",""no_dis"",""vert"",""up"",[99999,99999],[0,-150]]",circle,no_dis,vert,up,"[99999,99999]","[0,-150]",up,1,,,,,,001,2025-03-11_19h44.32.103,SL_sali,2021.2.3,Win32,59.17159763,1.0754,,,116,0,116,0,1,,,,,,,,
,,"[""circle"",""red"",""vert"",""up"",[106,-106],[106,106]]",circle,red,vert,up,"[106,-106]","[106,106]",up,1,,,,,,001,2025-03-11_19h44.32.103,SL_sali,2021.2.3,Win32,59.17159763,1.4381,,,117,0,117,0,1,,,,,,,,
,,"[""diamond"",""green"",""hori"",""left"",[150,0],[0,-150]]",diamond,green,hori,left,"[150,0]","[0,-150]",left,1,,,,,,001,2025-03-11_19h44.32.103,SL_sali,2021.2.3,Win32,59.17159763,1.2663,,,118,0,118,0,1,,,,,,,,
,,"[""circle"",""red"",""vert"",""up"",[-106,-106],[150,0]]",circle,red,vert,up,"[-106,-106]","[150,0]",up,1,,,,,,001,2025-03-11_19h44.32.103,SL_sali,2021.2.3,Win32,59.17159763,1.0794,,,119,0,119,0,1,,,,,,,,
,,,,,,,,,,,,,,,,001,2025-03-11_19h44.32.103,SL_sali,2021.2.3,Win32,59.17159763,,,,,,,,,2,space,40.737,1,0,1,0,1
,,"[""diamond"",""no_dis"",""hori"",""left"",[99999,99999],[-106,106]]",diamond,no_dis,hori,left,"[99999,99999]","[-106,106]",left,1,,,,,,001,2025-03-11_19h44.32.103,SL_sali,2021.2.3,Win32,59.17159763,1.0139,,,0,0,0,0,1,,,,,,,,
,,"[""circle"",""red"",""hori"",""left"",[-106,106],[-150,0]]",circle,red,hori,left,"[-106,106]","[-150,0]",left,1,,,,,,001,2025-03-11_19h44.32.103,SL_sali,2021.2.3,Win32,59.17159763,1.2162,,,1,0,1,0,1,,,,,,,,
,,"[""circle"",""no_dis"",""vert"",""up"",[99999,99999],[-106,106]]",circle,no_dis,vert,up,"[99999,99999]","[-106,106]",up,1,,,,,,001,2025-03-11_19h44.32.103,SL_sali,2021.2.3,Win32,59.17159763,1.4557,,,2,0,2,0,1,,,,,,,,
,,"[""diamond"",""no_dis"",""vert"",""up"",[99999,99999],[0,-150]]",diamond,no_dis,vert,up,"[99999,99999]","[0,-150]",up,1,,,,,,001,2025-03-11_19h44.32.103,SL_sali,2021.2.3,Win32,59.17159763,1.0834,,,3,0,3,0,1,,,,,,,,
,,"[""diamond"",""red"",""hori"",""left"",[150,0],[-106,-106]]",diamond,red,hori,left,"[150,0]","[-106,-106]",left,1,,,,,,001,2025-03-11_19h44.32.103,SL_sali,2021.2.3,Win32,59.17159763,1.1331,,,4,0,4,0,1,,,,,,,,
,,"[""diamond"",""no_dis"",""hori"",""left"",[99999,99999],[106,-106]]",diamond,no_dis,hori,left,"[99999,99999]","[106,-106]",left,1,,,,,,001,2025-03-11_19h44.32.103,SL_sali,2021.2.3,Win32,59.17159763,1.0413,,,5,0,5,0,1,,,,,,,,
,,"[""diamond"",""red"",""hori"",""left"",[150,0],[-150,0]]",diamond,red,hori,left,"[150,0]","[-150,0]",left,1,,,,,,001,2025-03-11_19h44.32.103,SL_sali,2021.2.3,Win32,59.17159763,0.7172,,,6,0,6,0,1,,,,,,,,
,,"[""diamond"",""no_dis"",""hori"",""left"",[99999,99999],[-150,0]]",diamond,no_dis,hori,left,"[99999,99999]","[-150,0]",left,1,,,,,,001,2025-03-11_19h44.32.103,SL_sali,2021.2.3,Win32,59.17159763,0.6593,,,7,0,7,0,1,,,,,,,,
,,"[""circle"",""green"",""hori"",""left"",[106,106],[106,-106]]",circle,green,hori,left,"[106,106]","[106,-106]",left,1,,,,,,001,2025-03-11_19h44.32.103,SL_sali,2021.2.3,Win32,59.17159763,1.3552,,,8,0,8,0,1,,,,,,,,
,,"[""diamond"",""green"",""vert"",""up"",[106,-106],[-106,106]]",diamond,green,vert,up,"[106,-106]","[-106,106]",up,1,,,,,,001,2025-03-11_19h44.32.103,SL_sali,2021.2.3,Win32,59.17159763,1.0533,,,9,0,9,0,1,,,,,,,,
,,"[""circle"",""red"",""hori"",""left"",[106,-106],[-106,-106]]",circle,red,hori,left,"[106,-106]","[-106,-106]",left,1,,,,,,001,2025-03-11_19h44.32.103,SL_sali,2021.2.3,Win32,59.17159763,1.5467,,,10,0,10,0,1,,,,,,,,
,,"[""circle"",""red"",""vert"",""up"",[106,-106],[0,150]]",circle,red,vert,up,"[106,-106]","[0,150]",up,1,,,,,,001,2025-03-11_19h44.32.103,SL_sali,2021.2.3,Win32,59.17159763,1.0375,,,11,0,11,0,1,,,,,,,,
,,"[""circle"",""no_dis"",""vert"",""up"",[99999,99999],[-106,-106]]",circle,no_dis,vert,up,"[99999,99999]","[-106,-106]",up,1,,,,,,001,2025-03-11_19h44.32.103,SL_sali,2021.2.3,Win32,59.17159763,2.6057,,,12,0,12,0,1,,,,,,,,
,,"[""circle"",""green"",""hori"",""left"",[106,-106],[-150,0]]",circle,green,hori,left,"[106,-106]","[-150,0]",left,1,,,,,,001,2025-03-11_19h44.32.103,SL_sali,2021.2.3,Win32,59.17159763,1.186,,,13,0,13,0,1,,,,,,,,
,,"[""diamond"",""red"",""hori"",""left"",[150,0],[106,-106]]",diamond,red,hori,left,"[150,0]","[106,-106]",,0,,,,,,001,2025-03-11_19h44.32.103,SL_sali,2021.2.3,Win32,59.17159763,,,,14,0,14,0,1,,,,,,,,
,,"[""diamond"",""no_dis"",""hori"",""left"",[99999,99999],[150,0]]",diamond,no_dis,hori,left,"[99999,99999]","[150,0]",left,1,,,,,,001,2025-03-11_19h44.32.103,SL_sali,2021.2.3,Win32,59.17159763,1.1035,,,15,0,15,0,1,,,,,,,,
,,"[""circle"",""green"",""vert"",""up"",[106,-106],[-150,0]]",circle,green,vert,up,"[106,-106]","[-150,0]",up,1,,,,,,001,2025-03-11_19h44.32.103,SL_sali,2021.2.3,Win32,59.17159763,0.7879,,,16,0,16,0,1,,,,,,,,
,,"[""circle"",""no_dis"",""hori"",""left"",[99999,99999],[-106,106]]",circle,no_dis,hori,left,"[99999,99999]","[-106,106]",left,1,,,,,,001,2025-03-11_19h44.32.103,SL_sali,2021.2.3,Win32,59.17159763,1.6853,,,17,0,17,0,1,,,,,,,,
,,"[""diamond"",""no_dis"",""vert"",""up"",[99999,99999],[-106,-106]]",diamond,no_dis,vert,up,"[99999,99999]","[-106,-106]",up,1,,,,,,001,2025-03-11_19h44.32.103,SL_sali,2021.2.3,Win32,59.17159763,1.379,,,18,0,18,0,1,,,,,,,,
,,"[""diamond"",""green"",""hori"",""left"",[0,-150],[-106,-106]]",diamond,green,hori,left,"[0,-150]","[-106,-106]",left,1,,,,,,001,2025-03-11_19h44.32.103,SL_sali,2021.2.3,Win32,59.17159763,0.9936,,,19,0,19,0,1,,,,,,,,
,,"[""diamond"",""green"",""hori"",""left"",[106,-106],[0,-150]]",diamond,green,hori,left,"[106,-106]","[0,-150]",left,1,,,,,,001,2025-03-11_19h44.32.103,SL_sali,2021.2.3,Win32,59.17159763,0.9462,,,20,0,20,0,1,,,,,,,,
,,"[""diamond"",""no_dis"",""vert"",""up"",[99999,99999],[-150,0]]",diamond,no_dis,vert,up,"[99999,99999]","[-150,0]",up,1,,,,,,001,2025-03-11_19h44.32.103,SL_sali,2021.2.3,Win32,59.17159763,1.6904,,,21,0,21,0,1,,,,,,,,
,,"[""diamond"",""red"",""hori"",""left"",[-150,0],[-106,-106]]",diamond,red,hori,left,"[-150,0]","[-106,-106]",left,1,,,,,,001,2025-03-11_19h44.32.103,SL_sali,2021.2.3,Win32,59.17159763,1.1338,,,22,0,22,0,1,,,,,,,,
,,"[""diamond"",""green"",""hori"",""left"",[0,150],[-150,0]]",diamond,green,hori,left,"[0,150]","[-150,0]",left,1,,,,,,001,2025-03-11_19h44.32.103,SL_sali,2021.2.3,Win32,59.17159763,1.339,,,23,0,23,0,1,,,,,,,,
,,"[""diamond"",""green"",""hori"",""left"",[-106,106],[-106,-106]]",diamond,green,hori,left,"[-106,106]","[-106,-106]",left,1,,,,,,001,2025-03-11_19h44.32.103,SL_sali,2021.2.3,Win32,59.17159763,0.8692,,,24,0,24,0,1,,,,,,,,
,,"[""circle"",""green"",""hori"",""left"",[0,-150],[-106,106]]",circle,green,hori,left,"[0,-150]","[-106,106]",left,1,,,,,,001,2025-03-11_19h44.32.103,SL_sali,2021.2.3,Win32,59.17159763,1.966,,,25,0,25,0,1,,,,,,,,
,,"[""circle"",""no_dis"",""hori"",""left"",[99999,99999],[-106,-106]]",circle,no_dis,hori,left,"[99999,99999]","[-106,-106]",left,1,,,,,,001,2025-03-11_19h44.32.103,SL_sali,2021.2.3,Win32,59.17159763,1.5492,,,26,0,26,0,1,,,,,,,,
,,"[""diamond"",""no_dis"",""hori"",""left"",[99999,99999],[150,0]]",diamond,no_dis,hori,left,"[99999,99999]","[150,0]",left,1,,,,,,001,2025-03-11_19h44.32.103,SL_sali,2021.2.3,Win32,59.17159763,1.4386,,,27,0,27,0,1,,,,,,,,
,,"[""circle"",""red"",""hori"",""left"",[0,150],[-150,0]]",circle,red,hori,left,"[0,150]","[-150,0]",left,1,,,,,,001,2025-03-11_19h44.32.103,SL_sali,2021.2.3,Win32,59.17159763,1.1693,,,28,0,28,0,1,,,,,,,,
,,"[""diamond"",""red"",""vert"",""up"",[106,-106],[0,-150]]",diamond,red,vert,up,"[106,-106]","[0,-150]",up,1,,,,,,001,2025-03-11_19h44.32.103,SL_sali,2021.2.3,Win32,59.17159763,1.3349,,,29,0,29,0,1,,,,,,,,
,,"[""diamond"",""no_dis"",""vert"",""up"",[99999,99999],[-150,0]]",diamond,no_dis,vert,up,"[99999,99999]","[-150,0]",up,1,,,,,,001,2025-03-11_19h44.32.103,SL_sali,2021.2.3,Win32,59.17159763,2.2164,,,30,0,30,0,1,,,,,,,,
,,"[""circle"",""red"",""hori"",""left"",[106,106],[150,0]]",circle,red,hori,left,"[106,106]","[150,0]",left,1,,,,,,001,2025-03-11_19h44.32.103,SL_sali,2021.2.3,Win32,59.17159763,1.167,,,31,0,31,0,1,,,,,,,,
,,"[""diamond"",""green"",""vert"",""up"",[106,-106],[150,0]]",diamond,green,vert,up,"[106,-106]","[150,0]",up,1,,,,,,001,2025-03-11_19h44.32.103,SL_sali,2021.2.3,Win32,59.17159763,1.2302,,,32,0,32,0,1,,,,,,,,
,,"[""diamond"",""no_dis"",""hori"",""left"",[99999,99999],[106,-106]]",diamond,no_dis,hori,left,"[99999,99999]","[106,-106]",up,0,,,,,,001,2025-03-11_19h44.32.103,SL_sali,2021.2.3,Win32,59.17159763,2.1047,,,33,0,33,0,1,,,,,,,,
,,"[""circle"",""green"",""vert"",""up"",[106,106],[-150,0]]",circle,green,vert,up,"[106,106]","[-150,0]",up,1,,,,,,001,2025-03-11_19h44.32.103,SL_sali,2021.2.3,Win32,59.17159763,2.4442,,,34,0,34,0,1,,,,,,,,
,,"[""diamond"",""red"",""hori"",""left"",[0,150],[-106,-106]]",diamond,red,hori,left,"[0,150]","[-106,-106]",left,1,,,,,,001,2025-03-11_19h44.32.103,SL_sali,2021.2.3,Win32,59.17159763,1.7193,,,35,0,35,0,1,,,,,,,,
,,"[""circle"",""no_dis"",""hori"",""left"",[99999,99999],[106,-106]]",circle,no_dis,hori,left,"[99999,99999]","[106,-106]",left,1,,,,,,001,2025-03-11_19h44.32.103,SL_sali,2021.2.3,Win32,59.17159763,1.7757,,,36,0,36,0,1,,,,,,,,
,,"[""diamond"",""green"",""vert"",""up"",[-106,106],[106,106]]",diamond,green,vert,up,"[-106,106]","[106,106]",up,1,,,,,,001,2025-03-11_19h44.32.103,SL_sali,2021.2.3,Win32,59.17159763,1.0666,,,37,0,37,0,1,,,,,,,,
,,"[""circle"",""red"",""vert"",""up"",[-106,-106],[106,-106]]",circle,red,vert,up,"[-106,-106]","[106,-106]",up,1,,,,,,001,2025-03-11_19h44.32.103,SL_sali,2021.2.3,Win32,59.17159763,2.0663,,,38,0,38,0,1,,,,,,,,
,,"[""circle"",""no_dis"",""hori"",""left"",[99999,99999],[106,-106]]",circle,no_dis,hori,left,"[99999,99999]","[106,-106]",left,1,,,,,,001,2025-03-11_19h44.32.103,SL_sali,2021.2.3,Win32,59.17159763,1.3905,,,39,0,39,0,1,,,,,,,,
,,"[""diamond"",""no_dis"",""vert"",""up"",[99999,99999],[0,150]]",diamond,no_dis,vert,up,"[99999,99999]","[0,150]",up,1,,,,,,001,2025-03-11_19h44.32.103,SL_sali,2021.2.3,Win32,59.17159763,1.4498,,,40,0,40,0,1,,,,,,,,
,,"[""diamond"",""red"",""vert"",""up"",[0,150],[106,-106]]",diamond,red,vert,up,"[0,150]","[106,-106]",up,1,,,,,,001,2025-03-11_19h44.32.103,SL_sali,2021.2.3,Win32,59.17159763,2.0365,,,41,0,41,0,1,,,,,,,,
,,"[""diamond"",""red"",""vert"",""up"",[106,106],[0,-150]]",diamond,red,vert,up,"[106,106]","[0,-150]",up,1,,,,,,001,2025-03-11_19h44.32.103,SL_sali,2021.2.3,Win32,59.17159763,1.4833,,,42,0,42,0,1,,,,,,,,
,,"[""diamond"",""red"",""hori"",""left"",[-106,-106],[-106,106]]",diamond,red,hori,left,"[-106,-106]","[-106,106]",left,1,,,,,,001,2025-03-11_19h44.32.103,SL_sali,2021.2.3,Win32,59.17159763,1.3799,,,43,0,43,0,1,,,,,,,,
,,"[""circle"",""red"",""vert"",""up"",[-106,-106],[-106,106]]",circle,red,vert,up,"[-106,-106]","[-106,106]",up,1,,,,,,001,2025-03-11_19h44.32.103,SL_sali,2021.2.3,Win32,59.17159763,2.1383,,,44,0,44,0,1,,,,,,,,
,,"[""circle"",""green"",""vert"",""up"",[-106,106],[150,0]]",circle,green,vert,up,"[-106,106]","[150,0]",up,1,,,,,,001,2025-03-11_19h44.32.103,SL_sali,2021.2.3,Win32,59.17159763,2.6169,,,45,0,45,0,1,,,,,,,,
,,"[""circle"",""green"",""vert"",""up"",[-106,106],[0,-150]]",circle,green,vert,up,"[-106,106]","[0,-150]",up,1,,,,,,001,2025-03-11_19h44.32.103,SL_sali,2021.2.3,Win32,59.17159763,0.9266,,,46,0,46,0,1,,,,,,,,
,,"[""circle"",""green"",""hori"",""left"",[106,-106],[150,0]]",circle,green,hori,left,"[106,-106]","[150,0]",left,1,,,,,,001,2025-03-11_19h44.32.103,SL_sali,2021.2.3,Win32,59.17159763,0.9332,,,47,0,47,0,1,,,,,,,,
,,"[""circle"",""green"",""vert"",""up"",[-150,0],[-106,-106]]",circle,green,vert,up,"[-150,0]","[-106,-106]",up,1,,,,,,001,2025-03-11_19h44.32.103,SL_sali,2021.2.3,Win32,59.17159763,1.101,,,48,0,48,0,1,,,,,,,,
,,"[""circle"",""no_dis"",""vert"",""up"",[99999,99999],[0,-150]]",circle,no_dis,vert,up,"[99999,99999]","[0,-150]",up,1,,,,,,001,2025-03-11_19h44.32.103,SL_sali,2021.2.3,Win32,59.17159763,1.3834,,,49,0,49,0,1,,,,,,,,
,,"[""diamond"",""red"",""hori"",""left"",[106,-106],[-106,106]]",diamond,red,hori,left,"[106,-106]","[-106,106]",left,1,,,,,,001,2025-03-11_19h44.32.103,SL_sali,2021.2.3,Win32,59.17159763,1.1699,,,50,0,50,0,1,,,,,,,,
,,"[""circle"",""no_dis"",""vert"",""up"",[99999,99999],[-106,106]]",circle,no_dis,vert,up,"[99999,99999]","[-106,106]",up,1,,,,,,001,2025-03-11_19h44.32.103,SL_sali,2021.2.3,Win32,59.17159763,2.4418,,,51,0,51,0,1,,,,,,,,
,,"[""diamond"",""red"",""vert"",""up"",[-106,106],[0,-150]]",diamond,red,vert,up,"[-106,106]","[0,-150]",up,1,,,,,,001,2025-03-11_19h44.32.103,SL_sali,2021.2.3,Win32,59.17159763,1.7992,,,52,0,52,0,1,,,,,,,,
,,"[""circle"",""green"",""vert"",""up"",[150,0],[0,-150]]",circle,green,vert,up,"[150,0]","[0,-150]",up,1,,,,,,001,2025-03-11_19h44.32.103,SL_sali,2021.2.3,Win32,59.17159763,1.2229,,,53,0,53,0,1,,,,,,,,
,,"[""circle"",""no_dis"",""vert"",""up"",[99999,99999],[0,-150]]",circle,no_dis,vert,up,"[99999,99999]","[0,-150]",up,1,,,,,,001,2025-03-11_19h44.32.103,SL_sali,2021.2.3,Win32,59.17159763,2.6003,,,54,0,54,0,1,,,,,,,,
,,"[""circle"",""red"",""hori"",""left"",[0,-150],[0,150]]",circle,red,hori,left,"[0,-150]","[0,150]",left,1,,,,,,001,2025-03-11_19h44.32.103,SL_sali,2021.2.3,Win32,59.17159763,1.4335,,,55,0,55,0,1,,,,,,,,
,,"[""diamond"",""no_dis"",""vert"",""up"",[99999,99999],[106,106]]",diamond,no_dis,vert,up,"[99999,99999]","[106,106]",up,1,,,,,,001,2025-03-11_19h44.32.103,SL_sali,2021.2.3,Win32,59.17159763,1.5001,,,56,0,56,0,1,,,,,,,,
,,"[""circle"",""no_dis"",""vert"",""up"",[99999,99999],[0,-150]]",circle,no_dis,vert,up,"[99999,99999]","[0,-150]",up,1,,,,,,001,2025-03-11_19h44.32.103,SL_sali,2021.2.3,Win32,59.17159763,1.6013,,,57,0,57,0,1,,,,,,,,
,,"[""diamond"",""red"",""hori"",""left"",[-106,106],[0,150]]",diamond,red,hori,left,"[-106,106]","[0,150]",left,1,,,,,,001,2025-03-11_19h44.32.103,SL_sali,2021.2.3,Win32,59.17159763,1.3686,,,58,0,58,0,1,,,,,,,,
,,"[""circle"",""no_dis"",""vert"",""up"",[99999,99999],[150,0]]",circle,no_dis,vert,up,"[99999,99999]","[150,0]",up,1,,,,,,001,2025-03-11_19h44.32.103,SL_sali,2021.2.3,Win32,59.17159763,2.091,,,59,0,59,0,1,,,,,,,,
,,"[""circle"",""no_dis"",""hori"",""left"",[99999,99999],[106,106]]",circle,no_dis,hori,left,"[99999,99999]","[106,106]",left,1,,,,,,001,2025-03-11_19h44.32.103,SL_sali,2021.2.3,Win32,59.17159763,1.9119,,,60,0,60,0,1,,,,,,,,
,,"[""circle"",""no_dis"",""vert"",""up"",[99999,99999],[-150,0]]",circle,no_dis,vert,up,"[99999,99999]","[-150,0]",up,1,,,,,,001,2025-03-11_19h44.32.103,SL_sali,2021.2.3,Win32,59.17159763,1.7275,,,61,0,61,0,1,,,,,,,,
,,"[""diamond"",""no_dis"",""vert"",""up"",[99999,99999],[106,-106]]",diamond,no_dis,vert,up,"[99999,99999]","[106,-106]",up,1,,,,,,001,2025-03-11_19h44.32.103,SL_sali,2021.2.3,Win32,59.17159763,1.4086,,,62,0,62,0,1,,,,,,,,
,,"[""circle"",""no_dis"",""hori"",""left"",[99999,99999],[150,0]]",circle,no_dis,hori,left,"[99999,99999]","[150,0]",left,1,,,,,,001,2025-03-11_19h44.32.103,SL_sali,2021.2.3,Win32,59.17159763,1.053,,,63,0,63,0,1,,,,,,,,
,,"[""circle"",""green"",""vert"",""up"",[150,0],[-106,-106]]",circle,green,vert,up,"[150,0]","[-106,-106]",up,1,,,,,,001,2025-03-11_19h44.32.103,SL_sali,2021.2.3,Win32,59.17159763,1.0364,,,64,0,64,0,1,,,,,,,,
,,"[""circle"",""no_dis"",""hori"",""left"",[99999,99999],[0,-150]]",circle,no_dis,hori,left,"[99999,99999]","[0,-150]",up,0,,,,,,001,2025-03-11_19h44.32.103,SL_sali,2021.2.3,Win32,59.17159763,1.641,,,65,0,65,0,1,,,,,,,,
,,"[""circle"",""no_dis"",""vert"",""up"",[99999,99999],[0,150]]",circle,no_dis,vert,up,"[99999,99999]","[0,150]",up,1,,,,,,001,2025-03-11_19h44.32.103,SL_sali,2021.2.3,Win32,59.17159763,2.8764,,,66,0,66,0,1,,,,,,,,
,,"[""circle"",""red"",""vert"",""up"",[106,-106],[-106,-106]]",circle,red,vert,up,"[106,-106]","[-106,-106]",up,1,,,,,,001,2025-03-11_19h44.32.103,SL_sali,2021.2.3,Win32,59.17159763,1.8714,,,67,0,67,0,1,,,,,,,,
,,"[""circle"",""red"",""vert"",""up"",[150,0],[0,150]]",circle,red,vert,up,"[150,0]","[0,150]",up,1,,,,,,001,2025-03-11_19h44.32.103,SL_sali,2021.2.3,Win32,59.17159763,2.4923,,,68,0,68,0,1,,,,,,,,
,,"[""circle"",""green"",""hori"",""left"",[106,-106],[0,-150]]",circle,green,hori,left,"[106,-106]","[0,-150]",left,1,,,,,,001,2025-03-11_19h44.32.103,SL_sali,2021.2.3,Win32,59.17159763,1.7413,,,69,0,69,0,1,,,,,,,,
,,"[""circle"",""red"",""vert"",""up"",[106,-106],[106,106]]",circle,red,vert,up,"[106,-106]","[106,106]",up,1,,,,,,001,2025-03-11_19h44.32.103,SL_sali,2021.2.3,Win32,59.17159763,1.5868,,,70,0,70,0,1,,,,,,,,
,,"[""circle"",""no_dis"",""hori"",""left"",[99999,99999],[-106,-106]]",circle,no_dis,hori,left,"[99999,99999]","[-106,-106]",left,1,,,,,,001,2025-03-11_19h44.32.103,SL_sali,2021.2.3,Win32,59.17159763,0.9107,,,71,0,71,0,1,,,,,,,,
,,"[""diamond"",""green"",""vert"",""up"",[106,-106],[0,150]]",diamond,green,vert,up,"[106,-106]","[0,150]",up,1,,,,,,001,2025-03-11_19h44.32.103,SL_sali,2021.2.3,Win32,59.17159763,1.8495,,,72,0,72,0,1,,,,,,,,
,,"[""circle"",""red"",""vert"",""up"",[0,150],[150,0]]",circle,red,vert,up,"[0,150]","[150,0]",up,1,,,,,,001,2025-03-11_19h44.32.103,SL_sali,2021.2.3,Win32,59.17159763,2.2268,,,73,0,73,0,1,,,,,,,,
,,"[""diamond"",""red"",""hori"",""left"",[-150,0],[150,0]]",diamond,red,hori,left,"[-150,0]","[150,0]",left,1,,,,,,001,2025-03-11_19h44.32.103,SL_sali,2021.2.3,Win32,59.17159763,2.3836,,,74,0,74,0,1,,,,,,,,
,,"[""diamond"",""green"",""hori"",""left"",[106,-106],[-106,-106]]",diamond,green,hori,left,"[106,-106]","[-106,-106]",left,1,,,,,,001,2025-03-11_19h44.32.103,SL_sali,2021.2.3,Win32,59.17159763,1.1761,,,75,0,75,0,1,,,,,,,,
,,"[""diamond"",""green"",""hori"",""left"",[-106,-106],[150,0]]",diamond,green,hori,left,"[-106,-106]","[150,0]",left,1,,,,,,001,2025-03-11_19h44.32.103,SL_sali,2021.2.3,Win32,59.17159763,1.1204,,,76,0,76,0,1,,,,,,,,
,,"[""diamond"",""green"",""hori"",""left"",[150,0],[0,-150]]",diamond,green,hori,left,"[150,0]","[0,-150]",left,1,,,,,,001,2025-03-11_19h44.32.103,SL_sali,2021.2.3,Win32,59.17159763,1.1835,,,77,0,77,0,1,,,,,,,,
,,"[""diamond"",""no_dis"",""vert"",""up"",[99999,99999],[-150,0]]",diamond,no_dis,vert,up,"[99999,99999]","[-150,0]",up,1,,,,,,001,2025-03-11_19h44.32.103,SL_sali,2021.2.3,Win32,59.17159763,1.4498,,,78,0,78,0,1,,,,,,,,
,,"[""circle"",""red"",""vert"",""up"",[-106,-106],[150,0]]",circle,red,vert,up,"[-106,-106]","[150,0]",up,1,,,,,,001,2025-03-11_19h44.32.103,SL_sali,2021.2.3,Win32,59.17159763,2.0166,,,79,0,79,0,1,,,,,,,,
,,"[""diamond"",""no_dis"",""hori"",""left"",[99999,99999],[106,106]]",diamond,no_dis,hori,left,"[99999,99999]","[106,106]",left,1,,,,,,001,2025-03-11_19h44.32.103,SL_sali,2021.2.3,Win32,59.17159763,1.7365,,,80,0,80,0,1,,,,,,,,
,,"[""circle"",""red"",""vert"",""up"",[-106,-106],[106,106]]",circle,red,vert,up,"[-106,-106]","[106,106]",up,1,,,,,,001,2025-03-11_19h44.32.103,SL_sali,2021.2.3,Win32,59.17159763,1.5206,,,81,0,81,0,1,,,,,,,,
,,"[""diamond"",""green"",""vert"",""up"",[-106,106],[-150,0]]",diamond,green,vert,up,"[-106,106]","[-150,0]",up,1,,,,,,001,2025-03-11_19h44.32.103,SL_sali,2021.2.3,Win32,59.17159763,1.7555,,,82,0,82,0,1,,,,,,,,
,,"[""circle"",""no_dis"",""hori"",""left"",[99999,99999],[0,150]]",circle,no_dis,hori,left,"[99999,99999]","[0,150]",up,0,,,,,,001,2025-03-11_19h44.32.103,SL_sali,2021.2.3,Win32,59.17159763,2.3538,,,83,0,83,0,1,,,,,,,,
,,"[""circle"",""red"",""hori"",""left"",[106,106],[0,150]]",circle,red,hori,left,"[106,106]","[0,150]",left,1,,,,,,001,2025-03-11_19h44.32.103,SL_sali,2021.2.3,Win32,59.17159763,2.966,,,84,0,84,0,1,,,,,,,,
,,"[""diamond"",""green"",""hori"",""left"",[-150,0],[-106,106]]",diamond,green,hori,left,"[-150,0]","[-106,106]",left,1,,,,,,001,2025-03-11_19h44.32.103,SL_sali,2021.2.3,Win32,59.17159763,1.8906,,,85,0,85,0,1,,,,,,,,
,,"[""diamond"",""no_dis"",""hori"",""left"",[99999,99999],[-106,106]]",diamond,no_dis,hori,left,"[99999,99999]","[-106,106]",left,1,,,,,,001,2025-03-11_19h44.32.103,SL_sali,2021.2.3,Win32,59.17159763,1.2166,,,86,0,86,0,1,,,,,,,,
,,"[""diamond"",""no_dis"",""hori"",""left"",[99999,99999],[150,0]]",diamond,no_dis,hori,left,"[99999,99999]","[150,0]",left,1,,,,,,001,2025-03-11_19h44.32.103,SL_sali,2021.2.3,Win32,59.17159763,0.8696,,,87,0,87,0,1,,,,,,,,
,,"[""diamond"",""red"",""hori"",""left"",[106,-106],[0,-150]]",diamond,red,hori,left,"[106,-106]","[0,-150]",left,1,,,,,,001,2025-03-11_19h44.32.103,SL_sali,2021.2.3,Win32,59.17159763,1.4767,,,88,0,88,0,1,,,,,,,,
,,"[""diamond"",""red"",""vert"",""up"",[-150,0],[-106,-106]]",diamond,red,vert,up,"[-150,0]","[-106,-106]",up,1,,,,,,001,2025-03-11_19h44.32.103,SL_sali,2021.2.3,Win32,59.17159763,1.3336,,,89,0,89,0,1,,,,,,,,
,,"[""diamond"",""green"",""hori"",""left"",[106,-106],[-106,-106]]",diamond,green,hori,left,"[106,-106]","[-106,-106]",left,1,,,,,,001,2025-03-11_19h44.32.103,SL_sali,2021.2.3,Win32,59.17159763,1.8503,,,90,0,90,0,1,,,,,,,,
,,"[""diamond"",""red"",""vert"",""up"",[-106,-106],[106,106]]",diamond,red,vert,up,"[-106,-106]","[106,106]",up,1,,,,,,001,2025-03-11_19h44.32.103,SL_sali,2021.2.3,Win32,59.17159763,1.4761,,,91,0,91,0,1,,,,,,,,
,,"[""diamond"",""green"",""vert"",""up"",[0,-150],[-106,106]]",diamond,green,vert,up,"[0,-150]","[-106,106]",up,1,,,,,,001,2025-03-11_19h44.32.103,SL_sali,2021.2.3,Win32,59.17159763,1.2225,,,92,0,92,0,1,,,,,,,,
,,"[""circle"",""red"",""hori"",""left"",[0,150],[-150,0]]",circle,red,hori,left,"[0,150]","[-150,0]",left,1,,,,,,001,2025-03-11_19h44.32.103,SL_sali,2021.2.3,Win32,59.17159763,1.2666,,,93,0,93,0,1,,,,,,,,
,,"[""circle"",""red"",""hori"",""left"",[106,-106],[150,0]]",circle,red,hori,left,"[106,-106]","[150,0]",left,1,,,,,,001,2025-03-11_19h44.32.103,SL_sali,2021.2.3,Win32,59.17159763,1.7669,,,94,0,94,0,1,,,,,,,,
,,"[""circle"",""green"",""hori"",""left"",[-106,-106],[150,0]]",circle,green,hori,left,"[-106,-106]","[150,0]",left,1,,,,,,001,2025-03-11_19h44.32.103,SL_sali,2021.2.3,Win32,59.17159763,1.2668,,,95,0,95,0,1,,,,,,,,
,,"[""circle"",""green"",""hori"",""left"",[106,-106],[150,0]]",circle,green,hori,left,"[106,-106]","[150,0]",left,1,,,,,,001,2025-03-11_19h44.32.103,SL_sali,2021.2.3,Win32,59.17159763,1.0833,,,96,0,96,0,1,,,,,,,,
,,"[""circle"",""red"",""hori"",""left"",[-150,0],[-106,-106]]",circle,red,hori,left,"[-150,0]","[-106,-106]",left,1,,,,,,001,2025-03-11_19h44.32.103,SL_sali,2021.2.3,Win32,59.17159763,1.1838,,,97,0,97,0,1,,,,,,,,
,,"[""diamond"",""green"",""vert"",""up"",[106,-106],[0,-150]]",diamond,green,vert,up,"[106,-106]","[0,-150]",up,1,,,,,,001,2025-03-11_19h44.32.103,SL_sali,2021.2.3,Win32,59.17159763,1.3353,,,98,0,98,0,1,,,,,,,,
,,"[""circle"",""green"",""vert"",""up"",[106,106],[0,150]]",circle,green,vert,up,"[106,106]","[0,150]",up,1,,,,,,001,2025-03-11_19h44.32.103,SL_sali,2021.2.3,Win32,59.17159763,1.1558,,,99,0,99,0,1,,,,,,,,
,,"[""diamond"",""green"",""vert"",""up"",[-150,0],[106,-106]]",diamond,green,vert,up,"[-150,0]","[106,-106]",up,1,,,,,,001,2025-03-11_19h44.32.103,SL_sali,2021.2.3,Win32,59.17159763,1.303,,,100,0,100,0,1,,,,,,,,
,,"[""diamond"",""red"",""vert"",""up"",[0,150],[-150,0]]",diamond,red,vert,up,"[0,150]","[-150,0]",up,1,,,,,,001,2025-03-11_19h44.32.103,SL_sali,2021.2.3,Win32,59.17159763,1.4343,,,101,0,101,0,1,,,,,,,,
,,"[""circle"",""green"",""hori"",""left"",[0,-150],[-150,0]]",circle,green,hori,left,"[0,-150]","[-150,0]",left,1,,,,,,001,2025-03-11_19h44.32.103,SL_sali,2021.2.3,Win32,59.17159763,0.9535,,,102,0,102,0,1,,,,,,,,
,,"[""circle"",""no_dis"",""vert"",""up"",[99999,99999],[-106,-106]]",circle,no_dis,vert,up,"[99999,99999]","[-106,-106]",up,1,,,,,,001,2025-03-11_19h44.32.103,SL_sali,2021.2.3,Win32,59.17159763,2.5718,,,103,0,103,0,1,,,,,,,,
,,"[""circle"",""green"",""hori"",""left"",[150,0],[106,-106]]",circle,green,hori,left,"[150,0]","[106,-106]",left,1,,,,,,001,2025-03-11_19h44.32.103,SL_sali,2021.2.3,Win32,59.17159763,1.6277,,,104,0,104,0,1,,,,,,,,
,,"[""circle"",""red"",""hori"",""left"",[0,-150],[-106,106]]",circle,red,hori,left,"[0,-150]","[-106,106]",left,1,,,,,,001,2025-03-11_19h44.32.103,SL_sali,2021.2.3,Win32,59.17159763,2.1327,,,105,0,105,0,1,,,,,,,,
,,"[""diamond"",""red"",""vert"",""up"",[0,-150],[-106,106]]",diamond,red,vert,up,"[0,-150]","[-106,106]",up,1,,,,,,001,2025-03-11_19h44.32.103,SL_sali,2021.2.3,Win32,59.17159763,1.9348,,,106,0,106,0,1,,,,,,,,
,,"[""circle"",""green"",""hori"",""left"",[0,-150],[0,150]]",circle,green,hori,left,"[0,-150]","[0,150]",,0,,,,,,001,2025-03-11_19h44.32.103,SL_sali,2021.2.3,Win32,59.17159763,,,,107,0,107,0,1,,,,,,,,
,,"[""circle"",""no_dis"",""hori"",""left"",[99999,99999],[106,106]]",circle,no_dis,hori,left,"[99999,99999]","[106,106]",left,1,,,,,,001,2025-03-11_19h44.32.103,SL_sali,2021.2.3,Win32,59.17159763,1.2546,,,108,0,108,0,1,,,,,,,,
,,"[""diamond"",""red"",""vert"",""up"",[-150,0],[0,-150]]",diamond,red,vert,up,"[-150,0]","[0,-150]",up,1,,,,,,001,2025-03-11_19h44.32.103,SL_sali,2021.2.3,Win32,59.17159763,1.117,,,109,0,109,0,1,,,,,,,,
,,"[""circle"",""red"",""vert"",""up"",[106,-106],[-106,-106]]",circle,red,vert,up,"[106,-106]","[-106,-106]",up,1,,,,,,001,2025-03-11_19h44.32.103,SL_sali,2021.2.3,Win32,59.17159763,2.5237,,,110,0,110,0,1,,,,,,,,
,,"[""diamond"",""green"",""hori"",""left"",[106,-106],[-106,106]]",diamond,green,hori,left,"[106,-106]","[-106,106]",left,1,,,,,,001,2025-03-11_19h44.32.103,SL_sali,2021.2.3,Win32,59.17159763,1.8052,,,111,0,111,0,1,,,,,,,,
,,"[""diamond"",""no_dis"",""vert"",""up"",[99999,99999],[0,150]]",diamond,no_dis,vert,up,"[99999,99999]","[0,150]",up,1,,,,,,001,2025-03-11_19h44.32.103,SL_sali,2021.2.3,Win32,59.17159763,1.1332,,,112,0,112,0,1,,,,,,,,
,,"[""diamond"",""red"",""vert"",""up"",[106,106],[0,-150]]",diamond,red,vert,up,"[106,106]","[0,-150]",up,1,,,,,,001,2025-03-11_19h44.32.103,SL_sali,2021.2.3,Win32,59.17159763,1.4005,,,113,0,113,0,1,,,,,,,,
,,"[""circle"",""green"",""vert"",""up"",[0,150],[0,-150]]",circle,green,vert,up,"[0,150]","[0,-150]",up,1,,,,,,001,2025-03-11_19h44.32.103,SL_sali,2021.2.3,Win32,59.17159763,1.333,,,114,0,114,0,1,,,,,,,,
,,"[""diamond"",""green"",""vert"",""up"",[106,106],[150,0]]",diamond,green,vert,up,"[106,106]","[150,0]",left,0,,,,,,001,2025-03-11_19h44.32.103,SL_sali,2021.2.3,Win32,59.17159763,1.1859,,,115,0,115,0,1,,,,,,,,
,,"[""circle"",""green"",""vert"",""up"",[106,-106],[150,0]]",circle,green,vert,up,"[106,-106]","[150,0]",up,1,,,,,,001,2025-03-11_19h44.32.103,SL_sali,2021.2.3,Win32,59.17159763,1.4758,,,116,0,116,0,1,,,,,,,,
,,"[""diamond"",""no_dis"",""vert"",""up"",[99999,99999],[0,150]]",diamond,no_dis,vert,up,"[99999,99999]","[0,150]",up,1,,,,,,001,2025-03-11_19h44.32.103,SL_sali,2021.2.3,Win32,59.17159763,1.8413,,,117,0,117,0,1,,,,,,,,
,,"[""diamond"",""no_dis"",""hori"",""left"",[99999,99999],[106,106]]",diamond,no_dis,hori,left,"[99999,99999]","[106,106]",left,1,,,,,,001,2025-03-11_19h44.32.103,SL_sali,2021.2.3,Win32,59.17159763,1.0798,,,118,0,118,0,1,,,,,,,,
,,"[""diamond"",""green"",""vert"",""up"",[106,-106],[0,-150]]",diamond,green,vert,up,"[106,-106]","[0,-150]",up,1,,,,,,001,2025-03-11_19h44.32.103,SL_sali,2021.2.3,Win32,59.17159763,1.2157,,,119,0,119,0,1,,,,,,,,
,,,,,,,,,,,,,,,,001,2025-03-11_19h44.32.103,SL_sali,2021.2.3,Win32,59.17159763,,,,,,,,,3,space,73.8192,2,0,2,0,1
,,"[""circle"",""no_dis"",""hori"",""left"",[99999,99999],[106,106]]",circle,no_dis,hori,left,"[99999,99999]","[106,106]",left,1,,,,,,001,2025-03-11_19h44.32.103,SL_sali,2021.2.3,Win32,59.17159763,1.423,,,0,0,0,0,1,,,,,,,,
,,"[""circle"",""red"",""vert"",""up"",[106,-106],[106,106]]",circle,red,vert,up,"[106,-106]","[106,106]",up,1,,,,,,001,2025-03-11_19h44.32.103,SL_sali,2021.2.3,Win32,59.17159763,1.0875,,,1,0,1,0,1,,,,,,,,
,,"[""diamond"",""green"",""vert"",""up"",[-106,106],[106,106]]",diamond,green,vert,up,"[-106,106]","[106,106]",up,1,,,,,,001,2025-03-11_19h44.32.103,SL_sali,2021.2.3,Win32,59.17159763,0.9018,,,2,0,2,0,1,,,,,,,,
,,"[""diamond"",""no_dis"",""hori"",""left"",[99999,99999],[150,0]]",diamond,no_dis,hori,left,"[99999,99999]","[150,0]",left,1,,,,,,001,2025-03-11_19h44.32.103,SL_sali,2021.2.3,Win32,59.17159763,1.141,,,3,0,3,0,1,,,,,,,,
,,"[""circle"",""green"",""vert"",""up"",[-106,106],[150,0]]",circle,green,vert,up,"[-106,106]","[150,0]",up,1,,,,,,001,2025-03-11_19h44.32.103,SL_sali,2021.2.3,Win32,59.17159763,1.1181,,,4,0,4,0,1,,,,,,,,
,,"[""circle"",""green"",""hori"",""left"",[106,-106],[0,-150]]",circle,green,hori,left,"[106,-106]","[0,-150]",left,1,,,,,,001,2025-03-11_19h44.32.103,SL_sali,2021.2.3,Win32,59.17159763,1.183,,,5,0,5,0,1,,,,,,,,
,,"[""circle"",""red"",""vert"",""up"",[106,-106],[-106,-106]]",circle,red,vert,up,"[106,-106]","[-106,-106]",up,1,,,,,,001,2025-03-11_19h44.32.103,SL_sali,2021.2.3,Win32,59.17159763,1.4991,,,6,0,6,0,1,,,,,,,,
,,"[""diamond"",""red"",""vert"",""up"",[-106,-106],[106,106]]",diamond,red,vert,up,"[-106,-106]","[106,106]",up,1,,,,,,001,2025-03-11_19h44.32.103,SL_sali,2021.2.3,Win32,59.17159763,1.8665,,,7,0,7,0,1,,,,,,,,
,,"[""diamond"",""no_dis"",""vert"",""up"",[99999,99999],[-150,0]]",diamond,no_dis,vert,up,"[99999,99999]","[-150,0]",up,1,,,,,,001,2025-03-11_19h44.32.103,SL_sali,2021.2.3,Win32,59.17159763,1.2211,,,8,0,8,0,1,,,,,,,,
,,"[""circle"",""red"",""vert"",""up"",[-106,-106],[106,-106]]",circle,red,vert,up,"[-106,-106]","[106,-106]",up,1,,,,,,001,2025-03-11_19h44.32.103,SL_sali,2021.2.3,Win32,59.17159763,1.5601,,,9,0,9,0,1,,,,,,,,
,,"[""circle"",""no_dis"",""vert"",""up"",[99999,99999],[-150,0]]",circle,no_dis,vert,up,"[99999,99999]","[-150,0]",up,1,,,,,,001,2025-03-11_19h44.32.103,SL_sali,2021.2.3,Win32,59.17159763,2.3192,,,10,0,10,0,1,,,,,,,,
,,"[""diamond"",""no_dis"",""hori"",""left"",[99999,99999],[106,106]]",diamond,no_dis,hori,left,"[99999,99999]","[106,106]",left,1,,,,,,001,2025-03-11_19h44.32.103,SL_sali,2021.2.3,Win32,59.17159763,1.146,,,11,0,11,0,1,,,,,,,,
,,"[""diamond"",""red"",""vert"",""up"",[0,150],[-150,0]]",diamond,red,vert,up,"[0,150]","[-150,0]",up,1,,,,,,001,2025-03-11_19h44.32.103,SL_sali,2021.2.3,Win32,59.17159763,1.3245,,,12,0,12,0,1,,,,,,,,
,,"[""diamond"",""no_dis"",""hori"",""left"",[99999,99999],[106,-106]]",diamond,no_dis,hori,left,"[99999,99999]","[106,-106]",left,1,,,,,,001,2025-03-11_19h44.32.103,SL_sali,2021.2.3,Win32,59.17159763,1.4373,,,13,0,13,0,1,,,,,,,,
,,"[""circle"",""no_dis"",""vert"",""up"",[99999,99999],[-106,-106]]",circle,no_dis,vert,up,"[99999,99999]","[-106,-106]",up,1,,,,,,001,2025-03-11_19h44.32.103,SL_sali,2021.2.3,Win32,59.17159763,1.3667,,,14,0,14,0,1,,,,,,,,
,,"[""circle"",""red"",""vert"",""up"",[106,-106],[0,150]]",circle,red,vert,up,"[106,-106]","[0,150]",up,1,,,,,,001,2025-03-11_19h44.32.103,SL_sali,2021.2.3,Win32,59.17159763,1.4755,,,15,0,15,0,1,,,,,,,,
,,"[""diamond"",""no_dis"",""hori"",""left"",[99999,99999],[-106,106]]",diamond,no_dis,hori,left,"[99999,99999]","[-106,106]",left,1,,,,,,001,2025-03-11_19h44.32.103,SL_sali,2021.2.3,Win32,59.17159763,1.3441,,,16,0,16,0,1,,,,,,,,
,,"[""diamond"",""green"",""hori"",""left"",[150,0],[0,-150]]",diamond,green,hori,left,"[150,0]","[0,-150]",left,1,,,,,,001,2025-03-11_19h44.32.103,SL_sali,2021.2.3,Win32,59.17159763,1.4291,,,17,0,17,0,1,,,,,,,,
,,"[""circle"",""red"",""hori"",""left"",[106,106],[150,0]]",circle,red,hori,left,"[106,106]","[150,0]",up,0,,,,,,001,2025-03-11_19h44.32.103,SL_sali,2021.2.3,Win32,59.17159763,1.1051,,,18,0,18,0,1,,,,,,,,
,,"[""diamond"",""no_dis"",""vert"",""up"",[99999,99999],[0,150]]",diamond,no_dis,vert,up,"[99999,99999]","[0,150]",up,1,,,,,,001,2025-03-11_19h44.32.103,SL_sali,2021.2.3,Win32,59.17159763,1.6002,,,19,0,19,0,1,,,,,,,,
,,"[""circle"",""red"",""vert"",""up"",[0,150],[150,0]]",circle,red,vert,up,"[0,150]","[150,0]",up,1,,,,,,001,2025-03-11_19h44.32.103,SL_sali,2021.2.3,Win32,59.17159763,1.1092,,,20,0,20,0,1,,,,,,,,
,,"[""diamond"",""red"",""hori"",""left"",[-150,0],[150,0]]",diamond,red,hori,left,"[-150,0]","[150,0]",left,1,,,,,,001,2025-03-11_19h44.32.103,SL_sali,2021.2.3,Win32,59.17159763,1.128,,,21,0,21,0,1,,,,,,,,
,,"[""diamond"",""red"",""vert"",""up"",[106,106],[0,-150]]",diamond,red,vert,up,"[106,106]","[0,-150]",up,1,,,,,,001,2025-03-11_19h44.32.103,SL_sali,2021.2.3,Win32,59.17159763,1.0592,,,22,0,22,0,1,,,,,,,,
,,"[""diamond"",""green"",""hori"",""left"",[106,-106],[-106,-106]]",diamond,green,hori,left,"[106,-106]","[-106,-106]",left,1,,,,,,001,2025-03-11_19h44.32.103,SL_sali,2021.2.3,Win32,59.17159763,1.4005,,,23,0,23,0,1,,,,,,,,
,,"[""circle"",""green"",""vert"",""up"",[106,106],[-150,0]]",circle,green,vert,up,"[106,106]","[-150,0]",up,1,,,,,,001,2025-03-11_19h44.32.103,SL_sali,2021.2.3,Win32,59.17159763,1.0662,,,24,0,24,0,1,,,,,,,,
,,"[""diamond"",""no_dis"",""hori"",""left"",[99999,99999],[106,-106]]",diamond,no_dis,hori,left,"[99999,99999]","[106,-106]",left,1,,,,,,001,2025-03-11_19h44.32.103,SL_sali,2021.2.3,Win32,59.17159763,1.1998,,,25,0,25,0,1,,,,,,,,
,,"[""diamond"",""no_dis"",""vert"",""up"",[99999,99999],[106,-106]]",diamond,no_dis,vert,up,"[99999,99999]","[106,-106]",up,1,,,,,,001,2025-03-11_19h44.32.103,SL_sali,2021.2.3,Win32,59.17159763,1.0167,,,26,0,26,0,1,,,,,,,,
,,"[""diamond"",""no_dis"",""vert"",""up"",[99999,99999],[-150,0]]",diamond,no_dis,vert,up,"[99999,99999]","[-150,0]",up,1,,,,,,001,2025-03-11_19h44.32.103,SL_sali,2021.2.3,Win32,59.17159763,1.1921,,,27,0,27,0,1,,,,,,,,
,,"[""diamond"",""green"",""hori"",""left"",[106,-106],[0,-150]]",diamond,green,hori,left,"[106,-106]","[0,-150]",left,1,,,,,,001,2025-03-11_19h44.32.103,SL_sali,2021.2.3,Win32,59.17159763,0.9875,,,28,0,28,0,1,,,,,,,,
,,"[""circle"",""no_dis"",""hori"",""left"",[99999,99999],[0,-150]]",circle,no_dis,hori,left,"[99999,99999]","[0,-150]",left,1,,,,,,001,2025-03-11_19h44.32.103,SL_sali,2021.2.3,Win32,59.17159763,1.6636,,,29,0,29,0,1,,,,,,,,
,,"[""diamond"",""red"",""vert"",""up"",[-106,106],[0,-150]]",diamond,red,vert,up,"[-106,106]","[0,-150]",up,1,,,,,,001,2025-03-11_19h44.32.103,SL_sali,2021.2.3,Win32,59.17159763,1.5958,,,30,0,30,0,1,,,,,,,,
,,"[""circle"",""green"",""hori"",""left"",[0,-150],[-106,106]]",circle,green,hori,left,"[0,-150]","[-106,106]",left,1,,,,,,001,2025-03-11_19h44.32.103,SL_sali,2021.2.3,Win32,59.17159763,1.0889,,,31,0,31,0,1,,,,,,,,
,,"[""circle"",""red"",""vert"",""up"",[150,0],[0,150]]",circle,red,vert,up,"[150,0]","[0,150]",up,1,,,,,,001,2025-03-11_19h44.32.103,SL_sali,2021.2.3,Win32,59.17159763,1.2073,,,32,0,32,0,1,,,,,,,,
,,"[""diamond"",""red"",""hori"",""left"",[-150,0],[-106,-106]]",diamond,red,hori,left,"[-150,0]","[-106,-106]",left,1,,,,,,001,2025-03-11_19h44.32.103,SL_sali,2021.2.3,Win32,59.17159763,1.3162,,,33,0,33,0,1,,,,,,,,
,,"[""diamond"",""red"",""hori"",""left"",[150,0],[-106,-106]]",diamond,red,hori,left,"[150,0]","[-106,-106]",left,1,,,,,,001,2025-03-11_19h44.32.103,SL_sali,2021.2.3,Win32,59.17159763,1.5393,,,34,0,34,0,1,,,,,,,,
,,"[""circle"",""green"",""hori"",""left"",[-106,-106],[150,0]]",circle,green,hori,left,"[-106,-106]","[150,0]",left,1,,,,,,001,2025-03-11_19h44.32.103,SL_sali,2021.2.3,Win32,59.17159763,1.4001,,,35,0,35,0,1,,,,,,,,
,,"[""diamond"",""green"",""vert"",""up"",[-150,0],[106,-106]]",diamond,green,vert,up,"[-150,0]","[106,-106]",up,1,,,,,,001,2025-03-11_19h44.32.103,SL_sali,2021.2.3,Win32,59.17159763,1.1836,,,36,0,36,0,1,,,,,,,,
,,"[""diamond"",""green"",""vert"",""up"",[106,-106],[0,150]]",diamond,green,vert,up,"[106,-106]","[0,150]",up,1,,,,,,001,2025-03-11_19h44.32.103,SL_sali,2021.2.3,Win32,59.17159763,1.0001,,,37,0,37,0,1,,,,,,,,
,,"[""circle"",""no_dis"",""vert"",""up"",[99999,99999],[-106,106]]",circle,no_dis,vert,up,"[99999,99999]","[-106,106]",up,1,,,,,,001,2025-03-11_19h44.32.103,SL_sali,2021.2.3,Win32,59.17159763,2.1018,,,38,0,38,0,1,,,,,,,,
,,"[""circle"",""green"",""vert"",""up"",[-106,106],[0,-150]]",circle,green,vert,up,"[-106,106]","[0,-150]",up,1,,,,,,001,2025-03-11_19h44.32.103,SL_sali,2021.2.3,Win32,59.17159763,1.333,,,39,0,39,0,1,,,,,,,,
,,"[""circle"",""no_dis"",""vert"",""up"",[99999,99999],[0,-150]]",circle,no_dis,vert,up,"[99999,99999]","[0,-150]",up,1,,,,,,001,2025-03-11_19h44.32.103,SL_sali,2021.2.3,Win32,59.17159763,1.3666,,,40,0,40,0,1,,,,,,,,
,,"[""diamond"",""no_dis"",""hori"",""left"",[99999,99999],[-106,106]]",diamond,no_dis,hori,left,"[99999,99999]","[-106,106]",left,1,,,,,,001,2025-03-11_19h44.32.103,SL_sali,2021.2.3,Win32,59.17159763,2.8064,,,41,0,41,0,1,,,,,,,,
,,"[""diamond"",""no_dis"",""hori"",""left"",[99999,99999],[150,0]]",diamond,no_dis,hori,left,"[99999,99999]","[150,0]",left,1,,,,,,001,2025-03-11_19h44.32.103,SL_sali,2021.2.3,Win32,59.17159763,1.5881,,,42,0,42,0,1,,,,,,,,
,,"[""circle"",""green"",""hori"",""left"",[150,0],[106,-106]]",circle,green,hori,left,"[150,0]","[106,-106]",left,1,,,,,,001,2025-03-11_19h44.32.103,SL_sali,2021.2.3,Win32,59.17159763,2.033,,,43,0,43,0,1,,,,,,,,
,,"[""diamond"",""no_dis"",""hori"",""left"",[99999,99999],[-150,0]]",diamond,no_dis,hori,left,"[99999,99999]","[-150,0]",left,1,,,,,,001,2025-03-11_19h44.32.103,SL_sali,2021.2.3,Win32,59.17159763,1.7015,,,44,0,44,0,1,,,,,,,,
,,"[""diamond"",""no_dis"",""vert"",""up"",[99999,99999],[0,150]]",diamond,no_dis,vert,up,"[99999,99999]","[0,150]",up,1,,,,,,001,2025-03-11_19h44.32.103,SL_sali,2021.2.3,Win32,59.17159763,1.1736,,,45,0,45,0,1,,,,,,,,
,,"[""diamond"",""no_dis"",""vert"",""up"",[99999,99999],[0,-150]]",diamond,no_dis,vert,up,"[99999,99999]","[0,-150]",up,1,,,,,,001,2025-03-11_19h44.32.103,SL_sali,2021.2.3,Win32,59.17159763,1.2508,,,46,0,46,0,1,,,,,,,,
,,"[""diamond"",""red"",""vert"",""up"",[106,106],[0,-150]]",diamond,red,vert,up,"[106,106]","[0,-150]",up,1,,,,,,001,2025-03-11_19h44.32.103,SL_sali,2021.2.3,Win32,59.17159763,1.4111,,,47,0,47,0,1,,,,,,,,
,,"[""diamond"",""green"",""vert"",""up"",[0,-150],[-106,106]]",diamond,green,vert,up,"[0,-150]","[-106,106]",up,1,,,,,,001,2025-03-11_19h44.32.103,SL_sali,2021.2.3,Win32,59.17159763,1.1727,,,48,0,48,0,1,,,,,,,,
,,"[""circle"",""red"",""hori"",""left"",[106,-106],[-106,-106]]",circle,red,hori,left,"[106,-106]","[-106,-106]",left,1,,,,,,001,2025-03-11_19h44.32.103,SL_sali,2021.2.3,Win32,59.17159763,1.6401,,,49,0,49,0,1,,,,,,,,
,,"[""circle"",""no_dis"",""hori"",""left"",[99999,99999],[106,-106]]",circle,no_dis,hori,left,"[99999,99999]","[106,-106]",left,1,,,,,,001,2025-03-11_19h44.32.103,SL_sali,2021.2.3,Win32,59.17159763,1.0893,,,50,0,50,0,1,,,,,,,,
,,"[""circle"",""red"",""hori"",""left"",[0,-150],[-106,106]]",circle,red,hori,left,"[0,-150]","[-106,106]",left,1,,,,,,001,2025-03-11_19h44.32.103,SL_sali,2021.2.3,Win32,59.17159763,0.8731,,,51,0,51,0,1,,,,,,,,
,,"[""circle"",""green"",""hori"",""left"",[106,-106],[150,0]]",circle,green,hori,left,"[106,-106]","[150,0]",left,1,,,,,,001,2025-03-11_19h44.32.103,SL_sali,2021.2.3,Win32,59.17159763,1.1837,,,52,0,52,0,1,,,,,,,,
,,"[""circle"",""no_dis"",""vert"",""up"",[99999,99999],[-106,106]]",circle,no_dis,vert,up,"[99999,99999]","[-106,106]",up,1,,,,,,001,2025-03-11_19h44.32.103,SL_sali,2021.2.3,Win32,59.17159763,1.0931,,,53,0,53,0,1,,,,,,,,
,,"[""diamond"",""green"",""vert"",""up"",[-106,106],[-150,0]]",diamond,green,vert,up,"[-106,106]","[-150,0]",up,1,,,,,,001,2025-03-11_19h44.32.103,SL_sali,2021.2.3,Win32,59.17159763,1.6996,,,54,0,54,0,1,,,,,,,,
,,"[""diamond"",""red"",""hori"",""left"",[-106,106],[0,150]]",diamond,red,hori,left,"[-106,106]","[0,150]",left,1,,,,,,001,2025-03-11_19h44.32.103,SL_sali,2021.2.3,Win32,59.17159763,2.4355,,,55,0,55,0,1,,,,,,,,
,,"[""circle"",""red"",""hori"",""left"",[-106,106],[-150,0]]",circle,red,hori,left,"[-106,106]","[-150,0]",left,1,,,,,,001,2025-03-11_19h44.32.103,SL_sali,2021.2.3,Win32,59.17159763,1.6603,,,56,0,56,0,1,,,,,,,,
,,"[""diamond"",""green"",""hori"",""left"",[106,-106],[-106,106]]",diamond,green,hori,left,"[106,-106]","[-106,106]",left,1,,,,,,001,2025-03-11_19h44.32.103,SL_sali,2021.2.3,Win32,59.17159763,1.1005,,,57,0,57,0,1,,,,,,,,
,,"[""diamond"",""red"",""vert"",""up"",[106,-106],[0,-150]]",diamond,red,vert,up,"[106,-106]","[0,-150]",up,1,,,,,,001,2025-03-11_19h44.32.103,SL_sali,2021.2.3,Win32,59.17159763,1.2553,,,58,0,58,0,1,,,,,,,,
,,"[""diamond"",""red"",""vert"",""up"",[-150,0],[-106,-106]]",diamond,red,vert,up,"[-150,0]","[-106,-106]",up,1,,,,,,001,2025-03-11_19h44.32.103,SL_sali,2021.2.3,Win32,59.17159763,1.7441,,,59,0,59,0,1,,,,,,,,
,,"[""circle"",""no_dis"",""vert"",""up"",[99999,99999],[150,0]]",circle,no_dis,vert,up,"[99999,99999]","[150,0]",up,1,,,,,,001,2025-03-11_19h44.32.103,SL_sali,2021.2.3,Win32,59.17159763,1.9019,,,60,0,60,0,1,,,,,,,,
,,"[""diamond"",""green"",""hori"",""left"",[0,-150],[-106,-106]]",diamond,green,hori,left,"[0,-150]","[-106,-106]",left,1,,,,,,001,2025-03-11_19h44.32.103,SL_sali,2021.2.3,Win32,59.17159763,1.2039,,,61,0,61,0,1,,,,,,,,
,,"[""diamond"",""no_dis"",""vert"",""up"",[99999,99999],[106,106]]",diamond,no_dis,vert,up,"[99999,99999]","[106,106]",up,1,,,,,,001,2025-03-11_19h44.32.103,SL_sali,2021.2.3,Win32,59.17159763,1.5421,,,62,0,62,0,1,,,,,,,,
,,"[""circle"",""red"",""hori"",""left"",[106,-106],[150,0]]",circle,red,hori,left,"[106,-106]","[150,0]",left,1,,,,,,001,2025-03-11_19h44.32.103,SL_sali,2021.2.3,Win32,59.17159763,1.3332,,,63,0,63,0,1,,,,,,,,
,,"[""diamond"",""green"",""vert"",""up"",[106,-106],[-106,106]]",diamond,green,vert,up,"[106,-106]","[-106,106]",up,1,,,,,,001,2025-03-11_19h44.32.103,SL_sali,2021.2.3,Win32,59.17159763,1.2256,,,64,0,64,0,1,,,,,,,,
,,"[""diamond"",""green"",""vert"",""up"",[106,106],[150,0]]",diamond,green,vert,up,"[106,106]","[150,0]",up,1,,,,,,001,2025-03-11_19h44.32.103,SL_sali,2021.2.3,Win32,59.17159763,1.3344,,,65,0,65,0,1,,,,,,,,
,,"[""circle"",""green"",""vert"",""up"",[106,-106],[-150,0]]",circle,green,vert,up,"[106,-106]","[-150,0]",up,1,,,,,,001,2025-03-11_19h44.32.103,SL_sali,2021.2.3,Win32,59.17159763,1.9084,,,66,0,66,0,1,,,,,,,,
,,"[""diamond"",""red"",""vert"",""up"",[0,-150],[-106,106]]",diamond,red,vert,up,"[0,-150]","[-106,106]",up,1,,,,,,001,2025-03-11_19h44.32.103,SL_sali,2021.2.3,Win32,59.17159763,1.9664,,,67,0,67,0,1,,,,,,,,
,,"[""circle"",""green"",""vert"",""up"",[-150,0],[-106,-106]]",circle,green,vert,up,"[-150,0]","[-106,-106]",up,1,,,,,,001,2025-03-11_19h44.32.103,SL_sali,2021.2.3,Win32,59.17159763,1.3534,,,68,0,68,0,1,,,,,,,,
,,"[""diamond"",""green"",""hori"",""left"",[106,-106],[-106,-106]]",diamond,green,hori,left,"[106,-106]","[-106,-106]",left,1,,,,,,001,2025-03-11_19h44.32.103,SL_sali,2021.2.3,Win32,59.17159763,1.7169,,,69,0,69,0,1,,,,,,,,
,,"[""circle"",""no_dis"",""hori"",""left"",[99999,99999],[-106,106]]",circle,no_dis,hori,left,"[99999,99999]","[-106,106]",,0,,,,,,001,2025-03-11_19h44.32.103,SL_sali,2021.2.3,Win32,59.17159763,,,,70,0,70,0,1,,,,,,,,
,,"[""diamond"",""no_dis"",""vert"",""up"",[99999,99999],[0,150]]",diamond,no_dis,vert,up,"[99999,99999]","[0,150]",up,1,,,,,,001,2025-03-11_19h44.32.103,SL_sali,2021.2.3,Win32,59.17159763,2.4036,,,71,0,71,0,1,,,,,,,,
,,"[""circle"",""red"",""vert"",""up"",[-106,-106],[106,106]]",circle,red,vert,up,"[-106,-106]","[106,106]",up,1,,,,,,001,2025-03-11_19h44.32.103,SL_sali,2021.2.3,Win32,59.17159763,1.8769,,,72,0,72,0,1,,,,,,,,
,,"[""circle"",""red"",""hori"",""left"",[0,-150],[0,150]]",circle,red,hori,left,"[0,-150]","[0,150]",left,1,,,,,,001,2025-03-11_19h44.32.103,SL_sali,2021.2.3,Win32,59.17159763,2.5293,,,73,0,73,0,1,,,,,,,,
,,"[""diamond"",""red"",""hori"",""left"",[-106,-106],[-106,106]]",diamond,red,hori,left,"[-106,-106]","[-106,106]",left,1,,,,,,001,2025-03-11_19h44.32.103,SL_sali,2021.2.3,Win32,59.17159763,1.8897,,,74,0,74,0,1,,,,,,,,
,,"[""circle"",""green"",""hori"",""left"",[0,-150],[0,150]]",circle,green,hori,left,"[0,-150]","[0,150]",left,1,,,,,,001,2025-03-11_19h44.32.103,SL_sali,2021.2.3,Win32,59.17159763,1.4468,,,75,0,75,0,1,,,,,,,,
,,"[""circle"",""red"",""vert"",""up"",[-106,-106],[-106,106]]",circle,red,vert,up,"[-106,-106]","[-106,106]",up,1,,,,,,001,2025-03-11_19h44.32.103,SL_sali,2021.2.3,Win32,59.17159763,1.8664,,,76,0,76,0,1,,,,,,,,
,,"[""circle"",""green"",""hori"",""left"",[0,-150],[-150,0]]",circle,green,hori,left,"[0,-150]","[-150,0]",left,1,,,,,,001,2025-03-11_19h44.32.103,SL_sali,2021.2.3,Win32,59.17159763,2.2367,,,77,0,77,0,1,,,,,,,,
,,"[""diamond"",""green"",""hori"",""left"",[-150,0],[-106,106]]",diamond,green,hori,left,"[-150,0]","[-106,106]",left,1,,,,,,001,2025-03-11_19h44.32.103,SL_sali,2021.2.3,Win32,59.17159763,2.3767,,,78,0,78,0,1,,,,,,,,
,,"[""circle"",""no_dis"",""vert"",""up"",[99999,99999],[-106,-106]]",circle,no_dis,vert,up,"[99999,99999]","[-106,-106]",up,1,,,,,,001,2025-03-11_19h44.32.103,SL_sali,2021.2.3,Win32,59.17159763,2.5335,,,79,0,79,0,1,,,,,,,,
,,"[""circle"",""no_dis"",""hori"",""left"",[99999,99999],[-106,-106]]",circle,no_dis,hori,left,"[99999,99999]","[-106,-106]",left,1,,,,,,001,2025-03-11_19h44.32.103,SL_sali,2021.2.3,Win32,59.17159763,1.1997,,,80,0,80,0,1,,,,,,,,
,,"[""circle"",""red"",""hori"",""left"",[106,106],[0,150]]",circle,red,hori,left,"[106,106]","[0,150]",left,1,,,,,,001,2025-03-11_19h44.32.103,SL_sali,2021.2.3,Win32,59.17159763,1.6001,,,81,0,81,0,1,,,,,,,,
,,"[""diamond"",""no_dis"",""vert"",""up"",[99999,99999],[-106,-106]]",diamond,no_dis,vert,up,"[99999,99999]","[-106,-106]",up,1,,,,,,001,2025-03-11_19h44.32.103,SL_sali,2021.2.3,Win32,59.17159763,1.0329,,,82,0,82,0,1,,,,,,,,
,,"[""circle"",""red"",""hori"",""left"",[0,150],[-150,0]]",circle,red,hori,left,"[0,150]","[-150,0]",left,1,,,,,,001,2025-03-11_19h44.32.103,SL_sali,2021.2.3,Win32,59.17159763,1.1584,,,83,0,83,0,1,,,,,,,,
,,"[""circle"",""red"",""hori"",""left"",[0,150],[-150,0]]",circle,red,hori,left,"[0,150]","[-150,0]",left,1,,,,,,001,2025-03-11_19h44.32.103,SL_sali,2021.2.3,Win32,59.17159763,1.3027,,,84,0,84,0,1,,,,,,,,
,,"[""diamond"",""red"",""hori"",""left"",[106,-106],[-106,106]]",diamond,red,hori,left,"[106,-106]","[-106,106]",left,1,,,,,,001,2025-03-11_19h44.32.103,SL_sali,2021.2.3,Win32,59.17159763,1.7919,,,85,0,85,0,1,,,,,,,,
,,"[""diamond"",""green"",""vert"",""up"",[106,-106],[150,0]]",diamond,green,vert,up,"[106,-106]","[150,0]",up,1,,,,,,001,2025-03-11_19h44.32.103,SL_sali,2021.2.3,Win32,59.17159763,1.1735,,,86,0,86,0,1,,,,,,,,
,,"[""circle"",""red"",""vert"",""up"",[-106,-106],[150,0]]",circle,red,vert,up,"[-106,-106]","[150,0]",up,1,,,,,,001,2025-03-11_19h44.32.103,SL_sali,2021.2.3,Win32,59.17159763,1.3851,,,87,0,87,0,1,,,,,,,,
,,"[""diamond"",""no_dis"",""hori"",""left"",[99999,99999],[150,0]]",diamond,no_dis,hori,left,"[99999,99999]","[150,0]",left,1,,,,,,001,2025-03-11_19h44.32.103,SL_sali,2021.2.3,Win32,59.17159763,1.0007,,,88,0,88,0,1,,,,,,,,
,,"[""circle"",""green"",""vert"",""up"",[150,0],[0,-150]]",circle,green,vert,up,"[150,0]","[0,-150]",up,1,,,,,,001,2025-03-11_19h44.32.103,SL_sali,2021.2.3,Win32,59.17159763,1.2833,,,89,0,89,0,1,,,,,,,,
