﻿key_resp.keys,key_resp.rt,trial_para,tar_shape,dis_color_condi,tar_line,cor_resp,dis_loc,tar_loc,resp.keys,resp.corr,trials.thisRepN,trials.thisTrialN,trials.thisN,trials.thisIndex,trials.ran,participant,date,expName,psychopyVersion,OS,frameRate,resp.rt,key_resp_2.keys,key_resp_2.rt,trials_2.thisRepN,trials_2.thisTrialN,trials_2.thisN,trials_2.thisIndex,trials_2.ran,block_num,key_resp_3.keys,key_resp_3.rt,trials_3.thisRepN,trials_3.thisTrialN,trials_3.thisN,trials_3.thisIndex,trials_3.ran
space,62.573,"[""circle"",""no_dis"",""vert"",""up"",[99999,99999],[150,0]]",circle,no_dis,vert,up,"[99999,99999]","[150,0]",,0,0,0,0,0,1,001,2025-03-11_20h34.40.941,SL_sali_41,2021.2.3,Win32,60.24096386,,,,,,,,,,,,,,,,
,,"[""diamond"",""no_dis"",""hori"",""left"",[99999,99999],[106,-106]]",diamond,no_dis,hori,left,"[99999,99999]","[106,-106]",up,0,1,0,1,0,1,001,2025-03-11_20h34.40.941,SL_sali_41,2021.2.3,Win32,60.24096386,2.9391,,,,,,,,,,,,,,,
,,"[""diamond"",""green"",""vert"",""up"",[0,150],[-106,-106]]",diamond,green,vert,up,"[0,150]","[-106,-106]",,0,2,0,2,0,1,001,2025-03-11_20h34.40.941,SL_sali_41,2021.2.3,Win32,60.24096386,,,,,,,,,,,,,,,,
,,"[""circle"",""no_dis"",""vert"",""up"",[99999,99999],[0,150]]",circle,no_dis,vert,up,"[99999,99999]","[0,150]",,0,3,0,3,0,1,001,2025-03-11_20h34.40.941,SL_sali_41,2021.2.3,Win32,60.24096386,,,,,,,,,,,,,,,,
,,"[""diamond"",""green"",""hori"",""left"",[106,106],[106,-106]]",diamond,green,hori,left,"[106,106]","[106,-106]",up,0,4,0,4,0,1,001,2025-03-11_20h34.40.941,SL_sali_41,2021.2.3,Win32,60.24096386,2.7016,,,,,,,,,,,,,,,
,,"[""circle"",""no_dis"",""hori"",""left"",[99999,99999],[-106,-106]]",circle,no_dis,hori,left,"[99999,99999]","[-106,-106]",,0,5,0,5,0,1,001,2025-03-11_20h34.40.941,SL_sali_41,2021.2.3,Win32,60.24096386,,,,,,,,,,,,,,,,
,,"[""circle"",""green"",""vert"",""up"",[106,-106],[0,-150]]",circle,green,vert,up,"[106,-106]","[0,-150]",up,1,6,0,6,0,1,001,2025-03-11_20h34.40.941,SL_sali_41,2021.2.3,Win32,60.24096386,1.6841,,,,,,,,,,,,,,,
,,"[""circle"",""green"",""hori"",""left"",[0,-150],[106,106]]",circle,green,hori,left,"[0,-150]","[106,106]",,0,7,0,7,0,1,001,2025-03-11_20h34.40.941,SL_sali_41,2021.2.3,Win32,60.24096386,,,,,,,,,,,,,,,,
,,"[""circle"",""green"",""hori"",""left"",[0,150],[-106,-106]]",circle,green,hori,left,"[0,150]","[-106,-106]",,0,8,0,8,0,1,001,2025-03-11_20h34.40.941,SL_sali_41,2021.2.3,Win32,60.24096386,,,,,,,,,,,,,,,,
,,"[""circle"",""red"",""vert"",""up"",[0,150],[-106,106]]",circle,red,vert,up,"[0,150]","[-106,106]",,0,9,0,9,0,1,001,2025-03-11_20h34.40.941,SL_sali_41,2021.2.3,Win32,60.24096386,,,,,,,,,,,,,,,,
,,"[""circle"",""no_dis"",""vert"",""up"",[99999,99999],[150,0]]",circle,no_dis,vert,up,"[99999,99999]","[150,0]",,0,,,,,,001,2025-03-11_20h34.40.941,SL_sali_41,2021.2.3,Win32,60.24096386,,space,25.4192,0,0,0,0,1,,,,,,,,
,,"[""diamond"",""no_dis"",""hori"",""left"",[99999,99999],[106,-106]]",diamond,no_dis,hori,left,"[99999,99999]","[106,-106]",up,0,,,,,,001,2025-03-11_20h34.40.941,SL_sali_41,2021.2.3,Win32,60.24096386,2.8028,,,1,0,1,0,1,,,,,,,,
,,"[""diamond"",""green"",""vert"",""up"",[0,150],[-106,-106]]",diamond,green,vert,up,"[0,150]","[-106,-106]",up,1,,,,,,001,2025-03-11_20h34.40.941,SL_sali_41,2021.2.3,Win32,60.24096386,1.7003,,,2,0,2,0,1,,,,,,,,
,,"[""circle"",""no_dis"",""vert"",""up"",[99999,99999],[0,150]]",circle,no_dis,vert,up,"[99999,99999]","[0,150]",up,1,,,,,,001,2025-03-11_20h34.40.941,SL_sali_41,2021.2.3,Win32,60.24096386,2.7004,,,3,0,3,0,1,,,,,,,,
,,"[""diamond"",""green"",""hori"",""left"",[106,106],[106,-106]]",diamond,green,hori,left,"[106,106]","[106,-106]",,0,,,,,,001,2025-03-11_20h34.40.941,SL_sali_41,2021.2.3,Win32,60.24096386,,,,4,0,4,0,1,,,,,,,,
,,"[""circle"",""no_dis"",""hori"",""left"",[99999,99999],[-106,-106]]",circle,no_dis,hori,left,"[99999,99999]","[-106,-106]",up,0,,,,,,001,2025-03-11_20h34.40.941,SL_sali_41,2021.2.3,Win32,60.24096386,1.6547,,,5,0,5,0,1,,,,,,,,
,,"[""circle"",""green"",""vert"",""up"",[106,-106],[0,-150]]",circle,green,vert,up,"[106,-106]","[0,-150]",,0,,,,,,001,2025-03-11_20h34.40.941,SL_sali_41,2021.2.3,Win32,60.24096386,,,,6,0,6,0,1,,,,,,,,
,,"[""circle"",""green"",""hori"",""left"",[0,-150],[106,106]]",circle,green,hori,left,"[0,-150]","[106,106]",up,0,,,,,,001,2025-03-11_20h34.40.941,SL_sali_41,2021.2.3,Win32,60.24096386,2.1268,,,7,0,7,0,1,,,,,,,,
,,"[""circle"",""green"",""hori"",""left"",[0,150],[-106,-106]]",circle,green,hori,left,"[0,150]","[-106,-106]",,0,,,,,,001,2025-03-11_20h34.40.941,SL_sali_41,2021.2.3,Win32,60.24096386,,,,8,0,8,0,1,,,,,,,,
,,"[""circle"",""red"",""vert"",""up"",[0,150],[-106,106]]",circle,red,vert,up,"[0,150]","[-106,106]",up,1,,,,,,001,2025-03-11_20h34.40.941,SL_sali_41,2021.2.3,Win32,60.24096386,2.6258,,,9,0,9,0,1,,,,,,,,
,,"[""circle"",""green"",""hori"",""left"",[-106,106],[106,-106]]",circle,green,hori,left,"[-106,106]","[106,-106]",up,0,,,,,,001,2025-03-11_20h34.40.941,SL_sali_41,2021.2.3,Win32,60.24096386,1.643,,,10,0,10,0,1,,,,,,,,
,,"[""circle"",""green"",""vert"",""up"",[0,150],[106,-106]]",circle,green,vert,up,"[0,150]","[106,-106]",up,1,,,,,,001,2025-03-11_20h34.40.941,SL_sali_41,2021.2.3,Win32,60.24096386,1.9926,,,11,0,11,0,1,,,,,,,,
,,"[""circle"",""green"",""hori"",""left"",[106,-106],[0,150]]",circle,green,hori,left,"[106,-106]","[0,150]",up,0,,,,,,001,2025-03-11_20h34.40.941,SL_sali_41,2021.2.3,Win32,60.24096386,2.0283,,,12,0,12,0,1,,,,,,,,
,,"[""diamond"",""green"",""hori"",""left"",[0,-150],[106,106]]",diamond,green,hori,left,"[0,-150]","[106,106]",,0,,,,,,001,2025-03-11_20h34.40.941,SL_sali_41,2021.2.3,Win32,60.24096386,,,,13,0,13,0,1,,,,,,,,
,,"[""circle"",""no_dis"",""vert"",""up"",[99999,99999],[-106,-106]]",circle,no_dis,vert,up,"[99999,99999]","[-106,-106]",up,1,,,,,,001,2025-03-11_20h34.40.941,SL_sali_41,2021.2.3,Win32,60.24096386,1.873,,,14,0,14,0,1,,,,,,,,
,,"[""diamond"",""green"",""vert"",""up"",[-106,106],[0,150]]",diamond,green,vert,up,"[-106,106]","[0,150]",up,1,,,,,,001,2025-03-11_20h34.40.941,SL_sali_41,2021.2.3,Win32,60.24096386,2.837,,,15,0,15,0,1,,,,,,,,
,,"[""circle"",""no_dis"",""hori"",""left"",[99999,99999],[106,106]]",circle,no_dis,hori,left,"[99999,99999]","[106,106]",,0,,,,,,001,2025-03-11_20h34.40.941,SL_sali_41,2021.2.3,Win32,60.24096386,,,,16,0,16,0,1,,,,,,,,
,,"[""diamond"",""green"",""hori"",""left"",[0,150],[106,-106]]",diamond,green,hori,left,"[0,150]","[106,-106]",,0,,,,,,001,2025-03-11_20h34.40.941,SL_sali_41,2021.2.3,Win32,60.24096386,,,,17,0,17,0,1,,,,,,,,
,,"[""circle"",""green"",""hori"",""left"",[0,150],[-150,0]]",circle,green,hori,left,"[0,150]","[-150,0]",,0,,,,,,001,2025-03-11_20h34.40.941,SL_sali_41,2021.2.3,Win32,60.24096386,,,,18,0,18,0,1,,,,,,,,
,,"[""diamond"",""red"",""hori"",""left"",[0,150],[0,-150]]",diamond,red,hori,left,"[0,150]","[0,-150]",,0,,,,,,001,2025-03-11_20h34.40.941,SL_sali_41,2021.2.3,Win32,60.24096386,,,,19,0,19,0,1,,,,,,,,
,,"[""diamond"",""green"",""hori"",""left"",[150,0],[0,-150]]",diamond,green,hori,left,"[150,0]","[0,-150]",left,1,,,,,,001,2025-03-11_20h34.40.941,SL_sali_41,2021.2.3,Win32,60.24096386,2.0349,,,20,0,20,0,1,,,,,,,,
,,"[""diamond"",""red"",""hori"",""left"",[-106,106],[106,-106]]",diamond,red,hori,left,"[-106,106]","[106,-106]",left,1,,,,,,001,2025-03-11_20h34.40.941,SL_sali_41,2021.2.3,Win32,60.24096386,2.3649,,,21,0,21,0,1,,,,,,,,
,,"[""diamond"",""red"",""hori"",""left"",[0,150],[0,-150]]",diamond,red,hori,left,"[0,150]","[0,-150]",left,1,,,,,,001,2025-03-11_20h34.40.941,SL_sali_41,2021.2.3,Win32,60.24096386,1.3353,,,22,0,22,0,1,,,,,,,,
,,"[""diamond"",""no_dis"",""hori"",""left"",[99999,99999],[150,0]]",diamond,no_dis,hori,left,"[99999,99999]","[150,0]",left,1,,,,,,001,2025-03-11_20h34.40.941,SL_sali_41,2021.2.3,Win32,60.24096386,2.2125,,,23,0,23,0,1,,,,,,,,
,,"[""diamond"",""green"",""vert"",""up"",[150,0],[-150,0]]",diamond,green,vert,up,"[150,0]","[-150,0]",up,1,,,,,,001,2025-03-11_20h34.40.941,SL_sali_41,2021.2.3,Win32,60.24096386,1.4962,,,24,0,24,0,1,,,,,,,,
,,"[""circle"",""green"",""hori"",""left"",[106,-106],[-106,106]]",circle,green,hori,left,"[106,-106]","[-106,106]",left,1,,,,,,001,2025-03-11_20h34.40.941,SL_sali_41,2021.2.3,Win32,60.24096386,1.6416,,,25,0,25,0,1,,,,,,,,
,,"[""circle"",""red"",""hori"",""left"",[-106,-106],[106,106]]",circle,red,hori,left,"[-106,-106]","[106,106]",left,1,,,,,,001,2025-03-11_20h34.40.941,SL_sali_41,2021.2.3,Win32,60.24096386,1.4856,,,26,0,26,0,1,,,,,,,,
,,"[""diamond"",""no_dis"",""hori"",""left"",[99999,99999],[0,150]]",diamond,no_dis,hori,left,"[99999,99999]","[0,150]",left,1,,,,,,001,2025-03-11_20h34.40.941,SL_sali_41,2021.2.3,Win32,60.24096386,1.493,,,27,0,27,0,1,,,,,,,,
,,"[""diamond"",""red"",""vert"",""up"",[0,150],[-106,-106]]",diamond,red,vert,up,"[0,150]","[-106,-106]",up,1,,,,,,001,2025-03-11_20h34.40.941,SL_sali_41,2021.2.3,Win32,60.24096386,1.309,,,28,0,28,0,1,,,,,,,,
,,"[""diamond"",""no_dis"",""vert"",""up"",[99999,99999],[106,-106]]",diamond,no_dis,vert,up,"[99999,99999]","[106,-106]",up,1,,,,,,001,2025-03-11_20h34.40.941,SL_sali_41,2021.2.3,Win32,60.24096386,1.8449,,,29,0,29,0,1,,,,,,,,
,,"[""circle"",""no_dis"",""vert"",""up"",[99999,99999],[-106,-106]]",circle,no_dis,vert,up,"[99999,99999]","[-106,-106]",up,1,,,,,,001,2025-03-11_20h34.40.941,SL_sali_41,2021.2.3,Win32,60.24096386,1.1349,,,30,0,30,0,1,,,,,,,,
,,"[""diamond"",""red"",""vert"",""up"",[106,106],[-106,-106]]",diamond,red,vert,up,"[106,106]","[-106,-106]",up,1,,,,,,001,2025-03-11_20h34.40.941,SL_sali_41,2021.2.3,Win32,60.24096386,1.6493,,,31,0,31,0,1,,,,,,,,
,,"[""circle"",""red"",""vert"",""up"",[0,-150],[-150,0]]",circle,red,vert,up,"[0,-150]","[-150,0]",up,1,,,,,,001,2025-03-11_20h34.40.941,SL_sali_41,2021.2.3,Win32,60.24096386,1.51,,,32,0,32,0,1,,,,,,,,
,,"[""circle"",""red"",""hori"",""left"",[150,0],[0,150]]",circle,red,hori,left,"[150,0]","[0,150]",left,1,,,,,,001,2025-03-11_20h34.40.941,SL_sali_41,2021.2.3,Win32,60.24096386,1.9129,,,33,0,33,0,1,,,,,,,,
,,"[""diamond"",""no_dis"",""hori"",""left"",[99999,99999],[106,-106]]",diamond,no_dis,hori,left,"[99999,99999]","[106,-106]",up,0,,,,,,001,2025-03-11_20h34.40.941,SL_sali_41,2021.2.3,Win32,60.24096386,1.3424,,,34,0,34,0,1,,,,,,,,
,,"[""circle"",""no_dis"",""vert"",""up"",[99999,99999],[-106,106]]",circle,no_dis,vert,up,"[99999,99999]","[-106,106]",left,0,,,,,,001,2025-03-11_20h34.40.941,SL_sali_41,2021.2.3,Win32,60.24096386,1.7388,,,35,0,35,0,1,,,,,,,,
,,"[""diamond"",""no_dis"",""hori"",""left"",[99999,99999],[106,106]]",diamond,no_dis,hori,left,"[99999,99999]","[106,106]",up,0,,,,,,001,2025-03-11_20h34.40.941,SL_sali_41,2021.2.3,Win32,60.24096386,1.6849,,,36,0,36,0,1,,,,,,,,
,,"[""diamond"",""red"",""hori"",""left"",[-106,106],[-150,0]]",diamond,red,hori,left,"[-106,106]","[-150,0]",up,0,,,,,,001,2025-03-11_20h34.40.941,SL_sali_41,2021.2.3,Win32,60.24096386,1.7233,,,37,0,37,0,1,,,,,,,,
,,"[""circle"",""no_dis"",""vert"",""up"",[99999,99999],[106,-106]]",circle,no_dis,vert,up,"[99999,99999]","[106,-106]",left,0,,,,,,001,2025-03-11_20h34.40.941,SL_sali_41,2021.2.3,Win32,60.24096386,1.6422,,,38,0,38,0,1,,,,,,,,
,,"[""diamond"",""red"",""vert"",""up"",[-150,0],[-106,106]]",diamond,red,vert,up,"[-150,0]","[-106,106]",up,1,,,,,,001,2025-03-11_20h34.40.941,SL_sali_41,2021.2.3,Win32,60.24096386,2.1411,,,39,0,39,0,1,,,,,,,,
,,"[""diamond"",""green"",""hori"",""left"",[0,-150],[106,106]]",diamond,green,hori,left,"[0,-150]","[106,106]",left,1,,,,,,001,2025-03-11_20h34.40.941,SL_sali_41,2021.2.3,Win32,60.24096386,1.5869,,,40,0,40,0,1,,,,,,,,
,,"[""diamond"",""green"",""hori"",""left"",[0,150],[-150,0]]",diamond,green,hori,left,"[0,150]","[-150,0]",up,0,,,,,,001,2025-03-11_20h34.40.941,SL_sali_41,2021.2.3,Win32,60.24096386,1.2324,,,41,0,41,0,1,,,,,,,,
,,"[""diamond"",""red"",""hori"",""left"",[-106,106],[0,-150]]",diamond,red,hori,left,"[-106,106]","[0,-150]",left,1,,,,,,001,2025-03-11_20h34.40.941,SL_sali_41,2021.2.3,Win32,60.24096386,1.3893,,,42,0,42,0,1,,,,,,,,
,,"[""diamond"",""no_dis"",""vert"",""up"",[99999,99999],[106,106]]",diamond,no_dis,vert,up,"[99999,99999]","[106,106]",up,1,,,,,,001,2025-03-11_20h34.40.941,SL_sali_41,2021.2.3,Win32,60.24096386,1.2364,,,43,0,43,0,1,,,,,,,,
,,"[""diamond"",""red"",""vert"",""up"",[0,150],[0,-150]]",diamond,red,vert,up,"[0,150]","[0,-150]",up,1,,,,,,001,2025-03-11_20h34.40.941,SL_sali_41,2021.2.3,Win32,60.24096386,1.111,,,44,0,44,0,1,,,,,,,,
,,"[""diamond"",""no_dis"",""vert"",""up"",[99999,99999],[0,-150]]",diamond,no_dis,vert,up,"[99999,99999]","[0,-150]",up,1,,,,,,001,2025-03-11_20h34.40.941,SL_sali_41,2021.2.3,Win32,60.24096386,1.0897,,,45,0,45,0,1,,,,,,,,
,,"[""diamond"",""no_dis"",""vert"",""up"",[99999,99999],[-150,0]]",diamond,no_dis,vert,up,"[99999,99999]","[-150,0]",up,1,,,,,,001,2025-03-11_20h34.40.941,SL_sali_41,2021.2.3,Win32,60.24096386,1.271,,,46,0,46,0,1,,,,,,,,
,,"[""diamond"",""green"",""vert"",""up"",[-106,-106],[-106,106]]",diamond,green,vert,up,"[-106,-106]","[-106,106]",left,0,,,,,,001,2025-03-11_20h34.40.941,SL_sali_41,2021.2.3,Win32,60.24096386,1.6179,,,47,0,47,0,1,,,,,,,,
,,"[""circle"",""red"",""hori"",""left"",[106,106],[-106,106]]",circle,red,hori,left,"[106,106]","[-106,106]",left,1,,,,,,001,2025-03-11_20h34.40.941,SL_sali_41,2021.2.3,Win32,60.24096386,2.7985,,,48,0,48,0,1,,,,,,,,
,,"[""diamond"",""no_dis"",""vert"",""up"",[99999,99999],[0,150]]",diamond,no_dis,vert,up,"[99999,99999]","[0,150]",up,1,,,,,,001,2025-03-11_20h34.40.941,SL_sali_41,2021.2.3,Win32,60.24096386,1.6337,,,49,0,49,0,1,,,,,,,,
,,"[""diamond"",""green"",""hori"",""left"",[-106,-106],[-150,0]]",diamond,green,hori,left,"[-106,-106]","[-150,0]",left,1,,,,,,001,2025-03-11_20h34.40.941,SL_sali_41,2021.2.3,Win32,60.24096386,1.4338,,,50,0,50,0,1,,,,,,,,
,,"[""diamond"",""no_dis"",""vert"",""up"",[99999,99999],[150,0]]",diamond,no_dis,vert,up,"[99999,99999]","[150,0]",up,1,,,,,,001,2025-03-11_20h34.40.941,SL_sali_41,2021.2.3,Win32,60.24096386,1.706,,,51,0,51,0,1,,,,,,,,
,,"[""diamond"",""red"",""vert"",""up"",[-150,0],[0,150]]",diamond,red,vert,up,"[-150,0]","[0,150]",up,1,,,,,,001,2025-03-11_20h34.40.941,SL_sali_41,2021.2.3,Win32,60.24096386,1.4675,,,52,0,52,0,1,,,,,,,,
,,"[""circle"",""no_dis"",""hori"",""left"",[99999,99999],[-106,106]]",circle,no_dis,hori,left,"[99999,99999]","[-106,106]",left,1,,,,,,001,2025-03-11_20h34.40.941,SL_sali_41,2021.2.3,Win32,60.24096386,1.3208,,,53,0,53,0,1,,,,,,,,
,,"[""diamond"",""green"",""vert"",""up"",[-150,0],[150,0]]",diamond,green,vert,up,"[-150,0]","[150,0]",up,1,,,,,,001,2025-03-11_20h34.40.941,SL_sali_41,2021.2.3,Win32,60.24096386,1.2605,,,54,0,54,0,1,,,,,,,,
,,"[""circle"",""red"",""hori"",""left"",[106,-106],[0,150]]",circle,red,hori,left,"[106,-106]","[0,150]",left,1,,,,,,001,2025-03-11_20h34.40.941,SL_sali_41,2021.2.3,Win32,60.24096386,1.2453,,,55,0,55,0,1,,,,,,,,
,,"[""circle"",""no_dis"",""vert"",""up"",[99999,99999],[0,-150]]",circle,no_dis,vert,up,"[99999,99999]","[0,-150]",up,1,,,,,,001,2025-03-11_20h34.40.941,SL_sali_41,2021.2.3,Win32,60.24096386,1.0134,,,56,0,56,0,1,,,,,,,,
,,"[""circle"",""no_dis"",""hori"",""left"",[99999,99999],[0,-150]]",circle,no_dis,hori,left,"[99999,99999]","[0,-150]",left,1,,,,,,001,2025-03-11_20h34.40.941,SL_sali_41,2021.2.3,Win32,60.24096386,1.503,,,57,0,57,0,1,,,,,,,,
,,"[""circle"",""no_dis"",""hori"",""left"",[99999,99999],[0,-150]]",circle,no_dis,hori,left,"[99999,99999]","[0,-150]",up,0,,,,,,001,2025-03-11_20h34.40.941,SL_sali_41,2021.2.3,Win32,60.24096386,1.6921,,,58,0,58,0,1,,,,,,,,
,,"[""diamond"",""no_dis"",""hori"",""left"",[99999,99999],[-106,-106]]",diamond,no_dis,hori,left,"[99999,99999]","[-106,-106]",left,1,,,,,,001,2025-03-11_20h34.40.941,SL_sali_41,2021.2.3,Win32,60.24096386,1.2272,,,59,0,59,0,1,,,,,,,,
,,"[""diamond"",""green"",""vert"",""up"",[106,-106],[150,0]]",diamond,green,vert,up,"[106,-106]","[150,0]",up,1,,,,,,001,2025-03-11_20h34.40.941,SL_sali_41,2021.2.3,Win32,60.24096386,1.5467,,,60,0,60,0,1,,,,,,,,
,,"[""diamond"",""red"",""hori"",""left"",[0,150],[-150,0]]",diamond,red,hori,left,"[0,150]","[-150,0]",left,1,,,,,,001,2025-03-11_20h34.40.941,SL_sali_41,2021.2.3,Win32,60.24096386,1.3398,,,61,0,61,0,1,,,,,,,,
,,"[""diamond"",""no_dis"",""hori"",""left"",[99999,99999],[-150,0]]",diamond,no_dis,hori,left,"[99999,99999]","[-150,0]",left,1,,,,,,001,2025-03-11_20h34.40.941,SL_sali_41,2021.2.3,Win32,60.24096386,1.8859,,,62,0,62,0,1,,,,,,,,
,,"[""diamond"",""red"",""hori"",""left"",[150,0],[-106,-106]]",diamond,red,hori,left,"[150,0]","[-106,-106]",left,1,,,,,,001,2025-03-11_20h34.40.941,SL_sali_41,2021.2.3,Win32,60.24096386,1.6657,,,63,0,63,0,1,,,,,,,,
,,"[""circle"",""red"",""vert"",""up"",[-150,0],[-106,106]]",circle,red,vert,up,"[-150,0]","[-106,106]",up,1,,,,,,001,2025-03-11_20h34.40.941,SL_sali_41,2021.2.3,Win32,60.24096386,1.6612,,,64,0,64,0,1,,,,,,,,
,,"[""diamond"",""red"",""hori"",""left"",[0,-150],[0,150]]",diamond,red,hori,left,"[0,-150]","[0,150]",left,1,,,,,,001,2025-03-11_20h34.40.941,SL_sali_41,2021.2.3,Win32,60.24096386,1.4766,,,65,0,65,0,1,,,,,,,,
,,"[""diamond"",""red"",""hori"",""left"",[0,-150],[106,106]]",diamond,red,hori,left,"[0,-150]","[106,106]",left,1,,,,,,001,2025-03-11_20h34.40.941,SL_sali_41,2021.2.3,Win32,60.24096386,1.6389,,,66,0,66,0,1,,,,,,,,
,,"[""circle"",""green"",""vert"",""up"",[-150,0],[0,-150]]",circle,green,vert,up,"[-150,0]","[0,-150]",up,1,,,,,,001,2025-03-11_20h34.40.941,SL_sali_41,2021.2.3,Win32,60.24096386,1.4257,,,67,0,67,0,1,,,,,,,,
,,"[""circle"",""no_dis"",""hori"",""left"",[99999,99999],[-106,106]]",circle,no_dis,hori,left,"[99999,99999]","[-106,106]",left,1,,,,,,001,2025-03-11_20h34.40.941,SL_sali_41,2021.2.3,Win32,60.24096386,2.4883,,,68,0,68,0,1,,,,,,,,
,,"[""circle"",""green"",""vert"",""up"",[-150,0],[-106,106]]",circle,green,vert,up,"[-150,0]","[-106,106]",up,1,,,,,,001,2025-03-11_20h34.40.941,SL_sali_41,2021.2.3,Win32,60.24096386,1.628,,,69,0,69,0,1,,,,,,,,
,,"[""diamond"",""no_dis"",""vert"",""up"",[99999,99999],[-150,0]]",diamond,no_dis,vert,up,"[99999,99999]","[-150,0]",up,1,,,,,,001,2025-03-11_20h34.40.941,SL_sali_41,2021.2.3,Win32,60.24096386,1.3623,,,70,0,70,0,1,,,,,,,,
,,"[""circle"",""no_dis"",""vert"",""up"",[99999,99999],[-106,106]]",circle,no_dis,vert,up,"[99999,99999]","[-106,106]",up,1,,,,,,001,2025-03-11_20h34.40.941,SL_sali_41,2021.2.3,Win32,60.24096386,1.4924,,,71,0,71,0,1,,,,,,,,
,,"[""diamond"",""no_dis"",""hori"",""left"",[99999,99999],[106,106]]",diamond,no_dis,hori,left,"[99999,99999]","[106,106]",left,1,,,,,,001,2025-03-11_20h34.40.941,SL_sali_41,2021.2.3,Win32,60.24096386,1.9253,,,72,0,72,0,1,,,,,,,,
,,"[""diamond"",""green"",""hori"",""left"",[0,150],[106,106]]",diamond,green,hori,left,"[0,150]","[106,106]",left,1,,,,,,001,2025-03-11_20h34.40.941,SL_sali_41,2021.2.3,Win32,60.24096386,1.5674,,,73,0,73,0,1,,,,,,,,
,,"[""circle"",""green"",""hori"",""left"",[0,150],[106,106]]",circle,green,hori,left,"[0,150]","[106,106]",left,1,,,,,,001,2025-03-11_20h34.40.941,SL_sali_41,2021.2.3,Win32,60.24096386,1.6767,,,74,0,74,0,1,,,,,,,,
,,"[""circle"",""red"",""vert"",""up"",[150,0],[0,-150]]",circle,red,vert,up,"[150,0]","[0,-150]",up,1,,,,,,001,2025-03-11_20h34.40.941,SL_sali_41,2021.2.3,Win32,60.24096386,1.3674,,,75,0,75,0,1,,,,,,,,
,,"[""diamond"",""green"",""vert"",""up"",[150,0],[-150,0]]",diamond,green,vert,up,"[150,0]","[-150,0]",up,1,,,,,,001,2025-03-11_20h34.40.941,SL_sali_41,2021.2.3,Win32,60.24096386,1.5539,,,76,0,76,0,1,,,,,,,,
,,"[""circle"",""green"",""vert"",""up"",[-106,-106],[150,0]]",circle,green,vert,up,"[-106,-106]","[150,0]",left,0,,,,,,001,2025-03-11_20h34.40.941,SL_sali_41,2021.2.3,Win32,60.24096386,1.7167,,,77,0,77,0,1,,,,,,,,
,,"[""diamond"",""no_dis"",""vert"",""up"",[99999,99999],[0,150]]",diamond,no_dis,vert,up,"[99999,99999]","[0,150]",left,0,,,,,,001,2025-03-11_20h34.40.941,SL_sali_41,2021.2.3,Win32,60.24096386,2.3942,,,78,0,78,0,1,,,,,,,,
,,"[""diamond"",""green"",""hori"",""left"",[106,106],[106,-106]]",diamond,green,hori,left,"[106,106]","[106,-106]",up,0,,,,,,001,2025-03-11_20h34.40.941,SL_sali_41,2021.2.3,Win32,60.24096386,1.6501,,,79,0,79,0,1,,,,,,,,
,,"[""circle"",""red"",""hori"",""left"",[-106,-106],[-150,0]]",circle,red,hori,left,"[-106,-106]","[-150,0]",up,0,,,,,,001,2025-03-11_20h34.40.941,SL_sali_41,2021.2.3,Win32,60.24096386,1.4258,,,80,0,80,0,1,,,,,,,,
,,"[""circle"",""green"",""vert"",""up"",[-150,0],[-106,106]]",circle,green,vert,up,"[-150,0]","[-106,106]",up,1,,,,,,001,2025-03-11_20h34.40.941,SL_sali_41,2021.2.3,Win32,60.24096386,1.8568,,,81,0,81,0,1,,,,,,,,
,,"[""diamond"",""red"",""vert"",""up"",[0,150],[-106,-106]]",diamond,red,vert,up,"[0,150]","[-106,-106]",up,1,,,,,,001,2025-03-11_20h34.40.941,SL_sali_41,2021.2.3,Win32,60.24096386,2.1182,,,82,0,82,0,1,,,,,,,,
,,"[""diamond"",""red"",""vert"",""up"",[0,-150],[-150,0]]",diamond,red,vert,up,"[0,-150]","[-150,0]",up,1,,,,,,001,2025-03-11_20h34.40.941,SL_sali_41,2021.2.3,Win32,60.24096386,1.3509,,,83,0,83,0,1,,,,,,,,
,,"[""circle"",""green"",""vert"",""up"",[0,150],[150,0]]",circle,green,vert,up,"[0,150]","[150,0]",up,1,,,,,,001,2025-03-11_20h34.40.941,SL_sali_41,2021.2.3,Win32,60.24096386,2.607,,,84,0,84,0,1,,,,,,,,
,,"[""diamond"",""red"",""vert"",""up"",[106,106],[106,-106]]",diamond,red,vert,up,"[106,106]","[106,-106]",up,1,,,,,,001,2025-03-11_20h34.40.941,SL_sali_41,2021.2.3,Win32,60.24096386,1.6686,,,85,0,85,0,1,,,,,,,,
,,"[""circle"",""green"",""hori"",""left"",[106,-106],[0,150]]",circle,green,hori,left,"[106,-106]","[0,150]",left,1,,,,,,001,2025-03-11_20h34.40.941,SL_sali_41,2021.2.3,Win32,60.24096386,1.3897,,,86,0,86,0,1,,,,,,,,
,,"[""circle"",""red"",""vert"",""up"",[-106,106],[106,-106]]",circle,red,vert,up,"[-106,106]","[106,-106]",up,1,,,,,,001,2025-03-11_20h34.40.941,SL_sali_41,2021.2.3,Win32,60.24096386,1.3404,,,87,0,87,0,1,,,,,,,,
,,"[""circle"",""green"",""vert"",""up"",[0,150],[-106,106]]",circle,green,vert,up,"[0,150]","[-106,106]",up,1,,,,,,001,2025-03-11_20h34.40.941,SL_sali_41,2021.2.3,Win32,60.24096386,1.3076,,,88,0,88,0,1,,,,,,,,
,,"[""circle"",""red"",""vert"",""up"",[0,150],[106,106]]",circle,red,vert,up,"[0,150]","[106,106]",up,1,,,,,,001,2025-03-11_20h34.40.941,SL_sali_41,2021.2.3,Win32,60.24096386,2.1682,,,89,0,89,0,1,,,,,,,,
,,"[""circle"",""green"",""vert"",""up"",[-106,-106],[0,-150]]",circle,green,vert,up,"[-106,-106]","[0,-150]",up,1,,,,,,001,2025-03-11_20h34.40.941,SL_sali_41,2021.2.3,Win32,60.24096386,2.1445,,,90,0,90,0,1,,,,,,,,
,,"[""circle"",""red"",""vert"",""up"",[-150,0],[0,-150]]",circle,red,vert,up,"[-150,0]","[0,-150]",up,1,,,,,,001,2025-03-11_20h34.40.941,SL_sali_41,2021.2.3,Win32,60.24096386,2.0577,,,91,0,91,0,1,,,,,,,,
,,"[""circle"",""red"",""vert"",""up"",[0,150],[-106,106]]",circle,red,vert,up,"[0,150]","[-106,106]",up,1,,,,,,001,2025-03-11_20h34.40.941,SL_sali_41,2021.2.3,Win32,60.24096386,2.8229,,,92,0,92,0,1,,,,,,,,
,,"[""diamond"",""no_dis"",""vert"",""up"",[99999,99999],[0,150]]",diamond,no_dis,vert,up,"[99999,99999]","[0,150]",up,1,,,,,,001,2025-03-11_20h34.40.941,SL_sali_41,2021.2.3,Win32,60.24096386,2.0483,,,93,0,93,0,1,,,,,,,,
,,"[""circle"",""red"",""hori"",""left"",[-106,-106],[0,-150]]",circle,red,hori,left,"[-106,-106]","[0,-150]",left,1,,,,,,001,2025-03-11_20h34.40.941,SL_sali_41,2021.2.3,Win32,60.24096386,2.2417,,,94,0,94,0,1,,,,,,,,
,,"[""circle"",""red"",""hori"",""left"",[150,0],[-106,106]]",circle,red,hori,left,"[150,0]","[-106,106]",left,1,,,,,,001,2025-03-11_20h34.40.941,SL_sali_41,2021.2.3,Win32,60.24096386,1.5372,,,95,0,95,0,1,,,,,,,,
,,"[""diamond"",""no_dis"",""hori"",""left"",[99999,99999],[150,0]]",diamond,no_dis,hori,left,"[99999,99999]","[150,0]",left,1,,,,,,001,2025-03-11_20h34.40.941,SL_sali_41,2021.2.3,Win32,60.24096386,1.3297,,,96,0,96,0,1,,,,,,,,
,,"[""diamond"",""green"",""hori"",""left"",[0,150],[-150,0]]",diamond,green,hori,left,"[0,150]","[-150,0]",left,1,,,,,,001,2025-03-11_20h34.40.941,SL_sali_41,2021.2.3,Win32,60.24096386,1.9288,,,97,0,97,0,1,,,,,,,,
,,"[""circle"",""red"",""hori"",""left"",[0,150],[-106,-106]]",circle,red,hori,left,"[0,150]","[-106,-106]",left,1,,,,,,001,2025-03-11_20h34.40.941,SL_sali_41,2021.2.3,Win32,60.24096386,1.8901,,,98,0,98,0,1,,,,,,,,
,,"[""circle"",""no_dis"",""hori"",""left"",[99999,99999],[-150,0]]",circle,no_dis,hori,left,"[99999,99999]","[-150,0]",left,1,,,,,,001,2025-03-11_20h34.40.941,SL_sali_41,2021.2.3,Win32,60.24096386,2.4037,,,99,0,99,0,1,,,,,,,,
,,"[""diamond"",""red"",""vert"",""up"",[0,-150],[106,-106]]",diamond,red,vert,up,"[0,-150]","[106,-106]",up,1,,,,,,001,2025-03-11_20h34.40.941,SL_sali_41,2021.2.3,Win32,60.24096386,1.4087,,,100,0,100,0,1,,,,,,,,
,,"[""circle"",""no_dis"",""hori"",""left"",[99999,99999],[-106,106]]",circle,no_dis,hori,left,"[99999,99999]","[-106,106]",left,1,,,,,,001,2025-03-11_20h34.40.941,SL_sali_41,2021.2.3,Win32,60.24096386,1.7966,,,101,0,101,0,1,,,,,,,,
,,"[""circle"",""no_dis"",""hori"",""left"",[99999,99999],[106,-106]]",circle,no_dis,hori,left,"[99999,99999]","[106,-106]",left,1,,,,,,001,2025-03-11_20h34.40.941,SL_sali_41,2021.2.3,Win32,60.24096386,1.4535,,,102,0,102,0,1,,,,,,,,
,,"[""diamond"",""red"",""hori"",""left"",[0,150],[106,-106]]",diamond,red,hori,left,"[0,150]","[106,-106]",left,1,,,,,,001,2025-03-11_20h34.40.941,SL_sali_41,2021.2.3,Win32,60.24096386,1.3344,,,103,0,103,0,1,,,,,,,,
,,"[""diamond"",""no_dis"",""hori"",""left"",[99999,99999],[-106,-106]]",diamond,no_dis,hori,left,"[99999,99999]","[-106,-106]",left,1,,,,,,001,2025-03-11_20h34.40.941,SL_sali_41,2021.2.3,Win32,60.24096386,2.0526,,,104,0,104,0,1,,,,,,,,
,,"[""diamond"",""red"",""hori"",""left"",[106,-106],[-150,0]]",diamond,red,hori,left,"[106,-106]","[-150,0]",up,0,,,,,,001,2025-03-11_20h34.40.941,SL_sali_41,2021.2.3,Win32,60.24096386,1.108,,,105,0,105,0,1,,,,,,,,
,,"[""diamond"",""no_dis"",""vert"",""up"",[99999,99999],[0,-150]]",diamond,no_dis,vert,up,"[99999,99999]","[0,-150]",up,1,,,,,,001,2025-03-11_20h34.40.941,SL_sali_41,2021.2.3,Win32,60.24096386,1.5094,,,106,0,106,0,1,,,,,,,,
,,"[""circle"",""red"",""vert"",""up"",[150,0],[106,106]]",circle,red,vert,up,"[150,0]","[106,106]",,0,,,,,,001,2025-03-11_20h34.40.941,SL_sali_41,2021.2.3,Win32,60.24096386,,,,107,0,107,0,1,,,,,,,,
,,"[""circle"",""red"",""vert"",""up"",[0,150],[-106,-106]]",circle,red,vert,up,"[0,150]","[-106,-106]",up,1,,,,,,001,2025-03-11_20h34.40.941,SL_sali_41,2021.2.3,Win32,60.24096386,1.6613,,,108,0,108,0,1,,,,,,,,
,,"[""circle"",""no_dis"",""hori"",""left"",[99999,99999],[106,106]]",circle,no_dis,hori,left,"[99999,99999]","[106,106]",left,1,,,,,,001,2025-03-11_20h34.40.941,SL_sali_41,2021.2.3,Win32,60.24096386,1.107,,,109,0,109,0,1,,,,,,,,
,,"[""circle"",""green"",""vert"",""up"",[0,150],[0,-150]]",circle,green,vert,up,"[0,150]","[0,-150]",up,1,,,,,,001,2025-03-11_20h34.40.941,SL_sali_41,2021.2.3,Win32,60.24096386,2.0648,,,110,0,110,0,1,,,,,,,,
,,"[""diamond"",""green"",""vert"",""up"",[-106,106],[0,150]]",diamond,green,vert,up,"[-106,106]","[0,150]",up,1,,,,,,001,2025-03-11_20h34.40.941,SL_sali_41,2021.2.3,Win32,60.24096386,1.7246,,,111,0,111,0,1,,,,,,,,
,,"[""circle"",""no_dis"",""vert"",""up"",[99999,99999],[-150,0]]",circle,no_dis,vert,up,"[99999,99999]","[-150,0]",up,1,,,,,,001,2025-03-11_20h34.40.941,SL_sali_41,2021.2.3,Win32,60.24096386,1.5435,,,112,0,112,0,1,,,,,,,,
,,"[""diamond"",""green"",""hori"",""left"",[0,150],[-150,0]]",diamond,green,hori,left,"[0,150]","[-150,0]",left,1,,,,,,001,2025-03-11_20h34.40.941,SL_sali_41,2021.2.3,Win32,60.24096386,1.7186,,,113,0,113,0,1,,,,,,,,
,,"[""circle"",""red"",""hori"",""left"",[0,150],[106,106]]",circle,red,hori,left,"[0,150]","[106,106]",up,0,,,,,,001,2025-03-11_20h34.40.941,SL_sali_41,2021.2.3,Win32,60.24096386,2.0288,,,114,0,114,0,1,,,,,,,,
,,"[""circle"",""green"",""hori"",""left"",[-106,106],[150,0]]",circle,green,hori,left,"[-106,106]","[150,0]",up,0,,,,,,001,2025-03-11_20h34.40.941,SL_sali_41,2021.2.3,Win32,60.24096386,2.4305,,,115,0,115,0,1,,,,,,,,
,,"[""diamond"",""red"",""vert"",""up"",[0,150],[106,-106]]",diamond,red,vert,up,"[0,150]","[106,-106]",up,1,,,,,,001,2025-03-11_20h34.40.941,SL_sali_41,2021.2.3,Win32,60.24096386,2.2037,,,116,0,116,0,1,,,,,,,,
,,"[""circle"",""red"",""hori"",""left"",[0,150],[106,-106]]",circle,red,hori,left,"[0,150]","[106,-106]",left,1,,,,,,001,2025-03-11_20h34.40.941,SL_sali_41,2021.2.3,Win32,60.24096386,1.3365,,,117,0,117,0,1,,,,,,,,
,,"[""diamond"",""green"",""vert"",""up"",[106,106],[-150,0]]",diamond,green,vert,up,"[106,106]","[-150,0]",up,1,,,,,,001,2025-03-11_20h34.40.941,SL_sali_41,2021.2.3,Win32,60.24096386,1.5408,,,118,0,118,0,1,,,,,,,,
,,"[""circle"",""green"",""hori"",""left"",[0,150],[-150,0]]",circle,green,hori,left,"[0,150]","[-150,0]",left,1,,,,,,001,2025-03-11_20h34.40.941,SL_sali_41,2021.2.3,Win32,60.24096386,1.3183,,,119,0,119,0,1,,,,,,,,
,,"[""circle"",""red"",""vert"",""up"",[-106,-106],[-150,0]]",circle,red,vert,up,"[-106,-106]","[-150,0]",,0,,,,,,001,2025-03-11_20h34.40.941,SL_sali_41,2021.2.3,Win32,60.24096386,,,,120,0,120,0,1,,,,,,,,
,,"[""diamond"",""red"",""vert"",""up"",[0,150],[150,0]]",diamond,red,vert,up,"[0,150]","[150,0]",left,0,,,,,,001,2025-03-11_20h34.40.941,SL_sali_41,2021.2.3,Win32,60.24096386,1.7227,,,121,0,121,0,1,,,,,,,,
,,"[""circle"",""red"",""hori"",""left"",[106,106],[0,150]]",circle,red,hori,left,"[106,106]","[0,150]",left,1,,,,,,001,2025-03-11_20h34.40.941,SL_sali_41,2021.2.3,Win32,60.24096386,2.3433,,,122,0,122,0,1,,,,,,,,
,,"[""diamond"",""green"",""vert"",""up"",[106,-106],[150,0]]",diamond,green,vert,up,"[106,-106]","[150,0]",left,0,,,,,,001,2025-03-11_20h34.40.941,SL_sali_41,2021.2.3,Win32,60.24096386,2.0021,,,123,0,123,0,1,,,,,,,,
,,"[""circle"",""green"",""hori"",""left"",[106,106],[-150,0]]",circle,green,hori,left,"[106,106]","[-150,0]",left,1,,,,,,001,2025-03-11_20h34.40.941,SL_sali_41,2021.2.3,Win32,60.24096386,1.7641,,,124,0,124,0,1,,,,,,,,
,,"[""circle"",""green"",""vert"",""up"",[0,150],[150,0]]",circle,green,vert,up,"[0,150]","[150,0]",up,1,,,,,,001,2025-03-11_20h34.40.941,SL_sali_41,2021.2.3,Win32,60.24096386,1.1587,,,125,0,125,0,1,,,,,,,,
,,"[""circle"",""no_dis"",""vert"",""up"",[99999,99999],[150,0]]",circle,no_dis,vert,up,"[99999,99999]","[150,0]",up,1,,,,,,001,2025-03-11_20h34.40.941,SL_sali_41,2021.2.3,Win32,60.24096386,1.4313,,,126,0,126,0,1,,,,,,,,
,,"[""diamond"",""green"",""vert"",""up"",[0,150],[150,0]]",diamond,green,vert,up,"[0,150]","[150,0]",up,1,,,,,,001,2025-03-11_20h34.40.941,SL_sali_41,2021.2.3,Win32,60.24096386,1.5393,,,127,0,127,0,1,,,,,,,,
,,,,,,,,,,,,,,,,001,2025-03-11_20h34.40.941,SL_sali_41,2021.2.3,Win32,60.24096386,,,,,,,,,1,space,33.7815,0,0,0,0,1
,,"[""diamond"",""no_dis"",""vert"",""up"",[99999,99999],[0,150]]",diamond,no_dis,vert,up,"[99999,99999]","[0,150]",,0,,,,,,001,2025-03-11_20h34.40.941,SL_sali_41,2021.2.3,Win32,60.24096386,,,,0,0,0,0,1,,,,,,,,
,,"[""diamond"",""green"",""vert"",""up"",[150,0],[-150,0]]",diamond,green,vert,up,"[150,0]","[-150,0]",left,0,,,,,,001,2025-03-11_20h34.40.941,SL_sali_41,2021.2.3,Win32,60.24096386,1.6675,,,1,0,1,0,1,,,,,,,,
,,"[""circle"",""red"",""hori"",""left"",[0,150],[106,-106]]",circle,red,hori,left,"[0,150]","[106,-106]",left,1,,,,,,001,2025-03-11_20h34.40.941,SL_sali_41,2021.2.3,Win32,60.24096386,1.1914,,,2,0,2,0,1,,,,,,,,
,,"[""diamond"",""red"",""hori"",""left"",[-106,106],[0,-150]]",diamond,red,hori,left,"[-106,106]","[0,-150]",left,1,,,,,,001,2025-03-11_20h34.40.941,SL_sali_41,2021.2.3,Win32,60.24096386,1.6797,,,3,0,3,0,1,,,,,,,,
,,"[""circle"",""red"",""vert"",""up"",[-106,106],[106,-106]]",circle,red,vert,up,"[-106,106]","[106,-106]",up,1,,,,,,001,2025-03-11_20h34.40.941,SL_sali_41,2021.2.3,Win32,60.24096386,1.8191,,,4,0,4,0,1,,,,,,,,
,,"[""circle"",""no_dis"",""vert"",""up"",[99999,99999],[0,150]]",circle,no_dis,vert,up,"[99999,99999]","[0,150]",up,1,,,,,,001,2025-03-11_20h34.40.941,SL_sali_41,2021.2.3,Win32,60.24096386,1.788,,,5,0,5,0,1,,,,,,,,
,,"[""circle"",""red"",""hori"",""left"",[0,150],[-106,-106]]",circle,red,hori,left,"[0,150]","[-106,-106]",left,1,,,,,,001,2025-03-11_20h34.40.941,SL_sali_41,2021.2.3,Win32,60.24096386,1.2181,,,6,0,6,0,1,,,,,,,,
,,"[""diamond"",""no_dis"",""hori"",""left"",[99999,99999],[-106,-106]]",diamond,no_dis,hori,left,"[99999,99999]","[-106,-106]",left,1,,,,,,001,2025-03-11_20h34.40.941,SL_sali_41,2021.2.3,Win32,60.24096386,1.191,,,7,0,7,0,1,,,,,,,,
,,"[""diamond"",""no_dis"",""hori"",""left"",[99999,99999],[106,106]]",diamond,no_dis,hori,left,"[99999,99999]","[106,106]",left,1,,,,,,001,2025-03-11_20h34.40.941,SL_sali_41,2021.2.3,Win32,60.24096386,1.2717,,,8,0,8,0,1,,,,,,,,
,,"[""circle"",""green"",""vert"",""up"",[0,150],[150,0]]",circle,green,vert,up,"[0,150]","[150,0]",up,1,,,,,,001,2025-03-11_20h34.40.941,SL_sali_41,2021.2.3,Win32,60.24096386,1.5364,,,9,0,9,0,1,,,,,,,,
,,"[""diamond"",""red"",""hori"",""left"",[0,150],[0,-150]]",diamond,red,hori,left,"[0,150]","[0,-150]",left,1,,,,,,001,2025-03-11_20h34.40.941,SL_sali_41,2021.2.3,Win32,60.24096386,1.1411,,,10,0,10,0,1,,,,,,,,
,,"[""diamond"",""no_dis"",""hori"",""left"",[99999,99999],[106,106]]",diamond,no_dis,hori,left,"[99999,99999]","[106,106]",left,1,,,,,,001,2025-03-11_20h34.40.941,SL_sali_41,2021.2.3,Win32,60.24096386,1.0691,,,11,0,11,0,1,,,,,,,,
,,"[""circle"",""green"",""vert"",""up"",[0,150],[106,-106]]",circle,green,vert,up,"[0,150]","[106,-106]",up,1,,,,,,001,2025-03-11_20h34.40.941,SL_sali_41,2021.2.3,Win32,60.24096386,1.6589,,,12,0,12,0,1,,,,,,,,
,,"[""circle"",""green"",""vert"",""up"",[-106,-106],[0,-150]]",circle,green,vert,up,"[-106,-106]","[0,-150]",left,0,,,,,,001,2025-03-11_20h34.40.941,SL_sali_41,2021.2.3,Win32,60.24096386,1.4238,,,13,0,13,0,1,,,,,,,,
,,"[""circle"",""green"",""vert"",""up"",[106,-106],[0,-150]]",circle,green,vert,up,"[106,-106]","[0,-150]",up,1,,,,,,001,2025-03-11_20h34.40.941,SL_sali_41,2021.2.3,Win32,60.24096386,2.0813,,,14,0,14,0,1,,,,,,,,
,,"[""circle"",""no_dis"",""hori"",""left"",[99999,99999],[-106,106]]",circle,no_dis,hori,left,"[99999,99999]","[-106,106]",left,1,,,,,,001,2025-03-11_20h34.40.941,SL_sali_41,2021.2.3,Win32,60.24096386,1.2839,,,15,0,15,0,1,,,,,,,,
,,"[""circle"",""red"",""vert"",""up"",[150,0],[0,-150]]",circle,red,vert,up,"[150,0]","[0,-150]",up,1,,,,,,001,2025-03-11_20h34.40.941,SL_sali_41,2021.2.3,Win32,60.24096386,1.9015,,,16,0,16,0,1,,,,,,,,
,,"[""circle"",""no_dis"",""hori"",""left"",[99999,99999],[106,-106]]",circle,no_dis,hori,left,"[99999,99999]","[106,-106]",left,1,,,,,,001,2025-03-11_20h34.40.941,SL_sali_41,2021.2.3,Win32,60.24096386,1.1478,,,17,0,17,0,1,,,,,,,,
,,"[""diamond"",""no_dis"",""vert"",""up"",[99999,99999],[-150,0]]",diamond,no_dis,vert,up,"[99999,99999]","[-150,0]",up,1,,,,,,001,2025-03-11_20h34.40.941,SL_sali_41,2021.2.3,Win32,60.24096386,2.7772,,,18,0,18,0,1,,,,,,,,
,,"[""circle"",""no_dis"",""hori"",""left"",[99999,99999],[0,-150]]",circle,no_dis,hori,left,"[99999,99999]","[0,-150]",left,1,,,,,,001,2025-03-11_20h34.40.941,SL_sali_41,2021.2.3,Win32,60.24096386,1.5504,,,19,0,19,0,1,,,,,,,,
,,"[""diamond"",""green"",""vert"",""up"",[106,106],[-150,0]]",diamond,green,vert,up,"[106,106]","[-150,0]",up,1,,,,,,001,2025-03-11_20h34.40.941,SL_sali_41,2021.2.3,Win32,60.24096386,1.2691,,,20,0,20,0,1,,,,,,,,
,,"[""circle"",""no_dis"",""vert"",""up"",[99999,99999],[150,0]]",circle,no_dis,vert,up,"[99999,99999]","[150,0]",up,1,,,,,,001,2025-03-11_20h34.40.941,SL_sali_41,2021.2.3,Win32,60.24096386,1.2943,,,21,0,21,0,1,,,,,,,,
,,"[""diamond"",""green"",""hori"",""left"",[106,106],[106,-106]]",diamond,green,hori,left,"[106,106]","[106,-106]",left,1,,,,,,001,2025-03-11_20h34.40.941,SL_sali_41,2021.2.3,Win32,60.24096386,1.7765,,,22,0,22,0,1,,,,,,,,
,,"[""diamond"",""red"",""vert"",""up"",[106,106],[106,-106]]",diamond,red,vert,up,"[106,106]","[106,-106]",up,1,,,,,,001,2025-03-11_20h34.40.941,SL_sali_41,2021.2.3,Win32,60.24096386,1.3548,,,23,0,23,0,1,,,,,,,,
,,"[""diamond"",""red"",""hori"",""left"",[0,-150],[106,106]]",diamond,red,hori,left,"[0,-150]","[106,106]",left,1,,,,,,001,2025-03-11_20h34.40.941,SL_sali_41,2021.2.3,Win32,60.24096386,1.3412,,,24,0,24,0,1,,,,,,,,
,,"[""circle"",""red"",""hori"",""left"",[-106,-106],[-150,0]]",circle,red,hori,left,"[-106,-106]","[-150,0]",up,0,,,,,,001,2025-03-11_20h34.40.941,SL_sali_41,2021.2.3,Win32,60.24096386,2.4619,,,25,0,25,0,1,,,,,,,,
,,"[""circle"",""no_dis"",""hori"",""left"",[99999,99999],[-106,106]]",circle,no_dis,hori,left,"[99999,99999]","[-106,106]",left,1,,,,,,001,2025-03-11_20h34.40.941,SL_sali_41,2021.2.3,Win32,60.24096386,1.9129,,,26,0,26,0,1,,,,,,,,
,,"[""circle"",""no_dis"",""vert"",""up"",[99999,99999],[0,-150]]",circle,no_dis,vert,up,"[99999,99999]","[0,-150]",up,1,,,,,,001,2025-03-11_20h34.40.941,SL_sali_41,2021.2.3,Win32,60.24096386,1.3385,,,27,0,27,0,1,,,,,,,,
,,"[""circle"",""no_dis"",""vert"",""up"",[99999,99999],[-106,-106]]",circle,no_dis,vert,up,"[99999,99999]","[-106,-106]",up,1,,,,,,001,2025-03-11_20h34.40.941,SL_sali_41,2021.2.3,Win32,60.24096386,1.069,,,28,0,28,0,1,,,,,,,,
,,"[""diamond"",""green"",""vert"",""up"",[0,150],[-106,-106]]",diamond,green,vert,up,"[0,150]","[-106,-106]",up,1,,,,,,001,2025-03-11_20h34.40.941,SL_sali_41,2021.2.3,Win32,60.24096386,1.0933,,,29,0,29,0,1,,,,,,,,
,,"[""circle"",""no_dis"",""vert"",""up"",[99999,99999],[-106,-106]]",circle,no_dis,vert,up,"[99999,99999]","[-106,-106]",up,1,,,,,,001,2025-03-11_20h34.40.941,SL_sali_41,2021.2.3,Win32,60.24096386,1.7598,,,30,0,30,0,1,,,,,,,,
,,"[""diamond"",""green"",""hori"",""left"",[0,150],[-150,0]]",diamond,green,hori,left,"[0,150]","[-150,0]",left,1,,,,,,001,2025-03-11_20h34.40.941,SL_sali_41,2021.2.3,Win32,60.24096386,1.3377,,,31,0,31,0,1,,,,,,,,
,,"[""diamond"",""no_dis"",""hori"",""left"",[99999,99999],[106,-106]]",diamond,no_dis,hori,left,"[99999,99999]","[106,-106]",left,1,,,,,,001,2025-03-11_20h34.40.941,SL_sali_41,2021.2.3,Win32,60.24096386,1.0949,,,32,0,32,0,1,,,,,,,,
,,"[""circle"",""green"",""hori"",""left"",[0,150],[-150,0]]",circle,green,hori,left,"[0,150]","[-150,0]",left,1,,,,,,001,2025-03-11_20h34.40.941,SL_sali_41,2021.2.3,Win32,60.24096386,1.2106,,,33,0,33,0,1,,,,,,,,
,,"[""circle"",""no_dis"",""hori"",""left"",[99999,99999],[-106,106]]",circle,no_dis,hori,left,"[99999,99999]","[-106,106]",left,1,,,,,,001,2025-03-11_20h34.40.941,SL_sali_41,2021.2.3,Win32,60.24096386,1.5073,,,34,0,34,0,1,,,,,,,,
,,"[""circle"",""green"",""hori"",""left"",[0,150],[-106,-106]]",circle,green,hori,left,"[0,150]","[-106,-106]",up,0,,,,,,001,2025-03-11_20h34.40.941,SL_sali_41,2021.2.3,Win32,60.24096386,0.9861,,,35,0,35,0,1,,,,,,,,
,,"[""circle"",""red"",""vert"",""up"",[-150,0],[-106,106]]",circle,red,vert,up,"[-150,0]","[-106,106]",up,1,,,,,,001,2025-03-11_20h34.40.941,SL_sali_41,2021.2.3,Win32,60.24096386,1.5789,,,36,0,36,0,1,,,,,,,,
,,"[""circle"",""green"",""hori"",""left"",[-106,106],[150,0]]",circle,green,hori,left,"[-106,106]","[150,0]",left,1,,,,,,001,2025-03-11_20h34.40.941,SL_sali_41,2021.2.3,Win32,60.24096386,1.4693,,,37,0,37,0,1,,,,,,,,
,,"[""circle"",""red"",""vert"",""up"",[0,150],[106,106]]",circle,red,vert,up,"[0,150]","[106,106]",up,1,,,,,,001,2025-03-11_20h34.40.941,SL_sali_41,2021.2.3,Win32,60.24096386,1.2631,,,38,0,38,0,1,,,,,,,,
,,"[""diamond"",""red"",""vert"",""up"",[0,-150],[-150,0]]",diamond,red,vert,up,"[0,-150]","[-150,0]",up,1,,,,,,001,2025-03-11_20h34.40.941,SL_sali_41,2021.2.3,Win32,60.24096386,2.1077,,,39,0,39,0,1,,,,,,,,
,,"[""circle"",""green"",""hori"",""left"",[106,-106],[0,150]]",circle,green,hori,left,"[106,-106]","[0,150]",left,1,,,,,,001,2025-03-11_20h34.40.941,SL_sali_41,2021.2.3,Win32,60.24096386,1.2189,,,40,0,40,0,1,,,,,,,,
,,"[""diamond"",""red"",""vert"",""up"",[-150,0],[0,150]]",diamond,red,vert,up,"[-150,0]","[0,150]",up,1,,,,,,001,2025-03-11_20h34.40.941,SL_sali_41,2021.2.3,Win32,60.24096386,1.6511,,,41,0,41,0,1,,,,,,,,
,,"[""circle"",""green"",""vert"",""up"",[0,150],[-106,106]]",circle,green,vert,up,"[0,150]","[-106,106]",up,1,,,,,,001,2025-03-11_20h34.40.941,SL_sali_41,2021.2.3,Win32,60.24096386,1.4617,,,42,0,42,0,1,,,,,,,,
,,"[""circle"",""red"",""vert"",""up"",[0,-150],[-150,0]]",circle,red,vert,up,"[0,-150]","[-150,0]",up,1,,,,,,001,2025-03-11_20h34.40.941,SL_sali_41,2021.2.3,Win32,60.24096386,1.1181,,,43,0,43,0,1,,,,,,,,
,,"[""diamond"",""green"",""vert"",""up"",[-106,106],[0,150]]",diamond,green,vert,up,"[-106,106]","[0,150]",up,1,,,,,,001,2025-03-11_20h34.40.941,SL_sali_41,2021.2.3,Win32,60.24096386,1.375,,,44,0,44,0,1,,,,,,,,
,,"[""circle"",""green"",""hori"",""left"",[0,150],[106,106]]",circle,green,hori,left,"[0,150]","[106,106]",left,1,,,,,,001,2025-03-11_20h34.40.941,SL_sali_41,2021.2.3,Win32,60.24096386,2.0418,,,45,0,45,0,1,,,,,,,,
,,"[""diamond"",""green"",""hori"",""left"",[0,-150],[106,106]]",diamond,green,hori,left,"[0,-150]","[106,106]",up,0,,,,,,001,2025-03-11_20h34.40.941,SL_sali_41,2021.2.3,Win32,60.24096386,1.5536,,,46,0,46,0,1,,,,,,,,
,,"[""circle"",""green"",""hori"",""left"",[0,-150],[106,106]]",circle,green,hori,left,"[0,-150]","[106,106]",left,1,,,,,,001,2025-03-11_20h34.40.941,SL_sali_41,2021.2.3,Win32,60.24096386,1.5769,,,47,0,47,0,1,,,,,,,,
,,"[""circle"",""green"",""hori"",""left"",[0,150],[-150,0]]",circle,green,hori,left,"[0,150]","[-150,0]",left,1,,,,,,001,2025-03-11_20h34.40.941,SL_sali_41,2021.2.3,Win32,60.24096386,0.8564,,,48,0,48,0,1,,,,,,,,
,,"[""diamond"",""red"",""hori"",""left"",[0,-150],[0,150]]",diamond,red,hori,left,"[0,-150]","[0,150]",left,1,,,,,,001,2025-03-11_20h34.40.941,SL_sali_41,2021.2.3,Win32,60.24096386,1.3009,,,49,0,49,0,1,,,,,,,,
,,"[""circle"",""red"",""hori"",""left"",[0,150],[106,106]]",circle,red,hori,left,"[0,150]","[106,106]",left,1,,,,,,001,2025-03-11_20h34.40.941,SL_sali_41,2021.2.3,Win32,60.24096386,1.2099,,,50,0,50,0,1,,,,,,,,
,,"[""diamond"",""green"",""hori"",""left"",[150,0],[0,-150]]",diamond,green,hori,left,"[150,0]","[0,-150]",left,1,,,,,,001,2025-03-11_20h34.40.941,SL_sali_41,2021.2.3,Win32,60.24096386,1.3065,,,51,0,51,0,1,,,,,,,,
,,"[""diamond"",""no_dis"",""vert"",""up"",[99999,99999],[0,150]]",diamond,no_dis,vert,up,"[99999,99999]","[0,150]",up,1,,,,,,001,2025-03-11_20h34.40.941,SL_sali_41,2021.2.3,Win32,60.24096386,1.1064,,,52,0,52,0,1,,,,,,,,
,,"[""circle"",""red"",""hori"",""left"",[106,-106],[0,150]]",circle,red,hori,left,"[106,-106]","[0,150]",left,1,,,,,,001,2025-03-11_20h34.40.941,SL_sali_41,2021.2.3,Win32,60.24096386,1.7273,,,53,0,53,0,1,,,,,,,,
,,"[""diamond"",""red"",""vert"",""up"",[-150,0],[-106,106]]",diamond,red,vert,up,"[-150,0]","[-106,106]",left,0,,,,,,001,2025-03-11_20h34.40.941,SL_sali_41,2021.2.3,Win32,60.24096386,1.2048,,,54,0,54,0,1,,,,,,,,
,,"[""circle"",""no_dis"",""hori"",""left"",[99999,99999],[-106,-106]]",circle,no_dis,hori,left,"[99999,99999]","[-106,-106]",left,1,,,,,,001,2025-03-11_20h34.40.941,SL_sali_41,2021.2.3,Win32,60.24096386,1.2708,,,55,0,55,0,1,,,,,,,,
,,"[""diamond"",""no_dis"",""hori"",""left"",[99999,99999],[150,0]]",diamond,no_dis,hori,left,"[99999,99999]","[150,0]",left,1,,,,,,001,2025-03-11_20h34.40.941,SL_sali_41,2021.2.3,Win32,60.24096386,1.0708,,,56,0,56,0,1,,,,,,,,
,,"[""circle"",""no_dis"",""vert"",""up"",[99999,99999],[-106,106]]",circle,no_dis,vert,up,"[99999,99999]","[-106,106]",up,1,,,,,,001,2025-03-11_20h34.40.941,SL_sali_41,2021.2.3,Win32,60.24096386,1.0132,,,57,0,57,0,1,,,,,,,,
,,"[""diamond"",""green"",""vert"",""up"",[150,0],[-150,0]]",diamond,green,vert,up,"[150,0]","[-150,0]",up,1,,,,,,001,2025-03-11_20h34.40.941,SL_sali_41,2021.2.3,Win32,60.24096386,1.8855,,,58,0,58,0,1,,,,,,,,
,,"[""circle"",""green"",""hori"",""left"",[106,-106],[0,150]]",circle,green,hori,left,"[106,-106]","[0,150]",left,1,,,,,,001,2025-03-11_20h34.40.941,SL_sali_41,2021.2.3,Win32,60.24096386,1.0143,,,59,0,59,0,1,,,,,,,,
,,"[""diamond"",""no_dis"",""vert"",""up"",[99999,99999],[0,-150]]",diamond,no_dis,vert,up,"[99999,99999]","[0,-150]",up,1,,,,,,001,2025-03-11_20h34.40.941,SL_sali_41,2021.2.3,Win32,60.24096386,1.3402,,,60,0,60,0,1,,,,,,,,
,,"[""circle"",""no_dis"",""hori"",""left"",[99999,99999],[-150,0]]",circle,no_dis,hori,left,"[99999,99999]","[-150,0]",left,1,,,,,,001,2025-03-11_20h34.40.941,SL_sali_41,2021.2.3,Win32,60.24096386,1.2566,,,61,0,61,0,1,,,,,,,,
,,"[""circle"",""red"",""hori"",""left"",[150,0],[0,150]]",circle,red,hori,left,"[150,0]","[0,150]",left,1,,,,,,001,2025-03-11_20h34.40.941,SL_sali_41,2021.2.3,Win32,60.24096386,2.7278,,,62,0,62,0,1,,,,,,,,
,,"[""diamond"",""red"",""vert"",""up"",[0,150],[106,-106]]",diamond,red,vert,up,"[0,150]","[106,-106]",up,1,,,,,,001,2025-03-11_20h34.40.941,SL_sali_41,2021.2.3,Win32,60.24096386,1.5444,,,63,0,63,0,1,,,,,,,,
,,"[""circle"",""red"",""vert"",""up"",[-106,-106],[-150,0]]",circle,red,vert,up,"[-106,-106]","[-150,0]",up,1,,,,,,001,2025-03-11_20h34.40.941,SL_sali_41,2021.2.3,Win32,60.24096386,2.6208,,,64,0,64,0,1,,,,,,,,
,,"[""diamond"",""no_dis"",""vert"",""up"",[99999,99999],[0,-150]]",diamond,no_dis,vert,up,"[99999,99999]","[0,-150]",,0,,,,,,001,2025-03-11_20h34.40.941,SL_sali_41,2021.2.3,Win32,60.24096386,,,,65,0,65,0,1,,,,,,,,
,,"[""diamond"",""no_dis"",""vert"",""up"",[99999,99999],[150,0]]",diamond,no_dis,vert,up,"[99999,99999]","[150,0]",up,1,,,,,,001,2025-03-11_20h34.40.941,SL_sali_41,2021.2.3,Win32,60.24096386,1.6031,,,66,0,66,0,1,,,,,,,,
,,"[""diamond"",""green"",""vert"",""up"",[-106,-106],[-106,106]]",diamond,green,vert,up,"[-106,-106]","[-106,106]",up,1,,,,,,001,2025-03-11_20h34.40.941,SL_sali_41,2021.2.3,Win32,60.24096386,1.1839,,,67,0,67,0,1,,,,,,,,
,,"[""circle"",""red"",""vert"",""up"",[0,150],[-106,-106]]",circle,red,vert,up,"[0,150]","[-106,-106]",up,1,,,,,,001,2025-03-11_20h34.40.941,SL_sali_41,2021.2.3,Win32,60.24096386,1.3288,,,68,0,68,0,1,,,,,,,,
,,"[""circle"",""green"",""vert"",""up"",[-106,-106],[150,0]]",circle,green,vert,up,"[-106,-106]","[150,0]",up,1,,,,,,001,2025-03-11_20h34.40.941,SL_sali_41,2021.2.3,Win32,60.24096386,1.2577,,,69,0,69,0,1,,,,,,,,
,,"[""diamond"",""no_dis"",""vert"",""up"",[99999,99999],[106,106]]",diamond,no_dis,vert,up,"[99999,99999]","[106,106]",left,0,,,,,,001,2025-03-11_20h34.40.941,SL_sali_41,2021.2.3,Win32,60.24096386,1.5271,,,70,0,70,0,1,,,,,,,,
,,"[""diamond"",""no_dis"",""hori"",""left"",[99999,99999],[-106,-106]]",diamond,no_dis,hori,left,"[99999,99999]","[-106,-106]",left,1,,,,,,001,2025-03-11_20h34.40.941,SL_sali_41,2021.2.3,Win32,60.24096386,1.1909,,,71,0,71,0,1,,,,,,,,
,,"[""diamond"",""green"",""hori"",""left"",[106,106],[106,-106]]",diamond,green,hori,left,"[106,106]","[106,-106]",left,1,,,,,,001,2025-03-11_20h34.40.941,SL_sali_41,2021.2.3,Win32,60.24096386,1.7394,,,72,0,72,0,1,,,,,,,,
,,"[""circle"",""red"",""hori"",""left"",[150,0],[-106,106]]",circle,red,hori,left,"[150,0]","[-106,106]",left,1,,,,,,001,2025-03-11_20h34.40.941,SL_sali_41,2021.2.3,Win32,60.24096386,1.4353,,,73,0,73,0,1,,,,,,,,
,,"[""diamond"",""red"",""hori"",""left"",[0,150],[106,-106]]",diamond,red,hori,left,"[0,150]","[106,-106]",left,1,,,,,,001,2025-03-11_20h34.40.941,SL_sali_41,2021.2.3,Win32,60.24096386,1.4443,,,74,0,74,0,1,,,,,,,,
,,"[""circle"",""no_dis"",""vert"",""up"",[99999,99999],[106,-106]]",circle,no_dis,vert,up,"[99999,99999]","[106,-106]",up,1,,,,,,001,2025-03-11_20h34.40.941,SL_sali_41,2021.2.3,Win32,60.24096386,1.2618,,,75,0,75,0,1,,,,,,,,
,,"[""diamond"",""no_dis"",""vert"",""up"",[99999,99999],[106,-106]]",diamond,no_dis,vert,up,"[99999,99999]","[106,-106]",left,0,,,,,,001,2025-03-11_20h34.40.941,SL_sali_41,2021.2.3,Win32,60.24096386,1.5519,,,76,0,76,0,1,,,,,,,,
,,"[""diamond"",""red"",""vert"",""up"",[0,150],[-106,-106]]",diamond,red,vert,up,"[0,150]","[-106,-106]",up,1,,,,,,001,2025-03-11_20h34.40.941,SL_sali_41,2021.2.3,Win32,60.24096386,2.7481,,,77,0,77,0,1,,,,,,,,
,,"[""diamond"",""red"",""vert"",""up"",[0,-150],[106,-106]]",diamond,red,vert,up,"[0,-150]","[106,-106]",left,0,,,,,,001,2025-03-11_20h34.40.941,SL_sali_41,2021.2.3,Win32,60.24096386,1.4563,,,78,0,78,0,1,,,,,,,,
,,"[""diamond"",""no_dis"",""hori"",""left"",[99999,99999],[-150,0]]",diamond,no_dis,hori,left,"[99999,99999]","[-150,0]",left,1,,,,,,001,2025-03-11_20h34.40.941,SL_sali_41,2021.2.3,Win32,60.24096386,1.3551,,,79,0,79,0,1,,,,,,,,
,,"[""diamond"",""red"",""hori"",""left"",[0,150],[-150,0]]",diamond,red,hori,left,"[0,150]","[-150,0]",left,1,,,,,,001,2025-03-11_20h34.40.941,SL_sali_41,2021.2.3,Win32,60.24096386,1.1379,,,80,0,80,0,1,,,,,,,,
,,"[""circle"",""green"",""vert"",""up"",[0,150],[0,-150]]",circle,green,vert,up,"[0,150]","[0,-150]",up,1,,,,,,001,2025-03-11_20h34.40.941,SL_sali_41,2021.2.3,Win32,60.24096386,1.1199,,,81,0,81,0,1,,,,,,,,
,,"[""circle"",""green"",""vert"",""up"",[-150,0],[-106,106]]",circle,green,vert,up,"[-150,0]","[-106,106]",up,1,,,,,,001,2025-03-11_20h34.40.941,SL_sali_41,2021.2.3,Win32,60.24096386,1.8443,,,82,0,82,0,1,,,,,,,,
,,"[""diamond"",""red"",""hori"",""left"",[-106,106],[106,-106]]",diamond,red,hori,left,"[-106,106]","[106,-106]",left,1,,,,,,001,2025-03-11_20h34.40.941,SL_sali_41,2021.2.3,Win32,60.24096386,1.2258,,,83,0,83,0,1,,,,,,,,
,,"[""circle"",""red"",""vert"",""up"",[0,150],[-106,106]]",circle,red,vert,up,"[0,150]","[-106,106]",left,0,,,,,,001,2025-03-11_20h34.40.941,SL_sali_41,2021.2.3,Win32,60.24096386,1.4352,,,84,0,84,0,1,,,,,,,,
,,"[""diamond"",""no_dis"",""hori"",""left"",[99999,99999],[150,0]]",diamond,no_dis,hori,left,"[99999,99999]","[150,0]",left,1,,,,,,001,2025-03-11_20h34.40.941,SL_sali_41,2021.2.3,Win32,60.24096386,1.5222,,,85,0,85,0,1,,,,,,,,
,,"[""circle"",""green"",""vert"",""up"",[-150,0],[0,-150]]",circle,green,vert,up,"[-150,0]","[0,-150]",up,1,,,,,,001,2025-03-11_20h34.40.941,SL_sali_41,2021.2.3,Win32,60.24096386,1.112,,,86,0,86,0,1,,,,,,,,
,,"[""diamond"",""no_dis"",""hori"",""left"",[99999,99999],[0,150]]",diamond,no_dis,hori,left,"[99999,99999]","[0,150]",left,1,,,,,,001,2025-03-11_20h34.40.941,SL_sali_41,2021.2.3,Win32,60.24096386,1.0677,,,87,0,87,0,1,,,,,,,,
,,"[""diamond"",""green"",""vert"",""up"",[-150,0],[150,0]]",diamond,green,vert,up,"[-150,0]","[150,0]",left,0,,,,,,001,2025-03-11_20h34.40.941,SL_sali_41,2021.2.3,Win32,60.24096386,1.1012,,,88,0,88,0,1,,,,,,,,
,,"[""circle"",""green"",""hori"",""left"",[106,106],[-150,0]]",circle,green,hori,left,"[106,106]","[-150,0]",up,0,,,,,,001,2025-03-11_20h34.40.941,SL_sali_41,2021.2.3,Win32,60.24096386,1.1046,,,89,0,89,0,1,,,,,,,,
,,"[""circle"",""red"",""hori"",""left"",[106,106],[-106,106]]",circle,red,hori,left,"[106,106]","[-106,106]",left,1,,,,,,001,2025-03-11_20h34.40.941,SL_sali_41,2021.2.3,Win32,60.24096386,1.9653,,,90,0,90,0,1,,,,,,,,
,,"[""diamond"",""green"",""hori"",""left"",[0,150],[106,106]]",diamond,green,hori,left,"[0,150]","[106,106]",left,1,,,,,,001,2025-03-11_20h34.40.941,SL_sali_41,2021.2.3,Win32,60.24096386,1.2365,,,91,0,91,0,1,,,,,,,,
,,"[""circle"",""no_dis"",""hori"",""left"",[99999,99999],[106,106]]",circle,no_dis,hori,left,"[99999,99999]","[106,106]",left,1,,,,,,001,2025-03-11_20h34.40.941,SL_sali_41,2021.2.3,Win32,60.24096386,1.3212,,,92,0,92,0,1,,,,,,,,
,,"[""diamond"",""red"",""vert"",""up"",[106,106],[-106,-106]]",diamond,red,vert,up,"[106,106]","[-106,-106]",up,1,,,,,,001,2025-03-11_20h34.40.941,SL_sali_41,2021.2.3,Win32,60.24096386,1.1231,,,93,0,93,0,1,,,,,,,,
,,"[""diamond"",""no_dis"",""hori"",""left"",[99999,99999],[106,-106]]",diamond,no_dis,hori,left,"[99999,99999]","[106,-106]",left,1,,,,,,001,2025-03-11_20h34.40.941,SL_sali_41,2021.2.3,Win32,60.24096386,1.666,,,94,0,94,0,1,,,,,,,,
,,"[""circle"",""green"",""hori"",""left"",[-106,106],[106,-106]]",circle,green,hori,left,"[-106,106]","[106,-106]",up,0,,,,,,001,2025-03-11_20h34.40.941,SL_sali_41,2021.2.3,Win32,60.24096386,1.5567,,,95,0,95,0,1,,,,,,,,
,,"[""diamond"",""green"",""hori"",""left"",[0,-150],[106,106]]",diamond,green,hori,left,"[0,-150]","[106,106]",left,1,,,,,,001,2025-03-11_20h34.40.941,SL_sali_41,2021.2.3,Win32,60.24096386,1.9862,,,96,0,96,0,1,,,,,,,,
,,"[""diamond"",""no_dis"",""vert"",""up"",[99999,99999],[0,150]]",diamond,no_dis,vert,up,"[99999,99999]","[0,150]",up,1,,,,,,001,2025-03-11_20h34.40.941,SL_sali_41,2021.2.3,Win32,60.24096386,1.8717,,,97,0,97,0,1,,,,,,,,
,,"[""circle"",""red"",""hori"",""left"",[-106,-106],[106,106]]",circle,red,hori,left,"[-106,-106]","[106,106]",left,1,,,,,,001,2025-03-11_20h34.40.941,SL_sali_41,2021.2.3,Win32,60.24096386,1.2023,,,98,0,98,0,1,,,,,,,,
,,"[""diamond"",""green"",""vert"",""up"",[106,-106],[150,0]]",diamond,green,vert,up,"[106,-106]","[150,0]",up,1,,,,,,001,2025-03-11_20h34.40.941,SL_sali_41,2021.2.3,Win32,60.24096386,1.3915,,,99,0,99,0,1,,,,,,,,
,,"[""circle"",""no_dis"",""vert"",""up"",[99999,99999],[-106,106]]",circle,no_dis,vert,up,"[99999,99999]","[-106,106]",up,1,,,,,,001,2025-03-11_20h34.40.941,SL_sali_41,2021.2.3,Win32,60.24096386,2.0065,,,100,0,100,0,1,,,,,,,,
,,"[""circle"",""no_dis"",""vert"",""up"",[99999,99999],[150,0]]",circle,no_dis,vert,up,"[99999,99999]","[150,0]",up,1,,,,,,001,2025-03-11_20h34.40.941,SL_sali_41,2021.2.3,Win32,60.24096386,1.0167,,,101,0,101,0,1,,,,,,,,
,,"[""circle"",""red"",""hori"",""left"",[106,106],[0,150]]",circle,red,hori,left,"[106,106]","[0,150]",up,0,,,,,,001,2025-03-11_20h34.40.941,SL_sali_41,2021.2.3,Win32,60.24096386,1.5533,,,102,0,102,0,1,,,,,,,,
,,"[""circle"",""red"",""vert"",""up"",[150,0],[106,106]]",circle,red,vert,up,"[150,0]","[106,106]",up,1,,,,,,001,2025-03-11_20h34.40.941,SL_sali_41,2021.2.3,Win32,60.24096386,1.6178,,,103,0,103,0,1,,,,,,,,
,,"[""diamond"",""red"",""vert"",""up"",[0,150],[0,-150]]",diamond,red,vert,up,"[0,150]","[0,-150]",left,0,,,,,,001,2025-03-11_20h34.40.941,SL_sali_41,2021.2.3,Win32,60.24096386,1.3755,,,104,0,104,0,1,,,,,,,,
,,"[""circle"",""green"",""vert"",""up"",[0,150],[150,0]]",circle,green,vert,up,"[0,150]","[150,0]",up,1,,,,,,001,2025-03-11_20h34.40.941,SL_sali_41,2021.2.3,Win32,60.24096386,1.0731,,,105,0,105,0,1,,,,,,,,
,,"[""diamond"",""green"",""hori"",""left"",[0,150],[-150,0]]",diamond,green,hori,left,"[0,150]","[-150,0]",left,1,,,,,,001,2025-03-11_20h34.40.941,SL_sali_41,2021.2.3,Win32,60.24096386,1.3686,,,106,0,106,0,1,,,,,,,,
,,"[""diamond"",""no_dis"",""vert"",""up"",[99999,99999],[-150,0]]",diamond,no_dis,vert,up,"[99999,99999]","[-150,0]",up,1,,,,,,001,2025-03-11_20h34.40.941,SL_sali_41,2021.2.3,Win32,60.24096386,1.25,,,107,0,107,0,1,,,,,,,,
,,"[""circle"",""no_dis"",""vert"",""up"",[99999,99999],[-150,0]]",circle,no_dis,vert,up,"[99999,99999]","[-150,0]",up,1,,,,,,001,2025-03-11_20h34.40.941,SL_sali_41,2021.2.3,Win32,60.24096386,2.1037,,,108,0,108,0,1,,,,,,,,
,,"[""diamond"",""green"",""hori"",""left"",[0,150],[106,-106]]",diamond,green,hori,left,"[0,150]","[106,-106]",left,1,,,,,,001,2025-03-11_20h34.40.941,SL_sali_41,2021.2.3,Win32,60.24096386,1.3854,,,109,0,109,0,1,,,,,,,,
,,"[""circle"",""no_dis"",""hori"",""left"",[99999,99999],[106,106]]",circle,no_dis,hori,left,"[99999,99999]","[106,106]",left,1,,,,,,001,2025-03-11_20h34.40.941,SL_sali_41,2021.2.3,Win32,60.24096386,1.3966,,,110,0,110,0,1,,,,,,,,
,,"[""diamond"",""green"",""vert"",""up"",[106,-106],[150,0]]",diamond,green,vert,up,"[106,-106]","[150,0]",up,1,,,,,,001,2025-03-11_20h34.40.941,SL_sali_41,2021.2.3,Win32,60.24096386,1.2353,,,111,0,111,0,1,,,,,,,,
,,"[""circle"",""red"",""hori"",""left"",[-106,-106],[0,-150]]",circle,red,hori,left,"[-106,-106]","[0,-150]",left,1,,,,,,001,2025-03-11_20h34.40.941,SL_sali_41,2021.2.3,Win32,60.24096386,1.9793,,,112,0,112,0,1,,,,,,,,
,,"[""circle"",""no_dis"",""hori"",""left"",[99999,99999],[0,-150]]",circle,no_dis,hori,left,"[99999,99999]","[0,-150]",left,1,,,,,,001,2025-03-11_20h34.40.941,SL_sali_41,2021.2.3,Win32,60.24096386,1.0065,,,113,0,113,0,1,,,,,,,,
,,"[""diamond"",""red"",""vert"",""up"",[0,150],[150,0]]",diamond,red,vert,up,"[0,150]","[150,0]",up,1,,,,,,001,2025-03-11_20h34.40.941,SL_sali_41,2021.2.3,Win32,60.24096386,1.8259,,,114,0,114,0,1,,,,,,,,
,,"[""diamond"",""green"",""vert"",""up"",[-106,106],[0,150]]",diamond,green,vert,up,"[-106,106]","[0,150]",up,1,,,,,,001,2025-03-11_20h34.40.941,SL_sali_41,2021.2.3,Win32,60.24096386,1.8437,,,115,0,115,0,1,,,,,,,,
,,"[""diamond"",""green"",""vert"",""up"",[0,150],[150,0]]",diamond,green,vert,up,"[0,150]","[150,0]",up,1,,,,,,001,2025-03-11_20h34.40.941,SL_sali_41,2021.2.3,Win32,60.24096386,1.1691,,,116,0,116,0,1,,,,,,,,
,,"[""diamond"",""red"",""hori"",""left"",[150,0],[-106,-106]]",diamond,red,hori,left,"[150,0]","[-106,-106]",up,0,,,,,,001,2025-03-11_20h34.40.941,SL_sali_41,2021.2.3,Win32,60.24096386,2.0429,,,117,0,117,0,1,,,,,,,,
,,"[""diamond"",""red"",""hori"",""left"",[-106,106],[-150,0]]",diamond,red,hori,left,"[-106,106]","[-150,0]",left,1,,,,,,001,2025-03-11_20h34.40.941,SL_sali_41,2021.2.3,Win32,60.24096386,1.4716,,,118,0,118,0,1,,,,,,,,
,,"[""circle"",""red"",""vert"",""up"",[0,150],[-106,106]]",circle,red,vert,up,"[0,150]","[-106,106]",up,1,,,,,,001,2025-03-11_20h34.40.941,SL_sali_41,2021.2.3,Win32,60.24096386,1.9768,,,119,0,119,0,1,,,,,,,,
,,"[""diamond"",""red"",""hori"",""left"",[106,-106],[-150,0]]",diamond,red,hori,left,"[106,-106]","[-150,0]",left,1,,,,,,001,2025-03-11_20h34.40.941,SL_sali_41,2021.2.3,Win32,60.24096386,1.841,,,120,0,120,0,1,,,,,,,,
,,"[""diamond"",""green"",""hori"",""left"",[-106,-106],[-150,0]]",diamond,green,hori,left,"[-106,-106]","[-150,0]",left,1,,,,,,001,2025-03-11_20h34.40.941,SL_sali_41,2021.2.3,Win32,60.24096386,1.1411,,,121,0,121,0,1,,,,,,,,
,,"[""circle"",""green"",""hori"",""left"",[106,-106],[-106,106]]",circle,green,hori,left,"[106,-106]","[-106,106]",left,1,,,,,,001,2025-03-11_20h34.40.941,SL_sali_41,2021.2.3,Win32,60.24096386,1.1901,,,122,0,122,0,1,,,,,,,,
,,"[""circle"",""green"",""vert"",""up"",[-150,0],[-106,106]]",circle,green,vert,up,"[-150,0]","[-106,106]",up,1,,,,,,001,2025-03-11_20h34.40.941,SL_sali_41,2021.2.3,Win32,60.24096386,2.0347,,,123,0,123,0,1,,,,,,,,
,,"[""diamond"",""red"",""hori"",""left"",[0,150],[0,-150]]",diamond,red,hori,left,"[0,150]","[0,-150]",left,1,,,,,,001,2025-03-11_20h34.40.941,SL_sali_41,2021.2.3,Win32,60.24096386,2.2185,,,124,0,124,0,1,,,,,,,,
,,"[""diamond"",""green"",""hori"",""left"",[0,150],[-150,0]]",diamond,green,hori,left,"[0,150]","[-150,0]",left,1,,,,,,001,2025-03-11_20h34.40.941,SL_sali_41,2021.2.3,Win32,60.24096386,1.1219,,,125,0,125,0,1,,,,,,,,
,,"[""circle"",""red"",""vert"",""up"",[-150,0],[0,-150]]",circle,red,vert,up,"[-150,0]","[0,-150]",up,1,,,,,,001,2025-03-11_20h34.40.941,SL_sali_41,2021.2.3,Win32,60.24096386,2.0859,,,126,0,126,0,1,,,,,,,,
,,"[""diamond"",""red"",""vert"",""up"",[0,150],[-106,-106]]",diamond,red,vert,up,"[0,150]","[-106,-106]",up,1,,,,,,001,2025-03-11_20h34.40.941,SL_sali_41,2021.2.3,Win32,60.24096386,1.511,,,127,0,127,0,1,,,,,,,,
,,,,,,,,,,,,,,,,001,2025-03-11_20h34.40.941,SL_sali_41,2021.2.3,Win32,60.24096386,,,,,,,,,2,space,67.0079,1,0,1,0,1
,,"[""circle"",""green"",""vert"",""up"",[0,150],[-106,106]]",circle,green,vert,up,"[0,150]","[-106,106]",up,1,,,,,,001,2025-03-11_20h34.40.941,SL_sali_41,2021.2.3,Win32,60.24096386,1.3691,,,0,0,0,0,1,,,,,,,,
,,"[""diamond"",""no_dis"",""hori"",""left"",[99999,99999],[106,106]]",diamond,no_dis,hori,left,"[99999,99999]","[106,106]",left,1,,,,,,001,2025-03-11_20h34.40.941,SL_sali_41,2021.2.3,Win32,60.24096386,1.1597,,,1,0,1,0,1,,,,,,,,
,,"[""diamond"",""red"",""hori"",""left"",[106,-106],[-150,0]]",diamond,red,hori,left,"[106,-106]","[-150,0]",left,1,,,,,,001,2025-03-11_20h34.40.941,SL_sali_41,2021.2.3,Win32,60.24096386,1.0193,,,2,0,2,0,1,,,,,,,,
,,"[""circle"",""no_dis"",""vert"",""up"",[99999,99999],[0,-150]]",circle,no_dis,vert,up,"[99999,99999]","[0,-150]",up,1,,,,,,001,2025-03-11_20h34.40.941,SL_sali_41,2021.2.3,Win32,60.24096386,1.7354,,,3,0,3,0,1,,,,,,,,
,,"[""circle"",""green"",""vert"",""up"",[0,150],[0,-150]]",circle,green,vert,up,"[0,150]","[0,-150]",up,1,,,,,,001,2025-03-11_20h34.40.941,SL_sali_41,2021.2.3,Win32,60.24096386,1.0834,,,4,0,4,0,1,,,,,,,,
,,"[""diamond"",""red"",""hori"",""left"",[0,150],[106,-106]]",diamond,red,hori,left,"[0,150]","[106,-106]",left,1,,,,,,001,2025-03-11_20h34.40.941,SL_sali_41,2021.2.3,Win32,60.24096386,1.1549,,,5,0,5,0,1,,,,,,,,
,,"[""circle"",""red"",""vert"",""up"",[0,150],[-106,106]]",circle,red,vert,up,"[0,150]","[-106,106]",up,1,,,,,,001,2025-03-11_20h34.40.941,SL_sali_41,2021.2.3,Win32,60.24096386,2.2743,,,6,0,6,0,1,,,,,,,,
,,"[""circle"",""red"",""vert"",""up"",[150,0],[0,-150]]",circle,red,vert,up,"[150,0]","[0,-150]",left,0,,,,,,001,2025-03-11_20h34.40.941,SL_sali_41,2021.2.3,Win32,60.24096386,1.3264,,,7,0,7,0,1,,,,,,,,
,,"[""diamond"",""red"",""vert"",""up"",[0,150],[150,0]]",diamond,red,vert,up,"[0,150]","[150,0]",up,1,,,,,,001,2025-03-11_20h34.40.941,SL_sali_41,2021.2.3,Win32,60.24096386,1.5802,,,8,0,8,0,1,,,,,,,,
,,"[""circle"",""green"",""hori"",""left"",[106,-106],[-106,106]]",circle,green,hori,left,"[106,-106]","[-106,106]",left,1,,,,,,001,2025-03-11_20h34.40.941,SL_sali_41,2021.2.3,Win32,60.24096386,1.602,,,9,0,9,0,1,,,,,,,,
,,"[""circle"",""no_dis"",""hori"",""left"",[99999,99999],[0,-150]]",circle,no_dis,hori,left,"[99999,99999]","[0,-150]",left,1,,,,,,001,2025-03-11_20h34.40.941,SL_sali_41,2021.2.3,Win32,60.24096386,1.044,,,10,0,10,0,1,,,,,,,,
,,"[""diamond"",""green"",""hori"",""left"",[0,-150],[106,106]]",diamond,green,hori,left,"[0,-150]","[106,106]",up,0,,,,,,001,2025-03-11_20h34.40.941,SL_sali_41,2021.2.3,Win32,60.24096386,1.0948,,,11,0,11,0,1,,,,,,,,
,,"[""circle"",""red"",""hori"",""left"",[-106,-106],[106,106]]",circle,red,hori,left,"[-106,-106]","[106,106]",left,1,,,,,,001,2025-03-11_20h34.40.941,SL_sali_41,2021.2.3,Win32,60.24096386,1.5967,,,12,0,12,0,1,,,,,,,,
,,"[""diamond"",""red"",""vert"",""up"",[0,150],[-106,-106]]",diamond,red,vert,up,"[0,150]","[-106,-106]",up,1,,,,,,001,2025-03-11_20h34.40.941,SL_sali_41,2021.2.3,Win32,60.24096386,1.1638,,,13,0,13,0,1,,,,,,,,
,,"[""circle"",""no_dis"",""hori"",""left"",[99999,99999],[106,106]]",circle,no_dis,hori,left,"[99999,99999]","[106,106]",left,1,,,,,,001,2025-03-11_20h34.40.941,SL_sali_41,2021.2.3,Win32,60.24096386,1.1676,,,14,0,14,0,1,,,,,,,,
,,"[""diamond"",""red"",""hori"",""left"",[-106,106],[106,-106]]",diamond,red,hori,left,"[-106,106]","[106,-106]",left,1,,,,,,001,2025-03-11_20h34.40.941,SL_sali_41,2021.2.3,Win32,60.24096386,1.2525,,,15,0,15,0,1,,,,,,,,
,,"[""diamond"",""no_dis"",""hori"",""left"",[99999,99999],[0,150]]",diamond,no_dis,hori,left,"[99999,99999]","[0,150]",left,1,,,,,,001,2025-03-11_20h34.40.941,SL_sali_41,2021.2.3,Win32,60.24096386,1.6216,,,16,0,16,0,1,,,,,,,,
,,"[""circle"",""no_dis"",""hori"",""left"",[99999,99999],[-106,106]]",circle,no_dis,hori,left,"[99999,99999]","[-106,106]",left,1,,,,,,001,2025-03-11_20h34.40.941,SL_sali_41,2021.2.3,Win32,60.24096386,1.3397,,,17,0,17,0,1,,,,,,,,
,,"[""circle"",""red"",""vert"",""up"",[0,150],[-106,-106]]",circle,red,vert,up,"[0,150]","[-106,-106]",up,1,,,,,,001,2025-03-11_20h34.40.941,SL_sali_41,2021.2.3,Win32,60.24096386,1.0852,,,18,0,18,0,1,,,,,,,,
,,"[""diamond"",""green"",""vert"",""up"",[-106,106],[0,150]]",diamond,green,vert,up,"[-106,106]","[0,150]",up,1,,,,,,001,2025-03-11_20h34.40.941,SL_sali_41,2021.2.3,Win32,60.24096386,1.6115,,,19,0,19,0,1,,,,,,,,
,,"[""circle"",""no_dis"",""vert"",""up"",[99999,99999],[150,0]]",circle,no_dis,vert,up,"[99999,99999]","[150,0]",up,1,,,,,,001,2025-03-11_20h34.40.941,SL_sali_41,2021.2.3,Win32,60.24096386,1.2073,,,20,0,20,0,1,,,,,,,,
,,"[""circle"",""no_dis"",""hori"",""left"",[99999,99999],[-106,-106]]",circle,no_dis,hori,left,"[99999,99999]","[-106,-106]",left,1,,,,,,001,2025-03-11_20h34.40.941,SL_sali_41,2021.2.3,Win32,60.24096386,1.6528,,,21,0,21,0,1,,,,,,,,
,,"[""circle"",""no_dis"",""vert"",""up"",[99999,99999],[-150,0]]",circle,no_dis,vert,up,"[99999,99999]","[-150,0]",up,1,,,,,,001,2025-03-11_20h34.40.941,SL_sali_41,2021.2.3,Win32,60.24096386,1.0551,,,22,0,22,0,1,,,,,,,,
,,"[""diamond"",""red"",""vert"",""up"",[106,106],[106,-106]]",diamond,red,vert,up,"[106,106]","[106,-106]",up,1,,,,,,001,2025-03-11_20h34.40.941,SL_sali_41,2021.2.3,Win32,60.24096386,1.6389,,,23,0,23,0,1,,,,,,,,
,,"[""diamond"",""no_dis"",""hori"",""left"",[99999,99999],[106,-106]]",diamond,no_dis,hori,left,"[99999,99999]","[106,-106]",left,1,,,,,,001,2025-03-11_20h34.40.941,SL_sali_41,2021.2.3,Win32,60.24096386,1.1175,,,24,0,24,0,1,,,,,,,,
,,"[""diamond"",""green"",""hori"",""left"",[106,106],[106,-106]]",diamond,green,hori,left,"[106,106]","[106,-106]",left,1,,,,,,001,2025-03-11_20h34.40.941,SL_sali_41,2021.2.3,Win32,60.24096386,2.2416,,,25,0,25,0,1,,,,,,,,
,,"[""diamond"",""green"",""vert"",""up"",[0,150],[-106,-106]]",diamond,green,vert,up,"[0,150]","[-106,-106]",up,1,,,,,,001,2025-03-11_20h34.40.941,SL_sali_41,2021.2.3,Win32,60.24096386,1.0671,,,26,0,26,0,1,,,,,,,,
,,"[""circle"",""green"",""vert"",""up"",[-150,0],[-106,106]]",circle,green,vert,up,"[-150,0]","[-106,106]",up,1,,,,,,001,2025-03-11_20h34.40.941,SL_sali_41,2021.2.3,Win32,60.24096386,1.4606,,,27,0,27,0,1,,,,,,,,
,,"[""circle"",""red"",""hori"",""left"",[106,106],[-106,106]]",circle,red,hori,left,"[106,106]","[-106,106]",left,1,,,,,,001,2025-03-11_20h34.40.941,SL_sali_41,2021.2.3,Win32,60.24096386,1.0932,,,28,0,28,0,1,,,,,,,,
,,"[""circle"",""green"",""vert"",""up"",[0,150],[106,-106]]",circle,green,vert,up,"[0,150]","[106,-106]",up,1,,,,,,001,2025-03-11_20h34.40.941,SL_sali_41,2021.2.3,Win32,60.24096386,1.0272,,,29,0,29,0,1,,,,,,,,
,,"[""circle"",""red"",""vert"",""up"",[150,0],[106,106]]",circle,red,vert,up,"[150,0]","[106,106]",up,1,,,,,,001,2025-03-11_20h34.40.941,SL_sali_41,2021.2.3,Win32,60.24096386,1.7526,,,30,0,30,0,1,,,,,,,,
,,"[""diamond"",""red"",""hori"",""left"",[0,150],[0,-150]]",diamond,red,hori,left,"[0,150]","[0,-150]",left,1,,,,,,001,2025-03-11_20h34.40.941,SL_sali_41,2021.2.3,Win32,60.24096386,1.2276,,,31,0,31,0,1,,,,,,,,
,,"[""diamond"",""green"",""hori"",""left"",[106,106],[106,-106]]",diamond,green,hori,left,"[106,106]","[106,-106]",left,1,,,,,,001,2025-03-11_20h34.40.941,SL_sali_41,2021.2.3,Win32,60.24096386,1.2278,,,32,0,32,0,1,,,,,,,,
,,"[""diamond"",""green"",""vert"",""up"",[0,150],[150,0]]",diamond,green,vert,up,"[0,150]","[150,0]",up,1,,,,,,001,2025-03-11_20h34.40.941,SL_sali_41,2021.2.3,Win32,60.24096386,1.2665,,,33,0,33,0,1,,,,,,,,
,,"[""diamond"",""no_dis"",""vert"",""up"",[99999,99999],[-150,0]]",diamond,no_dis,vert,up,"[99999,99999]","[-150,0]",up,1,,,,,,001,2025-03-11_20h34.40.941,SL_sali_41,2021.2.3,Win32,60.24096386,1.2398,,,34,0,34,0,1,,,,,,,,
,,"[""circle"",""green"",""hori"",""left"",[-106,106],[150,0]]",circle,green,hori,left,"[-106,106]","[150,0]",left,1,,,,,,001,2025-03-11_20h34.40.941,SL_sali_41,2021.2.3,Win32,60.24096386,1.6388,,,35,0,35,0,1,,,,,,,,
,,"[""diamond"",""red"",""hori"",""left"",[-106,106],[-150,0]]",diamond,red,hori,left,"[-106,106]","[-150,0]",up,0,,,,,,001,2025-03-11_20h34.40.941,SL_sali_41,2021.2.3,Win32,60.24096386,1.6683,,,36,0,36,0,1,,,,,,,,
,,"[""diamond"",""green"",""hori"",""left"",[0,150],[106,-106]]",diamond,green,hori,left,"[0,150]","[106,-106]",left,1,,,,,,001,2025-03-11_20h34.40.941,SL_sali_41,2021.2.3,Win32,60.24096386,1.1334,,,37,0,37,0,1,,,,,,,,
,,"[""diamond"",""red"",""hori"",""left"",[0,-150],[106,106]]",diamond,red,hori,left,"[0,-150]","[106,106]",left,1,,,,,,001,2025-03-11_20h34.40.941,SL_sali_41,2021.2.3,Win32,60.24096386,1.3919,,,38,0,38,0,1,,,,,,,,
,,"[""circle"",""green"",""hori"",""left"",[106,106],[-150,0]]",circle,green,hori,left,"[106,106]","[-150,0]",left,1,,,,,,001,2025-03-11_20h34.40.941,SL_sali_41,2021.2.3,Win32,60.24096386,1.2414,,,39,0,39,0,1,,,,,,,,
,,"[""diamond"",""red"",""vert"",""up"",[106,106],[-106,-106]]",diamond,red,vert,up,"[106,106]","[-106,-106]",up,1,,,,,,001,2025-03-11_20h34.40.941,SL_sali_41,2021.2.3,Win32,60.24096386,1.4531,,,40,0,40,0,1,,,,,,,,
,,"[""diamond"",""green"",""hori"",""left"",[0,150],[-150,0]]",diamond,green,hori,left,"[0,150]","[-150,0]",left,1,,,,,,001,2025-03-11_20h34.40.941,SL_sali_41,2021.2.3,Win32,60.24096386,1.1676,,,41,0,41,0,1,,,,,,,,
,,"[""circle"",""red"",""hori"",""left"",[0,150],[106,-106]]",circle,red,hori,left,"[0,150]","[106,-106]",left,1,,,,,,001,2025-03-11_20h34.40.941,SL_sali_41,2021.2.3,Win32,60.24096386,0.984,,,42,0,42,0,1,,,,,,,,
,,"[""diamond"",""green"",""vert"",""up"",[150,0],[-150,0]]",diamond,green,vert,up,"[150,0]","[-150,0]",up,1,,,,,,001,2025-03-11_20h34.40.941,SL_sali_41,2021.2.3,Win32,60.24096386,1.0456,,,43,0,43,0,1,,,,,,,,
,,"[""diamond"",""green"",""hori"",""left"",[0,150],[106,106]]",diamond,green,hori,left,"[0,150]","[106,106]",left,1,,,,,,001,2025-03-11_20h34.40.941,SL_sali_41,2021.2.3,Win32,60.24096386,1.1837,,,44,0,44,0,1,,,,,,,,
,,"[""circle"",""green"",""vert"",""up"",[-106,-106],[150,0]]",circle,green,vert,up,"[-106,-106]","[150,0]",up,1,,,,,,001,2025-03-11_20h34.40.941,SL_sali_41,2021.2.3,Win32,60.24096386,1.3799,,,45,0,45,0,1,,,,,,,,
,,"[""circle"",""green"",""hori"",""left"",[0,150],[106,106]]",circle,green,hori,left,"[0,150]","[106,106]",left,1,,,,,,001,2025-03-11_20h34.40.941,SL_sali_41,2021.2.3,Win32,60.24096386,1.304,,,46,0,46,0,1,,,,,,,,
,,"[""diamond"",""no_dis"",""hori"",""left"",[99999,99999],[-106,-106]]",diamond,no_dis,hori,left,"[99999,99999]","[-106,-106]",left,1,,,,,,001,2025-03-11_20h34.40.941,SL_sali_41,2021.2.3,Win32,60.24096386,1.5361,,,47,0,47,0,1,,,,,,,,
,,"[""diamond"",""green"",""hori"",""left"",[150,0],[0,-150]]",diamond,green,hori,left,"[150,0]","[0,-150]",left,1,,,,,,001,2025-03-11_20h34.40.941,SL_sali_41,2021.2.3,Win32,60.24096386,1.0762,,,48,0,48,0,1,,,,,,,,
,,"[""circle"",""no_dis"",""vert"",""up"",[99999,99999],[106,-106]]",circle,no_dis,vert,up,"[99999,99999]","[106,-106]",up,1,,,,,,001,2025-03-11_20h34.40.941,SL_sali_41,2021.2.3,Win32,60.24096386,1.0777,,,49,0,49,0,1,,,,,,,,
,,"[""diamond"",""green"",""hori"",""left"",[0,-150],[106,106]]",diamond,green,hori,left,"[0,-150]","[106,106]",left,1,,,,,,001,2025-03-11_20h34.40.941,SL_sali_41,2021.2.3,Win32,60.24096386,1.4629,,,50,0,50,0,1,,,,,,,,
,,"[""circle"",""no_dis"",""hori"",""left"",[99999,99999],[-150,0]]",circle,no_dis,hori,left,"[99999,99999]","[-150,0]",left,1,,,,,,001,2025-03-11_20h34.40.941,SL_sali_41,2021.2.3,Win32,60.24096386,1.1895,,,51,0,51,0,1,,,,,,,,
,,"[""diamond"",""red"",""vert"",""up"",[0,150],[0,-150]]",diamond,red,vert,up,"[0,150]","[0,-150]",left,0,,,,,,001,2025-03-11_20h34.40.941,SL_sali_41,2021.2.3,Win32,60.24096386,1.5199,,,52,0,52,0,1,,,,,,,,
,,"[""diamond"",""green"",""vert"",""up"",[-150,0],[150,0]]",diamond,green,vert,up,"[-150,0]","[150,0]",up,1,,,,,,001,2025-03-11_20h34.40.941,SL_sali_41,2021.2.3,Win32,60.24096386,1.895,,,53,0,53,0,1,,,,,,,,
,,"[""diamond"",""no_dis"",""vert"",""up"",[99999,99999],[0,-150]]",diamond,no_dis,vert,up,"[99999,99999]","[0,-150]",up,1,,,,,,001,2025-03-11_20h34.40.941,SL_sali_41,2021.2.3,Win32,60.24096386,1.2395,,,54,0,54,0,1,,,,,,,,
,,"[""circle"",""no_dis"",""vert"",""up"",[99999,99999],[-106,-106]]",circle,no_dis,vert,up,"[99999,99999]","[-106,-106]",up,1,,,,,,001,2025-03-11_20h34.40.941,SL_sali_41,2021.2.3,Win32,60.24096386,1.0595,,,55,0,55,0,1,,,,,,,,
,,"[""diamond"",""green"",""vert"",""up"",[106,106],[-150,0]]",diamond,green,vert,up,"[106,106]","[-150,0]",up,1,,,,,,001,2025-03-11_20h34.40.941,SL_sali_41,2021.2.3,Win32,60.24096386,1.6615,,,56,0,56,0,1,,,,,,,,
,,"[""circle"",""no_dis"",""hori"",""left"",[99999,99999],[-106,106]]",circle,no_dis,hori,left,"[99999,99999]","[-106,106]",left,1,,,,,,001,2025-03-11_20h34.40.941,SL_sali_41,2021.2.3,Win32,60.24096386,1.2468,,,57,0,57,0,1,,,,,,,,
,,"[""circle"",""red"",""hori"",""left"",[-106,-106],[-150,0]]",circle,red,hori,left,"[-106,-106]","[-150,0]",left,1,,,,,,001,2025-03-11_20h34.40.941,SL_sali_41,2021.2.3,Win32,60.24096386,2.3126,,,58,0,58,0,1,,,,,,,,
,,"[""circle"",""red"",""hori"",""left"",[150,0],[-106,106]]",circle,red,hori,left,"[150,0]","[-106,106]",left,1,,,,,,001,2025-03-11_20h34.40.941,SL_sali_41,2021.2.3,Win32,60.24096386,1.3225,,,59,0,59,0,1,,,,,,,,
,,"[""diamond"",""green"",""vert"",""up"",[106,-106],[150,0]]",diamond,green,vert,up,"[106,-106]","[150,0]",up,1,,,,,,001,2025-03-11_20h34.40.941,SL_sali_41,2021.2.3,Win32,60.24096386,1.1719,,,60,0,60,0,1,,,,,,,,
,,"[""circle"",""green"",""vert"",""up"",[0,150],[150,0]]",circle,green,vert,up,"[0,150]","[150,0]",up,1,,,,,,001,2025-03-11_20h34.40.941,SL_sali_41,2021.2.3,Win32,60.24096386,1.7888,,,61,0,61,0,1,,,,,,,,
,,"[""circle"",""red"",""hori"",""left"",[0,150],[-106,-106]]",circle,red,hori,left,"[0,150]","[-106,-106]",left,1,,,,,,001,2025-03-11_20h34.40.941,SL_sali_41,2021.2.3,Win32,60.24096386,0.9685,,,62,0,62,0,1,,,,,,,,
,,"[""circle"",""green"",""hori"",""left"",[0,150],[-150,0]]",circle,green,hori,left,"[0,150]","[-150,0]",left,1,,,,,,001,2025-03-11_20h34.40.941,SL_sali_41,2021.2.3,Win32,60.24096386,0.901,,,63,0,63,0,1,,,,,,,,
,,"[""diamond"",""no_dis"",""vert"",""up"",[99999,99999],[0,150]]",diamond,no_dis,vert,up,"[99999,99999]","[0,150]",up,1,,,,,,001,2025-03-11_20h34.40.941,SL_sali_41,2021.2.3,Win32,60.24096386,2.1017,,,64,0,64,0,1,,,,,,,,
,,"[""diamond"",""red"",""hori"",""left"",[0,150],[-150,0]]",diamond,red,hori,left,"[0,150]","[-150,0]",left,1,,,,,,001,2025-03-11_20h34.40.941,SL_sali_41,2021.2.3,Win32,60.24096386,1.4466,,,65,0,65,0,1,,,,,,,,
,,"[""circle"",""no_dis"",""hori"",""left"",[99999,99999],[106,-106]]",circle,no_dis,hori,left,"[99999,99999]","[106,-106]",left,1,,,,,,001,2025-03-11_20h34.40.941,SL_sali_41,2021.2.3,Win32,60.24096386,1.9056,,,66,0,66,0,1,,,,,,,,
,,"[""circle"",""red"",""vert"",""up"",[0,-150],[-150,0]]",circle,red,vert,up,"[0,-150]","[-150,0]",up,1,,,,,,001,2025-03-11_20h34.40.941,SL_sali_41,2021.2.3,Win32,60.24096386,1.4878,,,67,0,67,0,1,,,,,,,,
,,"[""diamond"",""red"",""hori"",""left"",[150,0],[-106,-106]]",diamond,red,hori,left,"[150,0]","[-106,-106]",left,1,,,,,,001,2025-03-11_20h34.40.941,SL_sali_41,2021.2.3,Win32,60.24096386,1.4849,,,68,0,68,0,1,,,,,,,,
,,"[""circle"",""red"",""hori"",""left"",[0,150],[106,106]]",circle,red,hori,left,"[0,150]","[106,106]",left,1,,,,,,001,2025-03-11_20h34.40.941,SL_sali_41,2021.2.3,Win32,60.24096386,1.2859,,,69,0,69,0,1,,,,,,,,
,,"[""circle"",""green"",""hori"",""left"",[0,150],[-150,0]]",circle,green,hori,left,"[0,150]","[-150,0]",left,1,,,,,,001,2025-03-11_20h34.40.941,SL_sali_41,2021.2.3,Win32,60.24096386,1.0521,,,70,0,70,0,1,,,,,,,,
,,"[""diamond"",""no_dis"",""vert"",""up"",[99999,99999],[0,-150]]",diamond,no_dis,vert,up,"[99999,99999]","[0,-150]",up,1,,,,,,001,2025-03-11_20h34.40.941,SL_sali_41,2021.2.3,Win32,60.24096386,1.1453,,,71,0,71,0,1,,,,,,,,
,,"[""diamond"",""red"",""hori"",""left"",[0,150],[0,-150]]",diamond,red,hori,left,"[0,150]","[0,-150]",left,1,,,,,,001,2025-03-11_20h34.40.941,SL_sali_41,2021.2.3,Win32,60.24096386,0.9607,,,72,0,72,0,1,,,,,,,,
,,"[""diamond"",""no_dis"",""vert"",""up"",[99999,99999],[106,106]]",diamond,no_dis,vert,up,"[99999,99999]","[106,106]",up,1,,,,,,001,2025-03-11_20h34.40.941,SL_sali_41,2021.2.3,Win32,60.24096386,1.0158,,,73,0,73,0,1,,,,,,,,
,,"[""diamond"",""green"",""vert"",""up"",[106,-106],[150,0]]",diamond,green,vert,up,"[106,-106]","[150,0]",up,1,,,,,,001,2025-03-11_20h34.40.941,SL_sali_41,2021.2.3,Win32,60.24096386,1.619,,,74,0,74,0,1,,,,,,,,
,,"[""diamond"",""green"",""vert"",""up"",[-106,-106],[-106,106]]",diamond,green,vert,up,"[-106,-106]","[-106,106]",up,1,,,,,,001,2025-03-11_20h34.40.941,SL_sali_41,2021.2.3,Win32,60.24096386,1.021,,,75,0,75,0,1,,,,,,,,
,,"[""diamond"",""red"",""vert"",""up"",[0,150],[106,-106]]",diamond,red,vert,up,"[0,150]","[106,-106]",up,1,,,,,,001,2025-03-11_20h34.40.941,SL_sali_41,2021.2.3,Win32,60.24096386,1.4717,,,76,0,76,0,1,,,,,,,,
,,"[""circle"",""green"",""vert"",""up"",[-150,0],[-106,106]]",circle,green,vert,up,"[-150,0]","[-106,106]",up,1,,,,,,001,2025-03-11_20h34.40.941,SL_sali_41,2021.2.3,Win32,60.24096386,2.5375,,,77,0,77,0,1,,,,,,,,
,,"[""circle"",""red"",""vert"",""up"",[-106,-106],[-150,0]]",circle,red,vert,up,"[-106,-106]","[-150,0]",up,1,,,,,,001,2025-03-11_20h34.40.941,SL_sali_41,2021.2.3,Win32,60.24096386,1.1135,,,78,0,78,0,1,,,,,,,,
,,"[""diamond"",""no_dis"",""vert"",""up"",[99999,99999],[106,-106]]",diamond,no_dis,vert,up,"[99999,99999]","[106,-106]",up,1,,,,,,001,2025-03-11_20h34.40.941,SL_sali_41,2021.2.3,Win32,60.24096386,1.5514,,,79,0,79,0,1,,,,,,,,
,,"[""circle"",""no_dis"",""hori"",""left"",[99999,99999],[0,-150]]",circle,no_dis,hori,left,"[99999,99999]","[0,-150]",left,1,,,,,,001,2025-03-11_20h34.40.941,SL_sali_41,2021.2.3,Win32,60.24096386,0.9551,,,80,0,80,0,1,,,,,,,,
,,"[""circle"",""red"",""vert"",""up"",[-150,0],[0,-150]]",circle,red,vert,up,"[-150,0]","[0,-150]",up,1,,,,,,001,2025-03-11_20h34.40.941,SL_sali_41,2021.2.3,Win32,60.24096386,1.4299,,,81,0,81,0,1,,,,,,,,
,,"[""circle"",""red"",""hori"",""left"",[150,0],[0,150]]",circle,red,hori,left,"[150,0]","[0,150]",left,1,,,,,,001,2025-03-11_20h34.40.941,SL_sali_41,2021.2.3,Win32,60.24096386,1.386,,,82,0,82,0,1,,,,,,,,
,,"[""circle"",""green"",""hori"",""left"",[-106,106],[106,-106]]",circle,green,hori,left,"[-106,106]","[106,-106]",left,1,,,,,,001,2025-03-11_20h34.40.941,SL_sali_41,2021.2.3,Win32,60.24096386,1.0865,,,83,0,83,0,1,,,,,,,,
,,"[""circle"",""red"",""vert"",""up"",[-106,106],[106,-106]]",circle,red,vert,up,"[-106,106]","[106,-106]",up,1,,,,,,001,2025-03-11_20h34.40.941,SL_sali_41,2021.2.3,Win32,60.24096386,0.8929,,,84,0,84,0,1,,,,,,,,
,,"[""circle"",""no_dis"",""vert"",""up"",[99999,99999],[-106,106]]",circle,no_dis,vert,up,"[99999,99999]","[-106,106]",up,1,,,,,,001,2025-03-11_20h34.40.941,SL_sali_41,2021.2.3,Win32,60.24096386,1.1806,,,85,0,85,0,1,,,,,,,,
,,"[""circle"",""red"",""vert"",""up"",[0,150],[106,106]]",circle,red,vert,up,"[0,150]","[106,106]",up,1,,,,,,001,2025-03-11_20h34.40.941,SL_sali_41,2021.2.3,Win32,60.24096386,1.2275,,,86,0,86,0,1,,,,,,,,
,,"[""circle"",""green"",""hori"",""left"",[0,-150],[106,106]]",circle,green,hori,left,"[0,-150]","[106,106]",left,1,,,,,,001,2025-03-11_20h34.40.941,SL_sali_41,2021.2.3,Win32,60.24096386,0.8645,,,87,0,87,0,1,,,,,,,,
,,"[""circle"",""no_dis"",""hori"",""left"",[99999,99999],[-106,106]]",circle,no_dis,hori,left,"[99999,99999]","[-106,106]",left,1,,,,,,001,2025-03-11_20h34.40.941,SL_sali_41,2021.2.3,Win32,60.24096386,1.4529,,,88,0,88,0,1,,,,,,,,
,,"[""circle"",""no_dis"",""vert"",""up"",[99999,99999],[0,150]]",circle,no_dis,vert,up,"[99999,99999]","[0,150]",up,1,,,,,,001,2025-03-11_20h34.40.941,SL_sali_41,2021.2.3,Win32,60.24096386,1.5759,,,89,0,89,0,1,,,,,,,,
,,"[""diamond"",""red"",""vert"",""up"",[0,150],[-106,-106]]",diamond,red,vert,up,"[0,150]","[-106,-106]",up,1,,,,,,001,2025-03-11_20h34.40.941,SL_sali_41,2021.2.3,Win32,60.24096386,2.1183,,,90,0,90,0,1,,,,,,,,
,,"[""diamond"",""red"",""vert"",""up"",[-150,0],[0,150]]",diamond,red,vert,up,"[-150,0]","[0,150]",up,1,,,,,,001,2025-03-11_20h34.40.941,SL_sali_41,2021.2.3,Win32,60.24096386,1.3033,,,91,0,91,0,1,,,,,,,,
,,"[""diamond"",""no_dis"",""vert"",""up"",[99999,99999],[-150,0]]",diamond,no_dis,vert,up,"[99999,99999]","[-150,0]",up,1,,,,,,001,2025-03-11_20h34.40.941,SL_sali_41,2021.2.3,Win32,60.24096386,1.1044,,,92,0,92,0,1,,,,,,,,
,,"[""circle"",""green"",""vert"",""up"",[0,150],[150,0]]",circle,green,vert,up,"[0,150]","[150,0]",up,1,,,,,,001,2025-03-11_20h34.40.941,SL_sali_41,2021.2.3,Win32,60.24096386,2.1805,,,93,0,93,0,1,,,,,,,,
,,"[""diamond"",""no_dis"",""vert"",""up"",[99999,99999],[0,150]]",diamond,no_dis,vert,up,"[99999,99999]","[0,150]",up,1,,,,,,001,2025-03-11_20h34.40.941,SL_sali_41,2021.2.3,Win32,60.24096386,1.5199,,,94,0,94,0,1,,,,,,,,
,,"[""circle"",""no_dis"",""vert"",""up"",[99999,99999],[150,0]]",circle,no_dis,vert,up,"[99999,99999]","[150,0]",up,1,,,,,,001,2025-03-11_20h34.40.941,SL_sali_41,2021.2.3,Win32,60.24096386,1.602,,,95,0,95,0,1,,,,,,,,
,,"[""circle"",""no_dis"",""vert"",""up"",[99999,99999],[-106,-106]]",circle,no_dis,vert,up,"[99999,99999]","[-106,-106]",up,1,,,,,,001,2025-03-11_20h34.40.941,SL_sali_41,2021.2.3,Win32,60.24096386,1.1346,,,96,0,96,0,1,,,,,,,,
,,"[""diamond"",""no_dis"",""hori"",""left"",[99999,99999],[-150,0]]",diamond,no_dis,hori,left,"[99999,99999]","[-150,0]",left,1,,,,,,001,2025-03-11_20h34.40.941,SL_sali_41,2021.2.3,Win32,60.24096386,1.4636,,,97,0,97,0,1,,,,,,,,
,,"[""diamond"",""red"",""hori"",""left"",[-106,106],[0,-150]]",diamond,red,hori,left,"[-106,106]","[0,-150]",left,1,,,,,,001,2025-03-11_20h34.40.941,SL_sali_41,2021.2.3,Win32,60.24096386,1.524,,,98,0,98,0,1,,,,,,,,
,,"[""diamond"",""green"",""vert"",""up"",[-106,106],[0,150]]",diamond,green,vert,up,"[-106,106]","[0,150]",up,1,,,,,,001,2025-03-11_20h34.40.941,SL_sali_41,2021.2.3,Win32,60.24096386,1.1003,,,99,0,99,0,1,,,,,,,,
,,"[""diamond"",""green"",""vert"",""up"",[150,0],[-150,0]]",diamond,green,vert,up,"[150,0]","[-150,0]",up,1,,,,,,001,2025-03-11_20h34.40.941,SL_sali_41,2021.2.3,Win32,60.24096386,1.3624,,,100,0,100,0,1,,,,,,,,
,,"[""circle"",""green"",""vert"",""up"",[-150,0],[0,-150]]",circle,green,vert,up,"[-150,0]","[0,-150]",up,1,,,,,,001,2025-03-11_20h34.40.941,SL_sali_41,2021.2.3,Win32,60.24096386,1.4897,,,101,0,101,0,1,,,,,,,,
,,"[""diamond"",""green"",""hori"",""left"",[0,150],[-150,0]]",diamond,green,hori,left,"[0,150]","[-150,0]",left,1,,,,,,001,2025-03-11_20h34.40.941,SL_sali_41,2021.2.3,Win32,60.24096386,1.241,,,102,0,102,0,1,,,,,,,,
,,"[""circle"",""green"",""hori"",""left"",[106,-106],[0,150]]",circle,green,hori,left,"[106,-106]","[0,150]",left,1,,,,,,001,2025-03-11_20h34.40.941,SL_sali_41,2021.2.3,Win32,60.24096386,1.3366,,,103,0,103,0,1,,,,,,,,
,,"[""diamond"",""no_dis"",""hori"",""left"",[99999,99999],[150,0]]",diamond,no_dis,hori,left,"[99999,99999]","[150,0]",left,1,,,,,,001,2025-03-11_20h34.40.941,SL_sali_41,2021.2.3,Win32,60.24096386,2.28,,,104,0,104,0,1,,,,,,,,
,,"[""circle"",""red"",""hori"",""left"",[106,-106],[0,150]]",circle,red,hori,left,"[106,-106]","[0,150]",left,1,,,,,,001,2025-03-11_20h34.40.941,SL_sali_41,2021.2.3,Win32,60.24096386,1.2912,,,105,0,105,0,1,,,,,,,,
,,"[""circle"",""red"",""vert"",""up"",[-150,0],[-106,106]]",circle,red,vert,up,"[-150,0]","[-106,106]",up,1,,,,,,001,2025-03-11_20h34.40.941,SL_sali_41,2021.2.3,Win32,60.24096386,1.1189,,,106,0,106,0,1,,,,,,,,
,,"[""circle"",""green"",""vert"",""up"",[-106,-106],[0,-150]]",circle,green,vert,up,"[-106,-106]","[0,-150]",up,1,,,,,,001,2025-03-11_20h34.40.941,SL_sali_41,2021.2.3,Win32,60.24096386,1.1016,,,107,0,107,0,1,,,,,,,,
,,"[""diamond"",""no_dis"",""hori"",""left"",[99999,99999],[150,0]]",diamond,no_dis,hori,left,"[99999,99999]","[150,0]",left,1,,,,,,001,2025-03-11_20h34.40.941,SL_sali_41,2021.2.3,Win32,60.24096386,1.2587,,,108,0,108,0,1,,,,,,,,
,,"[""diamond"",""red"",""vert"",""up"",[0,-150],[-150,0]]",diamond,red,vert,up,"[0,-150]","[-150,0]",up,1,,,,,,001,2025-03-11_20h34.40.941,SL_sali_41,2021.2.3,Win32,60.24096386,1.9607,,,109,0,109,0,1,,,,,,,,
,,"[""circle"",""red"",""vert"",""up"",[0,150],[-106,106]]",circle,red,vert,up,"[0,150]","[-106,106]",up,1,,,,,,001,2025-03-11_20h34.40.941,SL_sali_41,2021.2.3,Win32,60.24096386,1.6191,,,110,0,110,0,1,,,,,,,,
,,"[""diamond"",""no_dis"",""hori"",""left"",[99999,99999],[-106,-106]]",diamond,no_dis,hori,left,"[99999,99999]","[-106,-106]",left,1,,,,,,001,2025-03-11_20h34.40.941,SL_sali_41,2021.2.3,Win32,60.24096386,1.3384,,,111,0,111,0,1,,,,,,,,
,,"[""circle"",""green"",""hori"",""left"",[0,150],[-106,-106]]",circle,green,hori,left,"[0,150]","[-106,-106]",left,1,,,,,,001,2025-03-11_20h34.40.941,SL_sali_41,2021.2.3,Win32,60.24096386,0.9558,,,112,0,112,0,1,,,,,,,,
,,"[""circle"",""green"",""vert"",""up"",[106,-106],[0,-150]]",circle,green,vert,up,"[106,-106]","[0,-150]",up,1,,,,,,001,2025-03-11_20h34.40.941,SL_sali_41,2021.2.3,Win32,60.24096386,0.9708,,,113,0,113,0,1,,,,,,,,
,,"[""diamond"",""no_dis"",""vert"",""up"",[99999,99999],[0,150]]",diamond,no_dis,vert,up,"[99999,99999]","[0,150]",up,1,,,,,,001,2025-03-11_20h34.40.941,SL_sali_41,2021.2.3,Win32,60.24096386,1.8051,,,114,0,114,0,1,,,,,,,,
,,"[""circle"",""no_dis"",""vert"",""up"",[99999,99999],[-106,106]]",circle,no_dis,vert,up,"[99999,99999]","[-106,106]",up,1,,,,,,001,2025-03-11_20h34.40.941,SL_sali_41,2021.2.3,Win32,60.24096386,2.2449,,,115,0,115,0,1,,,,,,,,
,,"[""diamond"",""red"",""hori"",""left"",[0,-150],[0,150]]",diamond,red,hori,left,"[0,-150]","[0,150]",left,1,,,,,,001,2025-03-11_20h34.40.941,SL_sali_41,2021.2.3,Win32,60.24096386,1.038,,,116,0,116,0,1,,,,,,,,
,,"[""diamond"",""red"",""vert"",""up"",[-150,0],[-106,106]]",diamond,red,vert,up,"[-150,0]","[-106,106]",left,0,,,,,,001,2025-03-11_20h34.40.941,SL_sali_41,2021.2.3,Win32,60.24096386,1.1616,,,117,0,117,0,1,,,,,,,,
,,"[""circle"",""red"",""hori"",""left"",[106,106],[0,150]]",circle,red,hori,left,"[106,106]","[0,150]",left,1,,,,,,001,2025-03-11_20h34.40.941,SL_sali_41,2021.2.3,Win32,60.24096386,1.2858,,,118,0,118,0,1,,,,,,,,
,,"[""diamond"",""red"",""vert"",""up"",[0,-150],[106,-106]]",diamond,red,vert,up,"[0,-150]","[106,-106]",up,1,,,,,,001,2025-03-11_20h34.40.941,SL_sali_41,2021.2.3,Win32,60.24096386,1.4724,,,119,0,119,0,1,,,,,,,,
,,"[""diamond"",""green"",""hori"",""left"",[0,150],[-150,0]]",diamond,green,hori,left,"[0,150]","[-150,0]",left,1,,,,,,001,2025-03-11_20h34.40.941,SL_sali_41,2021.2.3,Win32,60.24096386,0.9391,,,120,0,120,0,1,,,,,,,,
,,"[""circle"",""no_dis"",""hori"",""left"",[99999,99999],[106,106]]",circle,no_dis,hori,left,"[99999,99999]","[106,106]",left,1,,,,,,001,2025-03-11_20h34.40.941,SL_sali_41,2021.2.3,Win32,60.24096386,0.9844,,,121,0,121,0,1,,,,,,,,
,,"[""diamond"",""no_dis"",""vert"",""up"",[99999,99999],[150,0]]",diamond,no_dis,vert,up,"[99999,99999]","[150,0]",up,1,,,,,,001,2025-03-11_20h34.40.941,SL_sali_41,2021.2.3,Win32,60.24096386,1.2599,,,122,0,122,0,1,,,,,,,,
,,"[""diamond"",""no_dis"",""hori"",""left"",[99999,99999],[106,106]]",diamond,no_dis,hori,left,"[99999,99999]","[106,106]",left,1,,,,,,001,2025-03-11_20h34.40.941,SL_sali_41,2021.2.3,Win32,60.24096386,1.1502,,,123,0,123,0,1,,,,,,,,
,,"[""circle"",""red"",""hori"",""left"",[-106,-106],[0,-150]]",circle,red,hori,left,"[-106,-106]","[0,-150]",up,0,,,,,,001,2025-03-11_20h34.40.941,SL_sali_41,2021.2.3,Win32,60.24096386,1.2571,,,124,0,124,0,1,,,,,,,,
,,"[""circle"",""green"",""hori"",""left"",[106,-106],[0,150]]",circle,green,hori,left,"[106,-106]","[0,150]",left,1,,,,,,001,2025-03-11_20h34.40.941,SL_sali_41,2021.2.3,Win32,60.24096386,1.2618,,,125,0,125,0,1,,,,,,,,
,,"[""diamond"",""no_dis"",""hori"",""left"",[99999,99999],[106,-106]]",diamond,no_dis,hori,left,"[99999,99999]","[106,-106]",left,1,,,,,,001,2025-03-11_20h34.40.941,SL_sali_41,2021.2.3,Win32,60.24096386,1.3076,,,126,0,126,0,1,,,,,,,,
,,"[""diamond"",""green"",""hori"",""left"",[-106,-106],[-150,0]]",diamond,green,hori,left,"[-106,-106]","[-150,0]",left,1,,,,,,001,2025-03-11_20h34.40.941,SL_sali_41,2021.2.3,Win32,60.24096386,1.0342,,,127,0,127,0,1,,,,,,,,
,,,,,,,,,,,,,,,,001,2025-03-11_20h34.40.941,SL_sali_41,2021.2.3,Win32,60.24096386,,,,,,,,,3,space,17.2034,2,0,2,0,1
,,"[""diamond"",""red"",""vert"",""up"",[0,150],[150,0]]",diamond,red,vert,up,"[0,150]","[150,0]",up,1,,,,,,001,2025-03-11_20h34.40.941,SL_sali_41,2021.2.3,Win32,60.24096386,1.3428,,,0,0,0,0,1,,,,,,,,
,,"[""circle"",""green"",""hori"",""left"",[0,150],[106,106]]",circle,green,hori,left,"[0,150]","[106,106]",left,1,,,,,,001,2025-03-11_20h34.40.941,SL_sali_41,2021.2.3,Win32,60.24096386,1.3198,,,1,0,1,0,1,,,,,,,,
,,"[""diamond"",""green"",""hori"",""left"",[0,150],[-150,0]]",diamond,green,hori,left,"[0,150]","[-150,0]",left,1,,,,,,001,2025-03-11_20h34.40.941,SL_sali_41,2021.2.3,Win32,60.24096386,1.243,,,2,0,2,0,1,,,,,,,,
,,"[""diamond"",""no_dis"",""vert"",""up"",[99999,99999],[0,-150]]",diamond,no_dis,vert,up,"[99999,99999]","[0,-150]",up,1,,,,,,001,2025-03-11_20h34.40.941,SL_sali_41,2021.2.3,Win32,60.24096386,1.2709,,,3,0,3,0,1,,,,,,,,
,,"[""diamond"",""no_dis"",""vert"",""up"",[99999,99999],[-150,0]]",diamond,no_dis,vert,up,"[99999,99999]","[-150,0]",up,1,,,,,,001,2025-03-11_20h34.40.941,SL_sali_41,2021.2.3,Win32,60.24096386,1.0386,,,4,0,4,0,1,,,,,,,,
,,"[""diamond"",""no_dis"",""vert"",""up"",[99999,99999],[0,150]]",diamond,no_dis,vert,up,"[99999,99999]","[0,150]",up,1,,,,,,001,2025-03-11_20h34.40.941,SL_sali_41,2021.2.3,Win32,60.24096386,1.4406,,,5,0,5,0,1,,,,,,,,
,,"[""diamond"",""no_dis"",""hori"",""left"",[99999,99999],[106,-106]]",diamond,no_dis,hori,left,"[99999,99999]","[106,-106]",left,1,,,,,,001,2025-03-11_20h34.40.941,SL_sali_41,2021.2.3,Win32,60.24096386,1.3504,,,6,0,6,0,1,,,,,,,,
,,"[""circle"",""red"",""hori"",""left"",[-106,-106],[0,-150]]",circle,red,hori,left,"[-106,-106]","[0,-150]",left,1,,,,,,001,2025-03-11_20h34.40.941,SL_sali_41,2021.2.3,Win32,60.24096386,1.3027,,,7,0,7,0,1,,,,,,,,
,,"[""circle"",""green"",""hori"",""left"",[106,106],[-150,0]]",circle,green,hori,left,"[106,106]","[-150,0]",left,1,,,,,,001,2025-03-11_20h34.40.941,SL_sali_41,2021.2.3,Win32,60.24096386,0.7258,,,8,0,8,0,1,,,,,,,,
,,"[""diamond"",""red"",""hori"",""left"",[-106,106],[106,-106]]",diamond,red,hori,left,"[-106,106]","[106,-106]",left,1,,,,,,001,2025-03-11_20h34.40.941,SL_sali_41,2021.2.3,Win32,60.24096386,1.4683,,,9,0,9,0,1,,,,,,,,
,,"[""circle"",""red"",""vert"",""up"",[150,0],[0,-150]]",circle,red,vert,up,"[150,0]","[0,-150]",up,1,,,,,,001,2025-03-11_20h34.40.941,SL_sali_41,2021.2.3,Win32,60.24096386,0.8536,,,10,0,10,0,1,,,,,,,,
,,"[""diamond"",""no_dis"",""vert"",""up"",[99999,99999],[0,150]]",diamond,no_dis,vert,up,"[99999,99999]","[0,150]",up,1,,,,,,001,2025-03-11_20h34.40.941,SL_sali_41,2021.2.3,Win32,60.24096386,0.9346,,,11,0,11,0,1,,,,,,,,
,,"[""circle"",""red"",""hori"",""left"",[-106,-106],[106,106]]",circle,red,hori,left,"[-106,-106]","[106,106]",left,1,,,,,,001,2025-03-11_20h34.40.941,SL_sali_41,2021.2.3,Win32,60.24096386,0.9742,,,12,0,12,0,1,,,,,,,,
,,"[""diamond"",""red"",""vert"",""up"",[0,-150],[106,-106]]",diamond,red,vert,up,"[0,-150]","[106,-106]",up,1,,,,,,001,2025-03-11_20h34.40.941,SL_sali_41,2021.2.3,Win32,60.24096386,1.7855,,,13,0,13,0,1,,,,,,,,
,,"[""diamond"",""no_dis"",""hori"",""left"",[99999,99999],[150,0]]",diamond,no_dis,hori,left,"[99999,99999]","[150,0]",left,1,,,,,,001,2025-03-11_20h34.40.941,SL_sali_41,2021.2.3,Win32,60.24096386,1.0533,,,14,0,14,0,1,,,,,,,,
,,"[""circle"",""red"",""hori"",""left"",[0,150],[106,-106]]",circle,red,hori,left,"[0,150]","[106,-106]",left,1,,,,,,001,2025-03-11_20h34.40.941,SL_sali_41,2021.2.3,Win32,60.24096386,1.7424,,,15,0,15,0,1,,,,,,,,
,,"[""diamond"",""green"",""hori"",""left"",[150,0],[0,-150]]",diamond,green,hori,left,"[150,0]","[0,-150]",left,1,,,,,,001,2025-03-11_20h34.40.941,SL_sali_41,2021.2.3,Win32,60.24096386,1.1264,,,16,0,16,0,1,,,,,,,,
,,"[""diamond"",""no_dis"",""vert"",""up"",[99999,99999],[150,0]]",diamond,no_dis,vert,up,"[99999,99999]","[150,0]",up,1,,,,,,001,2025-03-11_20h34.40.941,SL_sali_41,2021.2.3,Win32,60.24096386,1.2037,,,17,0,17,0,1,,,,,,,,
,,"[""diamond"",""no_dis"",""vert"",""up"",[99999,99999],[0,-150]]",diamond,no_dis,vert,up,"[99999,99999]","[0,-150]",up,1,,,,,,001,2025-03-11_20h34.40.941,SL_sali_41,2021.2.3,Win32,60.24096386,0.836,,,18,0,18,0,1,,,,,,,,
,,"[""circle"",""green"",""hori"",""left"",[0,150],[-150,0]]",circle,green,hori,left,"[0,150]","[-150,0]",left,1,,,,,,001,2025-03-11_20h34.40.941,SL_sali_41,2021.2.3,Win32,60.24096386,0.9439,,,19,0,19,0,1,,,,,,,,
,,"[""circle"",""green"",""vert"",""up"",[-150,0],[-106,106]]",circle,green,vert,up,"[-150,0]","[-106,106]",up,1,,,,,,001,2025-03-11_20h34.40.941,SL_sali_41,2021.2.3,Win32,60.24096386,1.0719,,,20,0,20,0,1,,,,,,,,
,,"[""circle"",""red"",""vert"",""up"",[0,150],[-106,106]]",circle,red,vert,up,"[0,150]","[-106,106]",up,1,,,,,,001,2025-03-11_20h34.40.941,SL_sali_41,2021.2.3,Win32,60.24096386,1.1137,,,21,0,21,0,1,,,,,,,,
,,"[""diamond"",""red"",""vert"",""up"",[0,150],[0,-150]]",diamond,red,vert,up,"[0,150]","[0,-150]",left,0,,,,,,001,2025-03-11_20h34.40.941,SL_sali_41,2021.2.3,Win32,60.24096386,1.4552,,,22,0,22,0,1,,,,,,,,
,,"[""circle"",""green"",""vert"",""up"",[-106,-106],[0,-150]]",circle,green,vert,up,"[-106,-106]","[0,-150]",up,1,,,,,,001,2025-03-11_20h34.40.941,SL_sali_41,2021.2.3,Win32,60.24096386,0.9019,,,23,0,23,0,1,,,,,,,,
,,"[""diamond"",""no_dis"",""hori"",""left"",[99999,99999],[106,-106]]",diamond,no_dis,hori,left,"[99999,99999]","[106,-106]",left,1,,,,,,001,2025-03-11_20h34.40.941,SL_sali_41,2021.2.3,Win32,60.24096386,1.1174,,,24,0,24,0,1,,,,,,,,
,,"[""circle"",""red"",""hori"",""left"",[150,0],[-106,106]]",circle,red,hori,left,"[150,0]","[-106,106]",left,1,,,,,,001,2025-03-11_20h34.40.941,SL_sali_41,2021.2.3,Win32,60.24096386,0.859,,,25,0,25,0,1,,,,,,,,
,,"[""circle"",""red"",""vert"",""up"",[0,150],[106,106]]",circle,red,vert,up,"[0,150]","[106,106]",up,1,,,,,,001,2025-03-11_20h34.40.941,SL_sali_41,2021.2.3,Win32,60.24096386,1.2077,,,26,0,26,0,1,,,,,,,,
,,"[""circle"",""green"",""hori"",""left"",[0,150],[-150,0]]",circle,green,hori,left,"[0,150]","[-150,0]",left,1,,,,,,001,2025-03-11_20h34.40.941,SL_sali_41,2021.2.3,Win32,60.24096386,0.9957,,,27,0,27,0,1,,,,,,,,
,,"[""circle"",""green"",""vert"",""up"",[0,150],[150,0]]",circle,green,vert,up,"[0,150]","[150,0]",up,1,,,,,,001,2025-03-11_20h34.40.941,SL_sali_41,2021.2.3,Win32,60.24096386,0.7689,,,28,0,28,0,1,,,,,,,,
,,"[""circle"",""no_dis"",""vert"",""up"",[99999,99999],[-150,0]]",circle,no_dis,vert,up,"[99999,99999]","[-150,0]",up,1,,,,,,001,2025-03-11_20h34.40.941,SL_sali_41,2021.2.3,Win32,60.24096386,0.9518,,,29,0,29,0,1,,,,,,,,
,,"[""circle"",""green"",""hori"",""left"",[0,150],[-106,-106]]",circle,green,hori,left,"[0,150]","[-106,-106]",left,1,,,,,,001,2025-03-11_20h34.40.941,SL_sali_41,2021.2.3,Win32,60.24096386,1.1949,,,30,0,30,0,1,,,,,,,,
,,"[""diamond"",""red"",""vert"",""up"",[0,150],[106,-106]]",diamond,red,vert,up,"[0,150]","[106,-106]",up,1,,,,,,001,2025-03-11_20h34.40.941,SL_sali_41,2021.2.3,Win32,60.24096386,1.2434,,,31,0,31,0,1,,,,,,,,
,,"[""circle"",""green"",""vert"",""up"",[106,-106],[0,-150]]",circle,green,vert,up,"[106,-106]","[0,-150]",up,1,,,,,,001,2025-03-11_20h34.40.941,SL_sali_41,2021.2.3,Win32,60.24096386,1.4027,,,32,0,32,0,1,,,,,,,,
,,"[""circle"",""no_dis"",""vert"",""up"",[99999,99999],[-106,-106]]",circle,no_dis,vert,up,"[99999,99999]","[-106,-106]",up,1,,,,,,001,2025-03-11_20h34.40.941,SL_sali_41,2021.2.3,Win32,60.24096386,1.0077,,,33,0,33,0,1,,,,,,,,
,,"[""circle"",""red"",""hori"",""left"",[106,-106],[0,150]]",circle,red,hori,left,"[106,-106]","[0,150]",left,1,,,,,,001,2025-03-11_20h34.40.941,SL_sali_41,2021.2.3,Win32,60.24096386,1.763,,,34,0,34,0,1,,,,,,,,
,,"[""circle"",""green"",""vert"",""up"",[0,150],[-106,106]]",circle,green,vert,up,"[0,150]","[-106,106]",up,1,,,,,,001,2025-03-11_20h34.40.941,SL_sali_41,2021.2.3,Win32,60.24096386,1.1344,,,35,0,35,0,1,,,,,,,,
,,"[""diamond"",""no_dis"",""vert"",""up"",[99999,99999],[106,106]]",diamond,no_dis,vert,up,"[99999,99999]","[106,106]",up,1,,,,,,001,2025-03-11_20h34.40.941,SL_sali_41,2021.2.3,Win32,60.24096386,1.6361,,,36,0,36,0,1,,,,,,,,
,,"[""diamond"",""green"",""hori"",""left"",[-106,-106],[-150,0]]",diamond,green,hori,left,"[-106,-106]","[-150,0]",left,1,,,,,,001,2025-03-11_20h34.40.941,SL_sali_41,2021.2.3,Win32,60.24096386,1.3369,,,37,0,37,0,1,,,,,,,,
,,"[""diamond"",""green"",""hori"",""left"",[0,150],[106,-106]]",diamond,green,hori,left,"[0,150]","[106,-106]",left,1,,,,,,001,2025-03-11_20h34.40.941,SL_sali_41,2021.2.3,Win32,60.24096386,0.8482,,,38,0,38,0,1,,,,,,,,
,,"[""circle"",""no_dis"",""hori"",""left"",[99999,99999],[0,-150]]",circle,no_dis,hori,left,"[99999,99999]","[0,-150]",left,1,,,,,,001,2025-03-11_20h34.40.941,SL_sali_41,2021.2.3,Win32,60.24096386,1.5107,,,39,0,39,0,1,,,,,,,,
,,"[""diamond"",""no_dis"",""hori"",""left"",[99999,99999],[-106,-106]]",diamond,no_dis,hori,left,"[99999,99999]","[-106,-106]",left,1,,,,,,001,2025-03-11_20h34.40.941,SL_sali_41,2021.2.3,Win32,60.24096386,0.8965,,,40,0,40,0,1,,,,,,,,
,,"[""circle"",""green"",""hori"",""left"",[106,-106],[0,150]]",circle,green,hori,left,"[106,-106]","[0,150]",left,1,,,,,,001,2025-03-11_20h34.40.941,SL_sali_41,2021.2.3,Win32,60.24096386,1.3243,,,41,0,41,0,1,,,,,,,,
,,"[""circle"",""no_dis"",""hori"",""left"",[99999,99999],[-106,106]]",circle,no_dis,hori,left,"[99999,99999]","[-106,106]",left,1,,,,,,001,2025-03-11_20h34.40.941,SL_sali_41,2021.2.3,Win32,60.24096386,0.7755,,,42,0,42,0,1,,,,,,,,
,,"[""diamond"",""red"",""hori"",""left"",[0,150],[106,-106]]",diamond,red,hori,left,"[0,150]","[106,-106]",left,1,,,,,,001,2025-03-11_20h34.40.941,SL_sali_41,2021.2.3,Win32,60.24096386,1.3113,,,43,0,43,0,1,,,,,,,,
,,"[""circle"",""no_dis"",""vert"",""up"",[99999,99999],[0,150]]",circle,no_dis,vert,up,"[99999,99999]","[0,150]",up,1,,,,,,001,2025-03-11_20h34.40.941,SL_sali_41,2021.2.3,Win32,60.24096386,0.9202,,,44,0,44,0,1,,,,,,,,
,,"[""circle"",""no_dis"",""vert"",""up"",[99999,99999],[-106,106]]",circle,no_dis,vert,up,"[99999,99999]","[-106,106]",up,1,,,,,,001,2025-03-11_20h34.40.941,SL_sali_41,2021.2.3,Win32,60.24096386,1.011,,,45,0,45,0,1,,,,,,,,
,,"[""circle"",""red"",""hori"",""left"",[106,106],[0,150]]",circle,red,hori,left,"[106,106]","[0,150]",left,1,,,,,,001,2025-03-11_20h34.40.941,SL_sali_41,2021.2.3,Win32,60.24096386,1.137,,,46,0,46,0,1,,,,,,,,
,,"[""diamond"",""no_dis"",""hori"",""left"",[99999,99999],[0,150]]",diamond,no_dis,hori,left,"[99999,99999]","[0,150]",left,1,,,,,,001,2025-03-11_20h34.40.941,SL_sali_41,2021.2.3,Win32,60.24096386,1.8718,,,47,0,47,0,1,,,,,,,,
,,"[""circle"",""green"",""vert"",""up"",[-150,0],[0,-150]]",circle,green,vert,up,"[-150,0]","[0,-150]",up,1,,,,,,001,2025-03-11_20h34.40.941,SL_sali_41,2021.2.3,Win32,60.24096386,1.1871,,,48,0,48,0,1,,,,,,,,
,,"[""circle"",""no_dis"",""vert"",""up"",[99999,99999],[150,0]]",circle,no_dis,vert,up,"[99999,99999]","[150,0]",up,1,,,,,,001,2025-03-11_20h34.40.941,SL_sali_41,2021.2.3,Win32,60.24096386,1.0742,,,49,0,49,0,1,,,,,,,,
,,"[""diamond"",""green"",""vert"",""up"",[150,0],[-150,0]]",diamond,green,vert,up,"[150,0]","[-150,0]",left,0,,,,,,001,2025-03-11_20h34.40.941,SL_sali_41,2021.2.3,Win32,60.24096386,1.1028,,,50,0,50,0,1,,,,,,,,
,,"[""diamond"",""no_dis"",""vert"",""up"",[99999,99999],[0,150]]",diamond,no_dis,vert,up,"[99999,99999]","[0,150]",,0,,,,,,001,2025-03-11_20h34.40.941,SL_sali_41,2021.2.3,Win32,60.24096386,,,,51,0,51,0,1,,,,,,,,
,,"[""diamond"",""green"",""hori"",""left"",[0,-150],[106,106]]",diamond,green,hori,left,"[0,-150]","[106,106]",,0,,,,,,001,2025-03-11_20h34.40.941,SL_sali_41,2021.2.3,Win32,60.24096386,,,,52,0,52,0,1,,,,,,,,
,,"[""circle"",""red"",""vert"",""up"",[150,0],[106,106]]",circle,red,vert,up,"[150,0]","[106,106]",,0,,,,,,001,2025-03-11_20h34.40.941,SL_sali_41,2021.2.3,Win32,60.24096386,,,,53,0,53,0,1,,,,,,,,
,,"[""diamond"",""no_dis"",""hori"",""left"",[99999,99999],[-150,0]]",diamond,no_dis,hori,left,"[99999,99999]","[-150,0]",left,1,,,,,,001,2025-03-11_20h34.40.941,SL_sali_41,2021.2.3,Win32,60.24096386,1.0693,,,54,0,54,0,1,,,,,,,,
,,"[""circle"",""no_dis"",""hori"",""left"",[99999,99999],[-106,106]]",circle,no_dis,hori,left,"[99999,99999]","[-106,106]",up,0,,,,,,001,2025-03-11_20h34.40.941,SL_sali_41,2021.2.3,Win32,60.24096386,2.288,,,55,0,55,0,1,,,,,,,,
,,"[""diamond"",""no_dis"",""hori"",""left"",[99999,99999],[-106,-106]]",diamond,no_dis,hori,left,"[99999,99999]","[-106,-106]",left,1,,,,,,001,2025-03-11_20h34.40.941,SL_sali_41,2021.2.3,Win32,60.24096386,1.0115,,,56,0,56,0,1,,,,,,,,
,,"[""diamond"",""red"",""vert"",""up"",[0,150],[-106,-106]]",diamond,red,vert,up,"[0,150]","[-106,-106]",up,1,,,,,,001,2025-03-11_20h34.40.941,SL_sali_41,2021.2.3,Win32,60.24096386,1.134,,,57,0,57,0,1,,,,,,,,
,,"[""circle"",""no_dis"",""vert"",""up"",[99999,99999],[150,0]]",circle,no_dis,vert,up,"[99999,99999]","[150,0]",up,1,,,,,,001,2025-03-11_20h34.40.941,SL_sali_41,2021.2.3,Win32,60.24096386,1.0684,,,58,0,58,0,1,,,,,,,,
,,"[""diamond"",""green"",""vert"",""up"",[106,-106],[150,0]]",diamond,green,vert,up,"[106,-106]","[150,0]",up,1,,,,,,001,2025-03-11_20h34.40.941,SL_sali_41,2021.2.3,Win32,60.24096386,1.4364,,,59,0,59,0,1,,,,,,,,
,,"[""circle"",""red"",""vert"",""up"",[-150,0],[-106,106]]",circle,red,vert,up,"[-150,0]","[-106,106]",up,1,,,,,,001,2025-03-11_20h34.40.941,SL_sali_41,2021.2.3,Win32,60.24096386,2.0024,,,60,0,60,0,1,,,,,,,,
,,"[""circle"",""red"",""vert"",""up"",[-106,-106],[-150,0]]",circle,red,vert,up,"[-106,-106]","[-150,0]",up,1,,,,,,001,2025-03-11_20h34.40.941,SL_sali_41,2021.2.3,Win32,60.24096386,1.003,,,61,0,61,0,1,,,,,,,,
,,"[""circle"",""green"",""hori"",""left"",[0,-150],[106,106]]",circle,green,hori,left,"[0,-150]","[106,106]",left,1,,,,,,001,2025-03-11_20h34.40.941,SL_sali_41,2021.2.3,Win32,60.24096386,0.9984,,,62,0,62,0,1,,,,,,,,
