﻿key_resp.keys,key_resp.rt,trial_para,tar_shape,dis_color_condi,tar_line,cor_resp,dis_loc,tar_loc,resp.keys,resp.corr,trials.thisRepN,trials.thisTrialN,trials.thisN,trials.thisIndex,trials.ran,participant,date,expName,psychopyVersion,OS,frameRate,resp.rt,key_resp_2.keys,key_resp_2.rt,trials_2.thisRepN,trials_2.thisTrialN,trials_2.thisN,trials_2.thisIndex,trials_2.ran,block_num,key_resp_3.keys,key_resp_3.rt,trials_3.thisRepN,trials_3.thisTrialN,trials_3.thisN,trials_3.thisIndex,trials_3.ran
space,31.1138,"[""circle"",""red"",""hori"",""left"",[0,150],[106,106]]",circle,red,hori,left,"[0,150]","[106,106]",,0,0,0,0,0,1,78906,2025-03-17_12h35.22.047,SL_sali_41,2021.2.3,Win32,59.88023952,,,,,,,,,,,,,,,,
,,"[""circle"",""green"",""hori"",""left"",[-106,-106],[-106,106]]",circle,green,hori,left,"[-106,-106]","[-106,106]",left,1,1,0,1,0,1,78906,2025-03-17_12h35.22.047,SL_sali_41,2021.2.3,Win32,59.88023952,1.7139,,,,,,,,,,,,,,,
,,"[""diamond"",""green"",""hori"",""left"",[150,0],[-106,-106]]",diamond,green,hori,left,"[150,0]","[-106,-106]",left,1,2,0,2,0,1,78906,2025-03-17_12h35.22.047,SL_sali_41,2021.2.3,Win32,59.88023952,1.7465,,,,,,,,,,,,,,,
,,"[""circle"",""red"",""vert"",""up"",[0,-150],[-106,-106]]",circle,red,vert,up,"[0,-150]","[-106,-106]",up,1,3,0,3,0,1,78906,2025-03-17_12h35.22.047,SL_sali_41,2021.2.3,Win32,59.88023952,1.915,,,,,,,,,,,,,,,
,,"[""circle"",""red"",""hori"",""left"",[0,-150],[150,0]]",circle,red,hori,left,"[0,-150]","[150,0]",left,1,4,0,4,0,1,78906,2025-03-17_12h35.22.047,SL_sali_41,2021.2.3,Win32,59.88023952,1.4269,,,,,,,,,,,,,,,
,,"[""diamond"",""no_dis"",""vert"",""up"",[99999,99999],[106,106]]",diamond,no_dis,vert,up,"[99999,99999]","[106,106]",left,0,5,0,5,0,1,78906,2025-03-17_12h35.22.047,SL_sali_41,2021.2.3,Win32,59.88023952,1.5218,,,,,,,,,,,,,,,
,,"[""diamond"",""no_dis"",""hori"",""left"",[99999,99999],[-150,0]]",diamond,no_dis,hori,left,"[99999,99999]","[-150,0]",left,1,6,0,6,0,1,78906,2025-03-17_12h35.22.047,SL_sali_41,2021.2.3,Win32,59.88023952,2.3115,,,,,,,,,,,,,,,
,,"[""circle"",""green"",""vert"",""up"",[106,-106],[-150,0]]",circle,green,vert,up,"[106,-106]","[-150,0]",up,1,7,0,7,0,1,78906,2025-03-17_12h35.22.047,SL_sali_41,2021.2.3,Win32,59.88023952,1.8481,,,,,,,,,,,,,,,
,,"[""diamond"",""red"",""vert"",""up"",[-106,106],[106,-106]]",diamond,red,vert,up,"[-106,106]","[106,-106]",up,1,8,0,8,0,1,78906,2025-03-17_12h35.22.047,SL_sali_41,2021.2.3,Win32,59.88023952,2.1294,,,,,,,,,,,,,,,
,,"[""circle"",""no_dis"",""hori"",""left"",[99999,99999],[150,0]]",circle,no_dis,hori,left,"[99999,99999]","[150,0]",left,1,9,0,9,0,1,78906,2025-03-17_12h35.22.047,SL_sali_41,2021.2.3,Win32,59.88023952,1.1803,,,,,,,,,,,,,,,
,,"[""circle"",""red"",""hori"",""left"",[0,150],[106,106]]",circle,red,hori,left,"[0,150]","[106,106]",left,1,,,,,,78906,2025-03-17_12h35.22.047,SL_sali_41,2021.2.3,Win32,59.88023952,2.0173,space,20.1645,0,0,0,0,1,,,,,,,,
,,"[""circle"",""green"",""hori"",""left"",[-106,-106],[-106,106]]",circle,green,hori,left,"[-106,-106]","[-106,106]",left,1,,,,,,78906,2025-03-17_12h35.22.047,SL_sali_41,2021.2.3,Win32,59.88023952,1.3149,,,1,0,1,0,1,,,,,,,,
,,"[""diamond"",""green"",""hori"",""left"",[150,0],[-106,-106]]",diamond,green,hori,left,"[150,0]","[-106,-106]",left,1,,,,,,78906,2025-03-17_12h35.22.047,SL_sali_41,2021.2.3,Win32,59.88023952,1.8002,,,2,0,2,0,1,,,,,,,,
,,"[""circle"",""red"",""vert"",""up"",[0,-150],[-106,-106]]",circle,red,vert,up,"[0,-150]","[-106,-106]",up,1,,,,,,78906,2025-03-17_12h35.22.047,SL_sali_41,2021.2.3,Win32,59.88023952,1.3753,,,3,0,3,0,1,,,,,,,,
,,"[""circle"",""red"",""hori"",""left"",[0,-150],[150,0]]",circle,red,hori,left,"[0,-150]","[150,0]",left,1,,,,,,78906,2025-03-17_12h35.22.047,SL_sali_41,2021.2.3,Win32,59.88023952,1.016,,,4,0,4,0,1,,,,,,,,
,,"[""diamond"",""no_dis"",""vert"",""up"",[99999,99999],[106,106]]",diamond,no_dis,vert,up,"[99999,99999]","[106,106]",up,1,,,,,,78906,2025-03-17_12h35.22.047,SL_sali_41,2021.2.3,Win32,59.88023952,1.2824,,,5,0,5,0,1,,,,,,,,
,,"[""diamond"",""no_dis"",""hori"",""left"",[99999,99999],[-150,0]]",diamond,no_dis,hori,left,"[99999,99999]","[-150,0]",left,1,,,,,,78906,2025-03-17_12h35.22.047,SL_sali_41,2021.2.3,Win32,59.88023952,1.1792,,,6,0,6,0,1,,,,,,,,
,,"[""circle"",""green"",""vert"",""up"",[106,-106],[-150,0]]",circle,green,vert,up,"[106,-106]","[-150,0]",up,1,,,,,,78906,2025-03-17_12h35.22.047,SL_sali_41,2021.2.3,Win32,59.88023952,1.1318,,,7,0,7,0,1,,,,,,,,
,,"[""diamond"",""red"",""vert"",""up"",[-106,106],[106,-106]]",diamond,red,vert,up,"[-106,106]","[106,-106]",up,1,,,,,,78906,2025-03-17_12h35.22.047,SL_sali_41,2021.2.3,Win32,59.88023952,1.1712,,,8,0,8,0,1,,,,,,,,
,,"[""circle"",""no_dis"",""hori"",""left"",[99999,99999],[150,0]]",circle,no_dis,hori,left,"[99999,99999]","[150,0]",left,1,,,,,,78906,2025-03-17_12h35.22.047,SL_sali_41,2021.2.3,Win32,59.88023952,1.1902,,,9,0,9,0,1,,,,,,,,
,,"[""circle"",""no_dis"",""hori"",""left"",[99999,99999],[150,0]]",circle,no_dis,hori,left,"[99999,99999]","[150,0]",left,1,,,,,,78906,2025-03-17_12h35.22.047,SL_sali_41,2021.2.3,Win32,59.88023952,1.133,,,10,0,10,0,1,,,,,,,,
,,"[""circle"",""green"",""hori"",""left"",[-150,0],[106,-106]]",circle,green,hori,left,"[-150,0]","[106,-106]",left,1,,,,,,78906,2025-03-17_12h35.22.047,SL_sali_41,2021.2.3,Win32,59.88023952,1.2346,,,11,0,11,0,1,,,,,,,,
,,"[""diamond"",""red"",""hori"",""left"",[150,0],[-150,0]]",diamond,red,hori,left,"[150,0]","[-150,0]",left,1,,,,,,78906,2025-03-17_12h35.22.047,SL_sali_41,2021.2.3,Win32,59.88023952,1.187,,,12,0,12,0,1,,,,,,,,
,,"[""diamond"",""red"",""hori"",""left"",[0,150],[-106,106]]",diamond,red,hori,left,"[0,150]","[-106,106]",left,1,,,,,,78906,2025-03-17_12h35.22.047,SL_sali_41,2021.2.3,Win32,59.88023952,2.098,,,13,0,13,0,1,,,,,,,,
,,"[""diamond"",""green"",""hori"",""left"",[106,106],[0,-150]]",diamond,green,hori,left,"[106,106]","[0,-150]",left,1,,,,,,78906,2025-03-17_12h35.22.047,SL_sali_41,2021.2.3,Win32,59.88023952,1.0716,,,14,0,14,0,1,,,,,,,,
,,"[""diamond"",""green"",""vert"",""up"",[106,-106],[0,-150]]",diamond,green,vert,up,"[106,-106]","[0,-150]",up,1,,,,,,78906,2025-03-17_12h35.22.047,SL_sali_41,2021.2.3,Win32,59.88023952,1.772,,,15,0,15,0,1,,,,,,,,
,,"[""diamond"",""green"",""vert"",""up"",[0,150],[-106,106]]",diamond,green,vert,up,"[0,150]","[-106,106]",up,1,,,,,,78906,2025-03-17_12h35.22.047,SL_sali_41,2021.2.3,Win32,59.88023952,1.0335,,,16,0,16,0,1,,,,,,,,
,,"[""circle"",""no_dis"",""hori"",""left"",[99999,99999],[-150,0]]",circle,no_dis,hori,left,"[99999,99999]","[-150,0]",left,1,,,,,,78906,2025-03-17_12h35.22.047,SL_sali_41,2021.2.3,Win32,59.88023952,0.9887,,,17,0,17,0,1,,,,,,,,
,,"[""circle"",""no_dis"",""vert"",""up"",[99999,99999],[0,150]]",circle,no_dis,vert,up,"[99999,99999]","[0,150]",up,1,,,,,,78906,2025-03-17_12h35.22.047,SL_sali_41,2021.2.3,Win32,59.88023952,1.2061,,,18,0,18,0,1,,,,,,,,
,,"[""diamond"",""no_dis"",""hori"",""left"",[99999,99999],[106,106]]",diamond,no_dis,hori,left,"[99999,99999]","[106,106]",left,1,,,,,,78906,2025-03-17_12h35.22.047,SL_sali_41,2021.2.3,Win32,59.88023952,1.2988,,,19,0,19,0,1,,,,,,,,
,,"[""diamond"",""red"",""vert"",""up"",[106,106],[106,-106]]",diamond,red,vert,up,"[106,106]","[106,-106]",up,1,,,,,,78906,2025-03-17_12h35.22.047,SL_sali_41,2021.2.3,Win32,59.88023952,1.0859,,,20,0,20,0,1,,,,,,,,
,,"[""circle"",""red"",""hori"",""left"",[0,-150],[106,106]]",circle,red,hori,left,"[0,-150]","[106,106]",left,1,,,,,,78906,2025-03-17_12h35.22.047,SL_sali_41,2021.2.3,Win32,59.88023952,0.947,,,21,0,21,0,1,,,,,,,,
,,"[""circle"",""green"",""hori"",""left"",[-106,106],[0,150]]",circle,green,hori,left,"[-106,106]","[0,150]",left,1,,,,,,78906,2025-03-17_12h35.22.047,SL_sali_41,2021.2.3,Win32,59.88023952,1.3328,,,22,0,22,0,1,,,,,,,,
,,"[""diamond"",""no_dis"",""vert"",""up"",[99999,99999],[0,-150]]",diamond,no_dis,vert,up,"[99999,99999]","[0,-150]",up,1,,,,,,78906,2025-03-17_12h35.22.047,SL_sali_41,2021.2.3,Win32,59.88023952,0.9576,,,23,0,23,0,1,,,,,,,,
,,"[""diamond"",""red"",""vert"",""up"",[106,-106],[-106,106]]",diamond,red,vert,up,"[106,-106]","[-106,106]",up,1,,,,,,78906,2025-03-17_12h35.22.047,SL_sali_41,2021.2.3,Win32,59.88023952,0.8724,,,24,0,24,0,1,,,,,,,,
,,"[""circle"",""green"",""hori"",""left"",[-150,0],[106,-106]]",circle,green,hori,left,"[-150,0]","[106,-106]",left,1,,,,,,78906,2025-03-17_12h35.22.047,SL_sali_41,2021.2.3,Win32,59.88023952,0.8827,,,25,0,25,0,1,,,,,,,,
,,"[""diamond"",""red"",""vert"",""up"",[0,150],[106,-106]]",diamond,red,vert,up,"[0,150]","[106,-106]",up,1,,,,,,78906,2025-03-17_12h35.22.047,SL_sali_41,2021.2.3,Win32,59.88023952,0.9906,,,26,0,26,0,1,,,,,,,,
,,"[""circle"",""red"",""hori"",""left"",[0,-150],[106,106]]",circle,red,hori,left,"[0,-150]","[106,106]",left,1,,,,,,78906,2025-03-17_12h35.22.047,SL_sali_41,2021.2.3,Win32,59.88023952,0.8663,,,27,0,27,0,1,,,,,,,,
,,"[""circle"",""no_dis"",""hori"",""left"",[99999,99999],[106,106]]",circle,no_dis,hori,left,"[99999,99999]","[106,106]",left,1,,,,,,78906,2025-03-17_12h35.22.047,SL_sali_41,2021.2.3,Win32,59.88023952,1.4433,,,28,0,28,0,1,,,,,,,,
,,"[""diamond"",""no_dis"",""hori"",""left"",[99999,99999],[106,106]]",diamond,no_dis,hori,left,"[99999,99999]","[106,106]",left,1,,,,,,78906,2025-03-17_12h35.22.047,SL_sali_41,2021.2.3,Win32,59.88023952,1.0894,,,29,0,29,0,1,,,,,,,,
,,"[""diamond"",""red"",""hori"",""left"",[-106,-106],[0,-150]]",diamond,red,hori,left,"[-106,-106]","[0,-150]",left,1,,,,,,78906,2025-03-17_12h35.22.047,SL_sali_41,2021.2.3,Win32,59.88023952,1.0645,,,30,0,30,0,1,,,,,,,,
,,"[""diamond"",""no_dis"",""hori"",""left"",[99999,99999],[-106,-106]]",diamond,no_dis,hori,left,"[99999,99999]","[-106,-106]",left,1,,,,,,78906,2025-03-17_12h35.22.047,SL_sali_41,2021.2.3,Win32,59.88023952,1.4466,,,31,0,31,0,1,,,,,,,,
,,"[""circle"",""no_dis"",""vert"",""up"",[99999,99999],[-106,-106]]",circle,no_dis,vert,up,"[99999,99999]","[-106,-106]",up,1,,,,,,78906,2025-03-17_12h35.22.047,SL_sali_41,2021.2.3,Win32,59.88023952,0.9371,,,32,0,32,0,1,,,,,,,,
,,"[""circle"",""red"",""vert"",""up"",[-106,-106],[-106,106]]",circle,red,vert,up,"[-106,-106]","[-106,106]",up,1,,,,,,78906,2025-03-17_12h35.22.047,SL_sali_41,2021.2.3,Win32,59.88023952,1.1271,,,33,0,33,0,1,,,,,,,,
,,"[""circle"",""green"",""vert"",""up"",[0,-150],[0,150]]",circle,green,vert,up,"[0,-150]","[0,150]",up,1,,,,,,78906,2025-03-17_12h35.22.047,SL_sali_41,2021.2.3,Win32,59.88023952,0.7593,,,34,0,34,0,1,,,,,,,,
,,"[""circle"",""green"",""hori"",""left"",[0,150],[-106,-106]]",circle,green,hori,left,"[0,150]","[-106,-106]",left,1,,,,,,78906,2025-03-17_12h35.22.047,SL_sali_41,2021.2.3,Win32,59.88023952,0.8896,,,35,0,35,0,1,,,,,,,,
,,"[""circle"",""red"",""vert"",""up"",[-150,0],[106,-106]]",circle,red,vert,up,"[-150,0]","[106,-106]",up,1,,,,,,78906,2025-03-17_12h35.22.047,SL_sali_41,2021.2.3,Win32,59.88023952,0.8265,,,36,0,36,0,1,,,,,,,,
,,"[""circle"",""green"",""hori"",""left"",[0,150],[106,-106]]",circle,green,hori,left,"[0,150]","[106,-106]",left,1,,,,,,78906,2025-03-17_12h35.22.047,SL_sali_41,2021.2.3,Win32,59.88023952,0.9504,,,37,0,37,0,1,,,,,,,,
,,"[""circle"",""red"",""hori"",""left"",[106,-106],[106,106]]",circle,red,hori,left,"[106,-106]","[106,106]",left,1,,,,,,78906,2025-03-17_12h35.22.047,SL_sali_41,2021.2.3,Win32,59.88023952,0.9857,,,38,0,38,0,1,,,,,,,,
,,"[""diamond"",""no_dis"",""hori"",""left"",[99999,99999],[0,150]]",diamond,no_dis,hori,left,"[99999,99999]","[0,150]",left,1,,,,,,78906,2025-03-17_12h35.22.047,SL_sali_41,2021.2.3,Win32,59.88023952,1.4495,,,39,0,39,0,1,,,,,,,,
,,"[""diamond"",""green"",""hori"",""left"",[0,150],[-106,-106]]",diamond,green,hori,left,"[0,150]","[-106,-106]",left,1,,,,,,78906,2025-03-17_12h35.22.047,SL_sali_41,2021.2.3,Win32,59.88023952,1.2086,,,40,0,40,0,1,,,,,,,,
,,"[""diamond"",""green"",""hori"",""left"",[0,150],[0,-150]]",diamond,green,hori,left,"[0,150]","[0,-150]",left,1,,,,,,78906,2025-03-17_12h35.22.047,SL_sali_41,2021.2.3,Win32,59.88023952,1.0551,,,41,0,41,0,1,,,,,,,,
,,"[""circle"",""red"",""vert"",""up"",[106,106],[0,-150]]",circle,red,vert,up,"[106,106]","[0,-150]",up,1,,,,,,78906,2025-03-17_12h35.22.047,SL_sali_41,2021.2.3,Win32,59.88023952,0.9654,,,42,0,42,0,1,,,,,,,,
,,"[""circle"",""no_dis"",""vert"",""up"",[99999,99999],[-106,106]]",circle,no_dis,vert,up,"[99999,99999]","[-106,106]",up,1,,,,,,78906,2025-03-17_12h35.22.047,SL_sali_41,2021.2.3,Win32,59.88023952,0.7664,,,43,0,43,0,1,,,,,,,,
,,"[""diamond"",""green"",""vert"",""up"",[-106,106],[106,-106]]",diamond,green,vert,up,"[-106,106]","[106,-106]",up,1,,,,,,78906,2025-03-17_12h35.22.047,SL_sali_41,2021.2.3,Win32,59.88023952,0.9927,,,44,0,44,0,1,,,,,,,,
,,"[""circle"",""red"",""vert"",""up"",[-150,0],[-106,-106]]",circle,red,vert,up,"[-150,0]","[-106,-106]",up,1,,,,,,78906,2025-03-17_12h35.22.047,SL_sali_41,2021.2.3,Win32,59.88023952,0.9603,,,45,0,45,0,1,,,,,,,,
,,"[""diamond"",""green"",""vert"",""up"",[0,150],[-106,106]]",diamond,green,vert,up,"[0,150]","[-106,106]",up,1,,,,,,78906,2025-03-17_12h35.22.047,SL_sali_41,2021.2.3,Win32,59.88023952,1.3852,,,46,0,46,0,1,,,,,,,,
,,"[""circle"",""green"",""vert"",""up"",[-106,106],[106,-106]]",circle,green,vert,up,"[-106,106]","[106,-106]",up,1,,,,,,78906,2025-03-17_12h35.22.047,SL_sali_41,2021.2.3,Win32,59.88023952,1.1026,,,47,0,47,0,1,,,,,,,,
,,"[""circle"",""red"",""vert"",""up"",[0,150],[150,0]]",circle,red,vert,up,"[0,150]","[150,0]",up,1,,,,,,78906,2025-03-17_12h35.22.047,SL_sali_41,2021.2.3,Win32,59.88023952,0.8312,,,48,0,48,0,1,,,,,,,,
,,"[""circle"",""no_dis"",""hori"",""left"",[99999,99999],[-150,0]]",circle,no_dis,hori,left,"[99999,99999]","[-150,0]",left,1,,,,,,78906,2025-03-17_12h35.22.047,SL_sali_41,2021.2.3,Win32,59.88023952,0.7657,,,49,0,49,0,1,,,,,,,,
,,"[""circle"",""red"",""vert"",""up"",[-150,0],[0,150]]",circle,red,vert,up,"[-150,0]","[0,150]",up,1,,,,,,78906,2025-03-17_12h35.22.047,SL_sali_41,2021.2.3,Win32,59.88023952,0.7273,,,50,0,50,0,1,,,,,,,,
,,"[""diamond"",""no_dis"",""vert"",""up"",[99999,99999],[-106,106]]",diamond,no_dis,vert,up,"[99999,99999]","[-106,106]",up,1,,,,,,78906,2025-03-17_12h35.22.047,SL_sali_41,2021.2.3,Win32,59.88023952,0.9478,,,51,0,51,0,1,,,,,,,,
,,"[""diamond"",""green"",""vert"",""up"",[-106,-106],[0,-150]]",diamond,green,vert,up,"[-106,-106]","[0,-150]",up,1,,,,,,78906,2025-03-17_12h35.22.047,SL_sali_41,2021.2.3,Win32,59.88023952,1.2062,,,52,0,52,0,1,,,,,,,,
,,"[""circle"",""no_dis"",""vert"",""up"",[99999,99999],[106,-106]]",circle,no_dis,vert,up,"[99999,99999]","[106,-106]",up,1,,,,,,78906,2025-03-17_12h35.22.047,SL_sali_41,2021.2.3,Win32,59.88023952,1.9322,,,53,0,53,0,1,,,,,,,,
,,"[""circle"",""green"",""hori"",""left"",[0,150],[-106,106]]",circle,green,hori,left,"[0,150]","[-106,106]",left,1,,,,,,78906,2025-03-17_12h35.22.047,SL_sali_41,2021.2.3,Win32,59.88023952,1.1864,,,54,0,54,0,1,,,,,,,,
,,"[""diamond"",""green"",""hori"",""left"",[0,150],[106,106]]",diamond,green,hori,left,"[0,150]","[106,106]",left,1,,,,,,78906,2025-03-17_12h35.22.047,SL_sali_41,2021.2.3,Win32,59.88023952,1.6331,,,55,0,55,0,1,,,,,,,,
,,"[""diamond"",""green"",""vert"",""up"",[-150,0],[0,150]]",diamond,green,vert,up,"[-150,0]","[0,150]",up,1,,,,,,78906,2025-03-17_12h35.22.047,SL_sali_41,2021.2.3,Win32,59.88023952,1.6148,,,56,0,56,0,1,,,,,,,,
,,"[""circle"",""no_dis"",""vert"",""up"",[99999,99999],[-150,0]]",circle,no_dis,vert,up,"[99999,99999]","[-150,0]",up,1,,,,,,78906,2025-03-17_12h35.22.047,SL_sali_41,2021.2.3,Win32,59.88023952,1.1481,,,57,0,57,0,1,,,,,,,,
,,"[""diamond"",""no_dis"",""vert"",""up"",[99999,99999],[0,-150]]",diamond,no_dis,vert,up,"[99999,99999]","[0,-150]",up,1,,,,,,78906,2025-03-17_12h35.22.047,SL_sali_41,2021.2.3,Win32,59.88023952,1.3924,,,58,0,58,0,1,,,,,,,,
,,"[""diamond"",""red"",""hori"",""left"",[106,-106],[150,0]]",diamond,red,hori,left,"[106,-106]","[150,0]",left,1,,,,,,78906,2025-03-17_12h35.22.047,SL_sali_41,2021.2.3,Win32,59.88023952,1.067,,,59,0,59,0,1,,,,,,,,
,,"[""diamond"",""green"",""vert"",""up"",[0,-150],[0,150]]",diamond,green,vert,up,"[0,-150]","[0,150]",up,1,,,,,,78906,2025-03-17_12h35.22.047,SL_sali_41,2021.2.3,Win32,59.88023952,1.047,,,60,0,60,0,1,,,,,,,,
,,"[""circle"",""green"",""vert"",""up"",[0,150],[0,-150]]",circle,green,vert,up,"[0,150]","[0,-150]",up,1,,,,,,78906,2025-03-17_12h35.22.047,SL_sali_41,2021.2.3,Win32,59.88023952,1.1317,,,61,0,61,0,1,,,,,,,,
,,"[""diamond"",""green"",""vert"",""up"",[150,0],[0,150]]",diamond,green,vert,up,"[150,0]","[0,150]",up,1,,,,,,78906,2025-03-17_12h35.22.047,SL_sali_41,2021.2.3,Win32,59.88023952,1.0549,,,62,0,62,0,1,,,,,,,,
,,"[""circle"",""no_dis"",""vert"",""up"",[99999,99999],[150,0]]",circle,no_dis,vert,up,"[99999,99999]","[150,0]",up,1,,,,,,78906,2025-03-17_12h35.22.047,SL_sali_41,2021.2.3,Win32,59.88023952,0.8645,,,63,0,63,0,1,,,,,,,,
,,"[""circle"",""red"",""hori"",""left"",[-106,106],[0,-150]]",circle,red,hori,left,"[-106,106]","[0,-150]",left,1,,,,,,78906,2025-03-17_12h35.22.047,SL_sali_41,2021.2.3,Win32,59.88023952,1.0197,,,64,0,64,0,1,,,,,,,,
,,"[""diamond"",""no_dis"",""vert"",""up"",[99999,99999],[0,-150]]",diamond,no_dis,vert,up,"[99999,99999]","[0,-150]",up,1,,,,,,78906,2025-03-17_12h35.22.047,SL_sali_41,2021.2.3,Win32,59.88023952,0.9734,,,65,0,65,0,1,,,,,,,,
,,"[""circle"",""no_dis"",""hori"",""left"",[99999,99999],[-150,0]]",circle,no_dis,hori,left,"[99999,99999]","[-150,0]",left,1,,,,,,78906,2025-03-17_12h35.22.047,SL_sali_41,2021.2.3,Win32,59.88023952,0.8832,,,66,0,66,0,1,,,,,,,,
,,"[""circle"",""green"",""vert"",""up"",[-150,0],[106,106]]",circle,green,vert,up,"[-150,0]","[106,106]",up,1,,,,,,78906,2025-03-17_12h35.22.047,SL_sali_41,2021.2.3,Win32,59.88023952,0.9085,,,67,0,67,0,1,,,,,,,,
,,"[""diamond"",""red"",""vert"",""up"",[0,-150],[-150,0]]",diamond,red,vert,up,"[0,-150]","[-150,0]",up,1,,,,,,78906,2025-03-17_12h35.22.047,SL_sali_41,2021.2.3,Win32,59.88023952,0.9931,,,68,0,68,0,1,,,,,,,,
,,"[""diamond"",""red"",""vert"",""up"",[-106,-106],[0,150]]",diamond,red,vert,up,"[-106,-106]","[0,150]",up,1,,,,,,78906,2025-03-17_12h35.22.047,SL_sali_41,2021.2.3,Win32,59.88023952,0.9151,,,69,0,69,0,1,,,,,,,,
,,"[""diamond"",""green"",""vert"",""up"",[150,0],[-106,-106]]",diamond,green,vert,up,"[150,0]","[-106,-106]",up,1,,,,,,78906,2025-03-17_12h35.22.047,SL_sali_41,2021.2.3,Win32,59.88023952,1.0237,,,70,0,70,0,1,,,,,,,,
,,"[""diamond"",""no_dis"",""vert"",""up"",[99999,99999],[106,-106]]",diamond,no_dis,vert,up,"[99999,99999]","[106,-106]",up,1,,,,,,78906,2025-03-17_12h35.22.047,SL_sali_41,2021.2.3,Win32,59.88023952,1.0814,,,71,0,71,0,1,,,,,,,,
,,"[""diamond"",""no_dis"",""hori"",""left"",[99999,99999],[0,-150]]",diamond,no_dis,hori,left,"[99999,99999]","[0,-150]",left,1,,,,,,78906,2025-03-17_12h35.22.047,SL_sali_41,2021.2.3,Win32,59.88023952,0.9078,,,72,0,72,0,1,,,,,,,,
,,"[""diamond"",""green"",""vert"",""up"",[-106,-106],[150,0]]",diamond,green,vert,up,"[-106,-106]","[150,0]",up,1,,,,,,78906,2025-03-17_12h35.22.047,SL_sali_41,2021.2.3,Win32,59.88023952,0.9168,,,73,0,73,0,1,,,,,,,,
,,"[""diamond"",""no_dis"",""vert"",""up"",[99999,99999],[0,-150]]",diamond,no_dis,vert,up,"[99999,99999]","[0,-150]",up,1,,,,,,78906,2025-03-17_12h35.22.047,SL_sali_41,2021.2.3,Win32,59.88023952,0.8408,,,74,0,74,0,1,,,,,,,,
,,"[""diamond"",""green"",""hori"",""left"",[-106,-106],[-106,106]]",diamond,green,hori,left,"[-106,-106]","[-106,106]",left,1,,,,,,78906,2025-03-17_12h35.22.047,SL_sali_41,2021.2.3,Win32,59.88023952,1.068,,,75,0,75,0,1,,,,,,,,
,,"[""circle"",""no_dis"",""hori"",""left"",[99999,99999],[-106,106]]",circle,no_dis,hori,left,"[99999,99999]","[-106,106]",left,1,,,,,,78906,2025-03-17_12h35.22.047,SL_sali_41,2021.2.3,Win32,59.88023952,1.2733,,,76,0,76,0,1,,,,,,,,
,,"[""circle"",""green"",""hori"",""left"",[-106,106],[0,-150]]",circle,green,hori,left,"[-106,106]","[0,-150]",left,1,,,,,,78906,2025-03-17_12h35.22.047,SL_sali_41,2021.2.3,Win32,59.88023952,0.8929,,,77,0,77,0,1,,,,,,,,
,,"[""circle"",""red"",""vert"",""up"",[-150,0],[0,-150]]",circle,red,vert,up,"[-150,0]","[0,-150]",up,1,,,,,,78906,2025-03-17_12h35.22.047,SL_sali_41,2021.2.3,Win32,59.88023952,0.7733,,,78,0,78,0,1,,,,,,,,
,,"[""circle"",""green"",""hori"",""left"",[0,150],[-106,-106]]",circle,green,hori,left,"[0,150]","[-106,-106]",up,0,,,,,,78906,2025-03-17_12h35.22.047,SL_sali_41,2021.2.3,Win32,59.88023952,0.8717,,,79,0,79,0,1,,,,,,,,
,,"[""circle"",""red"",""hori"",""left"",[-106,106],[0,150]]",circle,red,hori,left,"[-106,106]","[0,150]",up,0,,,,,,78906,2025-03-17_12h35.22.047,SL_sali_41,2021.2.3,Win32,59.88023952,1.7024,,,80,0,80,0,1,,,,,,,,
,,"[""diamond"",""red"",""vert"",""up"",[0,150],[106,-106]]",diamond,red,vert,up,"[0,150]","[106,-106]",up,1,,,,,,78906,2025-03-17_12h35.22.047,SL_sali_41,2021.2.3,Win32,59.88023952,1.4661,,,81,0,81,0,1,,,,,,,,
,,"[""circle"",""green"",""hori"",""left"",[0,150],[106,-106]]",circle,green,hori,left,"[0,150]","[106,-106]",left,1,,,,,,78906,2025-03-17_12h35.22.047,SL_sali_41,2021.2.3,Win32,59.88023952,1.2049,,,82,0,82,0,1,,,,,,,,
,,"[""circle"",""green"",""vert"",""up"",[0,150],[-150,0]]",circle,green,vert,up,"[0,150]","[-150,0]",up,1,,,,,,78906,2025-03-17_12h35.22.047,SL_sali_41,2021.2.3,Win32,59.88023952,0.9211,,,83,0,83,0,1,,,,,,,,
,,"[""diamond"",""green"",""hori"",""left"",[0,150],[106,-106]]",diamond,green,hori,left,"[0,150]","[106,-106]",left,1,,,,,,78906,2025-03-17_12h35.22.047,SL_sali_41,2021.2.3,Win32,59.88023952,1.1426,,,84,0,84,0,1,,,,,,,,
,,"[""circle"",""red"",""hori"",""left"",[0,150],[-106,-106]]",circle,red,hori,left,"[0,150]","[-106,-106]",left,1,,,,,,78906,2025-03-17_12h35.22.047,SL_sali_41,2021.2.3,Win32,59.88023952,1.1074,,,85,0,85,0,1,,,,,,,,
,,"[""circle"",""green"",""vert"",""up"",[106,106],[0,-150]]",circle,green,vert,up,"[106,106]","[0,-150]",up,1,,,,,,78906,2025-03-17_12h35.22.047,SL_sali_41,2021.2.3,Win32,59.88023952,0.8698,,,86,0,86,0,1,,,,,,,,
,,"[""circle"",""green"",""vert"",""up"",[0,150],[0,-150]]",circle,green,vert,up,"[0,150]","[0,-150]",up,1,,,,,,78906,2025-03-17_12h35.22.047,SL_sali_41,2021.2.3,Win32,59.88023952,0.8075,,,87,0,87,0,1,,,,,,,,
,,"[""circle"",""no_dis"",""hori"",""left"",[99999,99999],[-106,106]]",circle,no_dis,hori,left,"[99999,99999]","[-106,106]",left,1,,,,,,78906,2025-03-17_12h35.22.047,SL_sali_41,2021.2.3,Win32,59.88023952,0.7976,,,88,0,88,0,1,,,,,,,,
,,"[""circle"",""no_dis"",""hori"",""left"",[99999,99999],[-106,-106]]",circle,no_dis,hori,left,"[99999,99999]","[-106,-106]",left,1,,,,,,78906,2025-03-17_12h35.22.047,SL_sali_41,2021.2.3,Win32,59.88023952,0.8532,,,89,0,89,0,1,,,,,,,,
,,"[""circle"",""green"",""vert"",""up"",[-106,106],[0,150]]",circle,green,vert,up,"[-106,106]","[0,150]",up,1,,,,,,78906,2025-03-17_12h35.22.047,SL_sali_41,2021.2.3,Win32,59.88023952,1.3513,,,90,0,90,0,1,,,,,,,,
,,"[""diamond"",""no_dis"",""hori"",""left"",[99999,99999],[150,0]]",diamond,no_dis,hori,left,"[99999,99999]","[150,0]",left,1,,,,,,78906,2025-03-17_12h35.22.047,SL_sali_41,2021.2.3,Win32,59.88023952,0.9977,,,91,0,91,0,1,,,,,,,,
,,"[""circle"",""red"",""hori"",""left"",[0,150],[-150,0]]",circle,red,hori,left,"[0,150]","[-150,0]",left,1,,,,,,78906,2025-03-17_12h35.22.047,SL_sali_41,2021.2.3,Win32,59.88023952,0.8832,,,92,0,92,0,1,,,,,,,,
,,"[""diamond"",""red"",""vert"",""up"",[0,150],[106,-106]]",diamond,red,vert,up,"[0,150]","[106,-106]",up,1,,,,,,78906,2025-03-17_12h35.22.047,SL_sali_41,2021.2.3,Win32,59.88023952,0.898,,,93,0,93,0,1,,,,,,,,
,,"[""diamond"",""no_dis"",""hori"",""left"",[99999,99999],[-106,106]]",diamond,no_dis,hori,left,"[99999,99999]","[-106,106]",left,1,,,,,,78906,2025-03-17_12h35.22.047,SL_sali_41,2021.2.3,Win32,59.88023952,1.0023,,,94,0,94,0,1,,,,,,,,
,,"[""diamond"",""red"",""hori"",""left"",[0,150],[150,0]]",diamond,red,hori,left,"[0,150]","[150,0]",left,1,,,,,,78906,2025-03-17_12h35.22.047,SL_sali_41,2021.2.3,Win32,59.88023952,1.0064,,,95,0,95,0,1,,,,,,,,
,,"[""diamond"",""no_dis"",""vert"",""up"",[99999,99999],[-106,-106]]",diamond,no_dis,vert,up,"[99999,99999]","[-106,-106]",up,1,,,,,,78906,2025-03-17_12h35.22.047,SL_sali_41,2021.2.3,Win32,59.88023952,1.4092,,,96,0,96,0,1,,,,,,,,
,,"[""diamond"",""red"",""vert"",""up"",[0,150],[0,-150]]",diamond,red,vert,up,"[0,150]","[0,-150]",up,1,,,,,,78906,2025-03-17_12h35.22.047,SL_sali_41,2021.2.3,Win32,59.88023952,0.8996,,,97,0,97,0,1,,,,,,,,
,,"[""diamond"",""no_dis"",""vert"",""up"",[99999,99999],[0,150]]",diamond,no_dis,vert,up,"[99999,99999]","[0,150]",up,1,,,,,,78906,2025-03-17_12h35.22.047,SL_sali_41,2021.2.3,Win32,59.88023952,1.0813,,,98,0,98,0,1,,,,,,,,
,,"[""circle"",""no_dis"",""vert"",""up"",[99999,99999],[150,0]]",circle,no_dis,vert,up,"[99999,99999]","[150,0]",up,1,,,,,,78906,2025-03-17_12h35.22.047,SL_sali_41,2021.2.3,Win32,59.88023952,1.0391,,,99,0,99,0,1,,,,,,,,
,,"[""diamond"",""red"",""vert"",""up"",[150,0],[-106,-106]]",diamond,red,vert,up,"[150,0]","[-106,-106]",up,1,,,,,,78906,2025-03-17_12h35.22.047,SL_sali_41,2021.2.3,Win32,59.88023952,0.9812,,,100,0,100,0,1,,,,,,,,
,,"[""circle"",""red"",""vert"",""up"",[0,150],[-106,-106]]",circle,red,vert,up,"[0,150]","[-106,-106]",left,0,,,,,,78906,2025-03-17_12h35.22.047,SL_sali_41,2021.2.3,Win32,59.88023952,1.2326,,,101,0,101,0,1,,,,,,,,
,,"[""circle"",""no_dis"",""vert"",""up"",[99999,99999],[-106,-106]]",circle,no_dis,vert,up,"[99999,99999]","[-106,-106]",up,1,,,,,,78906,2025-03-17_12h35.22.047,SL_sali_41,2021.2.3,Win32,59.88023952,1.2495,,,102,0,102,0,1,,,,,,,,
,,"[""diamond"",""green"",""vert"",""up"",[106,106],[-150,0]]",diamond,green,vert,up,"[106,106]","[-150,0]",up,1,,,,,,78906,2025-03-17_12h35.22.047,SL_sali_41,2021.2.3,Win32,59.88023952,1.576,,,103,0,103,0,1,,,,,,,,
,,"[""circle"",""no_dis"",""vert"",""up"",[99999,99999],[0,150]]",circle,no_dis,vert,up,"[99999,99999]","[0,150]",up,1,,,,,,78906,2025-03-17_12h35.22.047,SL_sali_41,2021.2.3,Win32,59.88023952,1.6647,,,104,0,104,0,1,,,,,,,,
,,"[""diamond"",""green"",""hori"",""left"",[0,150],[106,-106]]",diamond,green,hori,left,"[0,150]","[106,-106]",left,1,,,,,,78906,2025-03-17_12h35.22.047,SL_sali_41,2021.2.3,Win32,59.88023952,1.0561,,,105,0,105,0,1,,,,,,,,
,,"[""circle"",""green"",""vert"",""up"",[150,0],[0,-150]]",circle,green,vert,up,"[150,0]","[0,-150]",up,1,,,,,,78906,2025-03-17_12h35.22.047,SL_sali_41,2021.2.3,Win32,59.88023952,1.0653,,,106,0,106,0,1,,,,,,,,
,,"[""circle"",""red"",""vert"",""up"",[150,0],[-150,0]]",circle,red,vert,up,"[150,0]","[-150,0]",up,1,,,,,,78906,2025-03-17_12h35.22.047,SL_sali_41,2021.2.3,Win32,59.88023952,0.6892,,,107,0,107,0,1,,,,,,,,
,,"[""diamond"",""red"",""hori"",""left"",[106,-106],[0,-150]]",diamond,red,hori,left,"[106,-106]","[0,-150]",left,1,,,,,,78906,2025-03-17_12h35.22.047,SL_sali_41,2021.2.3,Win32,59.88023952,0.9818,,,108,0,108,0,1,,,,,,,,
,,"[""diamond"",""red"",""hori"",""left"",[106,106],[106,-106]]",diamond,red,hori,left,"[106,106]","[106,-106]",left,1,,,,,,78906,2025-03-17_12h35.22.047,SL_sali_41,2021.2.3,Win32,59.88023952,0.8379,,,109,0,109,0,1,,,,,,,,
,,"[""circle"",""red"",""hori"",""left"",[0,150],[106,106]]",circle,red,hori,left,"[0,150]","[106,106]",left,1,,,,,,78906,2025-03-17_12h35.22.047,SL_sali_41,2021.2.3,Win32,59.88023952,1.3851,,,110,0,110,0,1,,,,,,,,
,,"[""diamond"",""green"",""hori"",""left"",[-106,-106],[0,-150]]",diamond,green,hori,left,"[-106,-106]","[0,-150]",left,1,,,,,,78906,2025-03-17_12h35.22.047,SL_sali_41,2021.2.3,Win32,59.88023952,0.8668,,,111,0,111,0,1,,,,,,,,
,,"[""diamond"",""no_dis"",""hori"",""left"",[99999,99999],[106,106]]",diamond,no_dis,hori,left,"[99999,99999]","[106,106]",left,1,,,,,,78906,2025-03-17_12h35.22.047,SL_sali_41,2021.2.3,Win32,59.88023952,1.5633,,,112,0,112,0,1,,,,,,,,
,,"[""diamond"",""red"",""vert"",""up"",[0,150],[-106,-106]]",diamond,red,vert,up,"[0,150]","[-106,-106]",up,1,,,,,,78906,2025-03-17_12h35.22.047,SL_sali_41,2021.2.3,Win32,59.88023952,1.0967,,,113,0,113,0,1,,,,,,,,
,,"[""circle"",""red"",""hori"",""left"",[106,-106],[106,106]]",circle,red,hori,left,"[106,-106]","[106,106]",left,1,,,,,,78906,2025-03-17_12h35.22.047,SL_sali_41,2021.2.3,Win32,59.88023952,1.5087,,,114,0,114,0,1,,,,,,,,
,,"[""diamond"",""red"",""hori"",""left"",[0,150],[106,106]]",diamond,red,hori,left,"[0,150]","[106,106]",left,1,,,,,,78906,2025-03-17_12h35.22.047,SL_sali_41,2021.2.3,Win32,59.88023952,1.8259,,,115,0,115,0,1,,,,,,,,
,,"[""diamond"",""no_dis"",""hori"",""left"",[99999,99999],[106,-106]]",diamond,no_dis,hori,left,"[99999,99999]","[106,-106]",left,1,,,,,,78906,2025-03-17_12h35.22.047,SL_sali_41,2021.2.3,Win32,59.88023952,0.8646,,,116,0,116,0,1,,,,,,,,
,,"[""circle"",""green"",""vert"",""up"",[106,106],[-106,-106]]",circle,green,vert,up,"[106,106]","[-106,-106]",up,1,,,,,,78906,2025-03-17_12h35.22.047,SL_sali_41,2021.2.3,Win32,59.88023952,1.401,,,117,0,117,0,1,,,,,,,,
,,"[""circle"",""green"",""hori"",""left"",[0,150],[0,-150]]",circle,green,hori,left,"[0,150]","[0,-150]",left,1,,,,,,78906,2025-03-17_12h35.22.047,SL_sali_41,2021.2.3,Win32,59.88023952,1.236,,,118,0,118,0,1,,,,,,,,
,,"[""diamond"",""red"",""hori"",""left"",[150,0],[-150,0]]",diamond,red,hori,left,"[150,0]","[-150,0]",left,1,,,,,,78906,2025-03-17_12h35.22.047,SL_sali_41,2021.2.3,Win32,59.88023952,1.3154,,,119,0,119,0,1,,,,,,,,
,,"[""circle"",""red"",""vert"",""up"",[0,150],[106,106]]",circle,red,vert,up,"[0,150]","[106,106]",up,1,,,,,,78906,2025-03-17_12h35.22.047,SL_sali_41,2021.2.3,Win32,59.88023952,0.8376,,,120,0,120,0,1,,,,,,,,
,,"[""circle"",""no_dis"",""vert"",""up"",[99999,99999],[106,-106]]",circle,no_dis,vert,up,"[99999,99999]","[106,-106]",up,1,,,,,,78906,2025-03-17_12h35.22.047,SL_sali_41,2021.2.3,Win32,59.88023952,0.7822,,,121,0,121,0,1,,,,,,,,
,,"[""diamond"",""green"",""hori"",""left"",[0,150],[0,-150]]",diamond,green,hori,left,"[0,150]","[0,-150]",left,1,,,,,,78906,2025-03-17_12h35.22.047,SL_sali_41,2021.2.3,Win32,59.88023952,0.9061,,,122,0,122,0,1,,,,,,,,
,,"[""diamond"",""red"",""hori"",""left"",[106,106],[-106,-106]]",diamond,red,hori,left,"[106,106]","[-106,-106]",left,1,,,,,,78906,2025-03-17_12h35.22.047,SL_sali_41,2021.2.3,Win32,59.88023952,0.9998,,,123,0,123,0,1,,,,,,,,
,,"[""circle"",""no_dis"",""hori"",""left"",[99999,99999],[0,150]]",circle,no_dis,hori,left,"[99999,99999]","[0,150]",up,0,,,,,,78906,2025-03-17_12h35.22.047,SL_sali_41,2021.2.3,Win32,59.88023952,1.3104,,,124,0,124,0,1,,,,,,,,
,,"[""diamond"",""no_dis"",""vert"",""up"",[99999,99999],[106,-106]]",diamond,no_dis,vert,up,"[99999,99999]","[106,-106]",up,1,,,,,,78906,2025-03-17_12h35.22.047,SL_sali_41,2021.2.3,Win32,59.88023952,0.9922,,,125,0,125,0,1,,,,,,,,
,,"[""diamond"",""green"",""hori"",""left"",[106,-106],[-106,-106]]",diamond,green,hori,left,"[106,-106]","[-106,-106]",left,1,,,,,,78906,2025-03-17_12h35.22.047,SL_sali_41,2021.2.3,Win32,59.88023952,1.4485,,,126,0,126,0,1,,,,,,,,
,,"[""diamond"",""red"",""hori"",""left"",[0,-150],[0,150]]",diamond,red,hori,left,"[0,-150]","[0,150]",left,1,,,,,,78906,2025-03-17_12h35.22.047,SL_sali_41,2021.2.3,Win32,59.88023952,1.0813,,,127,0,127,0,1,,,,,,,,
,,,,,,,,,,,,,,,,78906,2025-03-17_12h35.22.047,SL_sali_41,2021.2.3,Win32,59.88023952,,,,,,,,,1,space,28.7333,0,0,0,0,1
,,"[""circle"",""red"",""hori"",""left"",[0,-150],[106,106]]",circle,red,hori,left,"[0,-150]","[106,106]",left,1,,,,,,78906,2025-03-17_12h35.22.047,SL_sali_41,2021.2.3,Win32,59.88023952,0.9263,,,0,0,0,0,1,,,,,,,,
,,"[""diamond"",""red"",""hori"",""left"",[0,150],[150,0]]",diamond,red,hori,left,"[0,150]","[150,0]",left,1,,,,,,78906,2025-03-17_12h35.22.047,SL_sali_41,2021.2.3,Win32,59.88023952,1.2644,,,1,0,1,0,1,,,,,,,,
,,"[""diamond"",""green"",""hori"",""left"",[106,106],[0,-150]]",diamond,green,hori,left,"[106,106]","[0,-150]",left,1,,,,,,78906,2025-03-17_12h35.22.047,SL_sali_41,2021.2.3,Win32,59.88023952,0.9255,,,2,0,2,0,1,,,,,,,,
,,"[""diamond"",""red"",""hori"",""left"",[150,0],[-150,0]]",diamond,red,hori,left,"[150,0]","[-150,0]",left,1,,,,,,78906,2025-03-17_12h35.22.047,SL_sali_41,2021.2.3,Win32,59.88023952,0.9317,,,3,0,3,0,1,,,,,,,,
,,"[""circle"",""green"",""hori"",""left"",[0,150],[106,-106]]",circle,green,hori,left,"[0,150]","[106,-106]",left,1,,,,,,78906,2025-03-17_12h35.22.047,SL_sali_41,2021.2.3,Win32,59.88023952,0.8839,,,4,0,4,0,1,,,,,,,,
,,"[""circle"",""green"",""vert"",""up"",[106,106],[-106,-106]]",circle,green,vert,up,"[106,106]","[-106,-106]",up,1,,,,,,78906,2025-03-17_12h35.22.047,SL_sali_41,2021.2.3,Win32,59.88023952,0.8327,,,5,0,5,0,1,,,,,,,,
,,"[""circle"",""no_dis"",""hori"",""left"",[99999,99999],[150,0]]",circle,no_dis,hori,left,"[99999,99999]","[150,0]",left,1,,,,,,78906,2025-03-17_12h35.22.047,SL_sali_41,2021.2.3,Win32,59.88023952,0.8518,,,6,0,6,0,1,,,,,,,,
,,"[""circle"",""green"",""hori"",""left"",[-106,-106],[-106,106]]",circle,green,hori,left,"[-106,-106]","[-106,106]",left,1,,,,,,78906,2025-03-17_12h35.22.047,SL_sali_41,2021.2.3,Win32,59.88023952,1.0533,,,7,0,7,0,1,,,,,,,,
,,"[""circle"",""red"",""vert"",""up"",[-150,0],[-106,-106]]",circle,red,vert,up,"[-150,0]","[-106,-106]",up,1,,,,,,78906,2025-03-17_12h35.22.047,SL_sali_41,2021.2.3,Win32,59.88023952,1.0363,,,8,0,8,0,1,,,,,,,,
,,"[""diamond"",""green"",""hori"",""left"",[0,150],[106,106]]",diamond,green,hori,left,"[0,150]","[106,106]",up,0,,,,,,78906,2025-03-17_12h35.22.047,SL_sali_41,2021.2.3,Win32,59.88023952,1.354,,,9,0,9,0,1,,,,,,,,
,,"[""circle"",""red"",""vert"",""up"",[-150,0],[106,-106]]",circle,red,vert,up,"[-150,0]","[106,-106]",up,1,,,,,,78906,2025-03-17_12h35.22.047,SL_sali_41,2021.2.3,Win32,59.88023952,1.4657,,,10,0,10,0,1,,,,,,,,
,,"[""circle"",""red"",""hori"",""left"",[0,150],[-150,0]]",circle,red,hori,left,"[0,150]","[-150,0]",left,1,,,,,,78906,2025-03-17_12h35.22.047,SL_sali_41,2021.2.3,Win32,59.88023952,1.0701,,,11,0,11,0,1,,,,,,,,
,,"[""circle"",""red"",""hori"",""left"",[106,-106],[106,106]]",circle,red,hori,left,"[106,-106]","[106,106]",left,1,,,,,,78906,2025-03-17_12h35.22.047,SL_sali_41,2021.2.3,Win32,59.88023952,0.9988,,,12,0,12,0,1,,,,,,,,
,,"[""diamond"",""green"",""hori"",""left"",[0,150],[-106,-106]]",diamond,green,hori,left,"[0,150]","[-106,-106]",left,1,,,,,,78906,2025-03-17_12h35.22.047,SL_sali_41,2021.2.3,Win32,59.88023952,1.136,,,13,0,13,0,1,,,,,,,,
,,"[""circle"",""red"",""vert"",""up"",[-150,0],[0,-150]]",circle,red,vert,up,"[-150,0]","[0,-150]",up,1,,,,,,78906,2025-03-17_12h35.22.047,SL_sali_41,2021.2.3,Win32,59.88023952,0.8551,,,14,0,14,0,1,,,,,,,,
,,"[""circle"",""no_dis"",""vert"",""up"",[99999,99999],[-106,106]]",circle,no_dis,vert,up,"[99999,99999]","[-106,106]",up,1,,,,,,78906,2025-03-17_12h35.22.047,SL_sali_41,2021.2.3,Win32,59.88023952,0.8324,,,15,0,15,0,1,,,,,,,,
,,"[""diamond"",""green"",""vert"",""up"",[0,-150],[0,150]]",diamond,green,vert,up,"[0,-150]","[0,150]",up,1,,,,,,78906,2025-03-17_12h35.22.047,SL_sali_41,2021.2.3,Win32,59.88023952,1.3984,,,16,0,16,0,1,,,,,,,,
,,"[""diamond"",""no_dis"",""vert"",""up"",[99999,99999],[0,-150]]",diamond,no_dis,vert,up,"[99999,99999]","[0,-150]",up,1,,,,,,78906,2025-03-17_12h35.22.047,SL_sali_41,2021.2.3,Win32,59.88023952,1.0142,,,17,0,17,0,1,,,,,,,,
,,"[""circle"",""red"",""vert"",""up"",[0,-150],[-106,-106]]",circle,red,vert,up,"[0,-150]","[-106,-106]",up,1,,,,,,78906,2025-03-17_12h35.22.047,SL_sali_41,2021.2.3,Win32,59.88023952,1.4072,,,18,0,18,0,1,,,,,,,,
,,"[""circle"",""red"",""hori"",""left"",[0,150],[-106,-106]]",circle,red,hori,left,"[0,150]","[-106,-106]",left,1,,,,,,78906,2025-03-17_12h35.22.047,SL_sali_41,2021.2.3,Win32,59.88023952,0.9312,,,19,0,19,0,1,,,,,,,,
,,"[""circle"",""green"",""vert"",""up"",[-106,106],[0,150]]",circle,green,vert,up,"[-106,106]","[0,150]",up,1,,,,,,78906,2025-03-17_12h35.22.047,SL_sali_41,2021.2.3,Win32,59.88023952,0.9756,,,20,0,20,0,1,,,,,,,,
,,"[""diamond"",""green"",""vert"",""up"",[106,106],[-150,0]]",diamond,green,vert,up,"[106,106]","[-150,0]",up,1,,,,,,78906,2025-03-17_12h35.22.047,SL_sali_41,2021.2.3,Win32,59.88023952,0.9236,,,21,0,21,0,1,,,,,,,,
,,"[""diamond"",""no_dis"",""vert"",""up"",[99999,99999],[0,150]]",diamond,no_dis,vert,up,"[99999,99999]","[0,150]",up,1,,,,,,78906,2025-03-17_12h35.22.047,SL_sali_41,2021.2.3,Win32,59.88023952,1.389,,,22,0,22,0,1,,,,,,,,
,,"[""diamond"",""green"",""vert"",""up"",[150,0],[-106,-106]]",diamond,green,vert,up,"[150,0]","[-106,-106]",up,1,,,,,,78906,2025-03-17_12h35.22.047,SL_sali_41,2021.2.3,Win32,59.88023952,0.9696,,,23,0,23,0,1,,,,,,,,
,,"[""circle"",""red"",""vert"",""up"",[-106,-106],[-106,106]]",circle,red,vert,up,"[-106,-106]","[-106,106]",up,1,,,,,,78906,2025-03-17_12h35.22.047,SL_sali_41,2021.2.3,Win32,59.88023952,0.8664,,,24,0,24,0,1,,,,,,,,
,,"[""diamond"",""green"",""hori"",""left"",[150,0],[-106,-106]]",diamond,green,hori,left,"[150,0]","[-106,-106]",left,1,,,,,,78906,2025-03-17_12h35.22.047,SL_sali_41,2021.2.3,Win32,59.88023952,0.85,,,25,0,25,0,1,,,,,,,,
,,"[""circle"",""no_dis"",""hori"",""left"",[99999,99999],[-106,106]]",circle,no_dis,hori,left,"[99999,99999]","[-106,106]",left,1,,,,,,78906,2025-03-17_12h35.22.047,SL_sali_41,2021.2.3,Win32,59.88023952,0.9731,,,26,0,26,0,1,,,,,,,,
,,"[""circle"",""no_dis"",""hori"",""left"",[99999,99999],[-106,-106]]",circle,no_dis,hori,left,"[99999,99999]","[-106,-106]",left,1,,,,,,78906,2025-03-17_12h35.22.047,SL_sali_41,2021.2.3,Win32,59.88023952,0.6494,,,27,0,27,0,1,,,,,,,,
,,"[""diamond"",""no_dis"",""hori"",""left"",[99999,99999],[0,150]]",diamond,no_dis,hori,left,"[99999,99999]","[0,150]",left,1,,,,,,78906,2025-03-17_12h35.22.047,SL_sali_41,2021.2.3,Win32,59.88023952,1.1073,,,28,0,28,0,1,,,,,,,,
,,"[""diamond"",""red"",""hori"",""left"",[0,150],[-106,106]]",diamond,red,hori,left,"[0,150]","[-106,106]",left,1,,,,,,78906,2025-03-17_12h35.22.047,SL_sali_41,2021.2.3,Win32,59.88023952,1.0368,,,29,0,29,0,1,,,,,,,,
,,"[""diamond"",""no_dis"",""hori"",""left"",[99999,99999],[106,106]]",diamond,no_dis,hori,left,"[99999,99999]","[106,106]",left,1,,,,,,78906,2025-03-17_12h35.22.047,SL_sali_41,2021.2.3,Win32,59.88023952,0.7811,,,30,0,30,0,1,,,,,,,,
,,"[""diamond"",""red"",""vert"",""up"",[106,106],[106,-106]]",diamond,red,vert,up,"[106,106]","[106,-106]",up,1,,,,,,78906,2025-03-17_12h35.22.047,SL_sali_41,2021.2.3,Win32,59.88023952,0.826,,,31,0,31,0,1,,,,,,,,
,,"[""circle"",""red"",""hori"",""left"",[-106,106],[0,150]]",circle,red,hori,left,"[-106,106]","[0,150]",left,1,,,,,,78906,2025-03-17_12h35.22.047,SL_sali_41,2021.2.3,Win32,59.88023952,1.0492,,,32,0,32,0,1,,,,,,,,
,,"[""circle"",""no_dis"",""hori"",""left"",[99999,99999],[-150,0]]",circle,no_dis,hori,left,"[99999,99999]","[-150,0]",left,1,,,,,,78906,2025-03-17_12h35.22.047,SL_sali_41,2021.2.3,Win32,59.88023952,0.6552,,,33,0,33,0,1,,,,,,,,
,,"[""diamond"",""red"",""vert"",""up"",[0,150],[106,-106]]",diamond,red,vert,up,"[0,150]","[106,-106]",up,1,,,,,,78906,2025-03-17_12h35.22.047,SL_sali_41,2021.2.3,Win32,59.88023952,1.1811,,,34,0,34,0,1,,,,,,,,
,,"[""diamond"",""red"",""hori"",""left"",[150,0],[-150,0]]",diamond,red,hori,left,"[150,0]","[-150,0]",left,1,,,,,,78906,2025-03-17_12h35.22.047,SL_sali_41,2021.2.3,Win32,59.88023952,1.0141,,,35,0,35,0,1,,,,,,,,
,,"[""diamond"",""green"",""hori"",""left"",[0,150],[106,-106]]",diamond,green,hori,left,"[0,150]","[106,-106]",left,1,,,,,,78906,2025-03-17_12h35.22.047,SL_sali_41,2021.2.3,Win32,59.88023952,0.9429,,,36,0,36,0,1,,,,,,,,
,,"[""circle"",""red"",""vert"",""up"",[0,150],[106,106]]",circle,red,vert,up,"[0,150]","[106,106]",up,1,,,,,,78906,2025-03-17_12h35.22.047,SL_sali_41,2021.2.3,Win32,59.88023952,0.7991,,,37,0,37,0,1,,,,,,,,
,,"[""diamond"",""no_dis"",""hori"",""left"",[99999,99999],[150,0]]",diamond,no_dis,hori,left,"[99999,99999]","[150,0]",left,1,,,,,,78906,2025-03-17_12h35.22.047,SL_sali_41,2021.2.3,Win32,59.88023952,0.7044,,,38,0,38,0,1,,,,,,,,
,,"[""diamond"",""green"",""vert"",""up"",[0,150],[-106,106]]",diamond,green,vert,up,"[0,150]","[-106,106]",up,1,,,,,,78906,2025-03-17_12h35.22.047,SL_sali_41,2021.2.3,Win32,59.88023952,1.2975,,,39,0,39,0,1,,,,,,,,
,,"[""circle"",""green"",""vert"",""up"",[150,0],[0,-150]]",circle,green,vert,up,"[150,0]","[0,-150]",up,1,,,,,,78906,2025-03-17_12h35.22.047,SL_sali_41,2021.2.3,Win32,59.88023952,1.1152,,,40,0,40,0,1,,,,,,,,
,,"[""diamond"",""red"",""hori"",""left"",[0,-150],[0,150]]",diamond,red,hori,left,"[0,-150]","[0,150]",left,1,,,,,,78906,2025-03-17_12h35.22.047,SL_sali_41,2021.2.3,Win32,59.88023952,1.7152,,,41,0,41,0,1,,,,,,,,
,,"[""circle"",""green"",""vert"",""up"",[-106,106],[106,-106]]",circle,green,vert,up,"[-106,106]","[106,-106]",up,1,,,,,,78906,2025-03-17_12h35.22.047,SL_sali_41,2021.2.3,Win32,59.88023952,1.0333,,,42,0,42,0,1,,,,,,,,
,,"[""diamond"",""green"",""vert"",""up"",[0,150],[-106,106]]",diamond,green,vert,up,"[0,150]","[-106,106]",up,1,,,,,,78906,2025-03-17_12h35.22.047,SL_sali_41,2021.2.3,Win32,59.88023952,1.8758,,,43,0,43,0,1,,,,,,,,
,,"[""circle"",""green"",""vert"",""up"",[106,-106],[-150,0]]",circle,green,vert,up,"[106,-106]","[-150,0]",up,1,,,,,,78906,2025-03-17_12h35.22.047,SL_sali_41,2021.2.3,Win32,59.88023952,0.9389,,,44,0,44,0,1,,,,,,,,
,,"[""circle"",""red"",""vert"",""up"",[150,0],[-150,0]]",circle,red,vert,up,"[150,0]","[-150,0]",up,1,,,,,,78906,2025-03-17_12h35.22.047,SL_sali_41,2021.2.3,Win32,59.88023952,0.6822,,,45,0,45,0,1,,,,,,,,
,,"[""circle"",""red"",""hori"",""left"",[0,150],[106,106]]",circle,red,hori,left,"[0,150]","[106,106]",left,1,,,,,,78906,2025-03-17_12h35.22.047,SL_sali_41,2021.2.3,Win32,59.88023952,1.115,,,46,0,46,0,1,,,,,,,,
,,"[""diamond"",""red"",""hori"",""left"",[106,-106],[150,0]]",diamond,red,hori,left,"[106,-106]","[150,0]",left,1,,,,,,78906,2025-03-17_12h35.22.047,SL_sali_41,2021.2.3,Win32,59.88023952,1.1827,,,47,0,47,0,1,,,,,,,,
,,"[""diamond"",""green"",""hori"",""left"",[-106,-106],[0,-150]]",diamond,green,hori,left,"[-106,-106]","[0,-150]",left,1,,,,,,78906,2025-03-17_12h35.22.047,SL_sali_41,2021.2.3,Win32,59.88023952,1.0214,,,48,0,48,0,1,,,,,,,,
,,"[""circle"",""no_dis"",""hori"",""left"",[99999,99999],[0,150]]",circle,no_dis,hori,left,"[99999,99999]","[0,150]",left,1,,,,,,78906,2025-03-17_12h35.22.047,SL_sali_41,2021.2.3,Win32,59.88023952,1.1664,,,49,0,49,0,1,,,,,,,,
,,"[""diamond"",""green"",""hori"",""left"",[106,-106],[-106,-106]]",diamond,green,hori,left,"[106,-106]","[-106,-106]",left,1,,,,,,78906,2025-03-17_12h35.22.047,SL_sali_41,2021.2.3,Win32,59.88023952,1.0888,,,50,0,50,0,1,,,,,,,,
,,"[""circle"",""no_dis"",""vert"",""up"",[99999,99999],[0,150]]",circle,no_dis,vert,up,"[99999,99999]","[0,150]",up,1,,,,,,78906,2025-03-17_12h35.22.047,SL_sali_41,2021.2.3,Win32,59.88023952,1.6306,,,51,0,51,0,1,,,,,,,,
,,"[""circle"",""red"",""hori"",""left"",[-106,106],[0,-150]]",circle,red,hori,left,"[-106,106]","[0,-150]",left,1,,,,,,78906,2025-03-17_12h35.22.047,SL_sali_41,2021.2.3,Win32,59.88023952,1.6007,,,52,0,52,0,1,,,,,,,,
,,"[""circle"",""red"",""vert"",""up"",[0,150],[-106,-106]]",circle,red,vert,up,"[0,150]","[-106,-106]",up,1,,,,,,78906,2025-03-17_12h35.22.047,SL_sali_41,2021.2.3,Win32,59.88023952,0.81,,,53,0,53,0,1,,,,,,,,
,,"[""diamond"",""no_dis"",""hori"",""left"",[99999,99999],[106,-106]]",diamond,no_dis,hori,left,"[99999,99999]","[106,-106]",left,1,,,,,,78906,2025-03-17_12h35.22.047,SL_sali_41,2021.2.3,Win32,59.88023952,0.8148,,,54,0,54,0,1,,,,,,,,
,,"[""circle"",""no_dis"",""vert"",""up"",[99999,99999],[0,150]]",circle,no_dis,vert,up,"[99999,99999]","[0,150]",up,1,,,,,,78906,2025-03-17_12h35.22.047,SL_sali_41,2021.2.3,Win32,59.88023952,0.8488,,,55,0,55,0,1,,,,,,,,
,,"[""diamond"",""green"",""vert"",""up"",[150,0],[0,150]]",diamond,green,vert,up,"[150,0]","[0,150]",up,1,,,,,,78906,2025-03-17_12h35.22.047,SL_sali_41,2021.2.3,Win32,59.88023952,0.9592,,,56,0,56,0,1,,,,,,,,
,,"[""diamond"",""green"",""vert"",""up"",[-106,-106],[0,-150]]",diamond,green,vert,up,"[-106,-106]","[0,-150]",up,1,,,,,,78906,2025-03-17_12h35.22.047,SL_sali_41,2021.2.3,Win32,59.88023952,0.8508,,,57,0,57,0,1,,,,,,,,
,,"[""diamond"",""green"",""hori"",""left"",[0,150],[0,-150]]",diamond,green,hori,left,"[0,150]","[0,-150]",left,1,,,,,,78906,2025-03-17_12h35.22.047,SL_sali_41,2021.2.3,Win32,59.88023952,0.8012,,,58,0,58,0,1,,,,,,,,
,,"[""circle"",""green"",""vert"",""up"",[-150,0],[106,106]]",circle,green,vert,up,"[-150,0]","[106,106]",up,1,,,,,,78906,2025-03-17_12h35.22.047,SL_sali_41,2021.2.3,Win32,59.88023952,1.4565,,,59,0,59,0,1,,,,,,,,
,,"[""circle"",""no_dis"",""vert"",""up"",[99999,99999],[106,-106]]",circle,no_dis,vert,up,"[99999,99999]","[106,-106]",up,1,,,,,,78906,2025-03-17_12h35.22.047,SL_sali_41,2021.2.3,Win32,59.88023952,0.86,,,60,0,60,0,1,,,,,,,,
,,"[""diamond"",""red"",""hori"",""left"",[106,106],[106,-106]]",diamond,red,hori,left,"[106,106]","[106,-106]",left,1,,,,,,78906,2025-03-17_12h35.22.047,SL_sali_41,2021.2.3,Win32,59.88023952,1.4668,,,61,0,61,0,1,,,,,,,,
,,"[""circle"",""green"",""vert"",""up"",[0,-150],[0,150]]",circle,green,vert,up,"[0,-150]","[0,150]",up,1,,,,,,78906,2025-03-17_12h35.22.047,SL_sali_41,2021.2.3,Win32,59.88023952,1.2737,,,62,0,62,0,1,,,,,,,,
,,"[""diamond"",""no_dis"",""vert"",""up"",[99999,99999],[0,-150]]",diamond,no_dis,vert,up,"[99999,99999]","[0,-150]",up,1,,,,,,78906,2025-03-17_12h35.22.047,SL_sali_41,2021.2.3,Win32,59.88023952,0.8222,,,63,0,63,0,1,,,,,,,,
,,"[""diamond"",""no_dis"",""hori"",""left"",[99999,99999],[106,106]]",diamond,no_dis,hori,left,"[99999,99999]","[106,106]",left,1,,,,,,78906,2025-03-17_12h35.22.047,SL_sali_41,2021.2.3,Win32,59.88023952,1.4252,,,64,0,64,0,1,,,,,,,,
,,"[""diamond"",""red"",""hori"",""left"",[0,150],[106,106]]",diamond,red,hori,left,"[0,150]","[106,106]",left,1,,,,,,78906,2025-03-17_12h35.22.047,SL_sali_41,2021.2.3,Win32,59.88023952,0.8496,,,65,0,65,0,1,,,,,,,,
,,"[""circle"",""red"",""hori"",""left"",[0,-150],[150,0]]",circle,red,hori,left,"[0,-150]","[150,0]",left,1,,,,,,78906,2025-03-17_12h35.22.047,SL_sali_41,2021.2.3,Win32,59.88023952,1.0336,,,66,0,66,0,1,,,,,,,,
,,"[""diamond"",""red"",""vert"",""up"",[0,150],[106,-106]]",diamond,red,vert,up,"[0,150]","[106,-106]",up,1,,,,,,78906,2025-03-17_12h35.22.047,SL_sali_41,2021.2.3,Win32,59.88023952,1.3253,,,67,0,67,0,1,,,,,,,,
,,"[""circle"",""green"",""hori"",""left"",[0,150],[-106,-106]]",circle,green,hori,left,"[0,150]","[-106,-106]",left,1,,,,,,78906,2025-03-17_12h35.22.047,SL_sali_41,2021.2.3,Win32,59.88023952,0.9066,,,68,0,68,0,1,,,,,,,,
,,"[""circle"",""green"",""vert"",""up"",[0,150],[0,-150]]",circle,green,vert,up,"[0,150]","[0,-150]",up,1,,,,,,78906,2025-03-17_12h35.22.047,SL_sali_41,2021.2.3,Win32,59.88023952,0.9655,,,69,0,69,0,1,,,,,,,,
,,"[""diamond"",""no_dis"",""vert"",""up"",[99999,99999],[0,-150]]",diamond,no_dis,vert,up,"[99999,99999]","[0,-150]",up,1,,,,,,78906,2025-03-17_12h35.22.047,SL_sali_41,2021.2.3,Win32,59.88023952,0.8018,,,70,0,70,0,1,,,,,,,,
,,"[""diamond"",""no_dis"",""vert"",""up"",[99999,99999],[106,-106]]",diamond,no_dis,vert,up,"[99999,99999]","[106,-106]",up,1,,,,,,78906,2025-03-17_12h35.22.047,SL_sali_41,2021.2.3,Win32,59.88023952,0.5866,,,71,0,71,0,1,,,,,,,,
,,"[""diamond"",""red"",""vert"",""up"",[-106,-106],[0,150]]",diamond,red,vert,up,"[-106,-106]","[0,150]",up,1,,,,,,78906,2025-03-17_12h35.22.047,SL_sali_41,2021.2.3,Win32,59.88023952,0.9181,,,72,0,72,0,1,,,,,,,,
,,"[""diamond"",""no_dis"",""vert"",""up"",[99999,99999],[0,-150]]",diamond,no_dis,vert,up,"[99999,99999]","[0,-150]",left,0,,,,,,78906,2025-03-17_12h35.22.047,SL_sali_41,2021.2.3,Win32,59.88023952,0.6052,,,73,0,73,0,1,,,,,,,,
,,"[""circle"",""green"",""hori"",""left"",[0,150],[-106,106]]",circle,green,hori,left,"[0,150]","[-106,106]",left,1,,,,,,78906,2025-03-17_12h35.22.047,SL_sali_41,2021.2.3,Win32,59.88023952,1.6747,,,74,0,74,0,1,,,,,,,,
,,"[""diamond"",""no_dis"",""hori"",""left"",[99999,99999],[-150,0]]",diamond,no_dis,hori,left,"[99999,99999]","[-150,0]",left,1,,,,,,78906,2025-03-17_12h35.22.047,SL_sali_41,2021.2.3,Win32,59.88023952,0.9004,,,75,0,75,0,1,,,,,,,,
,,"[""circle"",""no_dis"",""vert"",""up"",[99999,99999],[-106,-106]]",circle,no_dis,vert,up,"[99999,99999]","[-106,-106]",up,1,,,,,,78906,2025-03-17_12h35.22.047,SL_sali_41,2021.2.3,Win32,59.88023952,0.9503,,,76,0,76,0,1,,,,,,,,
,,"[""diamond"",""red"",""vert"",""up"",[150,0],[-106,-106]]",diamond,red,vert,up,"[150,0]","[-106,-106]",up,1,,,,,,78906,2025-03-17_12h35.22.047,SL_sali_41,2021.2.3,Win32,59.88023952,1.2989,,,77,0,77,0,1,,,,,,,,
,,"[""diamond"",""red"",""hori"",""left"",[106,-106],[0,-150]]",diamond,red,hori,left,"[106,-106]","[0,-150]",left,1,,,,,,78906,2025-03-17_12h35.22.047,SL_sali_41,2021.2.3,Win32,59.88023952,0.931,,,78,0,78,0,1,,,,,,,,
,,"[""diamond"",""green"",""hori"",""left"",[-106,-106],[-106,106]]",diamond,green,hori,left,"[-106,-106]","[-106,106]",left,1,,,,,,78906,2025-03-17_12h35.22.047,SL_sali_41,2021.2.3,Win32,59.88023952,1.0405,,,79,0,79,0,1,,,,,,,,
,,"[""circle"",""red"",""hori"",""left"",[106,-106],[106,106]]",circle,red,hori,left,"[106,-106]","[106,106]",left,1,,,,,,78906,2025-03-17_12h35.22.047,SL_sali_41,2021.2.3,Win32,59.88023952,0.8828,,,80,0,80,0,1,,,,,,,,
,,"[""circle"",""no_dis"",""vert"",""up"",[99999,99999],[150,0]]",circle,no_dis,vert,up,"[99999,99999]","[150,0]",up,1,,,,,,78906,2025-03-17_12h35.22.047,SL_sali_41,2021.2.3,Win32,59.88023952,0.7445,,,81,0,81,0,1,,,,,,,,
,,"[""circle"",""green"",""vert"",""up"",[0,150],[0,-150]]",circle,green,vert,up,"[0,150]","[0,-150]",up,1,,,,,,78906,2025-03-17_12h35.22.047,SL_sali_41,2021.2.3,Win32,59.88023952,1.1182,,,82,0,82,0,1,,,,,,,,
,,"[""circle"",""no_dis"",""vert"",""up"",[99999,99999],[150,0]]",circle,no_dis,vert,up,"[99999,99999]","[150,0]",up,1,,,,,,78906,2025-03-17_12h35.22.047,SL_sali_41,2021.2.3,Win32,59.88023952,1.0033,,,83,0,83,0,1,,,,,,,,
,,"[""diamond"",""green"",""hori"",""left"",[0,150],[0,-150]]",diamond,green,hori,left,"[0,150]","[0,-150]",left,1,,,,,,78906,2025-03-17_12h35.22.047,SL_sali_41,2021.2.3,Win32,59.88023952,1.4,,,84,0,84,0,1,,,,,,,,
,,"[""diamond"",""no_dis"",""hori"",""left"",[99999,99999],[-106,-106]]",diamond,no_dis,hori,left,"[99999,99999]","[-106,-106]",left,1,,,,,,78906,2025-03-17_12h35.22.047,SL_sali_41,2021.2.3,Win32,59.88023952,1.4496,,,85,0,85,0,1,,,,,,,,
,,"[""circle"",""green"",""hori"",""left"",[-150,0],[106,-106]]",circle,green,hori,left,"[-150,0]","[106,-106]",left,1,,,,,,78906,2025-03-17_12h35.22.047,SL_sali_41,2021.2.3,Win32,59.88023952,1.3861,,,86,0,86,0,1,,,,,,,,
,,"[""circle"",""no_dis"",""hori"",""left"",[99999,99999],[-106,106]]",circle,no_dis,hori,left,"[99999,99999]","[-106,106]",left,1,,,,,,78906,2025-03-17_12h35.22.047,SL_sali_41,2021.2.3,Win32,59.88023952,0.7528,,,87,0,87,0,1,,,,,,,,
,,"[""diamond"",""no_dis"",""vert"",""up"",[99999,99999],[106,-106]]",diamond,no_dis,vert,up,"[99999,99999]","[106,-106]",up,1,,,,,,78906,2025-03-17_12h35.22.047,SL_sali_41,2021.2.3,Win32,59.88023952,0.7685,,,88,0,88,0,1,,,,,,,,
,,"[""diamond"",""red"",""vert"",""up"",[106,-106],[-106,106]]",diamond,red,vert,up,"[106,-106]","[-106,106]",up,1,,,,,,78906,2025-03-17_12h35.22.047,SL_sali_41,2021.2.3,Win32,59.88023952,0.9201,,,89,0,89,0,1,,,,,,,,
,,"[""circle"",""no_dis"",""hori"",""left"",[99999,99999],[106,106]]",circle,no_dis,hori,left,"[99999,99999]","[106,106]",left,1,,,,,,78906,2025-03-17_12h35.22.047,SL_sali_41,2021.2.3,Win32,59.88023952,0.8565,,,90,0,90,0,1,,,,,,,,
,,"[""circle"",""red"",""vert"",""up"",[0,150],[150,0]]",circle,red,vert,up,"[0,150]","[150,0]",up,1,,,,,,78906,2025-03-17_12h35.22.047,SL_sali_41,2021.2.3,Win32,59.88023952,1.1239,,,91,0,91,0,1,,,,,,,,
,,"[""circle"",""no_dis"",""vert"",""up"",[99999,99999],[-106,-106]]",circle,no_dis,vert,up,"[99999,99999]","[-106,-106]",up,1,,,,,,78906,2025-03-17_12h35.22.047,SL_sali_41,2021.2.3,Win32,59.88023952,0.899,,,92,0,92,0,1,,,,,,,,
,,"[""diamond"",""green"",""hori"",""left"",[0,150],[106,-106]]",diamond,green,hori,left,"[0,150]","[106,-106]",left,1,,,,,,78906,2025-03-17_12h35.22.047,SL_sali_41,2021.2.3,Win32,59.88023952,0.8381,,,93,0,93,0,1,,,,,,,,
,,"[""diamond"",""green"",""vert"",""up"",[-106,-106],[150,0]]",diamond,green,vert,up,"[-106,-106]","[150,0]",up,1,,,,,,78906,2025-03-17_12h35.22.047,SL_sali_41,2021.2.3,Win32,59.88023952,0.9477,,,94,0,94,0,1,,,,,,,,
,,"[""diamond"",""red"",""vert"",""up"",[0,150],[0,-150]]",diamond,red,vert,up,"[0,150]","[0,-150]",left,0,,,,,,78906,2025-03-17_12h35.22.047,SL_sali_41,2021.2.3,Win32,59.88023952,0.8513,,,95,0,95,0,1,,,,,,,,
,,"[""diamond"",""no_dis"",""hori"",""left"",[99999,99999],[106,106]]",diamond,no_dis,hori,left,"[99999,99999]","[106,106]",left,1,,,,,,78906,2025-03-17_12h35.22.047,SL_sali_41,2021.2.3,Win32,59.88023952,1.192,,,96,0,96,0,1,,,,,,,,
,,"[""circle"",""green"",""hori"",""left"",[0,150],[0,-150]]",circle,green,hori,left,"[0,150]","[0,-150]",left,1,,,,,,78906,2025-03-17_12h35.22.047,SL_sali_41,2021.2.3,Win32,59.88023952,0.9734,,,97,0,97,0,1,,,,,,,,
,,"[""diamond"",""red"",""hori"",""left"",[106,106],[-106,-106]]",diamond,red,hori,left,"[106,106]","[-106,-106]",left,1,,,,,,78906,2025-03-17_12h35.22.047,SL_sali_41,2021.2.3,Win32,59.88023952,0.9326,,,98,0,98,0,1,,,,,,,,
,,"[""diamond"",""red"",""vert"",""up"",[0,150],[106,-106]]",diamond,red,vert,up,"[0,150]","[106,-106]",up,1,,,,,,78906,2025-03-17_12h35.22.047,SL_sali_41,2021.2.3,Win32,59.88023952,0.9142,,,99,0,99,0,1,,,,,,,,
,,"[""circle"",""no_dis"",""vert"",""up"",[99999,99999],[-150,0]]",circle,no_dis,vert,up,"[99999,99999]","[-150,0]",up,1,,,,,,78906,2025-03-17_12h35.22.047,SL_sali_41,2021.2.3,Win32,59.88023952,1.3481,,,100,0,100,0,1,,,,,,,,
,,"[""diamond"",""no_dis"",""vert"",""up"",[99999,99999],[-106,-106]]",diamond,no_dis,vert,up,"[99999,99999]","[-106,-106]",up,1,,,,,,78906,2025-03-17_12h35.22.047,SL_sali_41,2021.2.3,Win32,59.88023952,0.9067,,,101,0,101,0,1,,,,,,,,
,,"[""circle"",""red"",""vert"",""up"",[-150,0],[0,150]]",circle,red,vert,up,"[-150,0]","[0,150]",up,1,,,,,,78906,2025-03-17_12h35.22.047,SL_sali_41,2021.2.3,Win32,59.88023952,0.9331,,,102,0,102,0,1,,,,,,,,
,,"[""circle"",""green"",""hori"",""left"",[-150,0],[106,-106]]",circle,green,hori,left,"[-150,0]","[106,-106]",left,1,,,,,,78906,2025-03-17_12h35.22.047,SL_sali_41,2021.2.3,Win32,59.88023952,0.9756,,,103,0,103,0,1,,,,,,,,
,,"[""circle"",""green"",""vert"",""up"",[0,150],[-150,0]]",circle,green,vert,up,"[0,150]","[-150,0]",up,1,,,,,,78906,2025-03-17_12h35.22.047,SL_sali_41,2021.2.3,Win32,59.88023952,1.0216,,,104,0,104,0,1,,,,,,,,
,,"[""circle"",""no_dis"",""hori"",""left"",[99999,99999],[-150,0]]",circle,no_dis,hori,left,"[99999,99999]","[-150,0]",left,1,,,,,,78906,2025-03-17_12h35.22.047,SL_sali_41,2021.2.3,Win32,59.88023952,0.9595,,,105,0,105,0,1,,,,,,,,
,,"[""circle"",""no_dis"",""vert"",""up"",[99999,99999],[106,-106]]",circle,no_dis,vert,up,"[99999,99999]","[106,-106]",up,1,,,,,,78906,2025-03-17_12h35.22.047,SL_sali_41,2021.2.3,Win32,59.88023952,0.7941,,,106,0,106,0,1,,,,,,,,
,,"[""circle"",""red"",""hori"",""left"",[0,150],[106,106]]",circle,red,hori,left,"[0,150]","[106,106]",left,1,,,,,,78906,2025-03-17_12h35.22.047,SL_sali_41,2021.2.3,Win32,59.88023952,0.9096,,,107,0,107,0,1,,,,,,,,
,,"[""diamond"",""green"",""vert"",""up"",[-150,0],[0,150]]",diamond,green,vert,up,"[-150,0]","[0,150]",up,1,,,,,,78906,2025-03-17_12h35.22.047,SL_sali_41,2021.2.3,Win32,59.88023952,1.164,,,108,0,108,0,1,,,,,,,,
,,"[""circle"",""no_dis"",""hori"",""left"",[99999,99999],[150,0]]",circle,no_dis,hori,left,"[99999,99999]","[150,0]",left,1,,,,,,78906,2025-03-17_12h35.22.047,SL_sali_41,2021.2.3,Win32,59.88023952,0.8181,,,109,0,109,0,1,,,,,,,,
,,"[""diamond"",""red"",""vert"",""up"",[0,-150],[-150,0]]",diamond,red,vert,up,"[0,-150]","[-150,0]",up,1,,,,,,78906,2025-03-17_12h35.22.047,SL_sali_41,2021.2.3,Win32,59.88023952,1.1763,,,110,0,110,0,1,,,,,,,,
,,"[""circle"",""green"",""hori"",""left"",[-106,106],[0,150]]",circle,green,hori,left,"[-106,106]","[0,150]",left,1,,,,,,78906,2025-03-17_12h35.22.047,SL_sali_41,2021.2.3,Win32,59.88023952,2.2536,,,111,0,111,0,1,,,,,,,,
,,"[""circle"",""red"",""hori"",""left"",[0,-150],[106,106]]",circle,red,hori,left,"[0,-150]","[106,106]",left,1,,,,,,78906,2025-03-17_12h35.22.047,SL_sali_41,2021.2.3,Win32,59.88023952,0.7821,,,112,0,112,0,1,,,,,,,,
,,"[""diamond"",""red"",""vert"",""up"",[0,150],[-106,-106]]",diamond,red,vert,up,"[0,150]","[-106,-106]",up,1,,,,,,78906,2025-03-17_12h35.22.047,SL_sali_41,2021.2.3,Win32,59.88023952,0.872,,,113,0,113,0,1,,,,,,,,
,,"[""diamond"",""no_dis"",""hori"",""left"",[99999,99999],[-106,106]]",diamond,no_dis,hori,left,"[99999,99999]","[-106,106]",left,1,,,,,,78906,2025-03-17_12h35.22.047,SL_sali_41,2021.2.3,Win32,59.88023952,1.4148,,,114,0,114,0,1,,,,,,,,
,,"[""circle"",""green"",""hori"",""left"",[0,150],[106,-106]]",circle,green,hori,left,"[0,150]","[106,-106]",left,1,,,,,,78906,2025-03-17_12h35.22.047,SL_sali_41,2021.2.3,Win32,59.88023952,0.815,,,115,0,115,0,1,,,,,,,,
,,"[""diamond"",""no_dis"",""vert"",""up"",[99999,99999],[106,106]]",diamond,no_dis,vert,up,"[99999,99999]","[106,106]",up,1,,,,,,78906,2025-03-17_12h35.22.047,SL_sali_41,2021.2.3,Win32,59.88023952,1.2972,,,116,0,116,0,1,,,,,,,,
,,"[""circle"",""no_dis"",""hori"",""left"",[99999,99999],[-150,0]]",circle,no_dis,hori,left,"[99999,99999]","[-150,0]",left,1,,,,,,78906,2025-03-17_12h35.22.047,SL_sali_41,2021.2.3,Win32,59.88023952,0.9167,,,117,0,117,0,1,,,,,,,,
,,"[""diamond"",""green"",""vert"",""up"",[-106,106],[106,-106]]",diamond,green,vert,up,"[-106,106]","[106,-106]",up,1,,,,,,78906,2025-03-17_12h35.22.047,SL_sali_41,2021.2.3,Win32,59.88023952,0.8405,,,118,0,118,0,1,,,,,,,,
,,"[""circle"",""green"",""hori"",""left"",[0,150],[-106,-106]]",circle,green,hori,left,"[0,150]","[-106,-106]",left,1,,,,,,78906,2025-03-17_12h35.22.047,SL_sali_41,2021.2.3,Win32,59.88023952,0.7268,,,119,0,119,0,1,,,,,,,,
,,"[""circle"",""green"",""hori"",""left"",[-106,106],[0,-150]]",circle,green,hori,left,"[-106,106]","[0,-150]",left,1,,,,,,78906,2025-03-17_12h35.22.047,SL_sali_41,2021.2.3,Win32,59.88023952,0.7914,,,120,0,120,0,1,,,,,,,,
,,"[""diamond"",""red"",""vert"",""up"",[-106,106],[106,-106]]",diamond,red,vert,up,"[-106,106]","[106,-106]",up,1,,,,,,78906,2025-03-17_12h35.22.047,SL_sali_41,2021.2.3,Win32,59.88023952,0.7878,,,121,0,121,0,1,,,,,,,,
,,"[""diamond"",""red"",""hori"",""left"",[-106,-106],[0,-150]]",diamond,red,hori,left,"[-106,-106]","[0,-150]",left,1,,,,,,78906,2025-03-17_12h35.22.047,SL_sali_41,2021.2.3,Win32,59.88023952,0.8516,,,122,0,122,0,1,,,,,,,,
,,"[""diamond"",""no_dis"",""vert"",""up"",[99999,99999],[-106,106]]",diamond,no_dis,vert,up,"[99999,99999]","[-106,106]",up,1,,,,,,78906,2025-03-17_12h35.22.047,SL_sali_41,2021.2.3,Win32,59.88023952,0.6478,,,123,0,123,0,1,,,,,,,,
,,"[""circle"",""red"",""vert"",""up"",[106,106],[0,-150]]",circle,red,vert,up,"[106,106]","[0,-150]",up,1,,,,,,78906,2025-03-17_12h35.22.047,SL_sali_41,2021.2.3,Win32,59.88023952,0.8004,,,124,0,124,0,1,,,,,,,,
,,"[""diamond"",""green"",""vert"",""up"",[106,-106],[0,-150]]",diamond,green,vert,up,"[106,-106]","[0,-150]",up,1,,,,,,78906,2025-03-17_12h35.22.047,SL_sali_41,2021.2.3,Win32,59.88023952,0.9472,,,125,0,125,0,1,,,,,,,,
,,"[""circle"",""green"",""vert"",""up"",[106,106],[0,-150]]",circle,green,vert,up,"[106,106]","[0,-150]",up,1,,,,,,78906,2025-03-17_12h35.22.047,SL_sali_41,2021.2.3,Win32,59.88023952,0.734,,,126,0,126,0,1,,,,,,,,
,,"[""diamond"",""no_dis"",""hori"",""left"",[99999,99999],[0,-150]]",diamond,no_dis,hori,left,"[99999,99999]","[0,-150]",left,1,,,,,,78906,2025-03-17_12h35.22.047,SL_sali_41,2021.2.3,Win32,59.88023952,1.9649,,,127,0,127,0,1,,,,,,,,
,,,,,,,,,,,,,,,,78906,2025-03-17_12h35.22.047,SL_sali_41,2021.2.3,Win32,59.88023952,,,,,,,,,2,space,66.3944,1,0,1,0,1
,,"[""circle"",""red"",""hori"",""left"",[106,-106],[106,106]]",circle,red,hori,left,"[106,-106]","[106,106]",left,1,,,,,,78906,2025-03-17_12h35.22.047,SL_sali_41,2021.2.3,Win32,59.88023952,1.2562,,,0,0,0,0,1,,,,,,,,
,,"[""diamond"",""no_dis"",""hori"",""left"",[99999,99999],[106,106]]",diamond,no_dis,hori,left,"[99999,99999]","[106,106]",left,1,,,,,,78906,2025-03-17_12h35.22.047,SL_sali_41,2021.2.3,Win32,59.88023952,1.5475,,,1,0,1,0,1,,,,,,,,
,,"[""circle"",""no_dis"",""hori"",""left"",[99999,99999],[150,0]]",circle,no_dis,hori,left,"[99999,99999]","[150,0]",left,1,,,,,,78906,2025-03-17_12h35.22.047,SL_sali_41,2021.2.3,Win32,59.88023952,0.8409,,,2,0,2,0,1,,,,,,,,
,,"[""circle"",""green"",""hori"",""left"",[0,150],[-106,-106]]",circle,green,hori,left,"[0,150]","[-106,-106]",left,1,,,,,,78906,2025-03-17_12h35.22.047,SL_sali_41,2021.2.3,Win32,59.88023952,0.8664,,,3,0,3,0,1,,,,,,,,
,,"[""circle"",""no_dis"",""hori"",""left"",[99999,99999],[-150,0]]",circle,no_dis,hori,left,"[99999,99999]","[-150,0]",left,1,,,,,,78906,2025-03-17_12h35.22.047,SL_sali_41,2021.2.3,Win32,59.88023952,0.7488,,,4,0,4,0,1,,,,,,,,
,,"[""diamond"",""green"",""hori"",""left"",[106,106],[0,-150]]",diamond,green,hori,left,"[106,106]","[0,-150]",left,1,,,,,,78906,2025-03-17_12h35.22.047,SL_sali_41,2021.2.3,Win32,59.88023952,0.9323,,,5,0,5,0,1,,,,,,,,
,,"[""diamond"",""green"",""vert"",""up"",[0,150],[-106,106]]",diamond,green,vert,up,"[0,150]","[-106,106]",up,1,,,,,,78906,2025-03-17_12h35.22.047,SL_sali_41,2021.2.3,Win32,59.88023952,0.9979,,,6,0,6,0,1,,,,,,,,
,,"[""diamond"",""no_dis"",""vert"",""up"",[99999,99999],[106,-106]]",diamond,no_dis,vert,up,"[99999,99999]","[106,-106]",up,1,,,,,,78906,2025-03-17_12h35.22.047,SL_sali_41,2021.2.3,Win32,59.88023952,0.732,,,7,0,7,0,1,,,,,,,,
,,"[""diamond"",""green"",""hori"",""left"",[-106,-106],[-106,106]]",diamond,green,hori,left,"[-106,-106]","[-106,106]",left,1,,,,,,78906,2025-03-17_12h35.22.047,SL_sali_41,2021.2.3,Win32,59.88023952,1.131,,,8,0,8,0,1,,,,,,,,
,,"[""diamond"",""no_dis"",""vert"",""up"",[99999,99999],[106,-106]]",diamond,no_dis,vert,up,"[99999,99999]","[106,-106]",up,1,,,,,,78906,2025-03-17_12h35.22.047,SL_sali_41,2021.2.3,Win32,59.88023952,0.9323,,,9,0,9,0,1,,,,,,,,
,,"[""diamond"",""no_dis"",""hori"",""left"",[99999,99999],[106,106]]",diamond,no_dis,hori,left,"[99999,99999]","[106,106]",left,1,,,,,,78906,2025-03-17_12h35.22.047,SL_sali_41,2021.2.3,Win32,59.88023952,0.7502,,,10,0,10,0,1,,,,,,,,
,,"[""circle"",""green"",""vert"",""up"",[0,150],[0,-150]]",circle,green,vert,up,"[0,150]","[0,-150]",up,1,,,,,,78906,2025-03-17_12h35.22.047,SL_sali_41,2021.2.3,Win32,59.88023952,1.2714,,,11,0,11,0,1,,,,,,,,
,,"[""diamond"",""red"",""vert"",""up"",[0,150],[106,-106]]",diamond,red,vert,up,"[0,150]","[106,-106]",up,1,,,,,,78906,2025-03-17_12h35.22.047,SL_sali_41,2021.2.3,Win32,59.88023952,0.6436,,,12,0,12,0,1,,,,,,,,
,,"[""diamond"",""red"",""hori"",""left"",[0,150],[150,0]]",diamond,red,hori,left,"[0,150]","[150,0]",left,1,,,,,,78906,2025-03-17_12h35.22.047,SL_sali_41,2021.2.3,Win32,59.88023952,0.6389,,,13,0,13,0,1,,,,,,,,
,,"[""diamond"",""green"",""vert"",""up"",[106,-106],[0,-150]]",diamond,green,vert,up,"[106,-106]","[0,-150]",up,1,,,,,,78906,2025-03-17_12h35.22.047,SL_sali_41,2021.2.3,Win32,59.88023952,1.2096,,,14,0,14,0,1,,,,,,,,
,,"[""circle"",""no_dis"",""hori"",""left"",[99999,99999],[-106,106]]",circle,no_dis,hori,left,"[99999,99999]","[-106,106]",left,1,,,,,,78906,2025-03-17_12h35.22.047,SL_sali_41,2021.2.3,Win32,59.88023952,0.6215,,,15,0,15,0,1,,,,,,,,
,,"[""circle"",""no_dis"",""vert"",""up"",[99999,99999],[-106,-106]]",circle,no_dis,vert,up,"[99999,99999]","[-106,-106]",up,1,,,,,,78906,2025-03-17_12h35.22.047,SL_sali_41,2021.2.3,Win32,59.88023952,0.7222,,,16,0,16,0,1,,,,,,,,
,,"[""diamond"",""red"",""vert"",""up"",[106,-106],[-106,106]]",diamond,red,vert,up,"[106,-106]","[-106,106]",up,1,,,,,,78906,2025-03-17_12h35.22.047,SL_sali_41,2021.2.3,Win32,59.88023952,0.7366,,,17,0,17,0,1,,,,,,,,
,,"[""diamond"",""red"",""hori"",""left"",[-106,-106],[0,-150]]",diamond,red,hori,left,"[-106,-106]","[0,-150]",left,1,,,,,,78906,2025-03-17_12h35.22.047,SL_sali_41,2021.2.3,Win32,59.88023952,0.9697,,,18,0,18,0,1,,,,,,,,
,,"[""circle"",""green"",""hori"",""left"",[0,150],[-106,106]]",circle,green,hori,left,"[0,150]","[-106,106]",left,1,,,,,,78906,2025-03-17_12h35.22.047,SL_sali_41,2021.2.3,Win32,59.88023952,0.7653,,,19,0,19,0,1,,,,,,,,
,,"[""diamond"",""red"",""hori"",""left"",[106,106],[106,-106]]",diamond,red,hori,left,"[106,106]","[106,-106]",left,1,,,,,,78906,2025-03-17_12h35.22.047,SL_sali_41,2021.2.3,Win32,59.88023952,1.2481,,,20,0,20,0,1,,,,,,,,
,,"[""diamond"",""no_dis"",""vert"",""up"",[99999,99999],[0,-150]]",diamond,no_dis,vert,up,"[99999,99999]","[0,-150]",up,1,,,,,,78906,2025-03-17_12h35.22.047,SL_sali_41,2021.2.3,Win32,59.88023952,0.601,,,21,0,21,0,1,,,,,,,,
,,"[""diamond"",""red"",""vert"",""up"",[0,150],[-106,-106]]",diamond,red,vert,up,"[0,150]","[-106,-106]",up,1,,,,,,78906,2025-03-17_12h35.22.047,SL_sali_41,2021.2.3,Win32,59.88023952,0.9314,,,22,0,22,0,1,,,,,,,,
,,"[""circle"",""green"",""hori"",""left"",[-150,0],[106,-106]]",circle,green,hori,left,"[-150,0]","[106,-106]",left,1,,,,,,78906,2025-03-17_12h35.22.047,SL_sali_41,2021.2.3,Win32,59.88023952,0.9586,,,23,0,23,0,1,,,,,,,,
,,"[""circle"",""green"",""hori"",""left"",[0,150],[-106,-106]]",circle,green,hori,left,"[0,150]","[-106,-106]",left,1,,,,,,78906,2025-03-17_12h35.22.047,SL_sali_41,2021.2.3,Win32,59.88023952,0.7241,,,24,0,24,0,1,,,,,,,,
,,"[""circle"",""green"",""hori"",""left"",[0,150],[0,-150]]",circle,green,hori,left,"[0,150]","[0,-150]",left,1,,,,,,78906,2025-03-17_12h35.22.047,SL_sali_41,2021.2.3,Win32,59.88023952,0.7581,,,25,0,25,0,1,,,,,,,,
,,"[""diamond"",""no_dis"",""vert"",""up"",[99999,99999],[0,150]]",diamond,no_dis,vert,up,"[99999,99999]","[0,150]",up,1,,,,,,78906,2025-03-17_12h35.22.047,SL_sali_41,2021.2.3,Win32,59.88023952,1.0817,,,26,0,26,0,1,,,,,,,,
,,"[""diamond"",""red"",""vert"",""up"",[106,106],[106,-106]]",diamond,red,vert,up,"[106,106]","[106,-106]",up,1,,,,,,78906,2025-03-17_12h35.22.047,SL_sali_41,2021.2.3,Win32,59.88023952,0.8482,,,27,0,27,0,1,,,,,,,,
,,"[""diamond"",""no_dis"",""hori"",""left"",[99999,99999],[150,0]]",diamond,no_dis,hori,left,"[99999,99999]","[150,0]",left,1,,,,,,78906,2025-03-17_12h35.22.047,SL_sali_41,2021.2.3,Win32,59.88023952,0.6987,,,28,0,28,0,1,,,,,,,,
,,"[""circle"",""no_dis"",""vert"",""up"",[99999,99999],[-106,-106]]",circle,no_dis,vert,up,"[99999,99999]","[-106,-106]",up,1,,,,,,78906,2025-03-17_12h35.22.047,SL_sali_41,2021.2.3,Win32,59.88023952,0.8723,,,29,0,29,0,1,,,,,,,,
,,"[""circle"",""green"",""vert"",""up"",[-150,0],[106,106]]",circle,green,vert,up,"[-150,0]","[106,106]",up,1,,,,,,78906,2025-03-17_12h35.22.047,SL_sali_41,2021.2.3,Win32,59.88023952,0.7831,,,30,0,30,0,1,,,,,,,,
,,"[""circle"",""red"",""vert"",""up"",[-150,0],[106,-106]]",circle,red,vert,up,"[-150,0]","[106,-106]",up,1,,,,,,78906,2025-03-17_12h35.22.047,SL_sali_41,2021.2.3,Win32,59.88023952,0.8492,,,31,0,31,0,1,,,,,,,,
,,"[""circle"",""red"",""vert"",""up"",[0,150],[106,106]]",circle,red,vert,up,"[0,150]","[106,106]",up,1,,,,,,78906,2025-03-17_12h35.22.047,SL_sali_41,2021.2.3,Win32,59.88023952,0.7334,,,32,0,32,0,1,,,,,,,,
,,"[""diamond"",""red"",""vert"",""up"",[150,0],[-106,-106]]",diamond,red,vert,up,"[150,0]","[-106,-106]",up,1,,,,,,78906,2025-03-17_12h35.22.047,SL_sali_41,2021.2.3,Win32,59.88023952,0.9999,,,33,0,33,0,1,,,,,,,,
,,"[""circle"",""no_dis"",""hori"",""left"",[99999,99999],[-106,106]]",circle,no_dis,hori,left,"[99999,99999]","[-106,106]",left,1,,,,,,78906,2025-03-17_12h35.22.047,SL_sali_41,2021.2.3,Win32,59.88023952,0.6582,,,34,0,34,0,1,,,,,,,,
,,"[""circle"",""red"",""hori"",""left"",[0,150],[106,106]]",circle,red,hori,left,"[0,150]","[106,106]",left,1,,,,,,78906,2025-03-17_12h35.22.047,SL_sali_41,2021.2.3,Win32,59.88023952,0.9165,,,35,0,35,0,1,,,,,,,,
,,"[""diamond"",""green"",""hori"",""left"",[0,150],[-106,-106]]",diamond,green,hori,left,"[0,150]","[-106,-106]",left,1,,,,,,78906,2025-03-17_12h35.22.047,SL_sali_41,2021.2.3,Win32,59.88023952,0.7841,,,36,0,36,0,1,,,,,,,,
,,"[""circle"",""no_dis"",""vert"",""up"",[99999,99999],[-150,0]]",circle,no_dis,vert,up,"[99999,99999]","[-150,0]",up,1,,,,,,78906,2025-03-17_12h35.22.047,SL_sali_41,2021.2.3,Win32,59.88023952,0.7057,,,37,0,37,0,1,,,,,,,,
,,"[""circle"",""green"",""vert"",""up"",[106,-106],[-150,0]]",circle,green,vert,up,"[106,-106]","[-150,0]",up,1,,,,,,78906,2025-03-17_12h35.22.047,SL_sali_41,2021.2.3,Win32,59.88023952,0.5504,,,38,0,38,0,1,,,,,,,,
,,"[""circle"",""red"",""hori"",""left"",[0,150],[106,106]]",circle,red,hori,left,"[0,150]","[106,106]",left,1,,,,,,78906,2025-03-17_12h35.22.047,SL_sali_41,2021.2.3,Win32,59.88023952,1.7807,,,39,0,39,0,1,,,,,,,,
,,"[""circle"",""no_dis"",""vert"",""up"",[99999,99999],[106,-106]]",circle,no_dis,vert,up,"[99999,99999]","[106,-106]",up,1,,,,,,78906,2025-03-17_12h35.22.047,SL_sali_41,2021.2.3,Win32,59.88023952,0.616,,,40,0,40,0,1,,,,,,,,
,,"[""circle"",""red"",""vert"",""up"",[0,-150],[-106,-106]]",circle,red,vert,up,"[0,-150]","[-106,-106]",left,0,,,,,,78906,2025-03-17_12h35.22.047,SL_sali_41,2021.2.3,Win32,59.88023952,0.8986,,,41,0,41,0,1,,,,,,,,
,,"[""diamond"",""no_dis"",""hori"",""left"",[99999,99999],[106,106]]",diamond,no_dis,hori,left,"[99999,99999]","[106,106]",left,1,,,,,,78906,2025-03-17_12h35.22.047,SL_sali_41,2021.2.3,Win32,59.88023952,1.414,,,42,0,42,0,1,,,,,,,,
,,"[""circle"",""green"",""vert"",""up"",[150,0],[0,-150]]",circle,green,vert,up,"[150,0]","[0,-150]",up,1,,,,,,78906,2025-03-17_12h35.22.047,SL_sali_41,2021.2.3,Win32,59.88023952,1.1222,,,43,0,43,0,1,,,,,,,,
,,"[""diamond"",""green"",""hori"",""left"",[0,150],[106,-106]]",diamond,green,hori,left,"[0,150]","[106,-106]",left,1,,,,,,78906,2025-03-17_12h35.22.047,SL_sali_41,2021.2.3,Win32,59.88023952,1.0089,,,44,0,44,0,1,,,,,,,,
,,"[""diamond"",""green"",""hori"",""left"",[0,150],[0,-150]]",diamond,green,hori,left,"[0,150]","[0,-150]",left,1,,,,,,78906,2025-03-17_12h35.22.047,SL_sali_41,2021.2.3,Win32,59.88023952,0.735,,,45,0,45,0,1,,,,,,,,
,,"[""diamond"",""green"",""vert"",""up"",[-106,-106],[0,-150]]",diamond,green,vert,up,"[-106,-106]","[0,-150]",up,1,,,,,,78906,2025-03-17_12h35.22.047,SL_sali_41,2021.2.3,Win32,59.88023952,0.7664,,,46,0,46,0,1,,,,,,,,
,,"[""diamond"",""green"",""hori"",""left"",[0,150],[0,-150]]",diamond,green,hori,left,"[0,150]","[0,-150]",left,1,,,,,,78906,2025-03-17_12h35.22.047,SL_sali_41,2021.2.3,Win32,59.88023952,1.5316,,,47,0,47,0,1,,,,,,,,
,,"[""diamond"",""green"",""vert"",""up"",[-106,106],[106,-106]]",diamond,green,vert,up,"[-106,106]","[106,-106]",up,1,,,,,,78906,2025-03-17_12h35.22.047,SL_sali_41,2021.2.3,Win32,59.88023952,0.772,,,48,0,48,0,1,,,,,,,,
,,"[""diamond"",""green"",""vert"",""up"",[0,150],[-106,106]]",diamond,green,vert,up,"[0,150]","[-106,106]",up,1,,,,,,78906,2025-03-17_12h35.22.047,SL_sali_41,2021.2.3,Win32,59.88023952,0.9131,,,49,0,49,0,1,,,,,,,,
,,"[""circle"",""red"",""hori"",""left"",[106,-106],[106,106]]",circle,red,hori,left,"[106,-106]","[106,106]",left,1,,,,,,78906,2025-03-17_12h35.22.047,SL_sali_41,2021.2.3,Win32,59.88023952,0.8672,,,50,0,50,0,1,,,,,,,,
,,"[""diamond"",""green"",""vert"",""up"",[150,0],[-106,-106]]",diamond,green,vert,up,"[150,0]","[-106,-106]",up,1,,,,,,78906,2025-03-17_12h35.22.047,SL_sali_41,2021.2.3,Win32,59.88023952,1.0326,,,51,0,51,0,1,,,,,,,,
,,"[""diamond"",""no_dis"",""hori"",""left"",[99999,99999],[0,150]]",diamond,no_dis,hori,left,"[99999,99999]","[0,150]",left,1,,,,,,78906,2025-03-17_12h35.22.047,SL_sali_41,2021.2.3,Win32,59.88023952,0.6146,,,52,0,52,0,1,,,,,,,,
,,"[""circle"",""no_dis"",""vert"",""up"",[99999,99999],[150,0]]",circle,no_dis,vert,up,"[99999,99999]","[150,0]",up,1,,,,,,78906,2025-03-17_12h35.22.047,SL_sali_41,2021.2.3,Win32,59.88023952,0.7389,,,53,0,53,0,1,,,,,,,,
,,"[""diamond"",""green"",""vert"",""up"",[0,-150],[0,150]]",diamond,green,vert,up,"[0,-150]","[0,150]",up,1,,,,,,78906,2025-03-17_12h35.22.047,SL_sali_41,2021.2.3,Win32,59.88023952,1.0179,,,54,0,54,0,1,,,,,,,,
,,"[""diamond"",""no_dis"",""hori"",""left"",[99999,99999],[-106,-106]]",diamond,no_dis,hori,left,"[99999,99999]","[-106,-106]",left,1,,,,,,78906,2025-03-17_12h35.22.047,SL_sali_41,2021.2.3,Win32,59.88023952,1.54,,,55,0,55,0,1,,,,,,,,
,,"[""diamond"",""green"",""vert"",""up"",[150,0],[0,150]]",diamond,green,vert,up,"[150,0]","[0,150]",up,1,,,,,,78906,2025-03-17_12h35.22.047,SL_sali_41,2021.2.3,Win32,59.88023952,0.9156,,,56,0,56,0,1,,,,,,,,
,,"[""diamond"",""no_dis"",""vert"",""up"",[99999,99999],[0,-150]]",diamond,no_dis,vert,up,"[99999,99999]","[0,-150]",up,1,,,,,,78906,2025-03-17_12h35.22.047,SL_sali_41,2021.2.3,Win32,59.88023952,0.6887,,,57,0,57,0,1,,,,,,,,
,,"[""diamond"",""green"",""hori"",""left"",[106,-106],[-106,-106]]",diamond,green,hori,left,"[106,-106]","[-106,-106]",left,1,,,,,,78906,2025-03-17_12h35.22.047,SL_sali_41,2021.2.3,Win32,59.88023952,1.1998,,,58,0,58,0,1,,,,,,,,
,,"[""circle"",""green"",""vert"",""up"",[106,106],[0,-150]]",circle,green,vert,up,"[106,106]","[0,-150]",up,1,,,,,,78906,2025-03-17_12h35.22.047,SL_sali_41,2021.2.3,Win32,59.88023952,0.7071,,,59,0,59,0,1,,,,,,,,
,,"[""diamond"",""red"",""hori"",""left"",[0,150],[-106,106]]",diamond,red,hori,left,"[0,150]","[-106,106]",left,1,,,,,,78906,2025-03-17_12h35.22.047,SL_sali_41,2021.2.3,Win32,59.88023952,0.6518,,,60,0,60,0,1,,,,,,,,
,,"[""circle"",""red"",""hori"",""left"",[0,-150],[150,0]]",circle,red,hori,left,"[0,-150]","[150,0]",left,1,,,,,,78906,2025-03-17_12h35.22.047,SL_sali_41,2021.2.3,Win32,59.88023952,0.8894,,,61,0,61,0,1,,,,,,,,
,,"[""diamond"",""no_dis"",""vert"",""up"",[99999,99999],[0,-150]]",diamond,no_dis,vert,up,"[99999,99999]","[0,-150]",up,1,,,,,,78906,2025-03-17_12h35.22.047,SL_sali_41,2021.2.3,Win32,59.88023952,0.5676,,,62,0,62,0,1,,,,,,,,
,,"[""diamond"",""no_dis"",""hori"",""left"",[99999,99999],[106,-106]]",diamond,no_dis,hori,left,"[99999,99999]","[106,-106]",left,1,,,,,,78906,2025-03-17_12h35.22.047,SL_sali_41,2021.2.3,Win32,59.88023952,0.67,,,63,0,63,0,1,,,,,,,,
,,"[""diamond"",""no_dis"",""vert"",""up"",[99999,99999],[0,-150]]",diamond,no_dis,vert,up,"[99999,99999]","[0,-150]",up,1,,,,,,78906,2025-03-17_12h35.22.047,SL_sali_41,2021.2.3,Win32,59.88023952,0.6844,,,64,0,64,0,1,,,,,,,,
,,"[""diamond"",""no_dis"",""hori"",""left"",[99999,99999],[-150,0]]",diamond,no_dis,hori,left,"[99999,99999]","[-150,0]",left,1,,,,,,78906,2025-03-17_12h35.22.047,SL_sali_41,2021.2.3,Win32,59.88023952,0.7997,,,65,0,65,0,1,,,,,,,,
,,"[""circle"",""no_dis"",""hori"",""left"",[99999,99999],[-150,0]]",circle,no_dis,hori,left,"[99999,99999]","[-150,0]",left,1,,,,,,78906,2025-03-17_12h35.22.047,SL_sali_41,2021.2.3,Win32,59.88023952,0.6161,,,66,0,66,0,1,,,,,,,,
,,"[""circle"",""green"",""hori"",""left"",[-106,106],[0,150]]",circle,green,hori,left,"[-106,106]","[0,150]",up,0,,,,,,78906,2025-03-17_12h35.22.047,SL_sali_41,2021.2.3,Win32,59.88023952,1.199,,,67,0,67,0,1,,,,,,,,
,,"[""diamond"",""red"",""hori"",""left"",[150,0],[-150,0]]",diamond,red,hori,left,"[150,0]","[-150,0]",left,1,,,,,,78906,2025-03-17_12h35.22.047,SL_sali_41,2021.2.3,Win32,59.88023952,0.9014,,,68,0,68,0,1,,,,,,,,
,,"[""circle"",""green"",""vert"",""up"",[0,150],[0,-150]]",circle,green,vert,up,"[0,150]","[0,-150]",up,1,,,,,,78906,2025-03-17_12h35.22.047,SL_sali_41,2021.2.3,Win32,59.88023952,0.8504,,,69,0,69,0,1,,,,,,,,
,,"[""circle"",""no_dis"",""hori"",""left"",[99999,99999],[106,106]]",circle,no_dis,hori,left,"[99999,99999]","[106,106]",left,1,,,,,,78906,2025-03-17_12h35.22.047,SL_sali_41,2021.2.3,Win32,59.88023952,0.9525,,,70,0,70,0,1,,,,,,,,
,,"[""circle"",""red"",""vert"",""up"",[150,0],[-150,0]]",circle,red,vert,up,"[150,0]","[-150,0]",up,1,,,,,,78906,2025-03-17_12h35.22.047,SL_sali_41,2021.2.3,Win32,59.88023952,0.7936,,,71,0,71,0,1,,,,,,,,
,,"[""circle"",""red"",""vert"",""up"",[0,150],[-106,-106]]",circle,red,vert,up,"[0,150]","[-106,-106]",up,1,,,,,,78906,2025-03-17_12h35.22.047,SL_sali_41,2021.2.3,Win32,59.88023952,1.5491,,,72,0,72,0,1,,,,,,,,
,,"[""circle"",""no_dis"",""vert"",""up"",[99999,99999],[0,150]]",circle,no_dis,vert,up,"[99999,99999]","[0,150]",up,1,,,,,,78906,2025-03-17_12h35.22.047,SL_sali_41,2021.2.3,Win32,59.88023952,0.8043,,,73,0,73,0,1,,,,,,,,
,,"[""diamond"",""no_dis"",""vert"",""up"",[99999,99999],[106,106]]",diamond,no_dis,vert,up,"[99999,99999]","[106,106]",up,1,,,,,,78906,2025-03-17_12h35.22.047,SL_sali_41,2021.2.3,Win32,59.88023952,1.2302,,,74,0,74,0,1,,,,,,,,
,,"[""diamond"",""no_dis"",""vert"",""up"",[99999,99999],[-106,-106]]",diamond,no_dis,vert,up,"[99999,99999]","[-106,-106]",up,1,,,,,,78906,2025-03-17_12h35.22.047,SL_sali_41,2021.2.3,Win32,59.88023952,0.7309,,,75,0,75,0,1,,,,,,,,
,,"[""diamond"",""red"",""hori"",""left"",[0,-150],[0,150]]",diamond,red,hori,left,"[0,-150]","[0,150]",left,1,,,,,,78906,2025-03-17_12h35.22.047,SL_sali_41,2021.2.3,Win32,59.88023952,1.0406,,,76,0,76,0,1,,,,,,,,
,,"[""circle"",""red"",""vert"",""up"",[-150,0],[0,-150]]",circle,red,vert,up,"[-150,0]","[0,-150]",up,1,,,,,,78906,2025-03-17_12h35.22.047,SL_sali_41,2021.2.3,Win32,59.88023952,1.6033,,,77,0,77,0,1,,,,,,,,
,,"[""circle"",""red"",""vert"",""up"",[-150,0],[-106,-106]]",circle,red,vert,up,"[-150,0]","[-106,-106]",up,1,,,,,,78906,2025-03-17_12h35.22.047,SL_sali_41,2021.2.3,Win32,59.88023952,1.1363,,,78,0,78,0,1,,,,,,,,
,,"[""circle"",""green"",""hori"",""left"",[0,150],[106,-106]]",circle,green,hori,left,"[0,150]","[106,-106]",left,1,,,,,,78906,2025-03-17_12h35.22.047,SL_sali_41,2021.2.3,Win32,59.88023952,0.8504,,,79,0,79,0,1,,,,,,,,
,,"[""diamond"",""red"",""vert"",""up"",[-106,106],[106,-106]]",diamond,red,vert,up,"[-106,106]","[106,-106]",up,1,,,,,,78906,2025-03-17_12h35.22.047,SL_sali_41,2021.2.3,Win32,59.88023952,0.8973,,,80,0,80,0,1,,,,,,,,
,,"[""circle"",""red"",""hori"",""left"",[-106,106],[0,-150]]",circle,red,hori,left,"[-106,106]","[0,-150]",left,1,,,,,,78906,2025-03-17_12h35.22.047,SL_sali_41,2021.2.3,Win32,59.88023952,0.8049,,,81,0,81,0,1,,,,,,,,
,,"[""diamond"",""red"",""hori"",""left"",[0,150],[106,106]]",diamond,red,hori,left,"[0,150]","[106,106]",left,1,,,,,,78906,2025-03-17_12h35.22.047,SL_sali_41,2021.2.3,Win32,59.88023952,1.0185,,,82,0,82,0,1,,,,,,,,
,,"[""circle"",""green"",""vert"",""up"",[-106,106],[106,-106]]",circle,green,vert,up,"[-106,106]","[106,-106]",up,1,,,,,,78906,2025-03-17_12h35.22.047,SL_sali_41,2021.2.3,Win32,59.88023952,0.8546,,,83,0,83,0,1,,,,,,,,
,,"[""circle"",""red"",""vert"",""up"",[-150,0],[0,150]]",circle,red,vert,up,"[-150,0]","[0,150]",up,1,,,,,,78906,2025-03-17_12h35.22.047,SL_sali_41,2021.2.3,Win32,59.88023952,0.8884,,,84,0,84,0,1,,,,,,,,
,,"[""diamond"",""red"",""hori"",""left"",[106,-106],[0,-150]]",diamond,red,hori,left,"[106,-106]","[0,-150]",left,1,,,,,,78906,2025-03-17_12h35.22.047,SL_sali_41,2021.2.3,Win32,59.88023952,1.3876,,,85,0,85,0,1,,,,,,,,
,,"[""circle"",""no_dis"",""hori"",""left"",[99999,99999],[-106,-106]]",circle,no_dis,hori,left,"[99999,99999]","[-106,-106]",left,1,,,,,,78906,2025-03-17_12h35.22.047,SL_sali_41,2021.2.3,Win32,59.88023952,0.6984,,,86,0,86,0,1,,,,,,,,
,,"[""diamond"",""no_dis"",""vert"",""up"",[99999,99999],[-106,106]]",diamond,no_dis,vert,up,"[99999,99999]","[-106,106]",up,1,,,,,,78906,2025-03-17_12h35.22.047,SL_sali_41,2021.2.3,Win32,59.88023952,0.7663,,,87,0,87,0,1,,,,,,,,
,,"[""circle"",""no_dis"",""vert"",""up"",[99999,99999],[-106,106]]",circle,no_dis,vert,up,"[99999,99999]","[-106,106]",up,1,,,,,,78906,2025-03-17_12h35.22.047,SL_sali_41,2021.2.3,Win32,59.88023952,0.755,,,88,0,88,0,1,,,,,,,,
,,"[""diamond"",""green"",""vert"",""up"",[-150,0],[0,150]]",diamond,green,vert,up,"[-150,0]","[0,150]",up,1,,,,,,78906,2025-03-17_12h35.22.047,SL_sali_41,2021.2.3,Win32,59.88023952,0.7522,,,89,0,89,0,1,,,,,,,,
,,"[""circle"",""red"",""vert"",""up"",[106,106],[0,-150]]",circle,red,vert,up,"[106,106]","[0,-150]",up,1,,,,,,78906,2025-03-17_12h35.22.047,SL_sali_41,2021.2.3,Win32,59.88023952,0.7431,,,90,0,90,0,1,,,,,,,,
,,"[""circle"",""red"",""hori"",""left"",[-106,106],[0,150]]",circle,red,hori,left,"[-106,106]","[0,150]",left,1,,,,,,78906,2025-03-17_12h35.22.047,SL_sali_41,2021.2.3,Win32,59.88023952,1.6491,,,91,0,91,0,1,,,,,,,,
,,"[""diamond"",""green"",""hori"",""left"",[0,150],[106,-106]]",diamond,green,hori,left,"[0,150]","[106,-106]",left,1,,,,,,78906,2025-03-17_12h35.22.047,SL_sali_41,2021.2.3,Win32,59.88023952,0.8318,,,92,0,92,0,1,,,,,,,,
,,"[""diamond"",""green"",""vert"",""up"",[106,106],[-150,0]]",diamond,green,vert,up,"[106,106]","[-150,0]",up,1,,,,,,78906,2025-03-17_12h35.22.047,SL_sali_41,2021.2.3,Win32,59.88023952,1.2646,,,93,0,93,0,1,,,,,,,,
,,"[""diamond"",""red"",""hori"",""left"",[106,106],[-106,-106]]",diamond,red,hori,left,"[106,106]","[-106,-106]",left,1,,,,,,78906,2025-03-17_12h35.22.047,SL_sali_41,2021.2.3,Win32,59.88023952,0.9597,,,94,0,94,0,1,,,,,,,,
,,"[""circle"",""green"",""vert"",""up"",[0,150],[-150,0]]",circle,green,vert,up,"[0,150]","[-150,0]",up,1,,,,,,78906,2025-03-17_12h35.22.047,SL_sali_41,2021.2.3,Win32,59.88023952,1.0079,,,95,0,95,0,1,,,,,,,,
,,"[""diamond"",""red"",""vert"",""up"",[0,-150],[-150,0]]",diamond,red,vert,up,"[0,-150]","[-150,0]",up,1,,,,,,78906,2025-03-17_12h35.22.047,SL_sali_41,2021.2.3,Win32,59.88023952,1.2493,,,96,0,96,0,1,,,,,,,,
,,"[""circle"",""green"",""hori"",""left"",[-106,-106],[-106,106]]",circle,green,hori,left,"[-106,-106]","[-106,106]",left,1,,,,,,78906,2025-03-17_12h35.22.047,SL_sali_41,2021.2.3,Win32,59.88023952,0.9246,,,97,0,97,0,1,,,,,,,,
,,"[""diamond"",""no_dis"",""hori"",""left"",[99999,99999],[-106,106]]",diamond,no_dis,hori,left,"[99999,99999]","[-106,106]",left,1,,,,,,78906,2025-03-17_12h35.22.047,SL_sali_41,2021.2.3,Win32,59.88023952,1.2486,,,98,0,98,0,1,,,,,,,,
,,"[""circle"",""no_dis"",""vert"",""up"",[99999,99999],[150,0]]",circle,no_dis,vert,up,"[99999,99999]","[150,0]",left,0,,,,,,78906,2025-03-17_12h35.22.047,SL_sali_41,2021.2.3,Win32,59.88023952,0.8321,,,99,0,99,0,1,,,,,,,,
,,"[""diamond"",""red"",""vert"",""up"",[-106,-106],[0,150]]",diamond,red,vert,up,"[-106,-106]","[0,150]",up,1,,,,,,78906,2025-03-17_12h35.22.047,SL_sali_41,2021.2.3,Win32,59.88023952,0.9028,,,100,0,100,0,1,,,,,,,,
,,"[""diamond"",""green"",""vert"",""up"",[-106,-106],[150,0]]",diamond,green,vert,up,"[-106,-106]","[150,0]",up,1,,,,,,78906,2025-03-17_12h35.22.047,SL_sali_41,2021.2.3,Win32,59.88023952,0.8746,,,101,0,101,0,1,,,,,,,,
,,"[""circle"",""red"",""hori"",""left"",[0,150],[-106,-106]]",circle,red,hori,left,"[0,150]","[-106,-106]",left,1,,,,,,78906,2025-03-17_12h35.22.047,SL_sali_41,2021.2.3,Win32,59.88023952,0.7067,,,102,0,102,0,1,,,,,,,,
,,"[""diamond"",""red"",""vert"",""up"",[0,150],[0,-150]]",diamond,red,vert,up,"[0,150]","[0,-150]",up,1,,,,,,78906,2025-03-17_12h35.22.047,SL_sali_41,2021.2.3,Win32,59.88023952,0.7827,,,103,0,103,0,1,,,,,,,,
,,"[""circle"",""no_dis"",""hori"",""left"",[99999,99999],[0,150]]",circle,no_dis,hori,left,"[99999,99999]","[0,150]",left,1,,,,,,78906,2025-03-17_12h35.22.047,SL_sali_41,2021.2.3,Win32,59.88023952,0.7099,,,104,0,104,0,1,,,,,,,,
,,"[""diamond"",""green"",""hori"",""left"",[-106,-106],[0,-150]]",diamond,green,hori,left,"[-106,-106]","[0,-150]",left,1,,,,,,78906,2025-03-17_12h35.22.047,SL_sali_41,2021.2.3,Win32,59.88023952,0.7815,,,105,0,105,0,1,,,,,,,,
,,"[""diamond"",""red"",""vert"",""up"",[0,150],[106,-106]]",diamond,red,vert,up,"[0,150]","[106,-106]",up,1,,,,,,78906,2025-03-17_12h35.22.047,SL_sali_41,2021.2.3,Win32,59.88023952,0.7679,,,106,0,106,0,1,,,,,,,,
,,"[""diamond"",""red"",""hori"",""left"",[106,-106],[150,0]]",diamond,red,hori,left,"[106,-106]","[150,0]",left,1,,,,,,78906,2025-03-17_12h35.22.047,SL_sali_41,2021.2.3,Win32,59.88023952,1.0718,,,107,0,107,0,1,,,,,,,,
,,"[""diamond"",""red"",""hori"",""left"",[150,0],[-150,0]]",diamond,red,hori,left,"[150,0]","[-150,0]",left,1,,,,,,78906,2025-03-17_12h35.22.047,SL_sali_41,2021.2.3,Win32,59.88023952,0.9656,,,108,0,108,0,1,,,,,,,,
,,"[""circle"",""green"",""vert"",""up"",[106,106],[-106,-106]]",circle,green,vert,up,"[106,106]","[-106,-106]",up,1,,,,,,78906,2025-03-17_12h35.22.047,SL_sali_41,2021.2.3,Win32,59.88023952,0.9874,,,109,0,109,0,1,,,,,,,,
,,"[""circle"",""no_dis"",""hori"",""left"",[99999,99999],[-150,0]]",circle,no_dis,hori,left,"[99999,99999]","[-150,0]",left,1,,,,,,78906,2025-03-17_12h35.22.047,SL_sali_41,2021.2.3,Win32,59.88023952,0.6651,,,110,0,110,0,1,,,,,,,,
,,"[""circle"",""green"",""hori"",""left"",[-106,106],[0,-150]]",circle,green,hori,left,"[-106,106]","[0,-150]",left,1,,,,,,78906,2025-03-17_12h35.22.047,SL_sali_41,2021.2.3,Win32,59.88023952,0.7276,,,111,0,111,0,1,,,,,,,,
,,"[""circle"",""red"",""vert"",""up"",[-106,-106],[-106,106]]",circle,red,vert,up,"[-106,-106]","[-106,106]",up,1,,,,,,78906,2025-03-17_12h35.22.047,SL_sali_41,2021.2.3,Win32,59.88023952,0.8833,,,112,0,112,0,1,,,,,,,,
,,"[""diamond"",""red"",""vert"",""up"",[0,150],[106,-106]]",diamond,red,vert,up,"[0,150]","[106,-106]",up,1,,,,,,78906,2025-03-17_12h35.22.047,SL_sali_41,2021.2.3,Win32,59.88023952,0.7672,,,113,0,113,0,1,,,,,,,,
,,"[""circle"",""green"",""vert"",""up"",[-106,106],[0,150]]",circle,green,vert,up,"[-106,106]","[0,150]",up,1,,,,,,78906,2025-03-17_12h35.22.047,SL_sali_41,2021.2.3,Win32,59.88023952,1.199,,,114,0,114,0,1,,,,,,,,
,,"[""circle"",""no_dis"",""vert"",""up"",[99999,99999],[0,150]]",circle,no_dis,vert,up,"[99999,99999]","[0,150]",up,1,,,,,,78906,2025-03-17_12h35.22.047,SL_sali_41,2021.2.3,Win32,59.88023952,1.0507,,,115,0,115,0,1,,,,,,,,
,,"[""diamond"",""green"",""hori"",""left"",[0,150],[106,106]]",diamond,green,hori,left,"[0,150]","[106,106]",left,1,,,,,,78906,2025-03-17_12h35.22.047,SL_sali_41,2021.2.3,Win32,59.88023952,1.1144,,,116,0,116,0,1,,,,,,,,
,,"[""circle"",""green"",""hori"",""left"",[-150,0],[106,-106]]",circle,green,hori,left,"[-150,0]","[106,-106]",left,1,,,,,,78906,2025-03-17_12h35.22.047,SL_sali_41,2021.2.3,Win32,59.88023952,0.9483,,,117,0,117,0,1,,,,,,,,
,,"[""circle"",""no_dis"",""hori"",""left"",[99999,99999],[150,0]]",circle,no_dis,hori,left,"[99999,99999]","[150,0]",left,1,,,,,,78906,2025-03-17_12h35.22.047,SL_sali_41,2021.2.3,Win32,59.88023952,0.7104,,,118,0,118,0,1,,,,,,,,
,,"[""circle"",""red"",""hori"",""left"",[0,-150],[106,106]]",circle,red,hori,left,"[0,-150]","[106,106]",left,1,,,,,,78906,2025-03-17_12h35.22.047,SL_sali_41,2021.2.3,Win32,59.88023952,0.6335,,,119,0,119,0,1,,,,,,,,
,,"[""circle"",""green"",""vert"",""up"",[0,-150],[0,150]]",circle,green,vert,up,"[0,-150]","[0,150]",up,1,,,,,,78906,2025-03-17_12h35.22.047,SL_sali_41,2021.2.3,Win32,59.88023952,0.6203,,,120,0,120,0,1,,,,,,,,
,,"[""diamond"",""green"",""hori"",""left"",[150,0],[-106,-106]]",diamond,green,hori,left,"[150,0]","[-106,-106]",left,1,,,,,,78906,2025-03-17_12h35.22.047,SL_sali_41,2021.2.3,Win32,59.88023952,1.0332,,,121,0,121,0,1,,,,,,,,
,,"[""circle"",""red"",""hori"",""left"",[0,150],[-150,0]]",circle,red,hori,left,"[0,150]","[-150,0]",left,1,,,,,,78906,2025-03-17_12h35.22.047,SL_sali_41,2021.2.3,Win32,59.88023952,0.9323,,,122,0,122,0,1,,,,,,,,
,,"[""diamond"",""no_dis"",""hori"",""left"",[99999,99999],[0,-150]]",diamond,no_dis,hori,left,"[99999,99999]","[0,-150]",left,1,,,,,,78906,2025-03-17_12h35.22.047,SL_sali_41,2021.2.3,Win32,59.88023952,1.0067,,,123,0,123,0,1,,,,,,,,
,,"[""circle"",""red"",""vert"",""up"",[0,150],[150,0]]",circle,red,vert,up,"[0,150]","[150,0]",left,0,,,,,,78906,2025-03-17_12h35.22.047,SL_sali_41,2021.2.3,Win32,59.88023952,0.7735,,,124,0,124,0,1,,,,,,,,
,,"[""circle"",""no_dis"",""vert"",""up"",[99999,99999],[106,-106]]",circle,no_dis,vert,up,"[99999,99999]","[106,-106]",up,1,,,,,,78906,2025-03-17_12h35.22.047,SL_sali_41,2021.2.3,Win32,59.88023952,0.6338,,,125,0,125,0,1,,,,,,,,
,,"[""circle"",""green"",""hori"",""left"",[0,150],[106,-106]]",circle,green,hori,left,"[0,150]","[106,-106]",left,1,,,,,,78906,2025-03-17_12h35.22.047,SL_sali_41,2021.2.3,Win32,59.88023952,0.8558,,,126,0,126,0,1,,,,,,,,
,,"[""circle"",""red"",""hori"",""left"",[0,-150],[106,106]]",circle,red,hori,left,"[0,-150]","[106,106]",left,1,,,,,,78906,2025-03-17_12h35.22.047,SL_sali_41,2021.2.3,Win32,59.88023952,0.7015,,,127,0,127,0,1,,,,,,,,
,,,,,,,,,,,,,,,,78906,2025-03-17_12h35.22.047,SL_sali_41,2021.2.3,Win32,59.88023952,,,,,,,,,3,space,51.2349,2,0,2,0,1
,,"[""diamond"",""green"",""hori"",""left"",[0,150],[-106,-106]]",diamond,green,hori,left,"[0,150]","[-106,-106]",left,1,,,,,,78906,2025-03-17_12h35.22.047,SL_sali_41,2021.2.3,Win32,59.88023952,1.0821,,,0,0,0,0,1,,,,,,,,
,,"[""diamond"",""no_dis"",""vert"",""up"",[99999,99999],[-106,106]]",diamond,no_dis,vert,up,"[99999,99999]","[-106,106]",up,1,,,,,,78906,2025-03-17_12h35.22.047,SL_sali_41,2021.2.3,Win32,59.88023952,0.7336,,,1,0,1,0,1,,,,,,,,
,,"[""diamond"",""red"",""hori"",""left"",[0,-150],[0,150]]",diamond,red,hori,left,"[0,-150]","[0,150]",left,1,,,,,,78906,2025-03-17_12h35.22.047,SL_sali_41,2021.2.3,Win32,59.88023952,0.759,,,2,0,2,0,1,,,,,,,,
,,"[""circle"",""no_dis"",""hori"",""left"",[99999,99999],[150,0]]",circle,no_dis,hori,left,"[99999,99999]","[150,0]",left,1,,,,,,78906,2025-03-17_12h35.22.047,SL_sali_41,2021.2.3,Win32,59.88023952,0.6986,,,3,0,3,0,1,,,,,,,,
,,"[""diamond"",""no_dis"",""hori"",""left"",[99999,99999],[106,106]]",diamond,no_dis,hori,left,"[99999,99999]","[106,106]",left,1,,,,,,78906,2025-03-17_12h35.22.047,SL_sali_41,2021.2.3,Win32,59.88023952,0.8487,,,4,0,4,0,1,,,,,,,,
,,"[""circle"",""red"",""hori"",""left"",[106,-106],[106,106]]",circle,red,hori,left,"[106,-106]","[106,106]",left,1,,,,,,78906,2025-03-17_12h35.22.047,SL_sali_41,2021.2.3,Win32,59.88023952,1.0066,,,5,0,5,0,1,,,,,,,,
,,"[""circle"",""green"",""vert"",""up"",[0,150],[0,-150]]",circle,green,vert,up,"[0,150]","[0,-150]",up,1,,,,,,78906,2025-03-17_12h35.22.047,SL_sali_41,2021.2.3,Win32,59.88023952,0.9525,,,6,0,6,0,1,,,,,,,,
,,"[""circle"",""green"",""vert"",""up"",[106,-106],[-150,0]]",circle,green,vert,up,"[106,-106]","[-150,0]",up,1,,,,,,78906,2025-03-17_12h35.22.047,SL_sali_41,2021.2.3,Win32,59.88023952,0.7224,,,7,0,7,0,1,,,,,,,,
,,"[""diamond"",""red"",""hori"",""left"",[106,106],[-106,-106]]",diamond,red,hori,left,"[106,106]","[-106,-106]",left,1,,,,,,78906,2025-03-17_12h35.22.047,SL_sali_41,2021.2.3,Win32,59.88023952,0.8998,,,8,0,8,0,1,,,,,,,,
,,"[""diamond"",""no_dis"",""hori"",""left"",[99999,99999],[106,106]]",diamond,no_dis,hori,left,"[99999,99999]","[106,106]",left,1,,,,,,78906,2025-03-17_12h35.22.047,SL_sali_41,2021.2.3,Win32,59.88023952,0.7001,,,9,0,9,0,1,,,,,,,,
,,"[""circle"",""green"",""hori"",""left"",[-150,0],[106,-106]]",circle,green,hori,left,"[-150,0]","[106,-106]",left,1,,,,,,78906,2025-03-17_12h35.22.047,SL_sali_41,2021.2.3,Win32,59.88023952,0.7884,,,10,0,10,0,1,,,,,,,,
,,"[""circle"",""red"",""hori"",""left"",[0,150],[-150,0]]",circle,red,hori,left,"[0,150]","[-150,0]",left,1,,,,,,78906,2025-03-17_12h35.22.047,SL_sali_41,2021.2.3,Win32,59.88023952,0.8321,,,11,0,11,0,1,,,,,,,,
,,"[""diamond"",""green"",""hori"",""left"",[0,150],[0,-150]]",diamond,green,hori,left,"[0,150]","[0,-150]",left,1,,,,,,78906,2025-03-17_12h35.22.047,SL_sali_41,2021.2.3,Win32,59.88023952,0.8501,,,12,0,12,0,1,,,,,,,,
,,"[""diamond"",""green"",""hori"",""left"",[0,150],[106,-106]]",diamond,green,hori,left,"[0,150]","[106,-106]",left,1,,,,,,78906,2025-03-17_12h35.22.047,SL_sali_41,2021.2.3,Win32,59.88023952,0.7497,,,13,0,13,0,1,,,,,,,,
,,"[""circle"",""no_dis"",""vert"",""up"",[99999,99999],[-150,0]]",circle,no_dis,vert,up,"[99999,99999]","[-150,0]",up,1,,,,,,78906,2025-03-17_12h35.22.047,SL_sali_41,2021.2.3,Win32,59.88023952,0.7567,,,14,0,14,0,1,,,,,,,,
,,"[""diamond"",""green"",""vert"",""up"",[-106,106],[106,-106]]",diamond,green,vert,up,"[-106,106]","[106,-106]",up,1,,,,,,78906,2025-03-17_12h35.22.047,SL_sali_41,2021.2.3,Win32,59.88023952,0.9817,,,15,0,15,0,1,,,,,,,,
,,"[""circle"",""red"",""hori"",""left"",[0,150],[106,106]]",circle,red,hori,left,"[0,150]","[106,106]",left,1,,,,,,78906,2025-03-17_12h35.22.047,SL_sali_41,2021.2.3,Win32,59.88023952,0.7495,,,16,0,16,0,1,,,,,,,,
,,"[""circle"",""no_dis"",""hori"",""left"",[99999,99999],[0,150]]",circle,no_dis,hori,left,"[99999,99999]","[0,150]",left,1,,,,,,78906,2025-03-17_12h35.22.047,SL_sali_41,2021.2.3,Win32,59.88023952,0.5992,,,17,0,17,0,1,,,,,,,,
,,"[""circle"",""green"",""hori"",""left"",[-106,-106],[-106,106]]",circle,green,hori,left,"[-106,-106]","[-106,106]",left,1,,,,,,78906,2025-03-17_12h35.22.047,SL_sali_41,2021.2.3,Win32,59.88023952,0.7052,,,18,0,18,0,1,,,,,,,,
,,"[""diamond"",""no_dis"",""hori"",""left"",[99999,99999],[-150,0]]",diamond,no_dis,hori,left,"[99999,99999]","[-150,0]",left,1,,,,,,78906,2025-03-17_12h35.22.047,SL_sali_41,2021.2.3,Win32,59.88023952,0.7204,,,19,0,19,0,1,,,,,,,,
,,"[""circle"",""red"",""hori"",""left"",[0,-150],[106,106]]",circle,red,hori,left,"[0,-150]","[106,106]",left,1,,,,,,78906,2025-03-17_12h35.22.047,SL_sali_41,2021.2.3,Win32,59.88023952,0.7041,,,20,0,20,0,1,,,,,,,,
,,"[""diamond"",""no_dis"",""hori"",""left"",[99999,99999],[-106,106]]",diamond,no_dis,hori,left,"[99999,99999]","[-106,106]",left,1,,,,,,78906,2025-03-17_12h35.22.047,SL_sali_41,2021.2.3,Win32,59.88023952,1.8525,,,21,0,21,0,1,,,,,,,,
,,"[""circle"",""red"",""hori"",""left"",[0,-150],[106,106]]",circle,red,hori,left,"[0,-150]","[106,106]",left,1,,,,,,78906,2025-03-17_12h35.22.047,SL_sali_41,2021.2.3,Win32,59.88023952,0.6832,,,22,0,22,0,1,,,,,,,,
,,"[""diamond"",""no_dis"",""hori"",""left"",[99999,99999],[0,-150]]",diamond,no_dis,hori,left,"[99999,99999]","[0,-150]",left,1,,,,,,78906,2025-03-17_12h35.22.047,SL_sali_41,2021.2.3,Win32,59.88023952,0.8856,,,23,0,23,0,1,,,,,,,,
,,"[""diamond"",""red"",""vert"",""up"",[0,150],[0,-150]]",diamond,red,vert,up,"[0,150]","[0,-150]",up,1,,,,,,78906,2025-03-17_12h35.22.047,SL_sali_41,2021.2.3,Win32,59.88023952,0.8,,,24,0,24,0,1,,,,,,,,
,,"[""diamond"",""green"",""hori"",""left"",[0,150],[0,-150]]",diamond,green,hori,left,"[0,150]","[0,-150]",left,1,,,,,,78906,2025-03-17_12h35.22.047,SL_sali_41,2021.2.3,Win32,59.88023952,0.7024,,,25,0,25,0,1,,,,,,,,
,,"[""circle"",""red"",""vert"",""up"",[0,-150],[-106,-106]]",circle,red,vert,up,"[0,-150]","[-106,-106]",up,1,,,,,,78906,2025-03-17_12h35.22.047,SL_sali_41,2021.2.3,Win32,59.88023952,0.989,,,26,0,26,0,1,,,,,,,,
,,"[""circle"",""no_dis"",""vert"",""up"",[99999,99999],[-106,-106]]",circle,no_dis,vert,up,"[99999,99999]","[-106,-106]",up,1,,,,,,78906,2025-03-17_12h35.22.047,SL_sali_41,2021.2.3,Win32,59.88023952,0.7081,,,27,0,27,0,1,,,,,,,,
,,"[""diamond"",""green"",""hori"",""left"",[0,150],[106,106]]",diamond,green,hori,left,"[0,150]","[106,106]",left,1,,,,,,78906,2025-03-17_12h35.22.047,SL_sali_41,2021.2.3,Win32,59.88023952,1.342,,,28,0,28,0,1,,,,,,,,
,,"[""circle"",""red"",""vert"",""up"",[-150,0],[106,-106]]",circle,red,vert,up,"[-150,0]","[106,-106]",up,1,,,,,,78906,2025-03-17_12h35.22.047,SL_sali_41,2021.2.3,Win32,59.88023952,0.8488,,,29,0,29,0,1,,,,,,,,
,,"[""diamond"",""red"",""hori"",""left"",[106,-106],[150,0]]",diamond,red,hori,left,"[106,-106]","[150,0]",left,1,,,,,,78906,2025-03-17_12h35.22.047,SL_sali_41,2021.2.3,Win32,59.88023952,0.9224,,,30,0,30,0,1,,,,,,,,
,,"[""circle"",""no_dis"",""vert"",""up"",[99999,99999],[-106,-106]]",circle,no_dis,vert,up,"[99999,99999]","[-106,-106]",up,1,,,,,,78906,2025-03-17_12h35.22.047,SL_sali_41,2021.2.3,Win32,59.88023952,0.9158,,,31,0,31,0,1,,,,,,,,
,,"[""circle"",""red"",""vert"",""up"",[-150,0],[-106,-106]]",circle,red,vert,up,"[-150,0]","[-106,-106]",up,1,,,,,,78906,2025-03-17_12h35.22.047,SL_sali_41,2021.2.3,Win32,59.88023952,0.8323,,,32,0,32,0,1,,,,,,,,
,,"[""diamond"",""red"",""vert"",""up"",[106,-106],[-106,106]]",diamond,red,vert,up,"[106,-106]","[-106,106]",up,1,,,,,,78906,2025-03-17_12h35.22.047,SL_sali_41,2021.2.3,Win32,59.88023952,1.1662,,,33,0,33,0,1,,,,,,,,
,,"[""diamond"",""red"",""hori"",""left"",[150,0],[-150,0]]",diamond,red,hori,left,"[150,0]","[-150,0]",left,1,,,,,,78906,2025-03-17_12h35.22.047,SL_sali_41,2021.2.3,Win32,59.88023952,1.5884,,,34,0,34,0,1,,,,,,,,
,,"[""diamond"",""no_dis"",""vert"",""up"",[99999,99999],[106,-106]]",diamond,no_dis,vert,up,"[99999,99999]","[106,-106]",up,1,,,,,,78906,2025-03-17_12h35.22.047,SL_sali_41,2021.2.3,Win32,59.88023952,0.7713,,,35,0,35,0,1,,,,,,,,
,,"[""circle"",""no_dis"",""vert"",""up"",[99999,99999],[150,0]]",circle,no_dis,vert,up,"[99999,99999]","[150,0]",up,1,,,,,,78906,2025-03-17_12h35.22.047,SL_sali_41,2021.2.3,Win32,59.88023952,0.7324,,,36,0,36,0,1,,,,,,,,
,,"[""diamond"",""no_dis"",""hori"",""left"",[99999,99999],[150,0]]",diamond,no_dis,hori,left,"[99999,99999]","[150,0]",left,1,,,,,,78906,2025-03-17_12h35.22.047,SL_sali_41,2021.2.3,Win32,59.88023952,0.8986,,,37,0,37,0,1,,,,,,,,
,,"[""diamond"",""red"",""vert"",""up"",[150,0],[-106,-106]]",diamond,red,vert,up,"[150,0]","[-106,-106]",up,1,,,,,,78906,2025-03-17_12h35.22.047,SL_sali_41,2021.2.3,Win32,59.88023952,0.8981,,,38,0,38,0,1,,,,,,,,
,,"[""circle"",""red"",""vert"",""up"",[0,150],[150,0]]",circle,red,vert,up,"[0,150]","[150,0]",up,1,,,,,,78906,2025-03-17_12h35.22.047,SL_sali_41,2021.2.3,Win32,59.88023952,0.7106,,,39,0,39,0,1,,,,,,,,
,,"[""circle"",""no_dis"",""hori"",""left"",[99999,99999],[106,106]]",circle,no_dis,hori,left,"[99999,99999]","[106,106]",left,1,,,,,,78906,2025-03-17_12h35.22.047,SL_sali_41,2021.2.3,Win32,59.88023952,0.9076,,,40,0,40,0,1,,,,,,,,
,,"[""circle"",""no_dis"",""vert"",""up"",[99999,99999],[150,0]]",circle,no_dis,vert,up,"[99999,99999]","[150,0]",up,1,,,,,,78906,2025-03-17_12h35.22.047,SL_sali_41,2021.2.3,Win32,59.88023952,0.7067,,,41,0,41,0,1,,,,,,,,
,,"[""circle"",""green"",""hori"",""left"",[0,150],[0,-150]]",circle,green,hori,left,"[0,150]","[0,-150]",left,1,,,,,,78906,2025-03-17_12h35.22.047,SL_sali_41,2021.2.3,Win32,59.88023952,0.7565,,,42,0,42,0,1,,,,,,,,
,,"[""diamond"",""red"",""hori"",""left"",[0,150],[-106,106]]",diamond,red,hori,left,"[0,150]","[-106,106]",left,1,,,,,,78906,2025-03-17_12h35.22.047,SL_sali_41,2021.2.3,Win32,59.88023952,1.216,,,43,0,43,0,1,,,,,,,,
,,"[""diamond"",""no_dis"",""vert"",""up"",[99999,99999],[0,-150]]",diamond,no_dis,vert,up,"[99999,99999]","[0,-150]",up,1,,,,,,78906,2025-03-17_12h35.22.047,SL_sali_41,2021.2.3,Win32,59.88023952,0.9318,,,44,0,44,0,1,,,,,,,,
,,"[""diamond"",""no_dis"",""vert"",""up"",[99999,99999],[0,150]]",diamond,no_dis,vert,up,"[99999,99999]","[0,150]",up,1,,,,,,78906,2025-03-17_12h35.22.047,SL_sali_41,2021.2.3,Win32,59.88023952,0.6337,,,45,0,45,0,1,,,,,,,,
,,"[""diamond"",""no_dis"",""hori"",""left"",[99999,99999],[0,150]]",diamond,no_dis,hori,left,"[99999,99999]","[0,150]",left,1,,,,,,78906,2025-03-17_12h35.22.047,SL_sali_41,2021.2.3,Win32,59.88023952,0.7845,,,46,0,46,0,1,,,,,,,,
,,"[""diamond"",""green"",""vert"",""up"",[106,106],[-150,0]]",diamond,green,vert,up,"[106,106]","[-150,0]",up,1,,,,,,78906,2025-03-17_12h35.22.047,SL_sali_41,2021.2.3,Win32,59.88023952,0.9688,,,47,0,47,0,1,,,,,,,,
,,"[""circle"",""red"",""hori"",""left"",[-106,106],[0,150]]",circle,red,hori,left,"[-106,106]","[0,150]",left,1,,,,,,78906,2025-03-17_12h35.22.047,SL_sali_41,2021.2.3,Win32,59.88023952,1.041,,,48,0,48,0,1,,,,,,,,
,,"[""circle"",""green"",""vert"",""up"",[150,0],[0,-150]]",circle,green,vert,up,"[150,0]","[0,-150]",up,1,,,,,,78906,2025-03-17_12h35.22.047,SL_sali_41,2021.2.3,Win32,59.88023952,0.9488,,,49,0,49,0,1,,,,,,,,
,,"[""circle"",""green"",""hori"",""left"",[0,150],[106,-106]]",circle,green,hori,left,"[0,150]","[106,-106]",left,1,,,,,,78906,2025-03-17_12h35.22.047,SL_sali_41,2021.2.3,Win32,59.88023952,0.7846,,,50,0,50,0,1,,,,,,,,
,,"[""circle"",""green"",""vert"",""up"",[-106,106],[0,150]]",circle,green,vert,up,"[-106,106]","[0,150]",up,1,,,,,,78906,2025-03-17_12h35.22.047,SL_sali_41,2021.2.3,Win32,59.88023952,0.7062,,,51,0,51,0,1,,,,,,,,
,,"[""circle"",""no_dis"",""hori"",""left"",[99999,99999],[-150,0]]",circle,no_dis,hori,left,"[99999,99999]","[-150,0]",up,0,,,,,,78906,2025-03-17_12h35.22.047,SL_sali_41,2021.2.3,Win32,59.88023952,0.6693,,,52,0,52,0,1,,,,,,,,
,,"[""circle"",""green"",""vert"",""up"",[0,150],[-150,0]]",circle,green,vert,up,"[0,150]","[-150,0]",up,1,,,,,,78906,2025-03-17_12h35.22.047,SL_sali_41,2021.2.3,Win32,59.88023952,0.7327,,,53,0,53,0,1,,,,,,,,
,,"[""diamond"",""green"",""vert"",""up"",[-106,-106],[150,0]]",diamond,green,vert,up,"[-106,-106]","[150,0]",up,1,,,,,,78906,2025-03-17_12h35.22.047,SL_sali_41,2021.2.3,Win32,59.88023952,1.1478,,,54,0,54,0,1,,,,,,,,
,,"[""circle"",""no_dis"",""hori"",""left"",[99999,99999],[-106,-106]]",circle,no_dis,hori,left,"[99999,99999]","[-106,-106]",left,1,,,,,,78906,2025-03-17_12h35.22.047,SL_sali_41,2021.2.3,Win32,59.88023952,0.6833,,,55,0,55,0,1,,,,,,,,
,,"[""diamond"",""red"",""vert"",""up"",[0,150],[-106,-106]]",diamond,red,vert,up,"[0,150]","[-106,-106]",up,1,,,,,,78906,2025-03-17_12h35.22.047,SL_sali_41,2021.2.3,Win32,59.88023952,0.8041,,,56,0,56,0,1,,,,,,,,
