﻿key_resp.keys,key_resp.rt,trial_para,tar_shape,dis_color_condi,tar_line,cor_resp,dis_loc,tar_loc,resp.keys,resp.corr,resp.rt,trials.thisRepN,trials.thisTrialN,trials.thisN,trials.thisIndex,trials.ran,participant,date,expName,psychopyVersion,OS,frameRate,key_resp_2.keys,key_resp_2.rt,trials_2.thisRepN,trials_2.thisTrialN,trials_2.thisN,trials_2.thisIndex,trials_2.ran,block_num,key_resp_3.keys,key_resp_3.rt,trials_3.thisRepN,trials_3.thisTrialN,trials_3.thisN,trials_3.thisIndex,trials_3.ran
space,16.365,"[""circle"",""no_dis"",""hori"",""left"",[99999,99999],[106,-106]]",circle,no_dis,hori,left,"[99999,99999]","[106,-106]",left,1,2.7855,0,0,0,0,1,001,2025-03-10_16h53.17.500,SL_sali_41,2021.2.3,Win32,59.52380952,,,,,,,,,,,,,,,
,,"[""circle"",""red"",""hori"",""left"",[-150,0],[0,150]]",circle,red,hori,left,"[-150,0]","[0,150]",,0,,1,0,1,0,1,001,2025-03-10_16h53.17.500,SL_sali_41,2021.2.3,Win32,59.52380952,,,,,,,,,,,,,,,
,,"[""circle"",""red"",""vert"",""up"",[106,-106],[106,106]]",circle,red,vert,up,"[106,-106]","[106,106]",up,1,2.3111,2,0,2,0,1,001,2025-03-10_16h53.17.500,SL_sali_41,2021.2.3,Win32,59.52380952,,,,,,,,,,,,,,,
,,"[""diamond"",""red"",""hori"",""left"",[106,106],[-106,106]]",diamond,red,hori,left,"[106,106]","[-106,106]",left,1,2.1967,3,0,3,0,1,001,2025-03-10_16h53.17.500,SL_sali_41,2021.2.3,Win32,59.52380952,,,,,,,,,,,,,,,
,,"[""diamond"",""red"",""hori"",""left"",[0,-150],[-106,106]]",diamond,red,hori,left,"[0,-150]","[-106,106]",left,1,1.1496,4,0,4,0,1,001,2025-03-10_16h53.17.500,SL_sali_41,2021.2.3,Win32,59.52380952,,,,,,,,,,,,,,,
,,"[""diamond"",""red"",""vert"",""up"",[106,-106],[-150,0]]",diamond,red,vert,up,"[106,-106]","[-150,0]",up,1,1.3642,5,0,5,0,1,001,2025-03-10_16h53.17.500,SL_sali_41,2021.2.3,Win32,59.52380952,,,,,,,,,,,,,,,
,,"[""circle"",""red"",""hori"",""left"",[-106,-106],[0,-150]]",circle,red,hori,left,"[-106,-106]","[0,-150]",left,1,1.8471,6,0,6,0,1,001,2025-03-10_16h53.17.500,SL_sali_41,2021.2.3,Win32,59.52380952,,,,,,,,,,,,,,,
,,"[""diamond"",""red"",""hori"",""left"",[150,0],[-106,106]]",diamond,red,hori,left,"[150,0]","[-106,106]",left,1,1.449,7,0,7,0,1,001,2025-03-10_16h53.17.500,SL_sali_41,2021.2.3,Win32,59.52380952,,,,,,,,,,,,,,,
,,"[""circle"",""green"",""vert"",""up"",[0,-150],[-150,0]]",circle,green,vert,up,"[0,-150]","[-150,0]",up,1,1.8,8,0,8,0,1,001,2025-03-10_16h53.17.500,SL_sali_41,2021.2.3,Win32,59.52380952,,,,,,,,,,,,,,,
,,"[""diamond"",""green"",""vert"",""up"",[0,-150],[106,-106]]",diamond,green,vert,up,"[0,-150]","[106,-106]",up,1,1.4629,9,0,9,0,1,001,2025-03-10_16h53.17.500,SL_sali_41,2021.2.3,Win32,59.52380952,,,,,,,,,,,,,,,
,,"[""circle"",""no_dis"",""hori"",""left"",[99999,99999],[106,-106]]",circle,no_dis,hori,left,"[99999,99999]","[106,-106]",left,1,1.1332,,,,,,001,2025-03-10_16h53.17.500,SL_sali_41,2021.2.3,Win32,59.52380952,space,3.9896,0,0,0,0,1,,,,,,,,
,,"[""circle"",""red"",""hori"",""left"",[-150,0],[0,150]]",circle,red,hori,left,"[-150,0]","[0,150]",left,1,1.2,,,,,,001,2025-03-10_16h53.17.500,SL_sali_41,2021.2.3,Win32,59.52380952,,,1,0,1,0,1,,,,,,,,
,,"[""circle"",""red"",""vert"",""up"",[106,-106],[106,106]]",circle,red,vert,up,"[106,-106]","[106,106]",up,1,1.1649,,,,,,001,2025-03-10_16h53.17.500,SL_sali_41,2021.2.3,Win32,59.52380952,,,2,0,2,0,1,,,,,,,,
,,"[""diamond"",""red"",""hori"",""left"",[106,106],[-106,106]]",diamond,red,hori,left,"[106,106]","[-106,106]",left,1,1.177,,,,,,001,2025-03-10_16h53.17.500,SL_sali_41,2021.2.3,Win32,59.52380952,,,3,0,3,0,1,,,,,,,,
,,"[""diamond"",""red"",""hori"",""left"",[0,-150],[-106,106]]",diamond,red,hori,left,"[0,-150]","[-106,106]",left,1,1.3302,,,,,,001,2025-03-10_16h53.17.500,SL_sali_41,2021.2.3,Win32,59.52380952,,,4,0,4,0,1,,,,,,,,
,,"[""diamond"",""red"",""vert"",""up"",[106,-106],[-150,0]]",diamond,red,vert,up,"[106,-106]","[-150,0]",up,1,1.0635,,,,,,001,2025-03-10_16h53.17.500,SL_sali_41,2021.2.3,Win32,59.52380952,,,5,0,5,0,1,,,,,,,,
,,"[""circle"",""red"",""hori"",""left"",[-106,-106],[0,-150]]",circle,red,hori,left,"[-106,-106]","[0,-150]",left,1,1.1171,,,,,,001,2025-03-10_16h53.17.500,SL_sali_41,2021.2.3,Win32,59.52380952,,,6,0,6,0,1,,,,,,,,
,,"[""diamond"",""red"",""hori"",""left"",[150,0],[-106,106]]",diamond,red,hori,left,"[150,0]","[-106,106]",left,1,1.2339,,,,,,001,2025-03-10_16h53.17.500,SL_sali_41,2021.2.3,Win32,59.52380952,,,7,0,7,0,1,,,,,,,,
,,"[""circle"",""green"",""vert"",""up"",[0,-150],[-150,0]]",circle,green,vert,up,"[0,-150]","[-150,0]",up,1,1.3957,,,,,,001,2025-03-10_16h53.17.500,SL_sali_41,2021.2.3,Win32,59.52380952,,,8,0,8,0,1,,,,,,,,
,,"[""diamond"",""green"",""vert"",""up"",[0,-150],[106,-106]]",diamond,green,vert,up,"[0,-150]","[106,-106]",up,1,1.567,,,,,,001,2025-03-10_16h53.17.500,SL_sali_41,2021.2.3,Win32,59.52380952,,,9,0,9,0,1,,,,,,,,
,,"[""diamond"",""red"",""hori"",""left"",[106,-106],[-150,0]]",diamond,red,hori,left,"[106,-106]","[-150,0]",left,1,0.9166,,,,,,001,2025-03-10_16h53.17.500,SL_sali_41,2021.2.3,Win32,59.52380952,,,10,0,10,0,1,,,,,,,,
,,"[""diamond"",""green"",""hori"",""left"",[0,150],[0,-150]]",diamond,green,hori,left,"[0,150]","[0,-150]",left,1,1.0168,,,,,,001,2025-03-10_16h53.17.500,SL_sali_41,2021.2.3,Win32,59.52380952,,,11,0,11,0,1,,,,,,,,
,,"[""diamond"",""green"",""vert"",""up"",[-106,106],[0,-150]]",diamond,green,vert,up,"[-106,106]","[0,-150]",up,1,1.1167,,,,,,001,2025-03-10_16h53.17.500,SL_sali_41,2021.2.3,Win32,59.52380952,,,12,0,12,0,1,,,,,,,,
,,"[""diamond"",""no_dis"",""hori"",""left"",[99999,99999],[-150,0]]",diamond,no_dis,hori,left,"[99999,99999]","[-150,0]",left,1,0.9499,,,,,,001,2025-03-10_16h53.17.500,SL_sali_41,2021.2.3,Win32,59.52380952,,,13,0,13,0,1,,,,,,,,
,,"[""circle"",""green"",""vert"",""up"",[0,150],[150,0]]",circle,green,vert,up,"[0,150]","[150,0]",up,1,1.1719,,,,,,001,2025-03-10_16h53.17.500,SL_sali_41,2021.2.3,Win32,59.52380952,,,14,0,14,0,1,,,,,,,,
,,"[""diamond"",""red"",""vert"",""up"",[0,-150],[-106,106]]",diamond,red,vert,up,"[0,-150]","[-106,106]",up,1,1.0444,,,,,,001,2025-03-10_16h53.17.500,SL_sali_41,2021.2.3,Win32,59.52380952,,,15,0,15,0,1,,,,,,,,
,,"[""diamond"",""green"",""vert"",""up"",[-106,-106],[-150,0]]",diamond,green,vert,up,"[-106,-106]","[-150,0]",up,1,1.061,,,,,,001,2025-03-10_16h53.17.500,SL_sali_41,2021.2.3,Win32,59.52380952,,,16,0,16,0,1,,,,,,,,
,,"[""diamond"",""red"",""hori"",""left"",[-106,106],[-106,-106]]",diamond,red,hori,left,"[-106,106]","[-106,-106]",left,1,1.1834,,,,,,001,2025-03-10_16h53.17.500,SL_sali_41,2021.2.3,Win32,59.52380952,,,17,0,17,0,1,,,,,,,,
,,"[""diamond"",""no_dis"",""vert"",""up"",[99999,99999],[150,0]]",diamond,no_dis,vert,up,"[99999,99999]","[150,0]",up,1,1.4336,,,,,,001,2025-03-10_16h53.17.500,SL_sali_41,2021.2.3,Win32,59.52380952,,,18,0,18,0,1,,,,,,,,
,,"[""diamond"",""green"",""vert"",""up"",[0,-150],[0,150]]",diamond,green,vert,up,"[0,-150]","[0,150]",up,1,1.7714,,,,,,001,2025-03-10_16h53.17.500,SL_sali_41,2021.2.3,Win32,59.52380952,,,19,0,19,0,1,,,,,,,,
,,"[""diamond"",""red"",""vert"",""up"",[150,0],[0,150]]",diamond,red,vert,up,"[150,0]","[0,150]",up,1,1.6837,,,,,,001,2025-03-10_16h53.17.500,SL_sali_41,2021.2.3,Win32,59.52380952,,,20,0,20,0,1,,,,,,,,
,,"[""diamond"",""no_dis"",""vert"",""up"",[99999,99999],[-150,0]]",diamond,no_dis,vert,up,"[99999,99999]","[-150,0]",up,1,1.1997,,,,,,001,2025-03-10_16h53.17.500,SL_sali_41,2021.2.3,Win32,59.52380952,,,21,0,21,0,1,,,,,,,,
,,"[""circle"",""red"",""hori"",""left"",[150,0],[0,-150]]",circle,red,hori,left,"[150,0]","[0,-150]",left,1,1.0339,,,,,,001,2025-03-10_16h53.17.500,SL_sali_41,2021.2.3,Win32,59.52380952,,,22,0,22,0,1,,,,,,,,
,,"[""circle"",""green"",""hori"",""left"",[0,-150],[-106,-106]]",circle,green,hori,left,"[0,-150]","[-106,-106]",left,1,1.2833,,,,,,001,2025-03-10_16h53.17.500,SL_sali_41,2021.2.3,Win32,59.52380952,,,23,0,23,0,1,,,,,,,,
,,"[""diamond"",""red"",""hori"",""left"",[-150,0],[106,106]]",diamond,red,hori,left,"[-150,0]","[106,106]",left,1,1.2156,,,,,,001,2025-03-10_16h53.17.500,SL_sali_41,2021.2.3,Win32,59.52380952,,,24,0,24,0,1,,,,,,,,
,,"[""diamond"",""green"",""hori"",""left"",[0,-150],[106,106]]",diamond,green,hori,left,"[0,-150]","[106,106]",left,1,1.5864,,,,,,001,2025-03-10_16h53.17.500,SL_sali_41,2021.2.3,Win32,59.52380952,,,25,0,25,0,1,,,,,,,,
,,"[""circle"",""green"",""hori"",""left"",[-150,0],[106,-106]]",circle,green,hori,left,"[-150,0]","[106,-106]",left,1,1.2668,,,,,,001,2025-03-10_16h53.17.500,SL_sali_41,2021.2.3,Win32,59.52380952,,,26,0,26,0,1,,,,,,,,
,,"[""diamond"",""no_dis"",""hori"",""left"",[99999,99999],[0,150]]",diamond,no_dis,hori,left,"[99999,99999]","[0,150]",left,1,1.1152,,,,,,001,2025-03-10_16h53.17.500,SL_sali_41,2021.2.3,Win32,59.52380952,,,27,0,27,0,1,,,,,,,,
,,"[""circle"",""green"",""vert"",""up"",[106,-106],[-150,0]]",circle,green,vert,up,"[106,-106]","[-150,0]",up,1,1.0169,,,,,,001,2025-03-10_16h53.17.500,SL_sali_41,2021.2.3,Win32,59.52380952,,,28,0,28,0,1,,,,,,,,
,,"[""circle"",""red"",""hori"",""left"",[0,150],[150,0]]",circle,red,hori,left,"[0,150]","[150,0]",left,1,1.072,,,,,,001,2025-03-10_16h53.17.500,SL_sali_41,2021.2.3,Win32,59.52380952,,,29,0,29,0,1,,,,,,,,
,,"[""diamond"",""red"",""vert"",""up"",[0,-150],[-106,106]]",diamond,red,vert,up,"[0,-150]","[-106,106]",up,1,0.9336,,,,,,001,2025-03-10_16h53.17.500,SL_sali_41,2021.2.3,Win32,59.52380952,,,30,0,30,0,1,,,,,,,,
,,"[""circle"",""green"",""vert"",""up"",[0,-150],[-106,106]]",circle,green,vert,up,"[0,-150]","[-106,106]",up,1,0.8867,,,,,,001,2025-03-10_16h53.17.500,SL_sali_41,2021.2.3,Win32,59.52380952,,,31,0,31,0,1,,,,,,,,
,,"[""diamond"",""no_dis"",""vert"",""up"",[99999,99999],[150,0]]",diamond,no_dis,vert,up,"[99999,99999]","[150,0]",up,1,1.0205,,,,,,001,2025-03-10_16h53.17.500,SL_sali_41,2021.2.3,Win32,59.52380952,,,32,0,32,0,1,,,,,,,,
,,"[""circle"",""red"",""vert"",""up"",[150,0],[0,-150]]",circle,red,vert,up,"[150,0]","[0,-150]",up,1,1.5173,,,,,,001,2025-03-10_16h53.17.500,SL_sali_41,2021.2.3,Win32,59.52380952,,,33,0,33,0,1,,,,,,,,
,,"[""circle"",""red"",""hori"",""left"",[0,-150],[106,106]]",circle,red,hori,left,"[0,-150]","[106,106]",left,1,0.8596,,,,,,001,2025-03-10_16h53.17.500,SL_sali_41,2021.2.3,Win32,59.52380952,,,34,0,34,0,1,,,,,,,,
,,"[""circle"",""no_dis"",""vert"",""up"",[99999,99999],[-106,106]]",circle,no_dis,vert,up,"[99999,99999]","[-106,106]",up,1,0.7651,,,,,,001,2025-03-10_16h53.17.500,SL_sali_41,2021.2.3,Win32,59.52380952,,,35,0,35,0,1,,,,,,,,
,,"[""circle"",""no_dis"",""vert"",""up"",[99999,99999],[0,-150]]",circle,no_dis,vert,up,"[99999,99999]","[0,-150]",up,1,0.9838,,,,,,001,2025-03-10_16h53.17.500,SL_sali_41,2021.2.3,Win32,59.52380952,,,36,0,36,0,1,,,,,,,,
,,"[""diamond"",""no_dis"",""vert"",""up"",[99999,99999],[-106,106]]",diamond,no_dis,vert,up,"[99999,99999]","[-106,106]",left,0,1.1335,,,,,,001,2025-03-10_16h53.17.500,SL_sali_41,2021.2.3,Win32,59.52380952,,,37,0,37,0,1,,,,,,,,
,,"[""diamond"",""no_dis"",""vert"",""up"",[99999,99999],[-106,-106]]",diamond,no_dis,vert,up,"[99999,99999]","[-106,-106]",,0,,,,,,,001,2025-03-10_16h53.17.500,SL_sali_41,2021.2.3,Win32,59.52380952,,,38,0,38,0,1,,,,,,,,
,,"[""circle"",""no_dis"",""hori"",""left"",[99999,99999],[0,150]]",circle,no_dis,hori,left,"[99999,99999]","[0,150]",left,1,1.0661,,,,,,001,2025-03-10_16h53.17.500,SL_sali_41,2021.2.3,Win32,59.52380952,,,39,0,39,0,1,,,,,,,,
,,"[""diamond"",""red"",""vert"",""up"",[-150,0],[106,106]]",diamond,red,vert,up,"[-150,0]","[106,106]",up,1,1.2686,,,,,,001,2025-03-10_16h53.17.500,SL_sali_41,2021.2.3,Win32,59.52380952,,,40,0,40,0,1,,,,,,,,
,,"[""circle"",""green"",""vert"",""up"",[-150,0],[0,-150]]",circle,green,vert,up,"[-150,0]","[0,-150]",up,1,1.0344,,,,,,001,2025-03-10_16h53.17.500,SL_sali_41,2021.2.3,Win32,59.52380952,,,41,0,41,0,1,,,,,,,,
,,"[""diamond"",""no_dis"",""hori"",""left"",[99999,99999],[150,0]]",diamond,no_dis,hori,left,"[99999,99999]","[150,0]",left,1,1.239,,,,,,001,2025-03-10_16h53.17.500,SL_sali_41,2021.2.3,Win32,59.52380952,,,42,0,42,0,1,,,,,,,,
,,"[""circle"",""red"",""hori"",""left"",[-106,-106],[106,-106]]",circle,red,hori,left,"[-106,-106]","[106,-106]",left,1,1.6507,,,,,,001,2025-03-10_16h53.17.500,SL_sali_41,2021.2.3,Win32,59.52380952,,,43,0,43,0,1,,,,,,,,
,,"[""circle"",""red"",""vert"",""up"",[0,-150],[106,-106]]",circle,red,vert,up,"[0,-150]","[106,-106]",up,1,1.1527,,,,,,001,2025-03-10_16h53.17.500,SL_sali_41,2021.2.3,Win32,59.52380952,,,44,0,44,0,1,,,,,,,,
,,"[""circle"",""green"",""hori"",""left"",[0,-150],[-106,-106]]",circle,green,hori,left,"[0,-150]","[-106,-106]",left,1,1.1281,,,,,,001,2025-03-10_16h53.17.500,SL_sali_41,2021.2.3,Win32,59.52380952,,,45,0,45,0,1,,,,,,,,
,,"[""circle"",""red"",""vert"",""up"",[-106,-106],[106,106]]",circle,red,vert,up,"[-106,-106]","[106,106]",up,1,0.7676,,,,,,001,2025-03-10_16h53.17.500,SL_sali_41,2021.2.3,Win32,59.52380952,,,46,0,46,0,1,,,,,,,,
,,"[""circle"",""no_dis"",""hori"",""left"",[99999,99999],[0,-150]]",circle,no_dis,hori,left,"[99999,99999]","[0,-150]",left,1,0.8338,,,,,,001,2025-03-10_16h53.17.500,SL_sali_41,2021.2.3,Win32,59.52380952,,,47,0,47,0,1,,,,,,,,
,,"[""diamond"",""red"",""hori"",""left"",[0,-150],[106,-106]]",diamond,red,hori,left,"[0,-150]","[106,-106]",up,0,1.2436,,,,,,001,2025-03-10_16h53.17.500,SL_sali_41,2021.2.3,Win32,59.52380952,,,48,0,48,0,1,,,,,,,,
,,"[""diamond"",""no_dis"",""hori"",""left"",[99999,99999],[0,-150]]",diamond,no_dis,hori,left,"[99999,99999]","[0,-150]",left,1,1.0264,,,,,,001,2025-03-10_16h53.17.500,SL_sali_41,2021.2.3,Win32,59.52380952,,,49,0,49,0,1,,,,,,,,
,,"[""circle"",""no_dis"",""vert"",""up"",[99999,99999],[106,-106]]",circle,no_dis,vert,up,"[99999,99999]","[106,-106]",up,1,1.2582,,,,,,001,2025-03-10_16h53.17.500,SL_sali_41,2021.2.3,Win32,59.52380952,,,50,0,50,0,1,,,,,,,,
,,"[""diamond"",""red"",""vert"",""up"",[-106,106],[-150,0]]",diamond,red,vert,up,"[-106,106]","[-150,0]",up,1,0.9709,,,,,,001,2025-03-10_16h53.17.500,SL_sali_41,2021.2.3,Win32,59.52380952,,,51,0,51,0,1,,,,,,,,
,,"[""diamond"",""green"",""hori"",""left"",[106,106],[150,0]]",diamond,green,hori,left,"[106,106]","[150,0]",left,1,1.0826,,,,,,001,2025-03-10_16h53.17.500,SL_sali_41,2021.2.3,Win32,59.52380952,,,52,0,52,0,1,,,,,,,,
,,"[""diamond"",""green"",""hori"",""left"",[0,-150],[-106,106]]",diamond,green,hori,left,"[0,-150]","[-106,106]",left,1,0.8328,,,,,,001,2025-03-10_16h53.17.500,SL_sali_41,2021.2.3,Win32,59.52380952,,,53,0,53,0,1,,,,,,,,
,,"[""diamond"",""red"",""hori"",""left"",[106,-106],[106,106]]",diamond,red,hori,left,"[106,-106]","[106,106]",left,1,0.9993,,,,,,001,2025-03-10_16h53.17.500,SL_sali_41,2021.2.3,Win32,59.52380952,,,54,0,54,0,1,,,,,,,,
,,"[""diamond"",""red"",""hori"",""left"",[0,-150],[106,106]]",diamond,red,hori,left,"[0,-150]","[106,106]",left,1,0.7699,,,,,,001,2025-03-10_16h53.17.500,SL_sali_41,2021.2.3,Win32,59.52380952,,,55,0,55,0,1,,,,,,,,
,,"[""circle"",""green"",""hori"",""left"",[106,106],[0,150]]",circle,green,hori,left,"[106,106]","[0,150]",left,1,1.3249,,,,,,001,2025-03-10_16h53.17.500,SL_sali_41,2021.2.3,Win32,59.52380952,,,56,0,56,0,1,,,,,,,,
,,"[""circle"",""green"",""vert"",""up"",[106,106],[150,0]]",circle,green,vert,up,"[106,106]","[150,0]",up,1,1.0674,,,,,,001,2025-03-10_16h53.17.500,SL_sali_41,2021.2.3,Win32,59.52380952,,,57,0,57,0,1,,,,,,,,
,,"[""circle"",""no_dis"",""hori"",""left"",[99999,99999],[0,150]]",circle,no_dis,hori,left,"[99999,99999]","[0,150]",left,1,1.3908,,,,,,001,2025-03-10_16h53.17.500,SL_sali_41,2021.2.3,Win32,59.52380952,,,58,0,58,0,1,,,,,,,,
,,"[""diamond"",""no_dis"",""hori"",""left"",[99999,99999],[106,106]]",diamond,no_dis,hori,left,"[99999,99999]","[106,106]",left,1,0.8833,,,,,,001,2025-03-10_16h53.17.500,SL_sali_41,2021.2.3,Win32,59.52380952,,,59,0,59,0,1,,,,,,,,
,,"[""circle"",""no_dis"",""hori"",""left"",[99999,99999],[0,-150]]",circle,no_dis,hori,left,"[99999,99999]","[0,-150]",left,1,1.4771,,,,,,001,2025-03-10_16h53.17.500,SL_sali_41,2021.2.3,Win32,59.52380952,,,60,0,60,0,1,,,,,,,,
,,"[""diamond"",""green"",""vert"",""up"",[106,-106],[-150,0]]",diamond,green,vert,up,"[106,-106]","[-150,0]",up,1,0.9993,,,,,,001,2025-03-10_16h53.17.500,SL_sali_41,2021.2.3,Win32,59.52380952,,,61,0,61,0,1,,,,,,,,
,,"[""circle"",""red"",""vert"",""up"",[0,150],[0,-150]]",circle,red,vert,up,"[0,150]","[0,-150]",up,1,1.5171,,,,,,001,2025-03-10_16h53.17.500,SL_sali_41,2021.2.3,Win32,59.52380952,,,62,0,62,0,1,,,,,,,,
,,"[""circle"",""no_dis"",""vert"",""up"",[99999,99999],[106,106]]",circle,no_dis,vert,up,"[99999,99999]","[106,106]",up,1,1.0672,,,,,,001,2025-03-10_16h53.17.500,SL_sali_41,2021.2.3,Win32,59.52380952,,,63,0,63,0,1,,,,,,,,
,,"[""diamond"",""green"",""vert"",""up"",[150,0],[-150,0]]",diamond,green,vert,up,"[150,0]","[-150,0]",up,1,1.2506,,,,,,001,2025-03-10_16h53.17.500,SL_sali_41,2021.2.3,Win32,59.52380952,,,64,0,64,0,1,,,,,,,,
,,"[""diamond"",""red"",""vert"",""up"",[-106,-106],[150,0]]",diamond,red,vert,up,"[-106,-106]","[150,0]",left,0,1.2998,,,,,,001,2025-03-10_16h53.17.500,SL_sali_41,2021.2.3,Win32,59.52380952,,,65,0,65,0,1,,,,,,,,
,,"[""circle"",""red"",""vert"",""up"",[0,150],[106,106]]",circle,red,vert,up,"[0,150]","[106,106]",up,1,1.6441,,,,,,001,2025-03-10_16h53.17.500,SL_sali_41,2021.2.3,Win32,59.52380952,,,66,0,66,0,1,,,,,,,,
,,"[""diamond"",""green"",""vert"",""up"",[150,0],[0,150]]",diamond,green,vert,up,"[150,0]","[0,150]",up,1,1.4346,,,,,,001,2025-03-10_16h53.17.500,SL_sali_41,2021.2.3,Win32,59.52380952,,,67,0,67,0,1,,,,,,,,
,,"[""diamond"",""green"",""hori"",""left"",[-150,0],[106,106]]",diamond,green,hori,left,"[-150,0]","[106,106]",left,1,0.8954,,,,,,001,2025-03-10_16h53.17.500,SL_sali_41,2021.2.3,Win32,59.52380952,,,68,0,68,0,1,,,,,,,,
,,"[""circle"",""no_dis"",""vert"",""up"",[99999,99999],[150,0]]",circle,no_dis,vert,up,"[99999,99999]","[150,0]",up,1,1.3004,,,,,,001,2025-03-10_16h53.17.500,SL_sali_41,2021.2.3,Win32,59.52380952,,,69,0,69,0,1,,,,,,,,
,,"[""circle"",""no_dis"",""vert"",""up"",[99999,99999],[0,150]]",circle,no_dis,vert,up,"[99999,99999]","[0,150]",up,1,0.9506,,,,,,001,2025-03-10_16h53.17.500,SL_sali_41,2021.2.3,Win32,59.52380952,,,70,0,70,0,1,,,,,,,,
,,"[""circle"",""no_dis"",""hori"",""left"",[99999,99999],[150,0]]",circle,no_dis,hori,left,"[99999,99999]","[150,0]",left,1,1.0391,,,,,,001,2025-03-10_16h53.17.500,SL_sali_41,2021.2.3,Win32,59.52380952,,,71,0,71,0,1,,,,,,,,
,,"[""circle"",""no_dis"",""vert"",""up"",[99999,99999],[0,-150]]",circle,no_dis,vert,up,"[99999,99999]","[0,-150]",up,1,1.0842,,,,,,001,2025-03-10_16h53.17.500,SL_sali_41,2021.2.3,Win32,59.52380952,,,72,0,72,0,1,,,,,,,,
,,"[""diamond"",""green"",""hori"",""left"",[106,-106],[-106,-106]]",diamond,green,hori,left,"[106,-106]","[-106,-106]",left,1,1.3121,,,,,,001,2025-03-10_16h53.17.500,SL_sali_41,2021.2.3,Win32,59.52380952,,,73,0,73,0,1,,,,,,,,
,,"[""diamond"",""no_dis"",""hori"",""left"",[99999,99999],[-106,106]]",diamond,no_dis,hori,left,"[99999,99999]","[-106,106]",left,1,1.7169,,,,,,001,2025-03-10_16h53.17.500,SL_sali_41,2021.2.3,Win32,59.52380952,,,74,0,74,0,1,,,,,,,,
,,"[""circle"",""green"",""vert"",""up"",[0,150],[-106,-106]]",circle,green,vert,up,"[0,150]","[-106,-106]",up,1,1.267,,,,,,001,2025-03-10_16h53.17.500,SL_sali_41,2021.2.3,Win32,59.52380952,,,75,0,75,0,1,,,,,,,,
,,"[""circle"",""red"",""vert"",""up"",[-106,-106],[150,0]]",circle,red,vert,up,"[-106,-106]","[150,0]",up,1,1.0872,,,,,,001,2025-03-10_16h53.17.500,SL_sali_41,2021.2.3,Win32,59.52380952,,,76,0,76,0,1,,,,,,,,
,,"[""circle"",""green"",""vert"",""up"",[-106,-106],[106,106]]",circle,green,vert,up,"[-106,-106]","[106,106]",up,1,1.1713,,,,,,001,2025-03-10_16h53.17.500,SL_sali_41,2021.2.3,Win32,59.52380952,,,77,0,77,0,1,,,,,,,,
,,"[""diamond"",""green"",""hori"",""left"",[0,-150],[0,150]]",diamond,green,hori,left,"[0,-150]","[0,150]",left,1,1.2659,,,,,,001,2025-03-10_16h53.17.500,SL_sali_41,2021.2.3,Win32,59.52380952,,,78,0,78,0,1,,,,,,,,
,,"[""diamond"",""no_dis"",""hori"",""left"",[99999,99999],[-106,-106]]",diamond,no_dis,hori,left,"[99999,99999]","[-106,-106]",left,1,1.1174,,,,,,001,2025-03-10_16h53.17.500,SL_sali_41,2021.2.3,Win32,59.52380952,,,79,0,79,0,1,,,,,,,,
,,"[""circle"",""green"",""vert"",""up"",[0,150],[0,-150]]",circle,green,vert,up,"[0,150]","[0,-150]",up,1,1.1494,,,,,,001,2025-03-10_16h53.17.500,SL_sali_41,2021.2.3,Win32,59.52380952,,,80,0,80,0,1,,,,,,,,
,,"[""circle"",""no_dis"",""hori"",""left"",[99999,99999],[-150,0]]",circle,no_dis,hori,left,"[99999,99999]","[-150,0]",left,1,1.2502,,,,,,001,2025-03-10_16h53.17.500,SL_sali_41,2021.2.3,Win32,59.52380952,,,81,0,81,0,1,,,,,,,,
,,"[""circle"",""green"",""hori"",""left"",[0,-150],[150,0]]",circle,green,hori,left,"[0,-150]","[150,0]",up,0,1.7832,,,,,,001,2025-03-10_16h53.17.500,SL_sali_41,2021.2.3,Win32,59.52380952,,,82,0,82,0,1,,,,,,,,
,,"[""diamond"",""green"",""hori"",""left"",[106,106],[-106,106]]",diamond,green,hori,left,"[106,106]","[-106,106]",left,1,1.2828,,,,,,001,2025-03-10_16h53.17.500,SL_sali_41,2021.2.3,Win32,59.52380952,,,83,0,83,0,1,,,,,,,,
,,"[""circle"",""green"",""hori"",""left"",[106,106],[150,0]]",circle,green,hori,left,"[106,106]","[150,0]",left,1,1.4765,,,,,,001,2025-03-10_16h53.17.500,SL_sali_41,2021.2.3,Win32,59.52380952,,,84,0,84,0,1,,,,,,,,
,,"[""diamond"",""green"",""hori"",""left"",[-106,106],[106,106]]",diamond,green,hori,left,"[-106,106]","[106,106]",left,1,1.1339,,,,,,001,2025-03-10_16h53.17.500,SL_sali_41,2021.2.3,Win32,59.52380952,,,85,0,85,0,1,,,,,,,,
,,"[""circle"",""no_dis"",""vert"",""up"",[99999,99999],[-106,106]]",circle,no_dis,vert,up,"[99999,99999]","[-106,106]",up,1,0.8282,,,,,,001,2025-03-10_16h53.17.500,SL_sali_41,2021.2.3,Win32,59.52380952,,,86,0,86,0,1,,,,,,,,
,,"[""diamond"",""no_dis"",""vert"",""up"",[99999,99999],[106,106]]",diamond,no_dis,vert,up,"[99999,99999]","[106,106]",up,1,1.1523,,,,,,001,2025-03-10_16h53.17.500,SL_sali_41,2021.2.3,Win32,59.52380952,,,87,0,87,0,1,,,,,,,,
,,"[""circle"",""no_dis"",""vert"",""up"",[99999,99999],[106,-106]]",circle,no_dis,vert,up,"[99999,99999]","[106,-106]",up,1,1.3162,,,,,,001,2025-03-10_16h53.17.500,SL_sali_41,2021.2.3,Win32,59.52380952,,,88,0,88,0,1,,,,,,,,
,,"[""diamond"",""red"",""vert"",""up"",[150,0],[-106,-106]]",diamond,red,vert,up,"[150,0]","[-106,-106]",up,1,1.3823,,,,,,001,2025-03-10_16h53.17.500,SL_sali_41,2021.2.3,Win32,59.52380952,,,89,0,89,0,1,,,,,,,,
,,"[""diamond"",""green"",""vert"",""up"",[0,-150],[-106,-106]]",diamond,green,vert,up,"[0,-150]","[-106,-106]",up,1,1.5448,,,,,,001,2025-03-10_16h53.17.500,SL_sali_41,2021.2.3,Win32,59.52380952,,,90,0,90,0,1,,,,,,,,
,,"[""circle"",""green"",""vert"",""up"",[-106,106],[0,150]]",circle,green,vert,up,"[-106,106]","[0,150]",up,1,1.0822,,,,,,001,2025-03-10_16h53.17.500,SL_sali_41,2021.2.3,Win32,59.52380952,,,91,0,91,0,1,,,,,,,,
,,"[""circle"",""red"",""vert"",""up"",[0,-150],[0,150]]",circle,red,vert,up,"[0,-150]","[0,150]",up,1,1.1,,,,,,001,2025-03-10_16h53.17.500,SL_sali_41,2021.2.3,Win32,59.52380952,,,92,0,92,0,1,,,,,,,,
,,"[""diamond"",""no_dis"",""hori"",""left"",[99999,99999],[106,106]]",diamond,no_dis,hori,left,"[99999,99999]","[106,106]",left,1,0.9169,,,,,,001,2025-03-10_16h53.17.500,SL_sali_41,2021.2.3,Win32,59.52380952,,,93,0,93,0,1,,,,,,,,
,,"[""circle"",""red"",""hori"",""left"",[0,-150],[106,106]]",circle,red,hori,left,"[0,-150]","[106,106]",left,1,1.0322,,,,,,001,2025-03-10_16h53.17.500,SL_sali_41,2021.2.3,Win32,59.52380952,,,94,0,94,0,1,,,,,,,,
,,"[""diamond"",""green"",""vert"",""up"",[-150,0],[0,150]]",diamond,green,vert,up,"[-150,0]","[0,150]",up,1,0.9991,,,,,,001,2025-03-10_16h53.17.500,SL_sali_41,2021.2.3,Win32,59.52380952,,,95,0,95,0,1,,,,,,,,
,,"[""circle"",""no_dis"",""hori"",""left"",[99999,99999],[-106,-106]]",circle,no_dis,hori,left,"[99999,99999]","[-106,-106]",left,1,1.0444,,,,,,001,2025-03-10_16h53.17.500,SL_sali_41,2021.2.3,Win32,59.52380952,,,96,0,96,0,1,,,,,,,,
,,"[""diamond"",""no_dis"",""vert"",""up"",[99999,99999],[106,-106]]",diamond,no_dis,vert,up,"[99999,99999]","[106,-106]",up,1,1.8495,,,,,,001,2025-03-10_16h53.17.500,SL_sali_41,2021.2.3,Win32,59.52380952,,,97,0,97,0,1,,,,,,,,
,,"[""circle"",""green"",""hori"",""left"",[-106,106],[150,0]]",circle,green,hori,left,"[-106,106]","[150,0]",left,1,0.95,,,,,,001,2025-03-10_16h53.17.500,SL_sali_41,2021.2.3,Win32,59.52380952,,,98,0,98,0,1,,,,,,,,
,,"[""circle"",""no_dis"",""hori"",""left"",[99999,99999],[-106,106]]",circle,no_dis,hori,left,"[99999,99999]","[-106,106]",left,1,1.246,,,,,,001,2025-03-10_16h53.17.500,SL_sali_41,2021.2.3,Win32,59.52380952,,,99,0,99,0,1,,,,,,,,
,,"[""diamond"",""no_dis"",""vert"",""up"",[99999,99999],[-106,-106]]",diamond,no_dis,vert,up,"[99999,99999]","[-106,-106]",up,1,1.6339,,,,,,001,2025-03-10_16h53.17.500,SL_sali_41,2021.2.3,Win32,59.52380952,,,100,0,100,0,1,,,,,,,,
,,"[""circle"",""green"",""hori"",""left"",[0,-150],[-150,0]]",circle,green,hori,left,"[0,-150]","[-150,0]",left,1,1.3843,,,,,,001,2025-03-10_16h53.17.500,SL_sali_41,2021.2.3,Win32,59.52380952,,,101,0,101,0,1,,,,,,,,
,,"[""diamond"",""green"",""hori"",""left"",[0,-150],[106,-106]]",diamond,green,hori,left,"[0,-150]","[106,-106]",left,1,1.4665,,,,,,001,2025-03-10_16h53.17.500,SL_sali_41,2021.2.3,Win32,59.52380952,,,102,0,102,0,1,,,,,,,,
,,"[""diamond"",""red"",""vert"",""up"",[0,-150],[150,0]]",diamond,red,vert,up,"[0,-150]","[150,0]",up,1,1.1827,,,,,,001,2025-03-10_16h53.17.500,SL_sali_41,2021.2.3,Win32,59.52380952,,,103,0,103,0,1,,,,,,,,
,,"[""circle"",""green"",""vert"",""up"",[0,-150],[-106,106]]",circle,green,vert,up,"[0,-150]","[-106,106]",up,1,1.1679,,,,,,001,2025-03-10_16h53.17.500,SL_sali_41,2021.2.3,Win32,59.52380952,,,104,0,104,0,1,,,,,,,,
,,"[""circle"",""red"",""vert"",""up"",[0,-150],[-150,0]]",circle,red,vert,up,"[0,-150]","[-150,0]",up,1,1.2996,,,,,,001,2025-03-10_16h53.17.500,SL_sali_41,2021.2.3,Win32,59.52380952,,,105,0,105,0,1,,,,,,,,
,,"[""circle"",""green"",""hori"",""left"",[-106,106],[106,106]]",circle,green,hori,left,"[-106,106]","[106,106]",left,1,0.9337,,,,,,001,2025-03-10_16h53.17.500,SL_sali_41,2021.2.3,Win32,59.52380952,,,106,0,106,0,1,,,,,,,,
,,"[""circle"",""red"",""hori"",""left"",[0,-150],[-106,106]]",circle,red,hori,left,"[0,-150]","[-106,106]",left,1,0.9555,,,,,,001,2025-03-10_16h53.17.500,SL_sali_41,2021.2.3,Win32,59.52380952,,,107,0,107,0,1,,,,,,,,
,,"[""diamond"",""red"",""hori"",""left"",[150,0],[106,-106]]",diamond,red,hori,left,"[150,0]","[106,-106]",left,1,1.25,,,,,,001,2025-03-10_16h53.17.500,SL_sali_41,2021.2.3,Win32,59.52380952,,,108,0,108,0,1,,,,,,,,
,,"[""circle"",""no_dis"",""vert"",""up"",[99999,99999],[-150,0]]",circle,no_dis,vert,up,"[99999,99999]","[-150,0]",up,1,1.1506,,,,,,001,2025-03-10_16h53.17.500,SL_sali_41,2021.2.3,Win32,59.52380952,,,109,0,109,0,1,,,,,,,,
,,"[""circle"",""red"",""vert"",""up"",[0,-150],[106,-106]]",circle,red,vert,up,"[0,-150]","[106,-106]",up,1,1.0004,,,,,,001,2025-03-10_16h53.17.500,SL_sali_41,2021.2.3,Win32,59.52380952,,,110,0,110,0,1,,,,,,,,
,,"[""circle"",""red"",""vert"",""up"",[0,-150],[106,106]]",circle,red,vert,up,"[0,-150]","[106,106]",up,1,0.7514,,,,,,001,2025-03-10_16h53.17.500,SL_sali_41,2021.2.3,Win32,59.52380952,,,111,0,111,0,1,,,,,,,,
,,"[""diamond"",""no_dis"",""hori"",""left"",[99999,99999],[-106,-106]]",diamond,no_dis,hori,left,"[99999,99999]","[-106,-106]",left,1,1.0839,,,,,,001,2025-03-10_16h53.17.500,SL_sali_41,2021.2.3,Win32,59.52380952,,,112,0,112,0,1,,,,,,,,
,,"[""circle"",""red"",""hori"",""left"",[0,150],[106,-106]]",circle,red,hori,left,"[0,150]","[106,-106]",left,1,1.0769,,,,,,001,2025-03-10_16h53.17.500,SL_sali_41,2021.2.3,Win32,59.52380952,,,113,0,113,0,1,,,,,,,,
,,"[""diamond"",""red"",""vert"",""up"",[-150,0],[0,-150]]",diamond,red,vert,up,"[-150,0]","[0,-150]",up,1,1.2123,,,,,,001,2025-03-10_16h53.17.500,SL_sali_41,2021.2.3,Win32,59.52380952,,,114,0,114,0,1,,,,,,,,
,,"[""diamond"",""no_dis"",""hori"",""left"",[99999,99999],[-150,0]]",diamond,no_dis,hori,left,"[99999,99999]","[-150,0]",left,1,1.0517,,,,,,001,2025-03-10_16h53.17.500,SL_sali_41,2021.2.3,Win32,59.52380952,,,115,0,115,0,1,,,,,,,,
,,"[""circle"",""red"",""hori"",""left"",[106,106],[150,0]]",circle,red,hori,left,"[106,106]","[150,0]",left,1,1.583,,,,,,001,2025-03-10_16h53.17.500,SL_sali_41,2021.2.3,Win32,59.52380952,,,116,0,116,0,1,,,,,,,,
,,"[""diamond"",""no_dis"",""vert"",""up"",[99999,99999],[106,106]]",diamond,no_dis,vert,up,"[99999,99999]","[106,106]",up,1,0.9701,,,,,,001,2025-03-10_16h53.17.500,SL_sali_41,2021.2.3,Win32,59.52380952,,,117,0,117,0,1,,,,,,,,
,,"[""diamond"",""green"",""hori"",""left"",[0,-150],[-150,0]]",diamond,green,hori,left,"[0,-150]","[-150,0]",left,1,0.9084,,,,,,001,2025-03-10_16h53.17.500,SL_sali_41,2021.2.3,Win32,59.52380952,,,118,0,118,0,1,,,,,,,,
,,"[""diamond"",""red"",""hori"",""left"",[0,-150],[-150,0]]",diamond,red,hori,left,"[0,-150]","[-150,0]",left,1,1.0659,,,,,,001,2025-03-10_16h53.17.500,SL_sali_41,2021.2.3,Win32,59.52380952,,,119,0,119,0,1,,,,,,,,
,,"[""circle"",""green"",""hori"",""left"",[0,-150],[150,0]]",circle,green,hori,left,"[0,-150]","[150,0]",left,1,1.3601,,,,,,001,2025-03-10_16h53.17.500,SL_sali_41,2021.2.3,Win32,59.52380952,,,120,0,120,0,1,,,,,,,,
,,"[""circle"",""no_dis"",""hori"",""left"",[99999,99999],[0,150]]",circle,no_dis,hori,left,"[99999,99999]","[0,150]",left,1,0.9076,,,,,,001,2025-03-10_16h53.17.500,SL_sali_41,2021.2.3,Win32,59.52380952,,,121,0,121,0,1,,,,,,,,
,,"[""diamond"",""green"",""vert"",""up"",[106,-106],[0,150]]",diamond,green,vert,up,"[106,-106]","[0,150]",up,1,1.0384,,,,,,001,2025-03-10_16h53.17.500,SL_sali_41,2021.2.3,Win32,59.52380952,,,122,0,122,0,1,,,,,,,,
,,"[""circle"",""green"",""hori"",""left"",[-106,106],[0,150]]",circle,green,hori,left,"[-106,106]","[0,150]",left,1,1.8503,,,,,,001,2025-03-10_16h53.17.500,SL_sali_41,2021.2.3,Win32,59.52380952,,,123,0,123,0,1,,,,,,,,
,,"[""diamond"",""green"",""vert"",""up"",[-106,-106],[150,0]]",diamond,green,vert,up,"[-106,-106]","[150,0]",up,1,0.9042,,,,,,001,2025-03-10_16h53.17.500,SL_sali_41,2021.2.3,Win32,59.52380952,,,124,0,124,0,1,,,,,,,,
,,"[""diamond"",""no_dis"",""vert"",""up"",[99999,99999],[106,-106]]",diamond,no_dis,vert,up,"[99999,99999]","[106,-106]",up,1,1.0449,,,,,,001,2025-03-10_16h53.17.500,SL_sali_41,2021.2.3,Win32,59.52380952,,,125,0,125,0,1,,,,,,,,
,,"[""diamond"",""red"",""vert"",""up"",[106,106],[-150,0]]",diamond,red,vert,up,"[106,106]","[-150,0]",up,1,1.0169,,,,,,001,2025-03-10_16h53.17.500,SL_sali_41,2021.2.3,Win32,59.52380952,,,126,0,126,0,1,,,,,,,,
,,"[""circle"",""red"",""hori"",""left"",[0,-150],[-150,0]]",circle,red,hori,left,"[0,-150]","[-150,0]",left,1,0.9446,,,,,,001,2025-03-10_16h53.17.500,SL_sali_41,2021.2.3,Win32,59.52380952,,,127,0,127,0,1,,,,,,,,
,,,,,,,,,,,,,,,,,001,2025-03-10_16h53.17.500,SL_sali_41,2021.2.3,Win32,59.52380952,,,,,,,,1,space,11.9328,0,0,0,0,1
,,"[""circle"",""no_dis"",""vert"",""up"",[99999,99999],[0,150]]",circle,no_dis,vert,up,"[99999,99999]","[0,150]",up,1,0.8736,,,,,,001,2025-03-10_16h53.17.500,SL_sali_41,2021.2.3,Win32,59.52380952,,,0,0,0,0,1,,,,,,,,
,,"[""diamond"",""red"",""hori"",""left"",[0,-150],[106,106]]",diamond,red,hori,left,"[0,-150]","[106,106]",left,1,0.9167,,,,,,001,2025-03-10_16h53.17.500,SL_sali_41,2021.2.3,Win32,59.52380952,,,1,0,1,0,1,,,,,,,,
,,"[""diamond"",""green"",""vert"",""up"",[0,-150],[-106,-106]]",diamond,green,vert,up,"[0,-150]","[-106,-106]",up,1,1.2839,,,,,,001,2025-03-10_16h53.17.500,SL_sali_41,2021.2.3,Win32,59.52380952,,,2,0,2,0,1,,,,,,,,
,,"[""diamond"",""red"",""vert"",""up"",[-150,0],[0,-150]]",diamond,red,vert,up,"[-150,0]","[0,-150]",up,1,1.2714,,,,,,001,2025-03-10_16h53.17.500,SL_sali_41,2021.2.3,Win32,59.52380952,,,3,0,3,0,1,,,,,,,,
,,"[""circle"",""green"",""vert"",""up"",[0,150],[-106,-106]]",circle,green,vert,up,"[0,150]","[-106,-106]",up,1,1.0132,,,,,,001,2025-03-10_16h53.17.500,SL_sali_41,2021.2.3,Win32,59.52380952,,,4,0,4,0,1,,,,,,,,
,,"[""circle"",""green"",""vert"",""up"",[0,150],[150,0]]",circle,green,vert,up,"[0,150]","[150,0]",up,1,0.9504,,,,,,001,2025-03-10_16h53.17.500,SL_sali_41,2021.2.3,Win32,59.52380952,,,5,0,5,0,1,,,,,,,,
,,"[""circle"",""red"",""hori"",""left"",[-106,-106],[0,-150]]",circle,red,hori,left,"[-106,-106]","[0,-150]",left,1,1.1565,,,,,,001,2025-03-10_16h53.17.500,SL_sali_41,2021.2.3,Win32,59.52380952,,,6,0,6,0,1,,,,,,,,
,,"[""diamond"",""no_dis"",""hori"",""left"",[99999,99999],[106,106]]",diamond,no_dis,hori,left,"[99999,99999]","[106,106]",left,1,0.8327,,,,,,001,2025-03-10_16h53.17.500,SL_sali_41,2021.2.3,Win32,59.52380952,,,7,0,7,0,1,,,,,,,,
,,"[""diamond"",""red"",""vert"",""up"",[106,106],[-150,0]]",diamond,red,vert,up,"[106,106]","[-150,0]",up,1,1.0078,,,,,,001,2025-03-10_16h53.17.500,SL_sali_41,2021.2.3,Win32,59.52380952,,,8,0,8,0,1,,,,,,,,
,,"[""diamond"",""green"",""hori"",""left"",[-150,0],[106,106]]",diamond,green,hori,left,"[-150,0]","[106,106]",left,1,0.9838,,,,,,001,2025-03-10_16h53.17.500,SL_sali_41,2021.2.3,Win32,59.52380952,,,9,0,9,0,1,,,,,,,,
,,"[""circle"",""green"",""hori"",""left"",[0,-150],[150,0]]",circle,green,hori,left,"[0,-150]","[150,0]",left,1,0.9337,,,,,,001,2025-03-10_16h53.17.500,SL_sali_41,2021.2.3,Win32,59.52380952,,,10,0,10,0,1,,,,,,,,
,,"[""circle"",""no_dis"",""hori"",""left"",[99999,99999],[106,-106]]",circle,no_dis,hori,left,"[99999,99999]","[106,-106]",left,1,1.4338,,,,,,001,2025-03-10_16h53.17.500,SL_sali_41,2021.2.3,Win32,59.52380952,,,11,0,11,0,1,,,,,,,,
,,"[""diamond"",""red"",""vert"",""up"",[0,-150],[150,0]]",diamond,red,vert,up,"[0,-150]","[150,0]",up,1,0.8989,,,,,,001,2025-03-10_16h53.17.500,SL_sali_41,2021.2.3,Win32,59.52380952,,,12,0,12,0,1,,,,,,,,
,,"[""diamond"",""no_dis"",""hori"",""left"",[99999,99999],[-150,0]]",diamond,no_dis,hori,left,"[99999,99999]","[-150,0]",left,1,1.1327,,,,,,001,2025-03-10_16h53.17.500,SL_sali_41,2021.2.3,Win32,59.52380952,,,13,0,13,0,1,,,,,,,,
,,"[""diamond"",""green"",""hori"",""left"",[0,-150],[0,150]]",diamond,green,hori,left,"[0,-150]","[0,150]",left,1,0.7674,,,,,,001,2025-03-10_16h53.17.500,SL_sali_41,2021.2.3,Win32,59.52380952,,,14,0,14,0,1,,,,,,,,
,,"[""circle"",""no_dis"",""hori"",""left"",[99999,99999],[-106,106]]",circle,no_dis,hori,left,"[99999,99999]","[-106,106]",left,1,0.8855,,,,,,001,2025-03-10_16h53.17.500,SL_sali_41,2021.2.3,Win32,59.52380952,,,15,0,15,0,1,,,,,,,,
,,"[""diamond"",""green"",""hori"",""left"",[0,-150],[-150,0]]",diamond,green,hori,left,"[0,-150]","[-150,0]",left,1,1.1353,,,,,,001,2025-03-10_16h53.17.500,SL_sali_41,2021.2.3,Win32,59.52380952,,,16,0,16,0,1,,,,,,,,
,,"[""diamond"",""no_dis"",""hori"",""left"",[99999,99999],[-106,106]]",diamond,no_dis,hori,left,"[99999,99999]","[-106,106]",left,1,0.7082,,,,,,001,2025-03-10_16h53.17.500,SL_sali_41,2021.2.3,Win32,59.52380952,,,17,0,17,0,1,,,,,,,,
,,"[""circle"",""no_dis"",""vert"",""up"",[99999,99999],[106,-106]]",circle,no_dis,vert,up,"[99999,99999]","[106,-106]",up,1,0.9939,,,,,,001,2025-03-10_16h53.17.500,SL_sali_41,2021.2.3,Win32,59.52380952,,,18,0,18,0,1,,,,,,,,
,,"[""diamond"",""red"",""hori"",""left"",[106,106],[-106,106]]",diamond,red,hori,left,"[106,106]","[-106,106]",left,1,1.1178,,,,,,001,2025-03-10_16h53.17.500,SL_sali_41,2021.2.3,Win32,59.52380952,,,19,0,19,0,1,,,,,,,,
,,"[""diamond"",""no_dis"",""vert"",""up"",[99999,99999],[150,0]]",diamond,no_dis,vert,up,"[99999,99999]","[150,0]",up,1,0.8393,,,,,,001,2025-03-10_16h53.17.500,SL_sali_41,2021.2.3,Win32,59.52380952,,,20,0,20,0,1,,,,,,,,
,,"[""diamond"",""no_dis"",""vert"",""up"",[99999,99999],[106,-106]]",diamond,no_dis,vert,up,"[99999,99999]","[106,-106]",up,1,0.7718,,,,,,001,2025-03-10_16h53.17.500,SL_sali_41,2021.2.3,Win32,59.52380952,,,21,0,21,0,1,,,,,,,,
,,"[""circle"",""green"",""vert"",""up"",[-106,106],[0,150]]",circle,green,vert,up,"[-106,106]","[0,150]",up,1,1.2834,,,,,,001,2025-03-10_16h53.17.500,SL_sali_41,2021.2.3,Win32,59.52380952,,,22,0,22,0,1,,,,,,,,
,,"[""diamond"",""green"",""vert"",""up"",[-106,-106],[-150,0]]",diamond,green,vert,up,"[-106,-106]","[-150,0]",up,1,1.684,,,,,,001,2025-03-10_16h53.17.500,SL_sali_41,2021.2.3,Win32,59.52380952,,,23,0,23,0,1,,,,,,,,
,,"[""diamond"",""red"",""vert"",""up"",[0,-150],[-106,106]]",diamond,red,vert,up,"[0,-150]","[-106,106]",up,1,0.7998,,,,,,001,2025-03-10_16h53.17.500,SL_sali_41,2021.2.3,Win32,59.52380952,,,24,0,24,0,1,,,,,,,,
,,"[""circle"",""red"",""vert"",""up"",[0,150],[0,-150]]",circle,red,vert,up,"[0,150]","[0,-150]",up,1,1.4262,,,,,,001,2025-03-10_16h53.17.500,SL_sali_41,2021.2.3,Win32,59.52380952,,,25,0,25,0,1,,,,,,,,
,,"[""circle"",""red"",""vert"",""up"",[0,-150],[106,106]]",circle,red,vert,up,"[0,-150]","[106,106]",up,1,1.4338,,,,,,001,2025-03-10_16h53.17.500,SL_sali_41,2021.2.3,Win32,59.52380952,,,26,0,26,0,1,,,,,,,,
,,"[""diamond"",""green"",""vert"",""up"",[0,-150],[106,-106]]",diamond,green,vert,up,"[0,-150]","[106,-106]",up,1,1.502,,,,,,001,2025-03-10_16h53.17.500,SL_sali_41,2021.2.3,Win32,59.52380952,,,27,0,27,0,1,,,,,,,,
,,"[""diamond"",""red"",""hori"",""left"",[-106,106],[-106,-106]]",diamond,red,hori,left,"[-106,106]","[-106,-106]",left,1,1.1729,,,,,,001,2025-03-10_16h53.17.500,SL_sali_41,2021.2.3,Win32,59.52380952,,,28,0,28,0,1,,,,,,,,
,,"[""circle"",""no_dis"",""hori"",""left"",[99999,99999],[-150,0]]",circle,no_dis,hori,left,"[99999,99999]","[-150,0]",left,1,1.4258,,,,,,001,2025-03-10_16h53.17.500,SL_sali_41,2021.2.3,Win32,59.52380952,,,29,0,29,0,1,,,,,,,,
,,"[""diamond"",""no_dis"",""hori"",""left"",[99999,99999],[106,106]]",diamond,no_dis,hori,left,"[99999,99999]","[106,106]",left,1,0.8927,,,,,,001,2025-03-10_16h53.17.500,SL_sali_41,2021.2.3,Win32,59.52380952,,,30,0,30,0,1,,,,,,,,
,,"[""circle"",""green"",""hori"",""left"",[0,-150],[-150,0]]",circle,green,hori,left,"[0,-150]","[-150,0]",left,1,1.6002,,,,,,001,2025-03-10_16h53.17.500,SL_sali_41,2021.2.3,Win32,59.52380952,,,31,0,31,0,1,,,,,,,,
,,"[""diamond"",""no_dis"",""hori"",""left"",[99999,99999],[0,150]]",diamond,no_dis,hori,left,"[99999,99999]","[0,150]",left,1,1.4239,,,,,,001,2025-03-10_16h53.17.500,SL_sali_41,2021.2.3,Win32,59.52380952,,,32,0,32,0,1,,,,,,,,
,,"[""diamond"",""red"",""vert"",""up"",[-150,0],[106,106]]",diamond,red,vert,up,"[-150,0]","[106,106]",up,1,0.9375,,,,,,001,2025-03-10_16h53.17.500,SL_sali_41,2021.2.3,Win32,59.52380952,,,33,0,33,0,1,,,,,,,,
,,"[""circle"",""red"",""hori"",""left"",[0,150],[106,-106]]",circle,red,hori,left,"[0,150]","[106,-106]",left,1,1.2868,,,,,,001,2025-03-10_16h53.17.500,SL_sali_41,2021.2.3,Win32,59.52380952,,,34,0,34,0,1,,,,,,,,
,,"[""diamond"",""red"",""hori"",""left"",[-150,0],[106,106]]",diamond,red,hori,left,"[-150,0]","[106,106]",left,1,1.0982,,,,,,001,2025-03-10_16h53.17.500,SL_sali_41,2021.2.3,Win32,59.52380952,,,35,0,35,0,1,,,,,,,,
,,"[""circle"",""green"",""hori"",""left"",[-106,106],[150,0]]",circle,green,hori,left,"[-106,106]","[150,0]",left,1,1.2612,,,,,,001,2025-03-10_16h53.17.500,SL_sali_41,2021.2.3,Win32,59.52380952,,,36,0,36,0,1,,,,,,,,
,,"[""diamond"",""red"",""vert"",""up"",[150,0],[-106,-106]]",diamond,red,vert,up,"[150,0]","[-106,-106]",up,1,1.7633,,,,,,001,2025-03-10_16h53.17.500,SL_sali_41,2021.2.3,Win32,59.52380952,,,37,0,37,0,1,,,,,,,,
,,"[""circle"",""green"",""vert"",""up"",[106,-106],[-150,0]]",circle,green,vert,up,"[106,-106]","[-150,0]",up,1,1.116,,,,,,001,2025-03-10_16h53.17.500,SL_sali_41,2021.2.3,Win32,59.52380952,,,38,0,38,0,1,,,,,,,,
,,"[""diamond"",""red"",""hori"",""left"",[150,0],[106,-106]]",diamond,red,hori,left,"[150,0]","[106,-106]",left,1,1.1305,,,,,,001,2025-03-10_16h53.17.500,SL_sali_41,2021.2.3,Win32,59.52380952,,,39,0,39,0,1,,,,,,,,
,,"[""diamond"",""red"",""vert"",""up"",[-106,106],[-150,0]]",diamond,red,vert,up,"[-106,106]","[-150,0]",up,1,0.9678,,,,,,001,2025-03-10_16h53.17.500,SL_sali_41,2021.2.3,Win32,59.52380952,,,40,0,40,0,1,,,,,,,,
,,"[""diamond"",""no_dis"",""hori"",""left"",[99999,99999],[-106,-106]]",diamond,no_dis,hori,left,"[99999,99999]","[-106,-106]",left,1,1.0268,,,,,,001,2025-03-10_16h53.17.500,SL_sali_41,2021.2.3,Win32,59.52380952,,,41,0,41,0,1,,,,,,,,
,,"[""circle"",""green"",""vert"",""up"",[106,106],[150,0]]",circle,green,vert,up,"[106,106]","[150,0]",up,1,1.4831,,,,,,001,2025-03-10_16h53.17.500,SL_sali_41,2021.2.3,Win32,59.52380952,,,42,0,42,0,1,,,,,,,,
,,"[""diamond"",""green"",""hori"",""left"",[0,-150],[-106,106]]",diamond,green,hori,left,"[0,-150]","[-106,106]",left,1,0.7701,,,,,,001,2025-03-10_16h53.17.500,SL_sali_41,2021.2.3,Win32,59.52380952,,,43,0,43,0,1,,,,,,,,
,,"[""circle"",""green"",""hori"",""left"",[0,-150],[-106,-106]]",circle,green,hori,left,"[0,-150]","[-106,-106]",left,1,1.2243,,,,,,001,2025-03-10_16h53.17.500,SL_sali_41,2021.2.3,Win32,59.52380952,,,44,0,44,0,1,,,,,,,,
,,"[""diamond"",""green"",""hori"",""left"",[0,-150],[106,-106]]",diamond,green,hori,left,"[0,-150]","[106,-106]",left,1,1.0154,,,,,,001,2025-03-10_16h53.17.500,SL_sali_41,2021.2.3,Win32,59.52380952,,,45,0,45,0,1,,,,,,,,
,,"[""circle"",""red"",""hori"",""left"",[106,106],[150,0]]",circle,red,hori,left,"[106,106]","[150,0]",left,1,1.2216,,,,,,001,2025-03-10_16h53.17.500,SL_sali_41,2021.2.3,Win32,59.52380952,,,46,0,46,0,1,,,,,,,,
,,"[""circle"",""no_dis"",""vert"",""up"",[99999,99999],[-106,106]]",circle,no_dis,vert,up,"[99999,99999]","[-106,106]",up,1,0.8527,,,,,,001,2025-03-10_16h53.17.500,SL_sali_41,2021.2.3,Win32,59.52380952,,,47,0,47,0,1,,,,,,,,
,,"[""circle"",""red"",""hori"",""left"",[-106,-106],[106,-106]]",circle,red,hori,left,"[-106,-106]","[106,-106]",left,1,1.2929,,,,,,001,2025-03-10_16h53.17.500,SL_sali_41,2021.2.3,Win32,59.52380952,,,48,0,48,0,1,,,,,,,,
,,"[""circle"",""red"",""vert"",""up"",[0,150],[106,106]]",circle,red,vert,up,"[0,150]","[106,106]",up,1,1.3571,,,,,,001,2025-03-10_16h53.17.500,SL_sali_41,2021.2.3,Win32,59.52380952,,,49,0,49,0,1,,,,,,,,
,,"[""diamond"",""red"",""vert"",""up"",[-106,-106],[150,0]]",diamond,red,vert,up,"[-106,-106]","[150,0]",up,1,1.1499,,,,,,001,2025-03-10_16h53.17.500,SL_sali_41,2021.2.3,Win32,59.52380952,,,50,0,50,0,1,,,,,,,,
,,"[""circle"",""red"",""vert"",""up"",[106,-106],[106,106]]",circle,red,vert,up,"[106,-106]","[106,106]",up,1,1.604,,,,,,001,2025-03-10_16h53.17.500,SL_sali_41,2021.2.3,Win32,59.52380952,,,51,0,51,0,1,,,,,,,,
,,"[""diamond"",""green"",""vert"",""up"",[150,0],[0,150]]",diamond,green,vert,up,"[150,0]","[0,150]",up,1,1.1424,,,,,,001,2025-03-10_16h53.17.500,SL_sali_41,2021.2.3,Win32,59.52380952,,,52,0,52,0,1,,,,,,,,
,,"[""circle"",""green"",""vert"",""up"",[0,-150],[-106,106]]",circle,green,vert,up,"[0,-150]","[-106,106]",up,1,1.0898,,,,,,001,2025-03-10_16h53.17.500,SL_sali_41,2021.2.3,Win32,59.52380952,,,53,0,53,0,1,,,,,,,,
,,"[""diamond"",""green"",""hori"",""left"",[106,106],[150,0]]",diamond,green,hori,left,"[106,106]","[150,0]",left,1,1.2429,,,,,,001,2025-03-10_16h53.17.500,SL_sali_41,2021.2.3,Win32,59.52380952,,,54,0,54,0,1,,,,,,,,
,,"[""diamond"",""green"",""vert"",""up"",[150,0],[-150,0]]",diamond,green,vert,up,"[150,0]","[-150,0]",up,1,0.8855,,,,,,001,2025-03-10_16h53.17.500,SL_sali_41,2021.2.3,Win32,59.52380952,,,55,0,55,0,1,,,,,,,,
,,"[""circle"",""green"",""hori"",""left"",[106,106],[150,0]]",circle,green,hori,left,"[106,106]","[150,0]",left,1,1.0165,,,,,,001,2025-03-10_16h53.17.500,SL_sali_41,2021.2.3,Win32,59.52380952,,,56,0,56,0,1,,,,,,,,
,,"[""circle"",""green"",""vert"",""up"",[-150,0],[0,-150]]",circle,green,vert,up,"[-150,0]","[0,-150]",up,1,1.12,,,,,,001,2025-03-10_16h53.17.500,SL_sali_41,2021.2.3,Win32,59.52380952,,,57,0,57,0,1,,,,,,,,
,,"[""circle"",""red"",""hori"",""left"",[0,-150],[-106,106]]",circle,red,hori,left,"[0,-150]","[-106,106]",left,1,0.8464,,,,,,001,2025-03-10_16h53.17.500,SL_sali_41,2021.2.3,Win32,59.52380952,,,58,0,58,0,1,,,,,,,,
,,"[""diamond"",""no_dis"",""hori"",""left"",[99999,99999],[150,0]]",diamond,no_dis,hori,left,"[99999,99999]","[150,0]",left,1,1.3732,,,,,,001,2025-03-10_16h53.17.500,SL_sali_41,2021.2.3,Win32,59.52380952,,,59,0,59,0,1,,,,,,,,
,,"[""circle"",""green"",""hori"",""left"",[0,-150],[150,0]]",circle,green,hori,left,"[0,-150]","[150,0]",left,1,1.2323,,,,,,001,2025-03-10_16h53.17.500,SL_sali_41,2021.2.3,Win32,59.52380952,,,60,0,60,0,1,,,,,,,,
,,"[""circle"",""red"",""vert"",""up"",[0,-150],[0,150]]",circle,red,vert,up,"[0,-150]","[0,150]",up,1,1.1046,,,,,,001,2025-03-10_16h53.17.500,SL_sali_41,2021.2.3,Win32,59.52380952,,,61,0,61,0,1,,,,,,,,
,,"[""circle"",""red"",""vert"",""up"",[-106,-106],[150,0]]",circle,red,vert,up,"[-106,-106]","[150,0]",up,1,0.8567,,,,,,001,2025-03-10_16h53.17.500,SL_sali_41,2021.2.3,Win32,59.52380952,,,62,0,62,0,1,,,,,,,,
,,"[""circle"",""red"",""hori"",""left"",[0,-150],[106,106]]",circle,red,hori,left,"[0,-150]","[106,106]",left,1,1.2506,,,,,,001,2025-03-10_16h53.17.500,SL_sali_41,2021.2.3,Win32,59.52380952,,,63,0,63,0,1,,,,,,,,
,,"[""circle"",""no_dis"",""vert"",""up"",[99999,99999],[0,-150]]",circle,no_dis,vert,up,"[99999,99999]","[0,-150]",up,1,1.0541,,,,,,001,2025-03-10_16h53.17.500,SL_sali_41,2021.2.3,Win32,59.52380952,,,64,0,64,0,1,,,,,,,,
,,"[""diamond"",""green"",""hori"",""left"",[106,106],[-106,106]]",diamond,green,hori,left,"[106,106]","[-106,106]",left,1,1.0829,,,,,,001,2025-03-10_16h53.17.500,SL_sali_41,2021.2.3,Win32,59.52380952,,,65,0,65,0,1,,,,,,,,
,,"[""circle"",""red"",""hori"",""left"",[150,0],[0,-150]]",circle,red,hori,left,"[150,0]","[0,-150]",left,1,1.1349,,,,,,001,2025-03-10_16h53.17.500,SL_sali_41,2021.2.3,Win32,59.52380952,,,66,0,66,0,1,,,,,,,,
,,"[""circle"",""no_dis"",""vert"",""up"",[99999,99999],[-150,0]]",circle,no_dis,vert,up,"[99999,99999]","[-150,0]",up,1,0.8647,,,,,,001,2025-03-10_16h53.17.500,SL_sali_41,2021.2.3,Win32,59.52380952,,,67,0,67,0,1,,,,,,,,
,,"[""circle"",""red"",""hori"",""left"",[-150,0],[0,150]]",circle,red,hori,left,"[-150,0]","[0,150]",left,1,1.0231,,,,,,001,2025-03-10_16h53.17.500,SL_sali_41,2021.2.3,Win32,59.52380952,,,68,0,68,0,1,,,,,,,,
,,"[""diamond"",""green"",""hori"",""left"",[106,-106],[-106,-106]]",diamond,green,hori,left,"[106,-106]","[-106,-106]",left,1,1.4067,,,,,,001,2025-03-10_16h53.17.500,SL_sali_41,2021.2.3,Win32,59.52380952,,,69,0,69,0,1,,,,,,,,
,,"[""diamond"",""green"",""hori"",""left"",[0,150],[0,-150]]",diamond,green,hori,left,"[0,150]","[0,-150]",left,1,1.116,,,,,,001,2025-03-10_16h53.17.500,SL_sali_41,2021.2.3,Win32,59.52380952,,,70,0,70,0,1,,,,,,,,
,,"[""circle"",""red"",""hori"",""left"",[0,-150],[-150,0]]",circle,red,hori,left,"[0,-150]","[-150,0]",left,1,1.465,,,,,,001,2025-03-10_16h53.17.500,SL_sali_41,2021.2.3,Win32,59.52380952,,,71,0,71,0,1,,,,,,,,
,,"[""circle"",""no_dis"",""hori"",""left"",[99999,99999],[-106,-106]]",circle,no_dis,hori,left,"[99999,99999]","[-106,-106]",left,1,0.8381,,,,,,001,2025-03-10_16h53.17.500,SL_sali_41,2021.2.3,Win32,59.52380952,,,72,0,72,0,1,,,,,,,,
,,"[""circle"",""no_dis"",""vert"",""up"",[99999,99999],[106,-106]]",circle,no_dis,vert,up,"[99999,99999]","[106,-106]",up,1,0.9872,,,,,,001,2025-03-10_16h53.17.500,SL_sali_41,2021.2.3,Win32,59.52380952,,,73,0,73,0,1,,,,,,,,
,,"[""circle"",""red"",""hori"",""left"",[0,-150],[106,106]]",circle,red,hori,left,"[0,-150]","[106,106]",left,1,1.2088,,,,,,001,2025-03-10_16h53.17.500,SL_sali_41,2021.2.3,Win32,59.52380952,,,74,0,74,0,1,,,,,,,,
,,"[""circle"",""red"",""vert"",""up"",[-106,-106],[106,106]]",circle,red,vert,up,"[-106,-106]","[106,106]",up,1,0.8846,,,,,,001,2025-03-10_16h53.17.500,SL_sali_41,2021.2.3,Win32,59.52380952,,,75,0,75,0,1,,,,,,,,
,,"[""circle"",""no_dis"",""vert"",""up"",[99999,99999],[150,0]]",circle,no_dis,vert,up,"[99999,99999]","[150,0]",up,1,0.7346,,,,,,001,2025-03-10_16h53.17.500,SL_sali_41,2021.2.3,Win32,59.52380952,,,76,0,76,0,1,,,,,,,,
,,"[""diamond"",""no_dis"",""hori"",""left"",[99999,99999],[0,-150]]",diamond,no_dis,hori,left,"[99999,99999]","[0,-150]",left,1,0.8251,,,,,,001,2025-03-10_16h53.17.500,SL_sali_41,2021.2.3,Win32,59.52380952,,,77,0,77,0,1,,,,,,,,
,,"[""diamond"",""red"",""vert"",""up"",[150,0],[0,150]]",diamond,red,vert,up,"[150,0]","[0,150]",up,1,0.7324,,,,,,001,2025-03-10_16h53.17.500,SL_sali_41,2021.2.3,Win32,59.52380952,,,78,0,78,0,1,,,,,,,,
,,"[""circle"",""no_dis"",""hori"",""left"",[99999,99999],[0,150]]",circle,no_dis,hori,left,"[99999,99999]","[0,150]",up,0,1.1368,,,,,,001,2025-03-10_16h53.17.500,SL_sali_41,2021.2.3,Win32,59.52380952,,,79,0,79,0,1,,,,,,,,
,,"[""circle"",""no_dis"",""vert"",""up"",[99999,99999],[0,-150]]",circle,no_dis,vert,up,"[99999,99999]","[0,-150]",up,1,1.0123,,,,,,001,2025-03-10_16h53.17.500,SL_sali_41,2021.2.3,Win32,59.52380952,,,80,0,80,0,1,,,,,,,,
,,"[""diamond"",""red"",""hori"",""left"",[150,0],[-106,106]]",diamond,red,hori,left,"[150,0]","[-106,106]",left,1,1.9819,,,,,,001,2025-03-10_16h53.17.500,SL_sali_41,2021.2.3,Win32,59.52380952,,,81,0,81,0,1,,,,,,,,
,,"[""circle"",""red"",""hori"",""left"",[0,150],[150,0]]",circle,red,hori,left,"[0,150]","[150,0]",left,1,1.2741,,,,,,001,2025-03-10_16h53.17.500,SL_sali_41,2021.2.3,Win32,59.52380952,,,82,0,82,0,1,,,,,,,,
,,"[""diamond"",""no_dis"",""vert"",""up"",[99999,99999],[-106,-106]]",diamond,no_dis,vert,up,"[99999,99999]","[-106,-106]",up,1,0.9985,,,,,,001,2025-03-10_16h53.17.500,SL_sali_41,2021.2.3,Win32,59.52380952,,,83,0,83,0,1,,,,,,,,
,,"[""circle"",""green"",""vert"",""up"",[0,-150],[-106,106]]",circle,green,vert,up,"[0,-150]","[-106,106]",up,1,1.3003,,,,,,001,2025-03-10_16h53.17.500,SL_sali_41,2021.2.3,Win32,59.52380952,,,84,0,84,0,1,,,,,,,,
,,"[""circle"",""red"",""vert"",""up"",[0,-150],[106,-106]]",circle,red,vert,up,"[0,-150]","[106,-106]",up,1,1.0597,,,,,,001,2025-03-10_16h53.17.500,SL_sali_41,2021.2.3,Win32,59.52380952,,,85,0,85,0,1,,,,,,,,
,,"[""diamond"",""no_dis"",""hori"",""left"",[99999,99999],[-150,0]]",diamond,no_dis,hori,left,"[99999,99999]","[-150,0]",left,1,1.1648,,,,,,001,2025-03-10_16h53.17.500,SL_sali_41,2021.2.3,Win32,59.52380952,,,86,0,86,0,1,,,,,,,,
,,"[""diamond"",""red"",""vert"",""up"",[0,-150],[-106,106]]",diamond,red,vert,up,"[0,-150]","[-106,106]",up,1,0.832,,,,,,001,2025-03-10_16h53.17.500,SL_sali_41,2021.2.3,Win32,59.52380952,,,87,0,87,0,1,,,,,,,,
,,"[""circle"",""no_dis"",""hori"",""left"",[99999,99999],[0,-150]]",circle,no_dis,hori,left,"[99999,99999]","[0,-150]",left,1,1.4252,,,,,,001,2025-03-10_16h53.17.500,SL_sali_41,2021.2.3,Win32,59.52380952,,,88,0,88,0,1,,,,,,,,
,,"[""diamond"",""red"",""vert"",""up"",[106,-106],[-150,0]]",diamond,red,vert,up,"[106,-106]","[-150,0]",up,1,0.8568,,,,,,001,2025-03-10_16h53.17.500,SL_sali_41,2021.2.3,Win32,59.52380952,,,89,0,89,0,1,,,,,,,,
,,"[""diamond"",""green"",""vert"",""up"",[-106,106],[0,-150]]",diamond,green,vert,up,"[-106,106]","[0,-150]",up,1,1.1079,,,,,,001,2025-03-10_16h53.17.500,SL_sali_41,2021.2.3,Win32,59.52380952,,,90,0,90,0,1,,,,,,,,
,,"[""circle"",""green"",""vert"",""up"",[0,-150],[-150,0]]",circle,green,vert,up,"[0,-150]","[-150,0]",up,1,0.9156,,,,,,001,2025-03-10_16h53.17.500,SL_sali_41,2021.2.3,Win32,59.52380952,,,91,0,91,0,1,,,,,,,,
,,"[""circle"",""no_dis"",""hori"",""left"",[99999,99999],[0,150]]",circle,no_dis,hori,left,"[99999,99999]","[0,150]",left,1,0.7108,,,,,,001,2025-03-10_16h53.17.500,SL_sali_41,2021.2.3,Win32,59.52380952,,,92,0,92,0,1,,,,,,,,
,,"[""circle"",""no_dis"",""vert"",""up"",[99999,99999],[-106,106]]",circle,no_dis,vert,up,"[99999,99999]","[-106,106]",up,1,0.7338,,,,,,001,2025-03-10_16h53.17.500,SL_sali_41,2021.2.3,Win32,59.52380952,,,93,0,93,0,1,,,,,,,,
,,"[""circle"",""green"",""hori"",""left"",[0,-150],[-106,-106]]",circle,green,hori,left,"[0,-150]","[-106,-106]",left,1,1.1176,,,,,,001,2025-03-10_16h53.17.500,SL_sali_41,2021.2.3,Win32,59.52380952,,,94,0,94,0,1,,,,,,,,
,,"[""diamond"",""no_dis"",""vert"",""up"",[99999,99999],[106,106]]",diamond,no_dis,vert,up,"[99999,99999]","[106,106]",up,1,1.1562,,,,,,001,2025-03-10_16h53.17.500,SL_sali_41,2021.2.3,Win32,59.52380952,,,95,0,95,0,1,,,,,,,,
,,"[""circle"",""green"",""hori"",""left"",[-150,0],[106,-106]]",circle,green,hori,left,"[-150,0]","[106,-106]",left,1,1.1713,,,,,,001,2025-03-10_16h53.17.500,SL_sali_41,2021.2.3,Win32,59.52380952,,,96,0,96,0,1,,,,,,,,
,,"[""diamond"",""red"",""hori"",""left"",[0,-150],[-150,0]]",diamond,red,hori,left,"[0,-150]","[-150,0]",left,1,0.998,,,,,,001,2025-03-10_16h53.17.500,SL_sali_41,2021.2.3,Win32,59.52380952,,,97,0,97,0,1,,,,,,,,
,,"[""diamond"",""green"",""vert"",""up"",[-150,0],[0,150]]",diamond,green,vert,up,"[-150,0]","[0,150]",up,1,1.0723,,,,,,001,2025-03-10_16h53.17.500,SL_sali_41,2021.2.3,Win32,59.52380952,,,98,0,98,0,1,,,,,,,,
,,"[""circle"",""green"",""vert"",""up"",[-106,-106],[106,106]]",circle,green,vert,up,"[-106,-106]","[106,106]",up,1,0.915,,,,,,001,2025-03-10_16h53.17.500,SL_sali_41,2021.2.3,Win32,59.52380952,,,99,0,99,0,1,,,,,,,,
,,"[""circle"",""no_dis"",""vert"",""up"",[99999,99999],[106,106]]",circle,no_dis,vert,up,"[99999,99999]","[106,106]",up,1,1.0529,,,,,,001,2025-03-10_16h53.17.500,SL_sali_41,2021.2.3,Win32,59.52380952,,,100,0,100,0,1,,,,,,,,
,,"[""diamond"",""no_dis"",""vert"",""up"",[99999,99999],[106,-106]]",diamond,no_dis,vert,up,"[99999,99999]","[106,-106]",up,1,1.1303,,,,,,001,2025-03-10_16h53.17.500,SL_sali_41,2021.2.3,Win32,59.52380952,,,101,0,101,0,1,,,,,,,,
,,"[""diamond"",""no_dis"",""vert"",""up"",[99999,99999],[-150,0]]",diamond,no_dis,vert,up,"[99999,99999]","[-150,0]",up,1,0.7202,,,,,,001,2025-03-10_16h53.17.500,SL_sali_41,2021.2.3,Win32,59.52380952,,,102,0,102,0,1,,,,,,,,
,,"[""diamond"",""no_dis"",""vert"",""up"",[99999,99999],[106,106]]",diamond,no_dis,vert,up,"[99999,99999]","[106,106]",up,1,0.7403,,,,,,001,2025-03-10_16h53.17.500,SL_sali_41,2021.2.3,Win32,59.52380952,,,103,0,103,0,1,,,,,,,,
,,"[""diamond"",""green"",""vert"",""up"",[106,-106],[0,150]]",diamond,green,vert,up,"[106,-106]","[0,150]",up,1,1.6752,,,,,,001,2025-03-10_16h53.17.500,SL_sali_41,2021.2.3,Win32,59.52380952,,,104,0,104,0,1,,,,,,,,
,,"[""circle"",""no_dis"",""hori"",""left"",[99999,99999],[0,150]]",circle,no_dis,hori,left,"[99999,99999]","[0,150]",left,1,1.0416,,,,,,001,2025-03-10_16h53.17.500,SL_sali_41,2021.2.3,Win32,59.52380952,,,105,0,105,0,1,,,,,,,,
,,"[""diamond"",""green"",""vert"",""up"",[106,-106],[-150,0]]",diamond,green,vert,up,"[106,-106]","[-150,0]",up,1,0.9713,,,,,,001,2025-03-10_16h53.17.500,SL_sali_41,2021.2.3,Win32,59.52380952,,,106,0,106,0,1,,,,,,,,
,,"[""circle"",""green"",""hori"",""left"",[-106,106],[0,150]]",circle,green,hori,left,"[-106,106]","[0,150]",left,1,1.3964,,,,,,001,2025-03-10_16h53.17.500,SL_sali_41,2021.2.3,Win32,59.52380952,,,107,0,107,0,1,,,,,,,,
,,"[""diamond"",""red"",""hori"",""left"",[0,-150],[-106,106]]",diamond,red,hori,left,"[0,-150]","[-106,106]",up,0,0.7817,,,,,,001,2025-03-10_16h53.17.500,SL_sali_41,2021.2.3,Win32,59.52380952,,,108,0,108,0,1,,,,,,,,
,,"[""diamond"",""green"",""vert"",""up"",[0,-150],[0,150]]",diamond,green,vert,up,"[0,-150]","[0,150]",up,1,0.6834,,,,,,001,2025-03-10_16h53.17.500,SL_sali_41,2021.2.3,Win32,59.52380952,,,109,0,109,0,1,,,,,,,,
,,"[""circle"",""red"",""vert"",""up"",[0,-150],[106,-106]]",circle,red,vert,up,"[0,-150]","[106,-106]",up,1,1.4704,,,,,,001,2025-03-10_16h53.17.500,SL_sali_41,2021.2.3,Win32,59.52380952,,,110,0,110,0,1,,,,,,,,
,,"[""diamond"",""green"",""hori"",""left"",[-106,106],[106,106]]",diamond,green,hori,left,"[-106,106]","[106,106]",left,1,1.699,,,,,,001,2025-03-10_16h53.17.500,SL_sali_41,2021.2.3,Win32,59.52380952,,,111,0,111,0,1,,,,,,,,
,,"[""circle"",""red"",""vert"",""up"",[150,0],[0,-150]]",circle,red,vert,up,"[150,0]","[0,-150]",up,1,1.2085,,,,,,001,2025-03-10_16h53.17.500,SL_sali_41,2021.2.3,Win32,59.52380952,,,112,0,112,0,1,,,,,,,,
,,"[""circle"",""no_dis"",""hori"",""left"",[99999,99999],[0,-150]]",circle,no_dis,hori,left,"[99999,99999]","[0,-150]",left,1,0.9592,,,,,,001,2025-03-10_16h53.17.500,SL_sali_41,2021.2.3,Win32,59.52380952,,,113,0,113,0,1,,,,,,,,
,,"[""diamond"",""red"",""hori"",""left"",[106,-106],[106,106]]",diamond,red,hori,left,"[106,-106]","[106,106]",left,1,0.9913,,,,,,001,2025-03-10_16h53.17.500,SL_sali_41,2021.2.3,Win32,59.52380952,,,114,0,114,0,1,,,,,,,,
,,"[""diamond"",""no_dis"",""vert"",""up"",[99999,99999],[150,0]]",diamond,no_dis,vert,up,"[99999,99999]","[150,0]",up,1,1.033,,,,,,001,2025-03-10_16h53.17.500,SL_sali_41,2021.2.3,Win32,59.52380952,,,115,0,115,0,1,,,,,,,,
,,"[""diamond"",""no_dis"",""vert"",""up"",[99999,99999],[-106,106]]",diamond,no_dis,vert,up,"[99999,99999]","[-106,106]",up,1,0.7501,,,,,,001,2025-03-10_16h53.17.500,SL_sali_41,2021.2.3,Win32,59.52380952,,,116,0,116,0,1,,,,,,,,
,,"[""circle"",""green"",""hori"",""left"",[106,106],[0,150]]",circle,green,hori,left,"[106,106]","[0,150]",left,1,1.2659,,,,,,001,2025-03-10_16h53.17.500,SL_sali_41,2021.2.3,Win32,59.52380952,,,117,0,117,0,1,,,,,,,,
,,"[""diamond"",""red"",""hori"",""left"",[0,-150],[106,-106]]",diamond,red,hori,left,"[0,-150]","[106,-106]",left,1,1.4348,,,,,,001,2025-03-10_16h53.17.500,SL_sali_41,2021.2.3,Win32,59.52380952,,,118,0,118,0,1,,,,,,,,
,,"[""circle"",""red"",""vert"",""up"",[0,-150],[-150,0]]",circle,red,vert,up,"[0,-150]","[-150,0]",up,1,0.9669,,,,,,001,2025-03-10_16h53.17.500,SL_sali_41,2021.2.3,Win32,59.52380952,,,119,0,119,0,1,,,,,,,,
,,"[""diamond"",""no_dis"",""hori"",""left"",[99999,99999],[-106,-106]]",diamond,no_dis,hori,left,"[99999,99999]","[-106,-106]",up,0,1.5679,,,,,,001,2025-03-10_16h53.17.500,SL_sali_41,2021.2.3,Win32,59.52380952,,,120,0,120,0,1,,,,,,,,
,,"[""diamond"",""green"",""vert"",""up"",[-106,-106],[150,0]]",diamond,green,vert,up,"[-106,-106]","[150,0]",up,1,1.5339,,,,,,001,2025-03-10_16h53.17.500,SL_sali_41,2021.2.3,Win32,59.52380952,,,121,0,121,0,1,,,,,,,,
,,"[""circle"",""no_dis"",""hori"",""left"",[99999,99999],[150,0]]",circle,no_dis,hori,left,"[99999,99999]","[150,0]",left,1,1.3341,,,,,,001,2025-03-10_16h53.17.500,SL_sali_41,2021.2.3,Win32,59.52380952,,,122,0,122,0,1,,,,,,,,
,,"[""diamond"",""green"",""hori"",""left"",[0,-150],[106,106]]",diamond,green,hori,left,"[0,-150]","[106,106]",left,1,0.9155,,,,,,001,2025-03-10_16h53.17.500,SL_sali_41,2021.2.3,Win32,59.52380952,,,123,0,123,0,1,,,,,,,,
,,"[""circle"",""green"",""hori"",""left"",[-106,106],[106,106]]",circle,green,hori,left,"[-106,106]","[106,106]",left,1,1.4331,,,,,,001,2025-03-10_16h53.17.500,SL_sali_41,2021.2.3,Win32,59.52380952,,,124,0,124,0,1,,,,,,,,
,,"[""diamond"",""no_dis"",""vert"",""up"",[99999,99999],[-106,-106]]",diamond,no_dis,vert,up,"[99999,99999]","[-106,-106]",up,1,0.8169,,,,,,001,2025-03-10_16h53.17.500,SL_sali_41,2021.2.3,Win32,59.52380952,,,125,0,125,0,1,,,,,,,,
,,"[""circle"",""green"",""vert"",""up"",[0,150],[0,-150]]",circle,green,vert,up,"[0,150]","[0,-150]",up,1,1.1167,,,,,,001,2025-03-10_16h53.17.500,SL_sali_41,2021.2.3,Win32,59.52380952,,,126,0,126,0,1,,,,,,,,
,,"[""diamond"",""red"",""hori"",""left"",[106,-106],[-150,0]]",diamond,red,hori,left,"[106,-106]","[-150,0]",left,1,0.8333,,,,,,001,2025-03-10_16h53.17.500,SL_sali_41,2021.2.3,Win32,59.52380952,,,127,0,127,0,1,,,,,,,,
,,,,,,,,,,,,,,,,,001,2025-03-10_16h53.17.500,SL_sali_41,2021.2.3,Win32,59.52380952,,,,,,,,2,space,13.149,1,0,1,0,1
,,"[""diamond"",""red"",""hori"",""left"",[-106,106],[-106,-106]]",diamond,red,hori,left,"[-106,106]","[-106,-106]",left,1,1.154,,,,,,001,2025-03-10_16h53.17.500,SL_sali_41,2021.2.3,Win32,59.52380952,,,0,0,0,0,1,,,,,,,,
,,"[""circle"",""red"",""hori"",""left"",[0,-150],[106,106]]",circle,red,hori,left,"[0,-150]","[106,106]",left,1,1.5508,,,,,,001,2025-03-10_16h53.17.500,SL_sali_41,2021.2.3,Win32,59.52380952,,,1,0,1,0,1,,,,,,,,
,,"[""diamond"",""red"",""hori"",""left"",[0,-150],[-106,106]]",diamond,red,hori,left,"[0,-150]","[-106,106]",left,1,0.8686,,,,,,001,2025-03-10_16h53.17.500,SL_sali_41,2021.2.3,Win32,59.52380952,,,2,0,2,0,1,,,,,,,,
,,"[""diamond"",""red"",""hori"",""left"",[106,106],[-106,106]]",diamond,red,hori,left,"[106,106]","[-106,106]",left,1,1.0053,,,,,,001,2025-03-10_16h53.17.500,SL_sali_41,2021.2.3,Win32,59.52380952,,,3,0,3,0,1,,,,,,,,
,,"[""diamond"",""red"",""vert"",""up"",[-106,-106],[150,0]]",diamond,red,vert,up,"[-106,-106]","[150,0]",up,1,1.1696,,,,,,001,2025-03-10_16h53.17.500,SL_sali_41,2021.2.3,Win32,59.52380952,,,4,0,4,0,1,,,,,,,,
,,"[""diamond"",""red"",""vert"",""up"",[0,-150],[150,0]]",diamond,red,vert,up,"[0,-150]","[150,0]",up,1,0.8975,,,,,,001,2025-03-10_16h53.17.500,SL_sali_41,2021.2.3,Win32,59.52380952,,,5,0,5,0,1,,,,,,,,
,,"[""circle"",""no_dis"",""hori"",""left"",[99999,99999],[0,150]]",circle,no_dis,hori,left,"[99999,99999]","[0,150]",left,1,0.8311,,,,,,001,2025-03-10_16h53.17.500,SL_sali_41,2021.2.3,Win32,59.52380952,,,6,0,6,0,1,,,,,,,,
,,"[""diamond"",""green"",""vert"",""up"",[-106,-106],[150,0]]",diamond,green,vert,up,"[-106,-106]","[150,0]",up,1,0.9648,,,,,,001,2025-03-10_16h53.17.500,SL_sali_41,2021.2.3,Win32,59.52380952,,,7,0,7,0,1,,,,,,,,
,,"[""circle"",""green"",""hori"",""left"",[-106,106],[0,150]]",circle,green,hori,left,"[-106,106]","[0,150]",left,1,1.0984,,,,,,001,2025-03-10_16h53.17.500,SL_sali_41,2021.2.3,Win32,59.52380952,,,8,0,8,0,1,,,,,,,,
,,"[""circle"",""no_dis"",""vert"",""up"",[99999,99999],[0,150]]",circle,no_dis,vert,up,"[99999,99999]","[0,150]",up,1,0.8857,,,,,,001,2025-03-10_16h53.17.500,SL_sali_41,2021.2.3,Win32,59.52380952,,,9,0,9,0,1,,,,,,,,
,,"[""diamond"",""red"",""hori"",""left"",[0,-150],[-150,0]]",diamond,red,hori,left,"[0,-150]","[-150,0]",left,1,1.0171,,,,,,001,2025-03-10_16h53.17.500,SL_sali_41,2021.2.3,Win32,59.52380952,,,10,0,10,0,1,,,,,,,,
,,"[""circle"",""no_dis"",""hori"",""left"",[99999,99999],[-106,-106]]",circle,no_dis,hori,left,"[99999,99999]","[-106,-106]",left,1,1.0216,,,,,,001,2025-03-10_16h53.17.500,SL_sali_41,2021.2.3,Win32,59.52380952,,,11,0,11,0,1,,,,,,,,
,,"[""diamond"",""red"",""vert"",""up"",[106,106],[-150,0]]",diamond,red,vert,up,"[106,106]","[-150,0]",up,1,0.9261,,,,,,001,2025-03-10_16h53.17.500,SL_sali_41,2021.2.3,Win32,59.52380952,,,12,0,12,0,1,,,,,,,,
,,"[""circle"",""no_dis"",""hori"",""left"",[99999,99999],[-150,0]]",circle,no_dis,hori,left,"[99999,99999]","[-150,0]",left,1,0.85,,,,,,001,2025-03-10_16h53.17.500,SL_sali_41,2021.2.3,Win32,59.52380952,,,13,0,13,0,1,,,,,,,,
,,"[""diamond"",""no_dis"",""hori"",""left"",[99999,99999],[106,106]]",diamond,no_dis,hori,left,"[99999,99999]","[106,106]",left,1,1.5585,,,,,,001,2025-03-10_16h53.17.500,SL_sali_41,2021.2.3,Win32,59.52380952,,,14,0,14,0,1,,,,,,,,
,,"[""circle"",""green"",""hori"",""left"",[0,-150],[150,0]]",circle,green,hori,left,"[0,-150]","[150,0]",left,1,1.2543,,,,,,001,2025-03-10_16h53.17.500,SL_sali_41,2021.2.3,Win32,59.52380952,,,15,0,15,0,1,,,,,,,,
,,"[""circle"",""green"",""hori"",""left"",[-106,106],[106,106]]",circle,green,hori,left,"[-106,106]","[106,106]",left,1,0.884,,,,,,001,2025-03-10_16h53.17.500,SL_sali_41,2021.2.3,Win32,59.52380952,,,16,0,16,0,1,,,,,,,,
,,"[""diamond"",""red"",""hori"",""left"",[106,-106],[106,106]]",diamond,red,hori,left,"[106,-106]","[106,106]",left,1,1.1168,,,,,,001,2025-03-10_16h53.17.500,SL_sali_41,2021.2.3,Win32,59.52380952,,,17,0,17,0,1,,,,,,,,
,,"[""circle"",""red"",""vert"",""up"",[0,-150],[0,150]]",circle,red,vert,up,"[0,-150]","[0,150]",up,1,1.2669,,,,,,001,2025-03-10_16h53.17.500,SL_sali_41,2021.2.3,Win32,59.52380952,,,18,0,18,0,1,,,,,,,,
,,"[""diamond"",""green"",""hori"",""left"",[-106,106],[106,106]]",diamond,green,hori,left,"[-106,106]","[106,106]",left,1,0.85,,,,,,001,2025-03-10_16h53.17.500,SL_sali_41,2021.2.3,Win32,59.52380952,,,19,0,19,0,1,,,,,,,,
,,"[""diamond"",""no_dis"",""hori"",""left"",[99999,99999],[-106,-106]]",diamond,no_dis,hori,left,"[99999,99999]","[-106,-106]",left,1,0.6938,,,,,,001,2025-03-10_16h53.17.500,SL_sali_41,2021.2.3,Win32,59.52380952,,,20,0,20,0,1,,,,,,,,
,,"[""circle"",""no_dis"",""vert"",""up"",[99999,99999],[106,106]]",circle,no_dis,vert,up,"[99999,99999]","[106,106]",up,1,0.6877,,,,,,001,2025-03-10_16h53.17.500,SL_sali_41,2021.2.3,Win32,59.52380952,,,21,0,21,0,1,,,,,,,,
,,"[""circle"",""red"",""vert"",""up"",[106,-106],[106,106]]",circle,red,vert,up,"[106,-106]","[106,106]",up,1,0.9172,,,,,,001,2025-03-10_16h53.17.500,SL_sali_41,2021.2.3,Win32,59.52380952,,,22,0,22,0,1,,,,,,,,
,,"[""circle"",""green"",""vert"",""up"",[-106,-106],[106,106]]",circle,green,vert,up,"[-106,-106]","[106,106]",up,1,1.0002,,,,,,001,2025-03-10_16h53.17.500,SL_sali_41,2021.2.3,Win32,59.52380952,,,23,0,23,0,1,,,,,,,,
,,"[""circle"",""green"",""hori"",""left"",[-150,0],[106,-106]]",circle,green,hori,left,"[-150,0]","[106,-106]",left,1,1.5656,,,,,,001,2025-03-10_16h53.17.500,SL_sali_41,2021.2.3,Win32,59.52380952,,,24,0,24,0,1,,,,,,,,
,,"[""circle"",""red"",""hori"",""left"",[106,106],[150,0]]",circle,red,hori,left,"[106,106]","[150,0]",left,1,1.3386,,,,,,001,2025-03-10_16h53.17.500,SL_sali_41,2021.2.3,Win32,59.52380952,,,25,0,25,0,1,,,,,,,,
,,"[""circle"",""green"",""hori"",""left"",[106,106],[0,150]]",circle,green,hori,left,"[106,106]","[0,150]",left,1,0.9216,,,,,,001,2025-03-10_16h53.17.500,SL_sali_41,2021.2.3,Win32,59.52380952,,,26,0,26,0,1,,,,,,,,
,,"[""circle"",""green"",""vert"",""up"",[0,-150],[-150,0]]",circle,green,vert,up,"[0,-150]","[-150,0]",up,1,1.0342,,,,,,001,2025-03-10_16h53.17.500,SL_sali_41,2021.2.3,Win32,59.52380952,,,27,0,27,0,1,,,,,,,,
,,"[""diamond"",""no_dis"",""vert"",""up"",[99999,99999],[106,106]]",diamond,no_dis,vert,up,"[99999,99999]","[106,106]",up,1,1.1669,,,,,,001,2025-03-10_16h53.17.500,SL_sali_41,2021.2.3,Win32,59.52380952,,,28,0,28,0,1,,,,,,,,
,,"[""circle"",""red"",""vert"",""up"",[-106,-106],[150,0]]",circle,red,vert,up,"[-106,-106]","[150,0]",up,1,1.0825,,,,,,001,2025-03-10_16h53.17.500,SL_sali_41,2021.2.3,Win32,59.52380952,,,29,0,29,0,1,,,,,,,,
,,"[""circle"",""red"",""hori"",""left"",[150,0],[0,-150]]",circle,red,hori,left,"[150,0]","[0,-150]",left,1,0.9834,,,,,,001,2025-03-10_16h53.17.500,SL_sali_41,2021.2.3,Win32,59.52380952,,,30,0,30,0,1,,,,,,,,
,,"[""circle"",""red"",""vert"",""up"",[150,0],[0,-150]]",circle,red,vert,up,"[150,0]","[0,-150]",up,1,1.1494,,,,,,001,2025-03-10_16h53.17.500,SL_sali_41,2021.2.3,Win32,59.52380952,,,31,0,31,0,1,,,,,,,,
,,"[""circle"",""green"",""hori"",""left"",[0,-150],[-150,0]]",circle,green,hori,left,"[0,-150]","[-150,0]",left,1,0.76,,,,,,001,2025-03-10_16h53.17.500,SL_sali_41,2021.2.3,Win32,59.52380952,,,32,0,32,0,1,,,,,,,,
,,"[""circle"",""no_dis"",""vert"",""up"",[99999,99999],[150,0]]",circle,no_dis,vert,up,"[99999,99999]","[150,0]",up,1,0.7168,,,,,,001,2025-03-10_16h53.17.500,SL_sali_41,2021.2.3,Win32,59.52380952,,,33,0,33,0,1,,,,,,,,
,,"[""circle"",""no_dis"",""hori"",""left"",[99999,99999],[-106,106]]",circle,no_dis,hori,left,"[99999,99999]","[-106,106]",left,1,0.7827,,,,,,001,2025-03-10_16h53.17.500,SL_sali_41,2021.2.3,Win32,59.52380952,,,34,0,34,0,1,,,,,,,,
,,"[""circle"",""green"",""vert"",""up"",[-150,0],[0,-150]]",circle,green,vert,up,"[-150,0]","[0,-150]",up,1,0.8514,,,,,,001,2025-03-10_16h53.17.500,SL_sali_41,2021.2.3,Win32,59.52380952,,,35,0,35,0,1,,,,,,,,
,,"[""circle"",""red"",""hori"",""left"",[0,-150],[-106,106]]",circle,red,hori,left,"[0,-150]","[-106,106]",left,1,0.8166,,,,,,001,2025-03-10_16h53.17.500,SL_sali_41,2021.2.3,Win32,59.52380952,,,36,0,36,0,1,,,,,,,,
,,"[""circle"",""red"",""hori"",""left"",[0,150],[150,0]]",circle,red,hori,left,"[0,150]","[150,0]",left,1,1.1012,,,,,,001,2025-03-10_16h53.17.500,SL_sali_41,2021.2.3,Win32,59.52380952,,,37,0,37,0,1,,,,,,,,
,,"[""diamond"",""green"",""vert"",""up"",[-150,0],[0,150]]",diamond,green,vert,up,"[-150,0]","[0,150]",up,1,1.5172,,,,,,001,2025-03-10_16h53.17.500,SL_sali_41,2021.2.3,Win32,59.52380952,,,38,0,38,0,1,,,,,,,,
,,"[""diamond"",""red"",""vert"",""up"",[-150,0],[106,106]]",diamond,red,vert,up,"[-150,0]","[106,106]",up,1,1.0701,,,,,,001,2025-03-10_16h53.17.500,SL_sali_41,2021.2.3,Win32,59.52380952,,,39,0,39,0,1,,,,,,,,
,,"[""diamond"",""no_dis"",""vert"",""up"",[99999,99999],[106,106]]",diamond,no_dis,vert,up,"[99999,99999]","[106,106]",up,1,0.9633,,,,,,001,2025-03-10_16h53.17.500,SL_sali_41,2021.2.3,Win32,59.52380952,,,40,0,40,0,1,,,,,,,,
,,"[""diamond"",""red"",""hori"",""left"",[150,0],[106,-106]]",diamond,red,hori,left,"[150,0]","[106,-106]",left,1,1.3022,,,,,,001,2025-03-10_16h53.17.500,SL_sali_41,2021.2.3,Win32,59.52380952,,,41,0,41,0,1,,,,,,,,
,,"[""diamond"",""red"",""vert"",""up"",[150,0],[-106,-106]]",diamond,red,vert,up,"[150,0]","[-106,-106]",up,1,1.0655,,,,,,001,2025-03-10_16h53.17.500,SL_sali_41,2021.2.3,Win32,59.52380952,,,42,0,42,0,1,,,,,,,,
,,"[""diamond"",""no_dis"",""hori"",""left"",[99999,99999],[106,106]]",diamond,no_dis,hori,left,"[99999,99999]","[106,106]",up,0,1.3838,,,,,,001,2025-03-10_16h53.17.500,SL_sali_41,2021.2.3,Win32,59.52380952,,,43,0,43,0,1,,,,,,,,
,,"[""circle"",""red"",""vert"",""up"",[0,-150],[106,-106]]",circle,red,vert,up,"[0,-150]","[106,-106]",up,1,1.25,,,,,,001,2025-03-10_16h53.17.500,SL_sali_41,2021.2.3,Win32,59.52380952,,,44,0,44,0,1,,,,,,,,
,,"[""diamond"",""no_dis"",""vert"",""up"",[99999,99999],[150,0]]",diamond,no_dis,vert,up,"[99999,99999]","[150,0]",up,1,1.0161,,,,,,001,2025-03-10_16h53.17.500,SL_sali_41,2021.2.3,Win32,59.52380952,,,45,0,45,0,1,,,,,,,,
,,"[""diamond"",""green"",""hori"",""left"",[-150,0],[106,106]]",diamond,green,hori,left,"[-150,0]","[106,106]",left,1,0.8659,,,,,,001,2025-03-10_16h53.17.500,SL_sali_41,2021.2.3,Win32,59.52380952,,,46,0,46,0,1,,,,,,,,
,,"[""diamond"",""no_dis"",""vert"",""up"",[99999,99999],[-150,0]]",diamond,no_dis,vert,up,"[99999,99999]","[-150,0]",up,1,0.8009,,,,,,001,2025-03-10_16h53.17.500,SL_sali_41,2021.2.3,Win32,59.52380952,,,47,0,47,0,1,,,,,,,,
,,"[""circle"",""green"",""vert"",""up"",[0,150],[-106,-106]]",circle,green,vert,up,"[0,150]","[-106,-106]",up,1,0.9298,,,,,,001,2025-03-10_16h53.17.500,SL_sali_41,2021.2.3,Win32,59.52380952,,,48,0,48,0,1,,,,,,,,
,,"[""diamond"",""green"",""hori"",""left"",[0,-150],[106,106]]",diamond,green,hori,left,"[0,-150]","[106,106]",left,1,1.1494,,,,,,001,2025-03-10_16h53.17.500,SL_sali_41,2021.2.3,Win32,59.52380952,,,49,0,49,0,1,,,,,,,,
,,"[""circle"",""red"",""hori"",""left"",[-106,-106],[106,-106]]",circle,red,hori,left,"[-106,-106]","[106,-106]",left,1,1.0997,,,,,,001,2025-03-10_16h53.17.500,SL_sali_41,2021.2.3,Win32,59.52380952,,,50,0,50,0,1,,,,,,,,
,,"[""diamond"",""green"",""hori"",""left"",[0,-150],[106,-106]]",diamond,green,hori,left,"[0,-150]","[106,-106]",left,1,1.4668,,,,,,001,2025-03-10_16h53.17.500,SL_sali_41,2021.2.3,Win32,59.52380952,,,51,0,51,0,1,,,,,,,,
,,"[""circle"",""green"",""vert"",""up"",[106,-106],[-150,0]]",circle,green,vert,up,"[106,-106]","[-150,0]",up,1,1.5558,,,,,,001,2025-03-10_16h53.17.500,SL_sali_41,2021.2.3,Win32,59.52380952,,,52,0,52,0,1,,,,,,,,
,,"[""diamond"",""no_dis"",""hori"",""left"",[99999,99999],[150,0]]",diamond,no_dis,hori,left,"[99999,99999]","[150,0]",left,1,0.8415,,,,,,001,2025-03-10_16h53.17.500,SL_sali_41,2021.2.3,Win32,59.52380952,,,53,0,53,0,1,,,,,,,,
,,"[""circle"",""red"",""hori"",""left"",[0,-150],[106,106]]",circle,red,hori,left,"[0,-150]","[106,106]",left,1,1.3675,,,,,,001,2025-03-10_16h53.17.500,SL_sali_41,2021.2.3,Win32,59.52380952,,,54,0,54,0,1,,,,,,,,
,,"[""circle"",""green"",""vert"",""up"",[0,150],[0,-150]]",circle,green,vert,up,"[0,150]","[0,-150]",up,1,0.8692,,,,,,001,2025-03-10_16h53.17.500,SL_sali_41,2021.2.3,Win32,59.52380952,,,55,0,55,0,1,,,,,,,,
,,"[""diamond"",""green"",""vert"",""up"",[150,0],[-150,0]]",diamond,green,vert,up,"[150,0]","[-150,0]",up,1,0.8334,,,,,,001,2025-03-10_16h53.17.500,SL_sali_41,2021.2.3,Win32,59.52380952,,,56,0,56,0,1,,,,,,,,
,,"[""circle"",""green"",""hori"",""left"",[-106,106],[150,0]]",circle,green,hori,left,"[-106,106]","[150,0]",left,1,0.9672,,,,,,001,2025-03-10_16h53.17.500,SL_sali_41,2021.2.3,Win32,59.52380952,,,57,0,57,0,1,,,,,,,,
,,"[""circle"",""green"",""vert"",""up"",[-106,106],[0,150]]",circle,green,vert,up,"[-106,106]","[0,150]",left,0,0.734,,,,,,001,2025-03-10_16h53.17.500,SL_sali_41,2021.2.3,Win32,59.52380952,,,58,0,58,0,1,,,,,,,,
,,"[""circle"",""green"",""hori"",""left"",[0,-150],[-106,-106]]",circle,green,hori,left,"[0,-150]","[-106,-106]",left,1,1.1603,,,,,,001,2025-03-10_16h53.17.500,SL_sali_41,2021.2.3,Win32,59.52380952,,,59,0,59,0,1,,,,,,,,
,,"[""circle"",""green"",""hori"",""left"",[0,-150],[-106,-106]]",circle,green,hori,left,"[0,-150]","[-106,-106]",left,1,1.65,,,,,,001,2025-03-10_16h53.17.500,SL_sali_41,2021.2.3,Win32,59.52380952,,,60,0,60,0,1,,,,,,,,
,,"[""diamond"",""no_dis"",""vert"",""up"",[99999,99999],[106,-106]]",diamond,no_dis,vert,up,"[99999,99999]","[106,-106]",up,1,1.1505,,,,,,001,2025-03-10_16h53.17.500,SL_sali_41,2021.2.3,Win32,59.52380952,,,61,0,61,0,1,,,,,,,,
,,"[""diamond"",""no_dis"",""vert"",""up"",[99999,99999],[-106,-106]]",diamond,no_dis,vert,up,"[99999,99999]","[-106,-106]",up,1,0.8669,,,,,,001,2025-03-10_16h53.17.500,SL_sali_41,2021.2.3,Win32,59.52380952,,,62,0,62,0,1,,,,,,,,
,,"[""diamond"",""red"",""hori"",""left"",[0,-150],[106,106]]",diamond,red,hori,left,"[0,-150]","[106,106]",left,1,0.8696,,,,,,001,2025-03-10_16h53.17.500,SL_sali_41,2021.2.3,Win32,59.52380952,,,63,0,63,0,1,,,,,,,,
,,"[""circle"",""red"",""vert"",""up"",[0,-150],[106,106]]",circle,red,vert,up,"[0,-150]","[106,106]",up,1,0.9745,,,,,,001,2025-03-10_16h53.17.500,SL_sali_41,2021.2.3,Win32,59.52380952,,,64,0,64,0,1,,,,,,,,
,,"[""circle"",""green"",""vert"",""up"",[106,106],[150,0]]",circle,green,vert,up,"[106,106]","[150,0]",up,1,1.025,,,,,,001,2025-03-10_16h53.17.500,SL_sali_41,2021.2.3,Win32,59.52380952,,,65,0,65,0,1,,,,,,,,
,,"[""diamond"",""no_dis"",""hori"",""left"",[99999,99999],[-106,-106]]",diamond,no_dis,hori,left,"[99999,99999]","[-106,-106]",left,1,0.9668,,,,,,001,2025-03-10_16h53.17.500,SL_sali_41,2021.2.3,Win32,59.52380952,,,66,0,66,0,1,,,,,,,,
,,"[""circle"",""no_dis"",""vert"",""up"",[99999,99999],[-150,0]]",circle,no_dis,vert,up,"[99999,99999]","[-150,0]",up,1,1.0335,,,,,,001,2025-03-10_16h53.17.500,SL_sali_41,2021.2.3,Win32,59.52380952,,,67,0,67,0,1,,,,,,,,
,,"[""diamond"",""red"",""hori"",""left"",[0,-150],[106,-106]]",diamond,red,hori,left,"[0,-150]","[106,-106]",left,1,1.2669,,,,,,001,2025-03-10_16h53.17.500,SL_sali_41,2021.2.3,Win32,59.52380952,,,68,0,68,0,1,,,,,,,,
,,"[""circle"",""no_dis"",""vert"",""up"",[99999,99999],[-106,106]]",circle,no_dis,vert,up,"[99999,99999]","[-106,106]",left,0,1.7292,,,,,,001,2025-03-10_16h53.17.500,SL_sali_41,2021.2.3,Win32,59.52380952,,,69,0,69,0,1,,,,,,,,
,,"[""circle"",""no_dis"",""hori"",""left"",[99999,99999],[0,150]]",circle,no_dis,hori,left,"[99999,99999]","[0,150]",left,1,1.7158,,,,,,001,2025-03-10_16h53.17.500,SL_sali_41,2021.2.3,Win32,59.52380952,,,70,0,70,0,1,,,,,,,,
,,"[""circle"",""no_dis"",""hori"",""left"",[99999,99999],[0,-150]]",circle,no_dis,hori,left,"[99999,99999]","[0,-150]",left,1,1.1747,,,,,,001,2025-03-10_16h53.17.500,SL_sali_41,2021.2.3,Win32,59.52380952,,,71,0,71,0,1,,,,,,,,
,,"[""diamond"",""no_dis"",""vert"",""up"",[99999,99999],[106,-106]]",diamond,no_dis,vert,up,"[99999,99999]","[106,-106]",up,1,0.8334,,,,,,001,2025-03-10_16h53.17.500,SL_sali_41,2021.2.3,Win32,59.52380952,,,72,0,72,0,1,,,,,,,,
,,"[""diamond"",""green"",""vert"",""up"",[0,-150],[-106,-106]]",diamond,green,vert,up,"[0,-150]","[-106,-106]",up,1,1.2505,,,,,,001,2025-03-10_16h53.17.500,SL_sali_41,2021.2.3,Win32,59.52380952,,,73,0,73,0,1,,,,,,,,
,,"[""diamond"",""red"",""vert"",""up"",[106,-106],[-150,0]]",diamond,red,vert,up,"[106,-106]","[-150,0]",up,1,0.7432,,,,,,001,2025-03-10_16h53.17.500,SL_sali_41,2021.2.3,Win32,59.52380952,,,74,0,74,0,1,,,,,,,,
,,"[""circle"",""green"",""vert"",""up"",[0,150],[150,0]]",circle,green,vert,up,"[0,150]","[150,0]",up,1,1.5501,,,,,,001,2025-03-10_16h53.17.500,SL_sali_41,2021.2.3,Win32,59.52380952,,,75,0,75,0,1,,,,,,,,
,,"[""circle"",""red"",""vert"",""up"",[0,150],[0,-150]]",circle,red,vert,up,"[0,150]","[0,-150]",up,1,1,,,,,,001,2025-03-10_16h53.17.500,SL_sali_41,2021.2.3,Win32,59.52380952,,,76,0,76,0,1,,,,,,,,
,,"[""diamond"",""green"",""hori"",""left"",[106,106],[150,0]]",diamond,green,hori,left,"[106,106]","[150,0]",left,1,1.3578,,,,,,001,2025-03-10_16h53.17.500,SL_sali_41,2021.2.3,Win32,59.52380952,,,77,0,77,0,1,,,,,,,,
,,"[""diamond"",""green"",""vert"",""up"",[0,-150],[0,150]]",diamond,green,vert,up,"[0,-150]","[0,150]",up,1,1.1693,,,,,,001,2025-03-10_16h53.17.500,SL_sali_41,2021.2.3,Win32,59.52380952,,,78,0,78,0,1,,,,,,,,
,,"[""diamond"",""red"",""vert"",""up"",[0,-150],[-106,106]]",diamond,red,vert,up,"[0,-150]","[-106,106]",up,1,1.0834,,,,,,001,2025-03-10_16h53.17.500,SL_sali_41,2021.2.3,Win32,59.52380952,,,79,0,79,0,1,,,,,,,,
,,"[""circle"",""green"",""vert"",""up"",[0,-150],[-106,106]]",circle,green,vert,up,"[0,-150]","[-106,106]",up,1,1.3837,,,,,,001,2025-03-10_16h53.17.500,SL_sali_41,2021.2.3,Win32,59.52380952,,,80,0,80,0,1,,,,,,,,
,,"[""circle"",""no_dis"",""vert"",""up"",[99999,99999],[106,-106]]",circle,no_dis,vert,up,"[99999,99999]","[106,-106]",up,1,0.9165,,,,,,001,2025-03-10_16h53.17.500,SL_sali_41,2021.2.3,Win32,59.52380952,,,81,0,81,0,1,,,,,,,,
,,"[""diamond"",""green"",""vert"",""up"",[0,-150],[106,-106]]",diamond,green,vert,up,"[0,-150]","[106,-106]",up,1,0.9674,,,,,,001,2025-03-10_16h53.17.500,SL_sali_41,2021.2.3,Win32,59.52380952,,,82,0,82,0,1,,,,,,,,
,,"[""circle"",""no_dis"",""hori"",""left"",[99999,99999],[0,150]]",circle,no_dis,hori,left,"[99999,99999]","[0,150]",left,1,1.1607,,,,,,001,2025-03-10_16h53.17.500,SL_sali_41,2021.2.3,Win32,59.52380952,,,83,0,83,0,1,,,,,,,,
,,"[""circle"",""no_dis"",""vert"",""up"",[99999,99999],[0,-150]]",circle,no_dis,vert,up,"[99999,99999]","[0,-150]",up,1,0.9568,,,,,,001,2025-03-10_16h53.17.500,SL_sali_41,2021.2.3,Win32,59.52380952,,,84,0,84,0,1,,,,,,,,
,,"[""circle"",""red"",""hori"",""left"",[-150,0],[0,150]]",circle,red,hori,left,"[-150,0]","[0,150]",left,1,1.5834,,,,,,001,2025-03-10_16h53.17.500,SL_sali_41,2021.2.3,Win32,59.52380952,,,85,0,85,0,1,,,,,,,,
,,"[""diamond"",""green"",""hori"",""left"",[0,-150],[0,150]]",diamond,green,hori,left,"[0,-150]","[0,150]",left,1,0.7671,,,,,,001,2025-03-10_16h53.17.500,SL_sali_41,2021.2.3,Win32,59.52380952,,,86,0,86,0,1,,,,,,,,
,,"[""diamond"",""green"",""vert"",""up"",[106,-106],[0,150]]",diamond,green,vert,up,"[106,-106]","[0,150]",up,1,1.1005,,,,,,001,2025-03-10_16h53.17.500,SL_sali_41,2021.2.3,Win32,59.52380952,,,87,0,87,0,1,,,,,,,,
,,"[""circle"",""red"",""hori"",""left"",[0,150],[106,-106]]",circle,red,hori,left,"[0,150]","[106,-106]",left,1,1.155,,,,,,001,2025-03-10_16h53.17.500,SL_sali_41,2021.2.3,Win32,59.52380952,,,88,0,88,0,1,,,,,,,,
,,"[""circle"",""green"",""vert"",""up"",[0,-150],[-106,106]]",circle,green,vert,up,"[0,-150]","[-106,106]",left,0,1.6507,,,,,,001,2025-03-10_16h53.17.500,SL_sali_41,2021.2.3,Win32,59.52380952,,,89,0,89,0,1,,,,,,,,
,,"[""circle"",""green"",""hori"",""left"",[0,-150],[150,0]]",circle,green,hori,left,"[0,-150]","[150,0]",left,1,1.3335,,,,,,001,2025-03-10_16h53.17.500,SL_sali_41,2021.2.3,Win32,59.52380952,,,90,0,90,0,1,,,,,,,,
,,"[""circle"",""red"",""vert"",""up"",[-106,-106],[106,106]]",circle,red,vert,up,"[-106,-106]","[106,106]",up,1,1.0832,,,,,,001,2025-03-10_16h53.17.500,SL_sali_41,2021.2.3,Win32,59.52380952,,,91,0,91,0,1,,,,,,,,
,,"[""diamond"",""no_dis"",""hori"",""left"",[99999,99999],[0,150]]",diamond,no_dis,hori,left,"[99999,99999]","[0,150]",left,1,0.7659,,,,,,001,2025-03-10_16h53.17.500,SL_sali_41,2021.2.3,Win32,59.52380952,,,92,0,92,0,1,,,,,,,,
,,"[""circle"",""no_dis"",""vert"",""up"",[99999,99999],[0,-150]]",circle,no_dis,vert,up,"[99999,99999]","[0,-150]",up,1,0.773,,,,,,001,2025-03-10_16h53.17.500,SL_sali_41,2021.2.3,Win32,59.52380952,,,93,0,93,0,1,,,,,,,,
,,"[""diamond"",""red"",""vert"",""up"",[-150,0],[0,-150]]",diamond,red,vert,up,"[-150,0]","[0,-150]",up,1,0.9496,,,,,,001,2025-03-10_16h53.17.500,SL_sali_41,2021.2.3,Win32,59.52380952,,,94,0,94,0,1,,,,,,,,
,,"[""diamond"",""green"",""hori"",""left"",[106,-106],[-106,-106]]",diamond,green,hori,left,"[106,-106]","[-106,-106]",left,1,1.0002,,,,,,001,2025-03-10_16h53.17.500,SL_sali_41,2021.2.3,Win32,59.52380952,,,95,0,95,0,1,,,,,,,,
,,"[""circle"",""red"",""hori"",""left"",[-106,-106],[0,-150]]",circle,red,hori,left,"[-106,-106]","[0,-150]",left,1,1.1729,,,,,,001,2025-03-10_16h53.17.500,SL_sali_41,2021.2.3,Win32,59.52380952,,,96,0,96,0,1,,,,,,,,
,,"[""circle"",""green"",""hori"",""left"",[106,106],[150,0]]",circle,green,hori,left,"[106,106]","[150,0]",left,1,1.2997,,,,,,001,2025-03-10_16h53.17.500,SL_sali_41,2021.2.3,Win32,59.52380952,,,97,0,97,0,1,,,,,,,,
,,"[""diamond"",""red"",""hori"",""left"",[106,-106],[-150,0]]",diamond,red,hori,left,"[106,-106]","[-150,0]",left,1,0.8674,,,,,,001,2025-03-10_16h53.17.500,SL_sali_41,2021.2.3,Win32,59.52380952,,,98,0,98,0,1,,,,,,,,
,,"[""diamond"",""red"",""vert"",""up"",[0,-150],[-106,106]]",diamond,red,vert,up,"[0,-150]","[-106,106]",up,1,0.7432,,,,,,001,2025-03-10_16h53.17.500,SL_sali_41,2021.2.3,Win32,59.52380952,,,99,0,99,0,1,,,,,,,,
,,"[""diamond"",""no_dis"",""vert"",""up"",[99999,99999],[-106,106]]",diamond,no_dis,vert,up,"[99999,99999]","[-106,106]",up,1,1.1992,,,,,,001,2025-03-10_16h53.17.500,SL_sali_41,2021.2.3,Win32,59.52380952,,,100,0,100,0,1,,,,,,,,
,,"[""diamond"",""green"",""hori"",""left"",[106,106],[-106,106]]",diamond,green,hori,left,"[106,106]","[-106,106]",left,1,0.9161,,,,,,001,2025-03-10_16h53.17.500,SL_sali_41,2021.2.3,Win32,59.52380952,,,101,0,101,0,1,,,,,,,,
,,"[""diamond"",""green"",""vert"",""up"",[106,-106],[-150,0]]",diamond,green,vert,up,"[106,-106]","[-150,0]",up,1,2.15,,,,,,001,2025-03-10_16h53.17.500,SL_sali_41,2021.2.3,Win32,59.52380952,,,102,0,102,0,1,,,,,,,,
,,"[""diamond"",""no_dis"",""hori"",""left"",[99999,99999],[-150,0]]",diamond,no_dis,hori,left,"[99999,99999]","[-150,0]",left,1,0.8771,,,,,,001,2025-03-10_16h53.17.500,SL_sali_41,2021.2.3,Win32,59.52380952,,,103,0,103,0,1,,,,,,,,
,,"[""diamond"",""green"",""vert"",""up"",[-106,106],[0,-150]]",diamond,green,vert,up,"[-106,106]","[0,-150]",up,1,0.9166,,,,,,001,2025-03-10_16h53.17.500,SL_sali_41,2021.2.3,Win32,59.52380952,,,104,0,104,0,1,,,,,,,,
,,"[""diamond"",""red"",""vert"",""up"",[-106,106],[-150,0]]",diamond,red,vert,up,"[-106,106]","[-150,0]",up,1,0.9594,,,,,,001,2025-03-10_16h53.17.500,SL_sali_41,2021.2.3,Win32,59.52380952,,,105,0,105,0,1,,,,,,,,
,,"[""circle"",""no_dis"",""vert"",""up"",[99999,99999],[106,-106]]",circle,no_dis,vert,up,"[99999,99999]","[106,-106]",up,1,1.2152,,,,,,001,2025-03-10_16h53.17.500,SL_sali_41,2021.2.3,Win32,59.52380952,,,106,0,106,0,1,,,,,,,,
,,"[""circle"",""red"",""hori"",""left"",[0,-150],[-150,0]]",circle,red,hori,left,"[0,-150]","[-150,0]",left,1,1.0837,,,,,,001,2025-03-10_16h53.17.500,SL_sali_41,2021.2.3,Win32,59.52380952,,,107,0,107,0,1,,,,,,,,
,,"[""circle"",""no_dis"",""hori"",""left"",[99999,99999],[106,-106]]",circle,no_dis,hori,left,"[99999,99999]","[106,-106]",left,1,0.7334,,,,,,001,2025-03-10_16h53.17.500,SL_sali_41,2021.2.3,Win32,59.52380952,,,108,0,108,0,1,,,,,,,,
,,"[""diamond"",""no_dis"",""vert"",""up"",[99999,99999],[-106,-106]]",diamond,no_dis,vert,up,"[99999,99999]","[-106,-106]",up,1,0.7921,,,,,,001,2025-03-10_16h53.17.500,SL_sali_41,2021.2.3,Win32,59.52380952,,,109,0,109,0,1,,,,,,,,
,,"[""diamond"",""green"",""hori"",""left"",[0,150],[0,-150]]",diamond,green,hori,left,"[0,150]","[0,-150]",left,1,1.5668,,,,,,001,2025-03-10_16h53.17.500,SL_sali_41,2021.2.3,Win32,59.52380952,,,110,0,110,0,1,,,,,,,,
,,"[""diamond"",""red"",""hori"",""left"",[150,0],[-106,106]]",diamond,red,hori,left,"[150,0]","[-106,106]",left,1,0.783,,,,,,001,2025-03-10_16h53.17.500,SL_sali_41,2021.2.3,Win32,59.52380952,,,111,0,111,0,1,,,,,,,,
,,"[""circle"",""red"",""vert"",""up"",[0,-150],[106,-106]]",circle,red,vert,up,"[0,-150]","[106,-106]",up,1,0.9833,,,,,,001,2025-03-10_16h53.17.500,SL_sali_41,2021.2.3,Win32,59.52380952,,,112,0,112,0,1,,,,,,,,
,,"[""diamond"",""no_dis"",""hori"",""left"",[99999,99999],[0,-150]]",diamond,no_dis,hori,left,"[99999,99999]","[0,-150]",left,1,0.8167,,,,,,001,2025-03-10_16h53.17.500,SL_sali_41,2021.2.3,Win32,59.52380952,,,113,0,113,0,1,,,,,,,,
,,"[""diamond"",""red"",""vert"",""up"",[150,0],[0,150]]",diamond,red,vert,up,"[150,0]","[0,150]",up,1,0.7162,,,,,,001,2025-03-10_16h53.17.500,SL_sali_41,2021.2.3,Win32,59.52380952,,,114,0,114,0,1,,,,,,,,
,,"[""diamond"",""red"",""hori"",""left"",[-150,0],[106,106]]",diamond,red,hori,left,"[-150,0]","[106,106]",left,1,0.7516,,,,,,001,2025-03-10_16h53.17.500,SL_sali_41,2021.2.3,Win32,59.52380952,,,115,0,115,0,1,,,,,,,,
,,"[""diamond"",""green"",""hori"",""left"",[0,-150],[-150,0]]",diamond,green,hori,left,"[0,-150]","[-150,0]",left,1,1.1836,,,,,,001,2025-03-10_16h53.17.500,SL_sali_41,2021.2.3,Win32,59.52380952,,,116,0,116,0,1,,,,,,,,
,,"[""diamond"",""green"",""vert"",""up"",[150,0],[0,150]]",diamond,green,vert,up,"[150,0]","[0,150]",up,1,0.7503,,,,,,001,2025-03-10_16h53.17.500,SL_sali_41,2021.2.3,Win32,59.52380952,,,117,0,117,0,1,,,,,,,,
,,"[""circle"",""no_dis"",""hori"",""left"",[99999,99999],[150,0]]",circle,no_dis,hori,left,"[99999,99999]","[150,0]",left,1,0.8038,,,,,,001,2025-03-10_16h53.17.500,SL_sali_41,2021.2.3,Win32,59.52380952,,,118,0,118,0,1,,,,,,,,
,,"[""circle"",""red"",""vert"",""up"",[0,150],[106,106]]",circle,red,vert,up,"[0,150]","[106,106]",up,1,1.4991,,,,,,001,2025-03-10_16h53.17.500,SL_sali_41,2021.2.3,Win32,59.52380952,,,119,0,119,0,1,,,,,,,,
,,"[""diamond"",""no_dis"",""vert"",""up"",[99999,99999],[150,0]]",diamond,no_dis,vert,up,"[99999,99999]","[150,0]",up,1,0.9965,,,,,,001,2025-03-10_16h53.17.500,SL_sali_41,2021.2.3,Win32,59.52380952,,,120,0,120,0,1,,,,,,,,
,,"[""circle"",""red"",""vert"",""up"",[0,-150],[-150,0]]",circle,red,vert,up,"[0,-150]","[-150,0]",up,1,1.3836,,,,,,001,2025-03-10_16h53.17.500,SL_sali_41,2021.2.3,Win32,59.52380952,,,121,0,121,0,1,,,,,,,,
,,"[""diamond"",""no_dis"",""hori"",""left"",[99999,99999],[-106,106]]",diamond,no_dis,hori,left,"[99999,99999]","[-106,106]",left,1,0.8277,,,,,,001,2025-03-10_16h53.17.500,SL_sali_41,2021.2.3,Win32,59.52380952,,,122,0,122,0,1,,,,,,,,
,,"[""diamond"",""no_dis"",""hori"",""left"",[99999,99999],[-150,0]]",diamond,no_dis,hori,left,"[99999,99999]","[-150,0]",left,1,0.8003,,,,,,001,2025-03-10_16h53.17.500,SL_sali_41,2021.2.3,Win32,59.52380952,,,123,0,123,0,1,,,,,,,,
,,"[""circle"",""no_dis"",""hori"",""left"",[99999,99999],[0,-150]]",circle,no_dis,hori,left,"[99999,99999]","[0,-150]",left,1,0.8829,,,,,,001,2025-03-10_16h53.17.500,SL_sali_41,2021.2.3,Win32,59.52380952,,,124,0,124,0,1,,,,,,,,
,,"[""circle"",""no_dis"",""vert"",""up"",[99999,99999],[-106,106]]",circle,no_dis,vert,up,"[99999,99999]","[-106,106]",up,1,0.717,,,,,,001,2025-03-10_16h53.17.500,SL_sali_41,2021.2.3,Win32,59.52380952,,,125,0,125,0,1,,,,,,,,
,,"[""diamond"",""green"",""hori"",""left"",[0,-150],[-106,106]]",diamond,green,hori,left,"[0,-150]","[-106,106]",left,1,0.7333,,,,,,001,2025-03-10_16h53.17.500,SL_sali_41,2021.2.3,Win32,59.52380952,,,126,0,126,0,1,,,,,,,,
,,"[""diamond"",""green"",""vert"",""up"",[-106,-106],[-150,0]]",diamond,green,vert,up,"[-106,-106]","[-150,0]",up,1,1.134,,,,,,001,2025-03-10_16h53.17.500,SL_sali_41,2021.2.3,Win32,59.52380952,,,127,0,127,0,1,,,,,,,,
,,,,,,,,,,,,,,,,,001,2025-03-10_16h53.17.500,SL_sali_41,2021.2.3,Win32,59.52380952,,,,,,,,3,space,16.737,2,0,2,0,1
,,"[""diamond"",""no_dis"",""hori"",""left"",[99999,99999],[-150,0]]",diamond,no_dis,hori,left,"[99999,99999]","[-150,0]",left,1,0.859,,,,,,001,2025-03-10_16h53.17.500,SL_sali_41,2021.2.3,Win32,59.52380952,,,0,0,0,0,1,,,,,,,,
,,"[""diamond"",""red"",""vert"",""up"",[150,0],[-106,-106]]",diamond,red,vert,up,"[150,0]","[-106,-106]",up,1,1.5993,,,,,,001,2025-03-10_16h53.17.500,SL_sali_41,2021.2.3,Win32,59.52380952,,,1,0,1,0,1,,,,,,,,
,,"[""diamond"",""green"",""vert"",""up"",[106,-106],[0,150]]",diamond,green,vert,up,"[106,-106]","[0,150]",up,1,0.7495,,,,,,001,2025-03-10_16h53.17.500,SL_sali_41,2021.2.3,Win32,59.52380952,,,2,0,2,0,1,,,,,,,,
,,"[""circle"",""red"",""vert"",""up"",[0,150],[106,106]]",circle,red,vert,up,"[0,150]","[106,106]",up,1,1.707,,,,,,001,2025-03-10_16h53.17.500,SL_sali_41,2021.2.3,Win32,59.52380952,,,3,0,3,0,1,,,,,,,,
,,"[""circle"",""no_dis"",""vert"",""up"",[99999,99999],[0,-150]]",circle,no_dis,vert,up,"[99999,99999]","[0,-150]",up,1,1.0882,,,,,,001,2025-03-10_16h53.17.500,SL_sali_41,2021.2.3,Win32,59.52380952,,,4,0,4,0,1,,,,,,,,
,,"[""circle"",""no_dis"",""hori"",""left"",[99999,99999],[106,-106]]",circle,no_dis,hori,left,"[99999,99999]","[106,-106]",left,1,0.9248,,,,,,001,2025-03-10_16h53.17.500,SL_sali_41,2021.2.3,Win32,59.52380952,,,5,0,5,0,1,,,,,,,,
,,"[""diamond"",""red"",""hori"",""left"",[-150,0],[106,106]]",diamond,red,hori,left,"[-150,0]","[106,106]",left,1,0.9161,,,,,,001,2025-03-10_16h53.17.500,SL_sali_41,2021.2.3,Win32,59.52380952,,,6,0,6,0,1,,,,,,,,
,,"[""diamond"",""red"",""hori"",""left"",[0,-150],[106,-106]]",diamond,red,hori,left,"[0,-150]","[106,-106]",left,1,1.0497,,,,,,001,2025-03-10_16h53.17.500,SL_sali_41,2021.2.3,Win32,59.52380952,,,7,0,7,0,1,,,,,,,,
,,"[""diamond"",""red"",""vert"",""up"",[106,-106],[-150,0]]",diamond,red,vert,up,"[106,-106]","[-150,0]",up,1,0.9326,,,,,,001,2025-03-10_16h53.17.500,SL_sali_41,2021.2.3,Win32,59.52380952,,,8,0,8,0,1,,,,,,,,
,,"[""circle"",""no_dis"",""vert"",""up"",[99999,99999],[-106,106]]",circle,no_dis,vert,up,"[99999,99999]","[-106,106]",up,1,1.2485,,,,,,001,2025-03-10_16h53.17.500,SL_sali_41,2021.2.3,Win32,59.52380952,,,9,0,9,0,1,,,,,,,,
,,"[""diamond"",""green"",""hori"",""left"",[106,106],[150,0]]",diamond,green,hori,left,"[106,106]","[150,0]",left,1,1.0286,,,,,,001,2025-03-10_16h53.17.500,SL_sali_41,2021.2.3,Win32,59.52380952,,,10,0,10,0,1,,,,,,,,
,,"[""diamond"",""red"",""hori"",""left"",[106,-106],[-150,0]]",diamond,red,hori,left,"[106,-106]","[-150,0]",left,1,0.714,,,,,,001,2025-03-10_16h53.17.500,SL_sali_41,2021.2.3,Win32,59.52380952,,,11,0,11,0,1,,,,,,,,
,,"[""circle"",""no_dis"",""hori"",""left"",[99999,99999],[0,150]]",circle,no_dis,hori,left,"[99999,99999]","[0,150]",left,1,0.9363,,,,,,001,2025-03-10_16h53.17.500,SL_sali_41,2021.2.3,Win32,59.52380952,,,12,0,12,0,1,,,,,,,,
,,"[""circle"",""red"",""hori"",""left"",[0,150],[106,-106]]",circle,red,hori,left,"[0,150]","[106,-106]",left,1,1.0915,,,,,,001,2025-03-10_16h53.17.500,SL_sali_41,2021.2.3,Win32,59.52380952,,,13,0,13,0,1,,,,,,,,
,,"[""circle"",""red"",""vert"",""up"",[0,-150],[106,-106]]",circle,red,vert,up,"[0,-150]","[106,-106]",up,1,1.317,,,,,,001,2025-03-10_16h53.17.500,SL_sali_41,2021.2.3,Win32,59.52380952,,,14,0,14,0,1,,,,,,,,
,,"[""diamond"",""no_dis"",""vert"",""up"",[99999,99999],[106,106]]",diamond,no_dis,vert,up,"[99999,99999]","[106,106]",up,1,0.8049,,,,,,001,2025-03-10_16h53.17.500,SL_sali_41,2021.2.3,Win32,59.52380952,,,15,0,15,0,1,,,,,,,,
,,"[""circle"",""no_dis"",""hori"",""left"",[99999,99999],[-150,0]]",circle,no_dis,hori,left,"[99999,99999]","[-150,0]",left,1,0.9084,,,,,,001,2025-03-10_16h53.17.500,SL_sali_41,2021.2.3,Win32,59.52380952,,,16,0,16,0,1,,,,,,,,
,,"[""diamond"",""red"",""hori"",""left"",[150,0],[106,-106]]",diamond,red,hori,left,"[150,0]","[106,-106]",left,1,1.033,,,,,,001,2025-03-10_16h53.17.500,SL_sali_41,2021.2.3,Win32,59.52380952,,,17,0,17,0,1,,,,,,,,
,,"[""diamond"",""green"",""vert"",""up"",[0,-150],[0,150]]",diamond,green,vert,up,"[0,-150]","[0,150]",up,1,0.9639,,,,,,001,2025-03-10_16h53.17.500,SL_sali_41,2021.2.3,Win32,59.52380952,,,18,0,18,0,1,,,,,,,,
,,"[""circle"",""red"",""vert"",""up"",[0,-150],[106,-106]]",circle,red,vert,up,"[0,-150]","[106,-106]",up,1,1.0192,,,,,,001,2025-03-10_16h53.17.500,SL_sali_41,2021.2.3,Win32,59.52380952,,,19,0,19,0,1,,,,,,,,
,,"[""diamond"",""green"",""hori"",""left"",[106,-106],[-106,-106]]",diamond,green,hori,left,"[106,-106]","[-106,-106]",left,1,0.9262,,,,,,001,2025-03-10_16h53.17.500,SL_sali_41,2021.2.3,Win32,59.52380952,,,20,0,20,0,1,,,,,,,,
,,"[""circle"",""red"",""vert"",""up"",[-106,-106],[106,106]]",circle,red,vert,up,"[-106,-106]","[106,106]",up,1,1.0034,,,,,,001,2025-03-10_16h53.17.500,SL_sali_41,2021.2.3,Win32,59.52380952,,,21,0,21,0,1,,,,,,,,
,,"[""circle"",""green"",""hori"",""left"",[0,-150],[-106,-106]]",circle,green,hori,left,"[0,-150]","[-106,-106]",left,1,1.0833,,,,,,001,2025-03-10_16h53.17.500,SL_sali_41,2021.2.3,Win32,59.52380952,,,22,0,22,0,1,,,,,,,,
,,"[""circle"",""no_dis"",""vert"",""up"",[99999,99999],[0,150]]",circle,no_dis,vert,up,"[99999,99999]","[0,150]",up,1,0.7702,,,,,,001,2025-03-10_16h53.17.500,SL_sali_41,2021.2.3,Win32,59.52380952,,,23,0,23,0,1,,,,,,,,
,,"[""diamond"",""red"",""vert"",""up"",[150,0],[0,150]]",diamond,red,vert,up,"[150,0]","[0,150]",up,1,0.8354,,,,,,001,2025-03-10_16h53.17.500,SL_sali_41,2021.2.3,Win32,59.52380952,,,24,0,24,0,1,,,,,,,,
,,"[""diamond"",""green"",""vert"",""up"",[150,0],[-150,0]]",diamond,green,vert,up,"[150,0]","[-150,0]",up,1,1.0544,,,,,,001,2025-03-10_16h53.17.500,SL_sali_41,2021.2.3,Win32,59.52380952,,,25,0,25,0,1,,,,,,,,
,,"[""diamond"",""green"",""hori"",""left"",[0,-150],[106,106]]",diamond,green,hori,left,"[0,-150]","[106,106]",left,1,0.8097,,,,,,001,2025-03-10_16h53.17.500,SL_sali_41,2021.2.3,Win32,59.52380952,,,26,0,26,0,1,,,,,,,,
,,"[""diamond"",""red"",""vert"",""up"",[106,106],[-150,0]]",diamond,red,vert,up,"[106,106]","[-150,0]",up,1,0.9667,,,,,,001,2025-03-10_16h53.17.500,SL_sali_41,2021.2.3,Win32,59.52380952,,,27,0,27,0,1,,,,,,,,
,,"[""circle"",""red"",""hori"",""left"",[150,0],[0,-150]]",circle,red,hori,left,"[150,0]","[0,-150]",left,1,1.1326,,,,,,001,2025-03-10_16h53.17.500,SL_sali_41,2021.2.3,Win32,59.52380952,,,28,0,28,0,1,,,,,,,,
,,"[""circle"",""green"",""vert"",""up"",[0,150],[150,0]]",circle,green,vert,up,"[0,150]","[150,0]",up,1,1.1317,,,,,,001,2025-03-10_16h53.17.500,SL_sali_41,2021.2.3,Win32,59.52380952,,,29,0,29,0,1,,,,,,,,
,,"[""circle"",""red"",""hori"",""left"",[-150,0],[0,150]]",circle,red,hori,left,"[-150,0]","[0,150]",left,1,1.1187,,,,,,001,2025-03-10_16h53.17.500,SL_sali_41,2021.2.3,Win32,59.52380952,,,30,0,30,0,1,,,,,,,,
,,"[""diamond"",""green"",""vert"",""up"",[150,0],[0,150]]",diamond,green,vert,up,"[150,0]","[0,150]",up,1,0.8658,,,,,,001,2025-03-10_16h53.17.500,SL_sali_41,2021.2.3,Win32,59.52380952,,,31,0,31,0,1,,,,,,,,
,,"[""diamond"",""red"",""vert"",""up"",[-150,0],[0,-150]]",diamond,red,vert,up,"[-150,0]","[0,-150]",up,1,1.2389,,,,,,001,2025-03-10_16h53.17.500,SL_sali_41,2021.2.3,Win32,59.52380952,,,32,0,32,0,1,,,,,,,,
,,"[""circle"",""no_dis"",""vert"",""up"",[99999,99999],[-106,106]]",circle,no_dis,vert,up,"[99999,99999]","[-106,106]",up,1,1.2224,,,,,,001,2025-03-10_16h53.17.500,SL_sali_41,2021.2.3,Win32,59.52380952,,,33,0,33,0,1,,,,,,,,
,,"[""diamond"",""green"",""hori"",""left"",[-150,0],[106,106]]",diamond,green,hori,left,"[-150,0]","[106,106]",left,1,0.8742,,,,,,001,2025-03-10_16h53.17.500,SL_sali_41,2021.2.3,Win32,59.52380952,,,34,0,34,0,1,,,,,,,,
,,"[""diamond"",""red"",""vert"",""up"",[-106,106],[-150,0]]",diamond,red,vert,up,"[-106,106]","[-150,0]",up,1,1.174,,,,,,001,2025-03-10_16h53.17.500,SL_sali_41,2021.2.3,Win32,59.52380952,,,35,0,35,0,1,,,,,,,,
,,"[""circle"",""red"",""vert"",""up"",[-106,-106],[150,0]]",circle,red,vert,up,"[-106,-106]","[150,0]",up,1,1.077,,,,,,001,2025-03-10_16h53.17.500,SL_sali_41,2021.2.3,Win32,59.52380952,,,36,0,36,0,1,,,,,,,,
,,"[""circle"",""red"",""vert"",""up"",[0,-150],[106,106]]",circle,red,vert,up,"[0,-150]","[106,106]",up,1,0.8331,,,,,,001,2025-03-10_16h53.17.500,SL_sali_41,2021.2.3,Win32,59.52380952,,,37,0,37,0,1,,,,,,,,
,,"[""diamond"",""green"",""hori"",""left"",[0,-150],[106,-106]]",diamond,green,hori,left,"[0,-150]","[106,-106]",left,1,1.0562,,,,,,001,2025-03-10_16h53.17.500,SL_sali_41,2021.2.3,Win32,59.52380952,,,38,0,38,0,1,,,,,,,,
,,"[""diamond"",""red"",""hori"",""left"",[106,-106],[106,106]]",diamond,red,hori,left,"[106,-106]","[106,106]",left,1,0.7412,,,,,,001,2025-03-10_16h53.17.500,SL_sali_41,2021.2.3,Win32,59.52380952,,,39,0,39,0,1,,,,,,,,
,,"[""diamond"",""green"",""hori"",""left"",[0,-150],[-150,0]]",diamond,green,hori,left,"[0,-150]","[-150,0]",left,1,1.0935,,,,,,001,2025-03-10_16h53.17.500,SL_sali_41,2021.2.3,Win32,59.52380952,,,40,0,40,0,1,,,,,,,,
,,"[""diamond"",""no_dis"",""hori"",""left"",[99999,99999],[0,-150]]",diamond,no_dis,hori,left,"[99999,99999]","[0,-150]",left,1,0.8872,,,,,,001,2025-03-10_16h53.17.500,SL_sali_41,2021.2.3,Win32,59.52380952,,,41,0,41,0,1,,,,,,,,
,,"[""diamond"",""no_dis"",""vert"",""up"",[99999,99999],[150,0]]",diamond,no_dis,vert,up,"[99999,99999]","[150,0]",up,1,0.7488,,,,,,001,2025-03-10_16h53.17.500,SL_sali_41,2021.2.3,Win32,59.52380952,,,42,0,42,0,1,,,,,,,,
,,"[""circle"",""green"",""vert"",""up"",[0,-150],[-106,106]]",circle,green,vert,up,"[0,-150]","[-106,106]",up,1,1.3879,,,,,,001,2025-03-10_16h53.17.500,SL_sali_41,2021.2.3,Win32,59.52380952,,,43,0,43,0,1,,,,,,,,
,,"[""circle"",""no_dis"",""vert"",""up"",[99999,99999],[150,0]]",circle,no_dis,vert,up,"[99999,99999]","[150,0]",up,1,1.0019,,,,,,001,2025-03-10_16h53.17.500,SL_sali_41,2021.2.3,Win32,59.52380952,,,44,0,44,0,1,,,,,,,,
,,"[""circle"",""green"",""hori"",""left"",[0,-150],[-106,-106]]",circle,green,hori,left,"[0,-150]","[-106,-106]",left,1,1.5025,,,,,,001,2025-03-10_16h53.17.500,SL_sali_41,2021.2.3,Win32,59.52380952,,,45,0,45,0,1,,,,,,,,
,,"[""circle"",""no_dis"",""hori"",""left"",[99999,99999],[-106,-106]]",circle,no_dis,hori,left,"[99999,99999]","[-106,-106]",left,1,1.3002,,,,,,001,2025-03-10_16h53.17.500,SL_sali_41,2021.2.3,Win32,59.52380952,,,46,0,46,0,1,,,,,,,,
,,"[""circle"",""no_dis"",""vert"",""up"",[99999,99999],[0,-150]]",circle,no_dis,vert,up,"[99999,99999]","[0,-150]",up,1,1.1194,,,,,,001,2025-03-10_16h53.17.500,SL_sali_41,2021.2.3,Win32,59.52380952,,,47,0,47,0,1,,,,,,,,
,,"[""circle"",""no_dis"",""hori"",""left"",[99999,99999],[0,-150]]",circle,no_dis,hori,left,"[99999,99999]","[0,-150]",left,1,1.1138,,,,,,001,2025-03-10_16h53.17.500,SL_sali_41,2021.2.3,Win32,59.52380952,,,48,0,48,0,1,,,,,,,,
,,"[""circle"",""green"",""hori"",""left"",[106,106],[150,0]]",circle,green,hori,left,"[106,106]","[150,0]",left,1,1.1503,,,,,,001,2025-03-10_16h53.17.500,SL_sali_41,2021.2.3,Win32,59.52380952,,,49,0,49,0,1,,,,,,,,
,,"[""diamond"",""red"",""vert"",""up"",[-106,-106],[150,0]]",diamond,red,vert,up,"[-106,-106]","[150,0]",up,1,1.2898,,,,,,001,2025-03-10_16h53.17.500,SL_sali_41,2021.2.3,Win32,59.52380952,,,50,0,50,0,1,,,,,,,,
,,"[""diamond"",""red"",""vert"",""up"",[-150,0],[106,106]]",diamond,red,vert,up,"[-150,0]","[106,106]",up,1,0.7524,,,,,,001,2025-03-10_16h53.17.500,SL_sali_41,2021.2.3,Win32,59.52380952,,,51,0,51,0,1,,,,,,,,
,,"[""diamond"",""green"",""vert"",""up"",[106,-106],[-150,0]]",diamond,green,vert,up,"[106,-106]","[-150,0]",up,1,0.9198,,,,,,001,2025-03-10_16h53.17.500,SL_sali_41,2021.2.3,Win32,59.52380952,,,52,0,52,0,1,,,,,,,,
,,"[""diamond"",""green"",""vert"",""up"",[0,-150],[106,-106]]",diamond,green,vert,up,"[0,-150]","[106,-106]",up,1,0.9113,,,,,,001,2025-03-10_16h53.17.500,SL_sali_41,2021.2.3,Win32,59.52380952,,,53,0,53,0,1,,,,,,,,
,,"[""circle"",""no_dis"",""hori"",""left"",[99999,99999],[0,-150]]",circle,no_dis,hori,left,"[99999,99999]","[0,-150]",left,1,1.0647,,,,,,001,2025-03-10_16h53.17.500,SL_sali_41,2021.2.3,Win32,59.52380952,,,54,0,54,0,1,,,,,,,,
,,"[""circle"",""green"",""vert"",""up"",[0,150],[0,-150]]",circle,green,vert,up,"[0,150]","[0,-150]",up,1,1.1522,,,,,,001,2025-03-10_16h53.17.500,SL_sali_41,2021.2.3,Win32,59.52380952,,,55,0,55,0,1,,,,,,,,
,,"[""circle"",""green"",""hori"",""left"",[-106,106],[0,150]]",circle,green,hori,left,"[-106,106]","[0,150]",left,1,2.1038,,,,,,001,2025-03-10_16h53.17.500,SL_sali_41,2021.2.3,Win32,59.52380952,,,56,0,56,0,1,,,,,,,,
,,"[""circle"",""red"",""vert"",""up"",[0,-150],[0,150]]",circle,red,vert,up,"[0,-150]","[0,150]",up,1,0.7194,,,,,,001,2025-03-10_16h53.17.500,SL_sali_41,2021.2.3,Win32,59.52380952,,,57,0,57,0,1,,,,,,,,
,,"[""circle"",""no_dis"",""hori"",""left"",[99999,99999],[0,150]]",circle,no_dis,hori,left,"[99999,99999]","[0,150]",up,0,0.7893,,,,,,001,2025-03-10_16h53.17.500,SL_sali_41,2021.2.3,Win32,59.52380952,,,58,0,58,0,1,,,,,,,,
,,"[""circle"",""red"",""vert"",""up"",[0,150],[0,-150]]",circle,red,vert,up,"[0,150]","[0,-150]",up,1,0.8549,,,,,,001,2025-03-10_16h53.17.500,SL_sali_41,2021.2.3,Win32,59.52380952,,,59,0,59,0,1,,,,,,,,
,,"[""diamond"",""red"",""vert"",""up"",[0,-150],[-106,106]]",diamond,red,vert,up,"[0,-150]","[-106,106]",up,1,0.9645,,,,,,001,2025-03-10_16h53.17.500,SL_sali_41,2021.2.3,Win32,59.52380952,,,60,0,60,0,1,,,,,,,,
,,"[""circle"",""no_dis"",""vert"",""up"",[99999,99999],[106,106]]",circle,no_dis,vert,up,"[99999,99999]","[106,106]",up,1,0.9219,,,,,,001,2025-03-10_16h53.17.500,SL_sali_41,2021.2.3,Win32,59.52380952,,,61,0,61,0,1,,,,,,,,
