﻿key_resp.keys,key_resp.rt,trial_para,tar_shape,dis_color_condi,tar_line,cor_resp,dis_loc,tar_loc,resp.keys,resp.corr,trials.thisRepN,trials.thisTrialN,trials.thisN,trials.thisIndex,trials.ran,participant,date,expName,psychopyVersion,OS,frameRate,resp.rt,key_resp_2.keys,key_resp_2.rt,trials_2.thisRepN,trials_2.thisTrialN,trials_2.thisN,trials_2.thisIndex,trials_2.ran,block_num,key_resp_3.keys,key_resp_3.rt,trials_3.thisRepN,trials_3.thisTrialN,trials_3.thisN,trials_3.thisIndex,trials_3.ran
space,72.572,"[""diamond"",""no_dis"",""vert"",""up"",[99999,99999],[-106,-106]]",diamond,no_dis,vert,up,"[99999,99999]","[-106,-106]",,0,0,0,0,0,1,001,2025-03-10_19h50.41.080,SL_sali_41,2021.2.3,Win32,100,,,,,,,,,,,,,,,,
,,"[""circle"",""green"",""vert"",""up"",[150,0],[-106,106]]",circle,green,vert,up,"[150,0]","[-106,106]",up,1,1,0,1,0,1,001,2025-03-10_19h50.41.080,SL_sali_41,2021.2.3,Win32,100,1.899,,,,,,,,,,,,,,,
,,"[""circle"",""green"",""hori"",""left"",[-150,0],[0,-150]]",circle,green,hori,left,"[-150,0]","[0,-150]",up,0,2,0,2,0,1,001,2025-03-10_19h50.41.080,SL_sali_41,2021.2.3,Win32,100,1.23,,,,,,,,,,,,,,,
,,"[""diamond"",""no_dis"",""hori"",""left"",[99999,99999],[106,106]]",diamond,no_dis,hori,left,"[99999,99999]","[106,106]",,0,3,0,3,0,1,001,2025-03-10_19h50.41.080,SL_sali_41,2021.2.3,Win32,100,,,,,,,,,,,,,,,,
,,"[""circle"",""no_dis"",""hori"",""left"",[99999,99999],[106,106]]",circle,no_dis,hori,left,"[99999,99999]","[106,106]",left,1,4,0,4,0,1,001,2025-03-10_19h50.41.080,SL_sali_41,2021.2.3,Win32,100,2.261,,,,,,,,,,,,,,,
,,"[""circle"",""green"",""hori"",""left"",[150,0],[106,-106]]",circle,green,hori,left,"[150,0]","[106,-106]",left,1,5,0,5,0,1,001,2025-03-10_19h50.41.080,SL_sali_41,2021.2.3,Win32,100,2.267,,,,,,,,,,,,,,,
,,"[""diamond"",""green"",""vert"",""up"",[-150,0],[0,150]]",diamond,green,vert,up,"[-150,0]","[0,150]",up,1,6,0,6,0,1,001,2025-03-10_19h50.41.080,SL_sali_41,2021.2.3,Win32,100,2.458,,,,,,,,,,,,,,,
,,"[""diamond"",""green"",""vert"",""up"",[-106,106],[-150,0]]",diamond,green,vert,up,"[-106,106]","[-150,0]",up,1,7,0,7,0,1,001,2025-03-10_19h50.41.080,SL_sali_41,2021.2.3,Win32,100,2.466,,,,,,,,,,,,,,,
,,"[""diamond"",""red"",""hori"",""left"",[-150,0],[0,-150]]",diamond,red,hori,left,"[-150,0]","[0,-150]",left,1,8,0,8,0,1,001,2025-03-10_19h50.41.080,SL_sali_41,2021.2.3,Win32,100,2.744,,,,,,,,,,,,,,,
,,"[""circle"",""no_dis"",""hori"",""left"",[99999,99999],[106,106]]",circle,no_dis,hori,left,"[99999,99999]","[106,106]",left,1,9,0,9,0,1,001,2025-03-10_19h50.41.080,SL_sali_41,2021.2.3,Win32,100,1.761,,,,,,,,,,,,,,,
,,"[""diamond"",""no_dis"",""vert"",""up"",[99999,99999],[-106,-106]]",diamond,no_dis,vert,up,"[99999,99999]","[-106,-106]",up,1,,,,,,001,2025-03-10_19h50.41.080,SL_sali_41,2021.2.3,Win32,100,1.26,space,13.25,0,0,0,0,1,,,,,,,,
,,"[""circle"",""green"",""vert"",""up"",[150,0],[-106,106]]",circle,green,vert,up,"[150,0]","[-106,106]",up,1,,,,,,001,2025-03-10_19h50.41.080,SL_sali_41,2021.2.3,Win32,100,1.576,,,1,0,1,0,1,,,,,,,,
,,"[""circle"",""green"",""hori"",""left"",[-150,0],[0,-150]]",circle,green,hori,left,"[-150,0]","[0,-150]",left,1,,,,,,001,2025-03-10_19h50.41.080,SL_sali_41,2021.2.3,Win32,100,1.69,,,2,0,2,0,1,,,,,,,,
,,"[""diamond"",""no_dis"",""hori"",""left"",[99999,99999],[106,106]]",diamond,no_dis,hori,left,"[99999,99999]","[106,106]",left,1,,,,,,001,2025-03-10_19h50.41.080,SL_sali_41,2021.2.3,Win32,100,1.629,,,3,0,3,0,1,,,,,,,,
,,"[""circle"",""no_dis"",""hori"",""left"",[99999,99999],[106,106]]",circle,no_dis,hori,left,"[99999,99999]","[106,106]",left,1,,,,,,001,2025-03-10_19h50.41.080,SL_sali_41,2021.2.3,Win32,100,1.561,,,4,0,4,0,1,,,,,,,,
,,"[""circle"",""green"",""hori"",""left"",[150,0],[106,-106]]",circle,green,hori,left,"[150,0]","[106,-106]",left,1,,,,,,001,2025-03-10_19h50.41.080,SL_sali_41,2021.2.3,Win32,100,1.68,,,5,0,5,0,1,,,,,,,,
,,"[""diamond"",""green"",""vert"",""up"",[-150,0],[0,150]]",diamond,green,vert,up,"[-150,0]","[0,150]",up,1,,,,,,001,2025-03-10_19h50.41.080,SL_sali_41,2021.2.3,Win32,100,1.458,,,6,0,6,0,1,,,,,,,,
,,"[""diamond"",""green"",""vert"",""up"",[-106,106],[-150,0]]",diamond,green,vert,up,"[-106,106]","[-150,0]",up,1,,,,,,001,2025-03-10_19h50.41.080,SL_sali_41,2021.2.3,Win32,100,1.36,,,7,0,7,0,1,,,,,,,,
,,"[""diamond"",""red"",""hori"",""left"",[-150,0],[0,-150]]",diamond,red,hori,left,"[-150,0]","[0,-150]",left,1,,,,,,001,2025-03-10_19h50.41.080,SL_sali_41,2021.2.3,Win32,100,1.728,,,8,0,8,0,1,,,,,,,,
,,"[""circle"",""no_dis"",""hori"",""left"",[99999,99999],[106,106]]",circle,no_dis,hori,left,"[99999,99999]","[106,106]",left,1,,,,,,001,2025-03-10_19h50.41.080,SL_sali_41,2021.2.3,Win32,100,1.581,,,9,0,9,0,1,,,,,,,,
,,"[""diamond"",""no_dis"",""vert"",""up"",[99999,99999],[-106,106]]",diamond,no_dis,vert,up,"[99999,99999]","[-106,106]",up,1,,,,,,001,2025-03-10_19h50.41.080,SL_sali_41,2021.2.3,Win32,100,1.649,,,10,0,10,0,1,,,,,,,,
,,"[""diamond"",""green"",""hori"",""left"",[150,0],[0,150]]",diamond,green,hori,left,"[150,0]","[0,150]",left,1,,,,,,001,2025-03-10_19h50.41.080,SL_sali_41,2021.2.3,Win32,100,1.131,,,11,0,11,0,1,,,,,,,,
,,"[""diamond"",""red"",""hori"",""left"",[0,-150],[-150,0]]",diamond,red,hori,left,"[0,-150]","[-150,0]",left,1,,,,,,001,2025-03-10_19h50.41.080,SL_sali_41,2021.2.3,Win32,100,1.789,,,12,0,12,0,1,,,,,,,,
,,"[""diamond"",""no_dis"",""hori"",""left"",[99999,99999],[-106,106]]",diamond,no_dis,hori,left,"[99999,99999]","[-106,106]",left,1,,,,,,001,2025-03-10_19h50.41.080,SL_sali_41,2021.2.3,Win32,100,1.251,,,13,0,13,0,1,,,,,,,,
,,"[""circle"",""red"",""hori"",""left"",[106,106],[0,-150]]",circle,red,hori,left,"[106,106]","[0,-150]",left,1,,,,,,001,2025-03-10_19h50.41.080,SL_sali_41,2021.2.3,Win32,100,1.601,,,14,0,14,0,1,,,,,,,,
,,"[""diamond"",""red"",""vert"",""up"",[106,-106],[0,-150]]",diamond,red,vert,up,"[106,-106]","[0,-150]",up,1,,,,,,001,2025-03-10_19h50.41.080,SL_sali_41,2021.2.3,Win32,100,1.479,,,15,0,15,0,1,,,,,,,,
,,"[""diamond"",""no_dis"",""vert"",""up"",[99999,99999],[0,-150]]",diamond,no_dis,vert,up,"[99999,99999]","[0,-150]",up,1,,,,,,001,2025-03-10_19h50.41.080,SL_sali_41,2021.2.3,Win32,100,1.404,,,16,0,16,0,1,,,,,,,,
,,"[""circle"",""green"",""hori"",""left"",[-150,0],[-106,106]]",circle,green,hori,left,"[-150,0]","[-106,106]",left,1,,,,,,001,2025-03-10_19h50.41.080,SL_sali_41,2021.2.3,Win32,100,1.739,,,17,0,17,0,1,,,,,,,,
,,"[""circle"",""green"",""vert"",""up"",[0,150],[106,-106]]",circle,green,vert,up,"[0,150]","[106,-106]",up,1,,,,,,001,2025-03-10_19h50.41.080,SL_sali_41,2021.2.3,Win32,100,1.633,,,18,0,18,0,1,,,,,,,,
,,"[""diamond"",""red"",""hori"",""left"",[-150,0],[150,0]]",diamond,red,hori,left,"[-150,0]","[150,0]",left,1,,,,,,001,2025-03-10_19h50.41.080,SL_sali_41,2021.2.3,Win32,100,1.584,,,19,0,19,0,1,,,,,,,,
,,"[""circle"",""green"",""hori"",""left"",[-150,0],[106,-106]]",circle,green,hori,left,"[-150,0]","[106,-106]",left,1,,,,,,001,2025-03-10_19h50.41.080,SL_sali_41,2021.2.3,Win32,100,1.6,,,20,0,20,0,1,,,,,,,,
,,"[""diamond"",""no_dis"",""hori"",""left"",[99999,99999],[0,-150]]",diamond,no_dis,hori,left,"[99999,99999]","[0,-150]",left,1,,,,,,001,2025-03-10_19h50.41.080,SL_sali_41,2021.2.3,Win32,100,1.482,,,21,0,21,0,1,,,,,,,,
,,"[""circle"",""no_dis"",""vert"",""up"",[99999,99999],[150,0]]",circle,no_dis,vert,up,"[99999,99999]","[150,0]",up,1,,,,,,001,2025-03-10_19h50.41.080,SL_sali_41,2021.2.3,Win32,100,1.6,,,22,0,22,0,1,,,,,,,,
,,"[""diamond"",""no_dis"",""vert"",""up"",[99999,99999],[106,106]]",diamond,no_dis,vert,up,"[99999,99999]","[106,106]",up,1,,,,,,001,2025-03-10_19h50.41.080,SL_sali_41,2021.2.3,Win32,100,1.609,,,23,0,23,0,1,,,,,,,,
,,"[""circle"",""no_dis"",""hori"",""left"",[99999,99999],[106,-106]]",circle,no_dis,hori,left,"[99999,99999]","[106,-106]",left,1,,,,,,001,2025-03-10_19h50.41.080,SL_sali_41,2021.2.3,Win32,100,1.496,,,24,0,24,0,1,,,,,,,,
,,"[""circle"",""no_dis"",""vert"",""up"",[99999,99999],[-150,0]]",circle,no_dis,vert,up,"[99999,99999]","[-150,0]",up,1,,,,,,001,2025-03-10_19h50.41.080,SL_sali_41,2021.2.3,Win32,100,1.272,,,25,0,25,0,1,,,,,,,,
,,"[""diamond"",""no_dis"",""hori"",""left"",[99999,99999],[-150,0]]",diamond,no_dis,hori,left,"[99999,99999]","[-150,0]",left,1,,,,,,001,2025-03-10_19h50.41.080,SL_sali_41,2021.2.3,Win32,100,1.165,,,26,0,26,0,1,,,,,,,,
,,"[""circle"",""green"",""vert"",""up"",[150,0],[-106,106]]",circle,green,vert,up,"[150,0]","[-106,106]",up,1,,,,,,001,2025-03-10_19h50.41.080,SL_sali_41,2021.2.3,Win32,100,1.594,,,27,0,27,0,1,,,,,,,,
,,"[""diamond"",""red"",""hori"",""left"",[-106,106],[106,-106]]",diamond,red,hori,left,"[-106,106]","[106,-106]",left,1,,,,,,001,2025-03-10_19h50.41.080,SL_sali_41,2021.2.3,Win32,100,1.77,,,28,0,28,0,1,,,,,,,,
,,"[""diamond"",""green"",""hori"",""left"",[0,-150],[-150,0]]",diamond,green,hori,left,"[0,-150]","[-150,0]",left,1,,,,,,001,2025-03-10_19h50.41.080,SL_sali_41,2021.2.3,Win32,100,1.299,,,29,0,29,0,1,,,,,,,,
,,"[""circle"",""red"",""hori"",""left"",[-150,0],[150,0]]",circle,red,hori,left,"[-150,0]","[150,0]",left,1,,,,,,001,2025-03-10_19h50.41.080,SL_sali_41,2021.2.3,Win32,100,1.46,,,30,0,30,0,1,,,,,,,,
,,"[""diamond"",""green"",""hori"",""left"",[106,-106],[-106,106]]",diamond,green,hori,left,"[106,-106]","[-106,106]",left,1,,,,,,001,2025-03-10_19h50.41.080,SL_sali_41,2021.2.3,Win32,100,1.233,,,31,0,31,0,1,,,,,,,,
,,"[""diamond"",""no_dis"",""vert"",""up"",[99999,99999],[0,150]]",diamond,no_dis,vert,up,"[99999,99999]","[0,150]",up,1,,,,,,001,2025-03-10_19h50.41.080,SL_sali_41,2021.2.3,Win32,100,1.035,,,32,0,32,0,1,,,,,,,,
,,"[""diamond"",""no_dis"",""hori"",""left"",[99999,99999],[0,150]]",diamond,no_dis,hori,left,"[99999,99999]","[0,150]",left,1,,,,,,001,2025-03-10_19h50.41.080,SL_sali_41,2021.2.3,Win32,100,1.49,,,33,0,33,0,1,,,,,,,,
,,"[""circle"",""red"",""vert"",""up"",[-150,0],[106,-106]]",circle,red,vert,up,"[-150,0]","[106,-106]",up,1,,,,,,001,2025-03-10_19h50.41.080,SL_sali_41,2021.2.3,Win32,100,1.534,,,34,0,34,0,1,,,,,,,,
,,"[""diamond"",""green"",""vert"",""up"",[-106,106],[-106,-106]]",diamond,green,vert,up,"[-106,106]","[-106,-106]",up,1,,,,,,001,2025-03-10_19h50.41.080,SL_sali_41,2021.2.3,Win32,100,1.645,,,35,0,35,0,1,,,,,,,,
,,"[""diamond"",""green"",""vert"",""up"",[0,150],[106,106]]",diamond,green,vert,up,"[0,150]","[106,106]",up,1,,,,,,001,2025-03-10_19h50.41.080,SL_sali_41,2021.2.3,Win32,100,1.161,,,36,0,36,0,1,,,,,,,,
,,"[""diamond"",""green"",""hori"",""left"",[106,106],[-106,-106]]",diamond,green,hori,left,"[106,106]","[-106,-106]",left,1,,,,,,001,2025-03-10_19h50.41.080,SL_sali_41,2021.2.3,Win32,100,1.262,,,37,0,37,0,1,,,,,,,,
,,"[""circle"",""red"",""vert"",""up"",[0,150],[-150,0]]",circle,red,vert,up,"[0,150]","[-150,0]",up,1,,,,,,001,2025-03-10_19h50.41.080,SL_sali_41,2021.2.3,Win32,100,1.362,,,38,0,38,0,1,,,,,,,,
,,"[""diamond"",""red"",""vert"",""up"",[-150,0],[-106,106]]",diamond,red,vert,up,"[-150,0]","[-106,106]",up,1,,,,,,001,2025-03-10_19h50.41.080,SL_sali_41,2021.2.3,Win32,100,1.478,,,39,0,39,0,1,,,,,,,,
,,"[""circle"",""green"",""vert"",""up"",[106,-106],[-106,106]]",circle,green,vert,up,"[106,-106]","[-106,106]",up,1,,,,,,001,2025-03-10_19h50.41.080,SL_sali_41,2021.2.3,Win32,100,1.821,,,40,0,40,0,1,,,,,,,,
,,"[""diamond"",""red"",""vert"",""up"",[-150,0],[150,0]]",diamond,red,vert,up,"[-150,0]","[150,0]",up,1,,,,,,001,2025-03-10_19h50.41.080,SL_sali_41,2021.2.3,Win32,100,1.288,,,41,0,41,0,1,,,,,,,,
,,"[""diamond"",""green"",""hori"",""left"",[-106,106],[0,-150]]",diamond,green,hori,left,"[-106,106]","[0,-150]",left,1,,,,,,001,2025-03-10_19h50.41.080,SL_sali_41,2021.2.3,Win32,100,1.493,,,42,0,42,0,1,,,,,,,,
,,"[""circle"",""red"",""hori"",""left"",[-106,106],[106,106]]",circle,red,hori,left,"[-106,106]","[106,106]",left,1,,,,,,001,2025-03-10_19h50.41.080,SL_sali_41,2021.2.3,Win32,100,2.11,,,43,0,43,0,1,,,,,,,,
,,"[""circle"",""green"",""hori"",""left"",[-106,106],[-150,0]]",circle,green,hori,left,"[-106,106]","[-150,0]",left,1,,,,,,001,2025-03-10_19h50.41.080,SL_sali_41,2021.2.3,Win32,100,1.55,,,44,0,44,0,1,,,,,,,,
,,"[""circle"",""no_dis"",""hori"",""left"",[99999,99999],[0,150]]",circle,no_dis,hori,left,"[99999,99999]","[0,150]",left,1,,,,,,001,2025-03-10_19h50.41.080,SL_sali_41,2021.2.3,Win32,100,1.16,,,45,0,45,0,1,,,,,,,,
,,"[""circle"",""red"",""vert"",""up"",[-106,106],[0,-150]]",circle,red,vert,up,"[-106,106]","[0,-150]",up,1,,,,,,001,2025-03-10_19h50.41.080,SL_sali_41,2021.2.3,Win32,100,1.733,,,46,0,46,0,1,,,,,,,,
,,"[""circle"",""red"",""hori"",""left"",[-150,0],[106,-106]]",circle,red,hori,left,"[-150,0]","[106,-106]",left,1,,,,,,001,2025-03-10_19h50.41.080,SL_sali_41,2021.2.3,Win32,100,1.103,,,47,0,47,0,1,,,,,,,,
,,"[""circle"",""red"",""hori"",""left"",[0,-150],[106,106]]",circle,red,hori,left,"[0,-150]","[106,106]",left,1,,,,,,001,2025-03-10_19h50.41.080,SL_sali_41,2021.2.3,Win32,100,1.103,,,48,0,48,0,1,,,,,,,,
,,"[""diamond"",""red"",""hori"",""left"",[150,0],[-150,0]]",diamond,red,hori,left,"[150,0]","[-150,0]",left,1,,,,,,001,2025-03-10_19h50.41.080,SL_sali_41,2021.2.3,Win32,100,1.23,,,49,0,49,0,1,,,,,,,,
,,"[""diamond"",""red"",""vert"",""up"",[-150,0],[106,-106]]",diamond,red,vert,up,"[-150,0]","[106,-106]",up,1,,,,,,001,2025-03-10_19h50.41.080,SL_sali_41,2021.2.3,Win32,100,1.259,,,50,0,50,0,1,,,,,,,,
,,"[""circle"",""no_dis"",""hori"",""left"",[99999,99999],[-150,0]]",circle,no_dis,hori,left,"[99999,99999]","[-150,0]",left,1,,,,,,001,2025-03-10_19h50.41.080,SL_sali_41,2021.2.3,Win32,100,1.713,,,51,0,51,0,1,,,,,,,,
,,"[""diamond"",""red"",""vert"",""up"",[106,-106],[-106,106]]",diamond,red,vert,up,"[106,-106]","[-106,106]",up,1,,,,,,001,2025-03-10_19h50.41.080,SL_sali_41,2021.2.3,Win32,100,1.349,,,52,0,52,0,1,,,,,,,,
,,"[""diamond"",""no_dis"",""hori"",""left"",[99999,99999],[-150,0]]",diamond,no_dis,hori,left,"[99999,99999]","[-150,0]",left,1,,,,,,001,2025-03-10_19h50.41.080,SL_sali_41,2021.2.3,Win32,100,1.092,,,53,0,53,0,1,,,,,,,,
,,"[""circle"",""no_dis"",""hori"",""left"",[99999,99999],[150,0]]",circle,no_dis,hori,left,"[99999,99999]","[150,0]",left,1,,,,,,001,2025-03-10_19h50.41.080,SL_sali_41,2021.2.3,Win32,100,1.54,,,54,0,54,0,1,,,,,,,,
,,"[""diamond"",""green"",""vert"",""up"",[106,-106],[150,0]]",diamond,green,vert,up,"[106,-106]","[150,0]",up,1,,,,,,001,2025-03-10_19h50.41.080,SL_sali_41,2021.2.3,Win32,100,0.851,,,55,0,55,0,1,,,,,,,,
,,"[""diamond"",""no_dis"",""vert"",""up"",[99999,99999],[0,-150]]",diamond,no_dis,vert,up,"[99999,99999]","[0,-150]",up,1,,,,,,001,2025-03-10_19h50.41.080,SL_sali_41,2021.2.3,Win32,100,0.92,,,56,0,56,0,1,,,,,,,,
,,"[""circle"",""red"",""vert"",""up"",[106,106],[106,-106]]",circle,red,vert,up,"[106,106]","[106,-106]",up,1,,,,,,001,2025-03-10_19h50.41.080,SL_sali_41,2021.2.3,Win32,100,1.941,,,57,0,57,0,1,,,,,,,,
,,"[""circle"",""no_dis"",""hori"",""left"",[99999,99999],[-106,-106]]",circle,no_dis,hori,left,"[99999,99999]","[-106,-106]",left,1,,,,,,001,2025-03-10_19h50.41.080,SL_sali_41,2021.2.3,Win32,100,1.12,,,58,0,58,0,1,,,,,,,,
,,"[""circle"",""no_dis"",""vert"",""up"",[99999,99999],[-106,-106]]",circle,no_dis,vert,up,"[99999,99999]","[-106,-106]",up,1,,,,,,001,2025-03-10_19h50.41.080,SL_sali_41,2021.2.3,Win32,100,1.971,,,59,0,59,0,1,,,,,,,,
,,"[""circle"",""red"",""hori"",""left"",[-106,-106],[106,106]]",circle,red,hori,left,"[-106,-106]","[106,106]",left,1,,,,,,001,2025-03-10_19h50.41.080,SL_sali_41,2021.2.3,Win32,100,0.997,,,60,0,60,0,1,,,,,,,,
,,"[""circle"",""no_dis"",""hori"",""left"",[99999,99999],[150,0]]",circle,no_dis,hori,left,"[99999,99999]","[150,0]",left,1,,,,,,001,2025-03-10_19h50.41.080,SL_sali_41,2021.2.3,Win32,100,0.951,,,61,0,61,0,1,,,,,,,,
,,"[""diamond"",""green"",""vert"",""up"",[-150,0],[-106,106]]",diamond,green,vert,up,"[-150,0]","[-106,106]",up,1,,,,,,001,2025-03-10_19h50.41.080,SL_sali_41,2021.2.3,Win32,100,1.579,,,62,0,62,0,1,,,,,,,,
,,"[""circle"",""green"",""hori"",""left"",[-106,-106],[-150,0]]",circle,green,hori,left,"[-106,-106]","[-150,0]",left,1,,,,,,001,2025-03-10_19h50.41.080,SL_sali_41,2021.2.3,Win32,100,1.16,,,63,0,63,0,1,,,,,,,,
,,"[""circle"",""green"",""vert"",""up"",[-150,0],[0,-150]]",circle,green,vert,up,"[-150,0]","[0,-150]",up,1,,,,,,001,2025-03-10_19h50.41.080,SL_sali_41,2021.2.3,Win32,100,1.296,,,64,0,64,0,1,,,,,,,,
,,"[""diamond"",""green"",""vert"",""up"",[106,106],[106,-106]]",diamond,green,vert,up,"[106,106]","[106,-106]",up,1,,,,,,001,2025-03-10_19h50.41.080,SL_sali_41,2021.2.3,Win32,100,1.353,,,65,0,65,0,1,,,,,,,,
,,"[""circle"",""red"",""hori"",""left"",[-106,-106],[150,0]]",circle,red,hori,left,"[-106,-106]","[150,0]",left,1,,,,,,001,2025-03-10_19h50.41.080,SL_sali_41,2021.2.3,Win32,100,1.314,,,66,0,66,0,1,,,,,,,,
,,"[""diamond"",""green"",""vert"",""up"",[-150,0],[106,106]]",diamond,green,vert,up,"[-150,0]","[106,106]",up,1,,,,,,001,2025-03-10_19h50.41.080,SL_sali_41,2021.2.3,Win32,100,1.091,,,67,0,67,0,1,,,,,,,,
,,"[""diamond"",""no_dis"",""vert"",""up"",[99999,99999],[150,0]]",diamond,no_dis,vert,up,"[99999,99999]","[150,0]",up,1,,,,,,001,2025-03-10_19h50.41.080,SL_sali_41,2021.2.3,Win32,100,1.022,,,68,0,68,0,1,,,,,,,,
,,"[""circle"",""no_dis"",""vert"",""up"",[99999,99999],[106,-106]]",circle,no_dis,vert,up,"[99999,99999]","[106,-106]",up,1,,,,,,001,2025-03-10_19h50.41.080,SL_sali_41,2021.2.3,Win32,100,1.441,,,69,0,69,0,1,,,,,,,,
,,"[""diamond"",""red"",""hori"",""left"",[-106,106],[0,150]]",diamond,red,hori,left,"[-106,106]","[0,150]",left,1,,,,,,001,2025-03-10_19h50.41.080,SL_sali_41,2021.2.3,Win32,100,1.483,,,70,0,70,0,1,,,,,,,,
,,"[""circle"",""no_dis"",""vert"",""up"",[99999,99999],[-106,-106]]",circle,no_dis,vert,up,"[99999,99999]","[-106,-106]",up,1,,,,,,001,2025-03-10_19h50.41.080,SL_sali_41,2021.2.3,Win32,100,1.369,,,71,0,71,0,1,,,,,,,,
,,"[""circle"",""red"",""vert"",""up"",[-106,-106],[150,0]]",circle,red,vert,up,"[-106,-106]","[150,0]",up,1,,,,,,001,2025-03-10_19h50.41.080,SL_sali_41,2021.2.3,Win32,100,1.231,,,72,0,72,0,1,,,,,,,,
,,"[""circle"",""red"",""vert"",""up"",[0,150],[-150,0]]",circle,red,vert,up,"[0,150]","[-150,0]",up,1,,,,,,001,2025-03-10_19h50.41.080,SL_sali_41,2021.2.3,Win32,100,1.16,,,73,0,73,0,1,,,,,,,,
,,"[""diamond"",""red"",""vert"",""up"",[-150,0],[150,0]]",diamond,red,vert,up,"[-150,0]","[150,0]",up,1,,,,,,001,2025-03-10_19h50.41.080,SL_sali_41,2021.2.3,Win32,100,1.561,,,74,0,74,0,1,,,,,,,,
,,"[""diamond"",""no_dis"",""hori"",""left"",[99999,99999],[0,-150]]",diamond,no_dis,hori,left,"[99999,99999]","[0,-150]",left,1,,,,,,001,2025-03-10_19h50.41.080,SL_sali_41,2021.2.3,Win32,100,1.303,,,75,0,75,0,1,,,,,,,,
,,"[""diamond"",""red"",""hori"",""left"",[0,-150],[-106,106]]",diamond,red,hori,left,"[0,-150]","[-106,106]",left,1,,,,,,001,2025-03-10_19h50.41.080,SL_sali_41,2021.2.3,Win32,100,1.419,,,76,0,76,0,1,,,,,,,,
,,"[""circle"",""red"",""hori"",""left"",[0,150],[106,-106]]",circle,red,hori,left,"[0,150]","[106,-106]",left,1,,,,,,001,2025-03-10_19h50.41.080,SL_sali_41,2021.2.3,Win32,100,1.191,,,77,0,77,0,1,,,,,,,,
,,"[""circle"",""red"",""vert"",""up"",[106,106],[-106,106]]",circle,red,vert,up,"[106,106]","[-106,106]",up,1,,,,,,001,2025-03-10_19h50.41.080,SL_sali_41,2021.2.3,Win32,100,1.39,,,78,0,78,0,1,,,,,,,,
,,"[""circle"",""red"",""hori"",""left"",[106,-106],[-106,-106]]",circle,red,hori,left,"[106,-106]","[-106,-106]",left,1,,,,,,001,2025-03-10_19h50.41.080,SL_sali_41,2021.2.3,Win32,100,1.112,,,79,0,79,0,1,,,,,,,,
,,"[""circle"",""red"",""vert"",""up"",[-150,0],[150,0]]",circle,red,vert,up,"[-150,0]","[150,0]",up,1,,,,,,001,2025-03-10_19h50.41.080,SL_sali_41,2021.2.3,Win32,100,1.481,,,80,0,80,0,1,,,,,,,,
,,"[""diamond"",""no_dis"",""vert"",""up"",[99999,99999],[0,-150]]",diamond,no_dis,vert,up,"[99999,99999]","[0,-150]",up,1,,,,,,001,2025-03-10_19h50.41.080,SL_sali_41,2021.2.3,Win32,100,1.054,,,81,0,81,0,1,,,,,,,,
,,"[""circle"",""no_dis"",""vert"",""up"",[99999,99999],[106,-106]]",circle,no_dis,vert,up,"[99999,99999]","[106,-106]",up,1,,,,,,001,2025-03-10_19h50.41.080,SL_sali_41,2021.2.3,Win32,100,1.081,,,82,0,82,0,1,,,,,,,,
,,"[""circle"",""green"",""hori"",""left"",[-150,0],[150,0]]",circle,green,hori,left,"[-150,0]","[150,0]",left,1,,,,,,001,2025-03-10_19h50.41.080,SL_sali_41,2021.2.3,Win32,100,1.275,,,83,0,83,0,1,,,,,,,,
,,"[""circle"",""green"",""hori"",""left"",[-150,0],[-106,-106]]",circle,green,hori,left,"[-150,0]","[-106,-106]",left,1,,,,,,001,2025-03-10_19h50.41.080,SL_sali_41,2021.2.3,Win32,100,1.391,,,84,0,84,0,1,,,,,,,,
,,"[""circle"",""green"",""vert"",""up"",[106,-106],[106,106]]",circle,green,vert,up,"[106,-106]","[106,106]",up,1,,,,,,001,2025-03-10_19h50.41.080,SL_sali_41,2021.2.3,Win32,100,1.87,,,85,0,85,0,1,,,,,,,,
,,"[""diamond"",""no_dis"",""hori"",""left"",[99999,99999],[-106,-106]]",diamond,no_dis,hori,left,"[99999,99999]","[-106,-106]",left,1,,,,,,001,2025-03-10_19h50.41.080,SL_sali_41,2021.2.3,Win32,100,1.372,,,86,0,86,0,1,,,,,,,,
,,"[""circle"",""green"",""vert"",""up"",[-150,0],[-106,106]]",circle,green,vert,up,"[-150,0]","[-106,106]",up,1,,,,,,001,2025-03-10_19h50.41.080,SL_sali_41,2021.2.3,Win32,100,1.259,,,87,0,87,0,1,,,,,,,,
,,"[""circle"",""green"",""vert"",""up"",[-150,0],[-106,106]]",circle,green,vert,up,"[-150,0]","[-106,106]",up,1,,,,,,001,2025-03-10_19h50.41.080,SL_sali_41,2021.2.3,Win32,100,1.123,,,88,0,88,0,1,,,,,,,,
,,"[""circle"",""green"",""hori"",""left"",[106,-106],[0,-150]]",circle,green,hori,left,"[106,-106]","[0,-150]",left,1,,,,,,001,2025-03-10_19h50.41.080,SL_sali_41,2021.2.3,Win32,100,1.742,,,89,0,89,0,1,,,,,,,,
,,"[""diamond"",""red"",""vert"",""up"",[-150,0],[-106,106]]",diamond,red,vert,up,"[-150,0]","[-106,106]",up,1,,,,,,001,2025-03-10_19h50.41.080,SL_sali_41,2021.2.3,Win32,100,1.212,,,90,0,90,0,1,,,,,,,,
,,"[""diamond"",""no_dis"",""hori"",""left"",[99999,99999],[106,-106]]",diamond,no_dis,hori,left,"[99999,99999]","[106,-106]",left,1,,,,,,001,2025-03-10_19h50.41.080,SL_sali_41,2021.2.3,Win32,100,0.993,,,91,0,91,0,1,,,,,,,,
,,"[""circle"",""red"",""hori"",""left"",[150,0],[106,-106]]",circle,red,hori,left,"[150,0]","[106,-106]",left,1,,,,,,001,2025-03-10_19h50.41.080,SL_sali_41,2021.2.3,Win32,100,1.501,,,92,0,92,0,1,,,,,,,,
,,"[""diamond"",""red"",""vert"",""up"",[-106,-106],[0,-150]]",diamond,red,vert,up,"[-106,-106]","[0,-150]",up,1,,,,,,001,2025-03-10_19h50.41.080,SL_sali_41,2021.2.3,Win32,100,1.779,,,93,0,93,0,1,,,,,,,,
,,"[""diamond"",""green"",""hori"",""left"",[0,150],[-106,106]]",diamond,green,hori,left,"[0,150]","[-106,106]",left,1,,,,,,001,2025-03-10_19h50.41.080,SL_sali_41,2021.2.3,Win32,100,1.299,,,94,0,94,0,1,,,,,,,,
,,"[""diamond"",""green"",""hori"",""left"",[-106,-106],[0,150]]",diamond,green,hori,left,"[-106,-106]","[0,150]",left,1,,,,,,001,2025-03-10_19h50.41.080,SL_sali_41,2021.2.3,Win32,100,1.414,,,95,0,95,0,1,,,,,,,,
,,"[""diamond"",""red"",""vert"",""up"",[-150,0],[0,-150]]",diamond,red,vert,up,"[-150,0]","[0,-150]",up,1,,,,,,001,2025-03-10_19h50.41.080,SL_sali_41,2021.2.3,Win32,100,0.949,,,96,0,96,0,1,,,,,,,,
,,"[""circle"",""green"",""vert"",""up"",[-106,-106],[-150,0]]",circle,green,vert,up,"[-106,-106]","[-150,0]",up,1,,,,,,001,2025-03-10_19h50.41.080,SL_sali_41,2021.2.3,Win32,100,2.174,,,97,0,97,0,1,,,,,,,,
,,"[""diamond"",""red"",""hori"",""left"",[-150,0],[-106,106]]",diamond,red,hori,left,"[-150,0]","[-106,106]",left,1,,,,,,001,2025-03-10_19h50.41.080,SL_sali_41,2021.2.3,Win32,100,1.711,,,98,0,98,0,1,,,,,,,,
,,"[""circle"",""red"",""vert"",""up"",[0,-150],[-150,0]]",circle,red,vert,up,"[0,-150]","[-150,0]",up,1,,,,,,001,2025-03-10_19h50.41.080,SL_sali_41,2021.2.3,Win32,100,1.88,,,99,0,99,0,1,,,,,,,,
,,"[""circle"",""green"",""hori"",""left"",[0,150],[106,-106]]",circle,green,hori,left,"[0,150]","[106,-106]",left,1,,,,,,001,2025-03-10_19h50.41.080,SL_sali_41,2021.2.3,Win32,100,1,,,100,0,100,0,1,,,,,,,,
,,"[""diamond"",""no_dis"",""hori"",""left"",[99999,99999],[-106,106]]",diamond,no_dis,hori,left,"[99999,99999]","[-106,106]",left,1,,,,,,001,2025-03-10_19h50.41.080,SL_sali_41,2021.2.3,Win32,100,1.334,,,101,0,101,0,1,,,,,,,,
,,"[""diamond"",""red"",""vert"",""up"",[0,-150],[-150,0]]",diamond,red,vert,up,"[0,-150]","[-150,0]",up,1,,,,,,001,2025-03-10_19h50.41.080,SL_sali_41,2021.2.3,Win32,100,2.321,,,102,0,102,0,1,,,,,,,,
,,"[""circle"",""no_dis"",""vert"",""up"",[99999,99999],[0,150]]",circle,no_dis,vert,up,"[99999,99999]","[0,150]",up,1,,,,,,001,2025-03-10_19h50.41.080,SL_sali_41,2021.2.3,Win32,100,1.36,,,103,0,103,0,1,,,,,,,,
,,"[""circle"",""red"",""hori"",""left"",[-150,0],[-106,-106]]",circle,red,hori,left,"[-150,0]","[-106,-106]",left,1,,,,,,001,2025-03-10_19h50.41.080,SL_sali_41,2021.2.3,Win32,100,1.233,,,104,0,104,0,1,,,,,,,,
,,"[""circle"",""green"",""vert"",""up"",[-150,0],[0,150]]",circle,green,vert,up,"[-150,0]","[0,150]",up,1,,,,,,001,2025-03-10_19h50.41.080,SL_sali_41,2021.2.3,Win32,100,1.085,,,105,0,105,0,1,,,,,,,,
,,"[""diamond"",""green"",""hori"",""left"",[-106,-106],[0,-150]]",diamond,green,hori,left,"[-106,-106]","[0,-150]",left,1,,,,,,001,2025-03-10_19h50.41.080,SL_sali_41,2021.2.3,Win32,100,1.349,,,106,0,106,0,1,,,,,,,,
,,"[""diamond"",""green"",""hori"",""left"",[150,0],[-106,-106]]",diamond,green,hori,left,"[150,0]","[-106,-106]",left,1,,,,,,001,2025-03-10_19h50.41.080,SL_sali_41,2021.2.3,Win32,100,1.439,,,107,0,107,0,1,,,,,,,,
,,"[""diamond"",""green"",""vert"",""up"",[-150,0],[150,0]]",diamond,green,vert,up,"[-150,0]","[150,0]",up,1,,,,,,001,2025-03-10_19h50.41.080,SL_sali_41,2021.2.3,Win32,100,1.385,,,108,0,108,0,1,,,,,,,,
,,"[""diamond"",""green"",""vert"",""up"",[0,150],[106,106]]",diamond,green,vert,up,"[0,150]","[106,106]",up,1,,,,,,001,2025-03-10_19h50.41.080,SL_sali_41,2021.2.3,Win32,100,1.582,,,109,0,109,0,1,,,,,,,,
,,"[""diamond"",""green"",""hori"",""left"",[-150,0],[150,0]]",diamond,green,hori,left,"[-150,0]","[150,0]",left,1,,,,,,001,2025-03-10_19h50.41.080,SL_sali_41,2021.2.3,Win32,100,1.309,,,110,0,110,0,1,,,,,,,,
,,"[""circle"",""red"",""vert"",""up"",[150,0],[0,-150]]",circle,red,vert,up,"[150,0]","[0,-150]",up,1,,,,,,001,2025-03-10_19h50.41.080,SL_sali_41,2021.2.3,Win32,100,1.77,,,111,0,111,0,1,,,,,,,,
,,"[""circle"",""no_dis"",""vert"",""up"",[99999,99999],[-106,106]]",circle,no_dis,vert,up,"[99999,99999]","[-106,106]",up,1,,,,,,001,2025-03-10_19h50.41.080,SL_sali_41,2021.2.3,Win32,100,1.294,,,112,0,112,0,1,,,,,,,,
,,"[""diamond"",""no_dis"",""vert"",""up"",[99999,99999],[106,106]]",diamond,no_dis,vert,up,"[99999,99999]","[106,106]",up,1,,,,,,001,2025-03-10_19h50.41.080,SL_sali_41,2021.2.3,Win32,100,1.683,,,113,0,113,0,1,,,,,,,,
,,"[""circle"",""no_dis"",""vert"",""up"",[99999,99999],[106,-106]]",circle,no_dis,vert,up,"[99999,99999]","[106,-106]",up,1,,,,,,001,2025-03-10_19h50.41.080,SL_sali_41,2021.2.3,Win32,100,1.631,,,114,0,114,0,1,,,,,,,,
,,"[""diamond"",""red"",""vert"",""up"",[106,106],[106,-106]]",diamond,red,vert,up,"[106,106]","[106,-106]",up,1,,,,,,001,2025-03-10_19h50.41.080,SL_sali_41,2021.2.3,Win32,100,1.73,,,115,0,115,0,1,,,,,,,,
,,"[""circle"",""red"",""vert"",""up"",[106,106],[-106,106]]",circle,red,vert,up,"[106,106]","[-106,106]",up,1,,,,,,001,2025-03-10_19h50.41.080,SL_sali_41,2021.2.3,Win32,100,1.433,,,116,0,116,0,1,,,,,,,,
,,"[""diamond"",""red"",""hori"",""left"",[106,106],[-106,-106]]",diamond,red,hori,left,"[106,106]","[-106,-106]",left,1,,,,,,001,2025-03-10_19h50.41.080,SL_sali_41,2021.2.3,Win32,100,1.621,,,117,0,117,0,1,,,,,,,,
,,"[""circle"",""no_dis"",""vert"",""up"",[99999,99999],[150,0]]",circle,no_dis,vert,up,"[99999,99999]","[150,0]",up,1,,,,,,001,2025-03-10_19h50.41.080,SL_sali_41,2021.2.3,Win32,100,1.47,,,118,0,118,0,1,,,,,,,,
,,"[""diamond"",""green"",""hori"",""left"",[-150,0],[106,-106]]",diamond,green,hori,left,"[-150,0]","[106,-106]",left,1,,,,,,001,2025-03-10_19h50.41.080,SL_sali_41,2021.2.3,Win32,100,1.065,,,119,0,119,0,1,,,,,,,,
,,"[""diamond"",""red"",""hori"",""left"",[-150,0],[0,-150]]",diamond,red,hori,left,"[-150,0]","[0,-150]",left,1,,,,,,001,2025-03-10_19h50.41.080,SL_sali_41,2021.2.3,Win32,100,1.704,,,120,0,120,0,1,,,,,,,,
,,"[""diamond"",""no_dis"",""vert"",""up"",[99999,99999],[-150,0]]",diamond,no_dis,vert,up,"[99999,99999]","[-150,0]",up,1,,,,,,001,2025-03-10_19h50.41.080,SL_sali_41,2021.2.3,Win32,100,1.235,,,121,0,121,0,1,,,,,,,,
,,"[""circle"",""green"",""hori"",""left"",[-150,0],[0,150]]",circle,green,hori,left,"[-150,0]","[0,150]",up,0,,,,,,001,2025-03-10_19h50.41.080,SL_sali_41,2021.2.3,Win32,100,2.48,,,122,0,122,0,1,,,,,,,,
,,"[""diamond"",""green"",""vert"",""up"",[0,-150],[106,-106]]",diamond,green,vert,up,"[0,-150]","[106,-106]",up,1,,,,,,001,2025-03-10_19h50.41.080,SL_sali_41,2021.2.3,Win32,100,1.375,,,123,0,123,0,1,,,,,,,,
,,"[""circle"",""no_dis"",""hori"",""left"",[99999,99999],[-106,106]]",circle,no_dis,hori,left,"[99999,99999]","[-106,106]",left,1,,,,,,001,2025-03-10_19h50.41.080,SL_sali_41,2021.2.3,Win32,100,1.04,,,124,0,124,0,1,,,,,,,,
,,"[""circle"",""green"",""vert"",""up"",[-150,0],[150,0]]",circle,green,vert,up,"[-150,0]","[150,0]",up,1,,,,,,001,2025-03-10_19h50.41.080,SL_sali_41,2021.2.3,Win32,100,2.51,,,125,0,125,0,1,,,,,,,,
,,"[""diamond"",""red"",""hori"",""left"",[0,-150],[-150,0]]",diamond,red,hori,left,"[0,-150]","[-150,0]",left,1,,,,,,001,2025-03-10_19h50.41.080,SL_sali_41,2021.2.3,Win32,100,1.299,,,126,0,126,0,1,,,,,,,,
,,"[""circle"",""no_dis"",""hori"",""left"",[99999,99999],[0,150]]",circle,no_dis,hori,left,"[99999,99999]","[0,150]",left,1,,,,,,001,2025-03-10_19h50.41.080,SL_sali_41,2021.2.3,Win32,100,1.03,,,127,0,127,0,1,,,,,,,,
,,,,,,,,,,,,,,,,001,2025-03-10_19h50.41.080,SL_sali_41,2021.2.3,Win32,100,,,,,,,,,1,space,6.711,0,0,0,0,1
,,"[""diamond"",""green"",""vert"",""up"",[-150,0],[150,0]]",diamond,green,vert,up,"[-150,0]","[150,0]",up,1,,,,,,001,2025-03-10_19h50.41.080,SL_sali_41,2021.2.3,Win32,100,1.08,,,0,0,0,0,1,,,,,,,,
,,"[""circle"",""red"",""vert"",""up"",[0,150],[-150,0]]",circle,red,vert,up,"[0,150]","[-150,0]",up,1,,,,,,001,2025-03-10_19h50.41.080,SL_sali_41,2021.2.3,Win32,100,1.516,,,1,0,1,0,1,,,,,,,,
,,"[""circle"",""no_dis"",""vert"",""up"",[99999,99999],[106,-106]]",circle,no_dis,vert,up,"[99999,99999]","[106,-106]",up,1,,,,,,001,2025-03-10_19h50.41.080,SL_sali_41,2021.2.3,Win32,100,1.31,,,2,0,2,0,1,,,,,,,,
,,"[""diamond"",""red"",""vert"",""up"",[106,106],[106,-106]]",diamond,red,vert,up,"[106,106]","[106,-106]",up,1,,,,,,001,2025-03-10_19h50.41.080,SL_sali_41,2021.2.3,Win32,100,1.48,,,3,0,3,0,1,,,,,,,,
,,"[""circle"",""red"",""vert"",""up"",[0,-150],[-150,0]]",circle,red,vert,up,"[0,-150]","[-150,0]",up,1,,,,,,001,2025-03-10_19h50.41.080,SL_sali_41,2021.2.3,Win32,100,1.281,,,4,0,4,0,1,,,,,,,,
,,"[""circle"",""red"",""vert"",""up"",[106,106],[-106,106]]",circle,red,vert,up,"[106,106]","[-106,106]",up,1,,,,,,001,2025-03-10_19h50.41.080,SL_sali_41,2021.2.3,Win32,100,1.331,,,5,0,5,0,1,,,,,,,,
,,"[""diamond"",""no_dis"",""vert"",""up"",[99999,99999],[-150,0]]",diamond,no_dis,vert,up,"[99999,99999]","[-150,0]",up,1,,,,,,001,2025-03-10_19h50.41.080,SL_sali_41,2021.2.3,Win32,100,1.314,,,6,0,6,0,1,,,,,,,,
,,"[""diamond"",""no_dis"",""vert"",""up"",[99999,99999],[150,0]]",diamond,no_dis,vert,up,"[99999,99999]","[150,0]",up,1,,,,,,001,2025-03-10_19h50.41.080,SL_sali_41,2021.2.3,Win32,100,1.244,,,7,0,7,0,1,,,,,,,,
,,"[""circle"",""no_dis"",""vert"",""up"",[99999,99999],[106,-106]]",circle,no_dis,vert,up,"[99999,99999]","[106,-106]",up,1,,,,,,001,2025-03-10_19h50.41.080,SL_sali_41,2021.2.3,Win32,100,1.064,,,8,0,8,0,1,,,,,,,,
,,"[""circle"",""no_dis"",""vert"",""up"",[99999,99999],[-150,0]]",circle,no_dis,vert,up,"[99999,99999]","[-150,0]",up,1,,,,,,001,2025-03-10_19h50.41.080,SL_sali_41,2021.2.3,Win32,100,1.19,,,9,0,9,0,1,,,,,,,,
,,"[""circle"",""red"",""hori"",""left"",[0,150],[106,-106]]",circle,red,hori,left,"[0,150]","[106,-106]",left,1,,,,,,001,2025-03-10_19h50.41.080,SL_sali_41,2021.2.3,Win32,100,1.36,,,10,0,10,0,1,,,,,,,,
,,"[""diamond"",""red"",""hori"",""left"",[106,106],[-106,-106]]",diamond,red,hori,left,"[106,106]","[-106,-106]",left,1,,,,,,001,2025-03-10_19h50.41.080,SL_sali_41,2021.2.3,Win32,100,1.57,,,11,0,11,0,1,,,,,,,,
,,"[""diamond"",""red"",""hori"",""left"",[0,-150],[-106,106]]",diamond,red,hori,left,"[0,-150]","[-106,106]",left,1,,,,,,001,2025-03-10_19h50.41.080,SL_sali_41,2021.2.3,Win32,100,1.37,,,12,0,12,0,1,,,,,,,,
,,"[""circle"",""red"",""hori"",""left"",[-106,-106],[150,0]]",circle,red,hori,left,"[-106,-106]","[150,0]",left,1,,,,,,001,2025-03-10_19h50.41.080,SL_sali_41,2021.2.3,Win32,100,1.162,,,13,0,13,0,1,,,,,,,,
,,"[""diamond"",""green"",""vert"",""up"",[-106,106],[-106,-106]]",diamond,green,vert,up,"[-106,106]","[-106,-106]",up,1,,,,,,001,2025-03-10_19h50.41.080,SL_sali_41,2021.2.3,Win32,100,1.151,,,14,0,14,0,1,,,,,,,,
,,"[""circle"",""no_dis"",""hori"",""left"",[99999,99999],[0,150]]",circle,no_dis,hori,left,"[99999,99999]","[0,150]",left,1,,,,,,001,2025-03-10_19h50.41.080,SL_sali_41,2021.2.3,Win32,100,1.14,,,15,0,15,0,1,,,,,,,,
,,"[""diamond"",""green"",""hori"",""left"",[0,-150],[-150,0]]",diamond,green,hori,left,"[0,-150]","[-150,0]",left,1,,,,,,001,2025-03-10_19h50.41.080,SL_sali_41,2021.2.3,Win32,100,1.24,,,16,0,16,0,1,,,,,,,,
,,"[""diamond"",""green"",""hori"",""left"",[-150,0],[150,0]]",diamond,green,hori,left,"[-150,0]","[150,0]",left,1,,,,,,001,2025-03-10_19h50.41.080,SL_sali_41,2021.2.3,Win32,100,1.479,,,17,0,17,0,1,,,,,,,,
,,"[""diamond"",""no_dis"",""hori"",""left"",[99999,99999],[-150,0]]",diamond,no_dis,hori,left,"[99999,99999]","[-150,0]",left,1,,,,,,001,2025-03-10_19h50.41.080,SL_sali_41,2021.2.3,Win32,100,1.334,,,18,0,18,0,1,,,,,,,,
,,"[""circle"",""green"",""hori"",""left"",[-150,0],[150,0]]",circle,green,hori,left,"[-150,0]","[150,0]",left,1,,,,,,001,2025-03-10_19h50.41.080,SL_sali_41,2021.2.3,Win32,100,1.425,,,19,0,19,0,1,,,,,,,,
,,"[""diamond"",""no_dis"",""vert"",""up"",[99999,99999],[0,-150]]",diamond,no_dis,vert,up,"[99999,99999]","[0,-150]",up,1,,,,,,001,2025-03-10_19h50.41.080,SL_sali_41,2021.2.3,Win32,100,1.015,,,20,0,20,0,1,,,,,,,,
,,"[""diamond"",""no_dis"",""vert"",""up"",[99999,99999],[106,106]]",diamond,no_dis,vert,up,"[99999,99999]","[106,106]",up,1,,,,,,001,2025-03-10_19h50.41.080,SL_sali_41,2021.2.3,Win32,100,1.029,,,21,0,21,0,1,,,,,,,,
,,"[""diamond"",""red"",""hori"",""left"",[150,0],[-150,0]]",diamond,red,hori,left,"[150,0]","[-150,0]",left,1,,,,,,001,2025-03-10_19h50.41.080,SL_sali_41,2021.2.3,Win32,100,1.084,,,22,0,22,0,1,,,,,,,,
,,"[""circle"",""red"",""vert"",""up"",[-150,0],[150,0]]",circle,red,vert,up,"[-150,0]","[150,0]",up,1,,,,,,001,2025-03-10_19h50.41.080,SL_sali_41,2021.2.3,Win32,100,1.359,,,23,0,23,0,1,,,,,,,,
,,"[""circle"",""no_dis"",""vert"",""up"",[99999,99999],[-106,106]]",circle,no_dis,vert,up,"[99999,99999]","[-106,106]",up,1,,,,,,001,2025-03-10_19h50.41.080,SL_sali_41,2021.2.3,Win32,100,1.151,,,24,0,24,0,1,,,,,,,,
,,"[""diamond"",""green"",""vert"",""up"",[106,-106],[150,0]]",diamond,green,vert,up,"[106,-106]","[150,0]",up,1,,,,,,001,2025-03-10_19h50.41.080,SL_sali_41,2021.2.3,Win32,100,1.231,,,25,0,25,0,1,,,,,,,,
,,"[""circle"",""no_dis"",""vert"",""up"",[99999,99999],[0,150]]",circle,no_dis,vert,up,"[99999,99999]","[0,150]",up,1,,,,,,001,2025-03-10_19h50.41.080,SL_sali_41,2021.2.3,Win32,100,0.89,,,26,0,26,0,1,,,,,,,,
,,"[""diamond"",""no_dis"",""hori"",""left"",[99999,99999],[-106,106]]",diamond,no_dis,hori,left,"[99999,99999]","[-106,106]",left,1,,,,,,001,2025-03-10_19h50.41.080,SL_sali_41,2021.2.3,Win32,100,1.34,,,27,0,27,0,1,,,,,,,,
,,"[""diamond"",""red"",""hori"",""left"",[-150,0],[-106,106]]",diamond,red,hori,left,"[-150,0]","[-106,106]",up,0,,,,,,001,2025-03-10_19h50.41.080,SL_sali_41,2021.2.3,Win32,100,2.583,,,28,0,28,0,1,,,,,,,,
,,"[""diamond"",""red"",""hori"",""left"",[-150,0],[0,-150]]",diamond,red,hori,left,"[-150,0]","[0,-150]",left,1,,,,,,001,2025-03-10_19h50.41.080,SL_sali_41,2021.2.3,Win32,100,1.589,,,29,0,29,0,1,,,,,,,,
,,"[""diamond"",""no_dis"",""vert"",""up"",[99999,99999],[-106,-106]]",diamond,no_dis,vert,up,"[99999,99999]","[-106,-106]",up,1,,,,,,001,2025-03-10_19h50.41.080,SL_sali_41,2021.2.3,Win32,100,1.535,,,30,0,30,0,1,,,,,,,,
,,"[""diamond"",""no_dis"",""hori"",""left"",[99999,99999],[-106,-106]]",diamond,no_dis,hori,left,"[99999,99999]","[-106,-106]",left,1,,,,,,001,2025-03-10_19h50.41.080,SL_sali_41,2021.2.3,Win32,100,1.18,,,31,0,31,0,1,,,,,,,,
,,"[""circle"",""no_dis"",""hori"",""left"",[99999,99999],[0,150]]",circle,no_dis,hori,left,"[99999,99999]","[0,150]",left,1,,,,,,001,2025-03-10_19h50.41.080,SL_sali_41,2021.2.3,Win32,100,2.562,,,32,0,32,0,1,,,,,,,,
,,"[""diamond"",""red"",""vert"",""up"",[-150,0],[150,0]]",diamond,red,vert,up,"[-150,0]","[150,0]",up,1,,,,,,001,2025-03-10_19h50.41.080,SL_sali_41,2021.2.3,Win32,100,1.55,,,33,0,33,0,1,,,,,,,,
,,"[""diamond"",""green"",""hori"",""left"",[-150,0],[106,-106]]",diamond,green,hori,left,"[-150,0]","[106,-106]",left,1,,,,,,001,2025-03-10_19h50.41.080,SL_sali_41,2021.2.3,Win32,100,1.339,,,34,0,34,0,1,,,,,,,,
,,"[""circle"",""green"",""vert"",""up"",[150,0],[-106,106]]",circle,green,vert,up,"[150,0]","[-106,106]",up,1,,,,,,001,2025-03-10_19h50.41.080,SL_sali_41,2021.2.3,Win32,100,1.37,,,35,0,35,0,1,,,,,,,,
,,"[""diamond"",""no_dis"",""vert"",""up"",[99999,99999],[-106,106]]",diamond,no_dis,vert,up,"[99999,99999]","[-106,106]",up,1,,,,,,001,2025-03-10_19h50.41.080,SL_sali_41,2021.2.3,Win32,100,1.462,,,36,0,36,0,1,,,,,,,,
,,"[""diamond"",""green"",""vert"",""up"",[-150,0],[106,106]]",diamond,green,vert,up,"[-150,0]","[106,106]",up,1,,,,,,001,2025-03-10_19h50.41.080,SL_sali_41,2021.2.3,Win32,100,1.241,,,37,0,37,0,1,,,,,,,,
,,"[""circle"",""red"",""hori"",""left"",[106,106],[0,-150]]",circle,red,hori,left,"[106,106]","[0,-150]",left,1,,,,,,001,2025-03-10_19h50.41.080,SL_sali_41,2021.2.3,Win32,100,1.971,,,38,0,38,0,1,,,,,,,,
,,"[""circle"",""no_dis"",""hori"",""left"",[99999,99999],[-106,-106]]",circle,no_dis,hori,left,"[99999,99999]","[-106,-106]",left,1,,,,,,001,2025-03-10_19h50.41.080,SL_sali_41,2021.2.3,Win32,100,1.424,,,39,0,39,0,1,,,,,,,,
,,"[""circle"",""red"",""vert"",""up"",[-106,-106],[150,0]]",circle,red,vert,up,"[-106,-106]","[150,0]",up,1,,,,,,001,2025-03-10_19h50.41.080,SL_sali_41,2021.2.3,Win32,100,1.161,,,40,0,40,0,1,,,,,,,,
,,"[""diamond"",""no_dis"",""hori"",""left"",[99999,99999],[0,150]]",diamond,no_dis,hori,left,"[99999,99999]","[0,150]",left,1,,,,,,001,2025-03-10_19h50.41.080,SL_sali_41,2021.2.3,Win32,100,1.285,,,41,0,41,0,1,,,,,,,,
,,"[""circle"",""red"",""hori"",""left"",[-150,0],[150,0]]",circle,red,hori,left,"[-150,0]","[150,0]",left,1,,,,,,001,2025-03-10_19h50.41.080,SL_sali_41,2021.2.3,Win32,100,1.06,,,42,0,42,0,1,,,,,,,,
,,"[""diamond"",""red"",""vert"",""up"",[106,-106],[-106,106]]",diamond,red,vert,up,"[106,-106]","[-106,106]",left,0,,,,,,001,2025-03-10_19h50.41.080,SL_sali_41,2021.2.3,Win32,100,1.21,,,43,0,43,0,1,,,,,,,,
,,"[""diamond"",""no_dis"",""hori"",""left"",[99999,99999],[106,-106]]",diamond,no_dis,hori,left,"[99999,99999]","[106,-106]",left,1,,,,,,001,2025-03-10_19h50.41.080,SL_sali_41,2021.2.3,Win32,100,1.581,,,44,0,44,0,1,,,,,,,,
,,"[""diamond"",""green"",""hori"",""left"",[106,106],[-106,-106]]",diamond,green,hori,left,"[106,106]","[-106,-106]",left,1,,,,,,001,2025-03-10_19h50.41.080,SL_sali_41,2021.2.3,Win32,100,1.89,,,45,0,45,0,1,,,,,,,,
,,"[""diamond"",""red"",""hori"",""left"",[-106,106],[106,-106]]",diamond,red,hori,left,"[-106,106]","[106,-106]",left,1,,,,,,001,2025-03-10_19h50.41.080,SL_sali_41,2021.2.3,Win32,100,1.46,,,46,0,46,0,1,,,,,,,,
,,"[""diamond"",""green"",""vert"",""up"",[106,106],[106,-106]]",diamond,green,vert,up,"[106,106]","[106,-106]",up,1,,,,,,001,2025-03-10_19h50.41.080,SL_sali_41,2021.2.3,Win32,100,2.2,,,47,0,47,0,1,,,,,,,,
,,"[""circle"",""no_dis"",""hori"",""left"",[99999,99999],[150,0]]",circle,no_dis,hori,left,"[99999,99999]","[150,0]",left,1,,,,,,001,2025-03-10_19h50.41.080,SL_sali_41,2021.2.3,Win32,100,1.075,,,48,0,48,0,1,,,,,,,,
,,"[""diamond"",""green"",""vert"",""up"",[-150,0],[0,150]]",diamond,green,vert,up,"[-150,0]","[0,150]",up,1,,,,,,001,2025-03-10_19h50.41.080,SL_sali_41,2021.2.3,Win32,100,1.208,,,49,0,49,0,1,,,,,,,,
,,"[""circle"",""green"",""hori"",""left"",[-150,0],[-106,106]]",circle,green,hori,left,"[-150,0]","[-106,106]",left,1,,,,,,001,2025-03-10_19h50.41.080,SL_sali_41,2021.2.3,Win32,100,2.13,,,50,0,50,0,1,,,,,,,,
,,"[""circle"",""red"",""vert"",""up"",[-150,0],[106,-106]]",circle,red,vert,up,"[-150,0]","[106,-106]",up,1,,,,,,001,2025-03-10_19h50.41.080,SL_sali_41,2021.2.3,Win32,100,1.34,,,51,0,51,0,1,,,,,,,,
,,"[""circle"",""red"",""vert"",""up"",[150,0],[0,-150]]",circle,red,vert,up,"[150,0]","[0,-150]",up,1,,,,,,001,2025-03-10_19h50.41.080,SL_sali_41,2021.2.3,Win32,100,1.754,,,52,0,52,0,1,,,,,,,,
,,"[""diamond"",""green"",""vert"",""up"",[-106,106],[-150,0]]",diamond,green,vert,up,"[-106,106]","[-150,0]",up,1,,,,,,001,2025-03-10_19h50.41.080,SL_sali_41,2021.2.3,Win32,100,1.354,,,53,0,53,0,1,,,,,,,,
,,"[""diamond"",""red"",""hori"",""left"",[-106,106],[0,150]]",diamond,red,hori,left,"[-106,106]","[0,150]",left,1,,,,,,001,2025-03-10_19h50.41.080,SL_sali_41,2021.2.3,Win32,100,1.65,,,54,0,54,0,1,,,,,,,,
,,"[""diamond"",""red"",""vert"",""up"",[106,-106],[0,-150]]",diamond,red,vert,up,"[106,-106]","[0,-150]",up,1,,,,,,001,2025-03-10_19h50.41.080,SL_sali_41,2021.2.3,Win32,100,1.019,,,55,0,55,0,1,,,,,,,,
,,"[""diamond"",""green"",""hori"",""left"",[-106,-106],[0,150]]",diamond,green,hori,left,"[-106,-106]","[0,150]",left,1,,,,,,001,2025-03-10_19h50.41.080,SL_sali_41,2021.2.3,Win32,100,1.321,,,56,0,56,0,1,,,,,,,,
,,"[""circle"",""green"",""hori"",""left"",[-106,-106],[-150,0]]",circle,green,hori,left,"[-106,-106]","[-150,0]",left,1,,,,,,001,2025-03-10_19h50.41.080,SL_sali_41,2021.2.3,Win32,100,1.303,,,57,0,57,0,1,,,,,,,,
,,"[""circle"",""red"",""hori"",""left"",[150,0],[106,-106]]",circle,red,hori,left,"[150,0]","[106,-106]",left,1,,,,,,001,2025-03-10_19h50.41.080,SL_sali_41,2021.2.3,Win32,100,1.242,,,58,0,58,0,1,,,,,,,,
,,"[""circle"",""green"",""vert"",""up"",[-150,0],[0,150]]",circle,green,vert,up,"[-150,0]","[0,150]",up,1,,,,,,001,2025-03-10_19h50.41.080,SL_sali_41,2021.2.3,Win32,100,1.28,,,59,0,59,0,1,,,,,,,,
,,"[""circle"",""green"",""hori"",""left"",[150,0],[106,-106]]",circle,green,hori,left,"[150,0]","[106,-106]",left,1,,,,,,001,2025-03-10_19h50.41.080,SL_sali_41,2021.2.3,Win32,100,1.002,,,60,0,60,0,1,,,,,,,,
,,"[""circle"",""green"",""hori"",""left"",[-150,0],[0,150]]",circle,green,hori,left,"[-150,0]","[0,150]",left,1,,,,,,001,2025-03-10_19h50.41.080,SL_sali_41,2021.2.3,Win32,100,1.155,,,61,0,61,0,1,,,,,,,,
,,"[""diamond"",""red"",""vert"",""up"",[-150,0],[-106,106]]",diamond,red,vert,up,"[-150,0]","[-106,106]",up,1,,,,,,001,2025-03-10_19h50.41.080,SL_sali_41,2021.2.3,Win32,100,1.534,,,62,0,62,0,1,,,,,,,,
,,"[""circle"",""red"",""hori"",""left"",[-106,-106],[106,106]]",circle,red,hori,left,"[-106,-106]","[106,106]",left,1,,,,,,001,2025-03-10_19h50.41.080,SL_sali_41,2021.2.3,Win32,100,1.353,,,63,0,63,0,1,,,,,,,,
,,"[""circle"",""red"",""hori"",""left"",[-106,106],[106,106]]",circle,red,hori,left,"[-106,106]","[106,106]",left,1,,,,,,001,2025-03-10_19h50.41.080,SL_sali_41,2021.2.3,Win32,100,1.432,,,64,0,64,0,1,,,,,,,,
,,"[""circle"",""green"",""vert"",""up"",[150,0],[-106,106]]",circle,green,vert,up,"[150,0]","[-106,106]",up,1,,,,,,001,2025-03-10_19h50.41.080,SL_sali_41,2021.2.3,Win32,100,1.235,,,65,0,65,0,1,,,,,,,,
,,"[""diamond"",""red"",""hori"",""left"",[-150,0],[0,-150]]",diamond,red,hori,left,"[-150,0]","[0,-150]",left,1,,,,,,001,2025-03-10_19h50.41.080,SL_sali_41,2021.2.3,Win32,100,1.179,,,66,0,66,0,1,,,,,,,,
,,"[""circle"",""green"",""vert"",""up"",[-106,-106],[-150,0]]",circle,green,vert,up,"[-106,-106]","[-150,0]",up,1,,,,,,001,2025-03-10_19h50.41.080,SL_sali_41,2021.2.3,Win32,100,1.872,,,67,0,67,0,1,,,,,,,,
,,"[""diamond"",""green"",""hori"",""left"",[0,150],[-106,106]]",diamond,green,hori,left,"[0,150]","[-106,106]",left,1,,,,,,001,2025-03-10_19h50.41.080,SL_sali_41,2021.2.3,Win32,100,2.513,,,68,0,68,0,1,,,,,,,,
,,"[""circle"",""green"",""vert"",""up"",[-150,0],[150,0]]",circle,green,vert,up,"[-150,0]","[150,0]",up,1,,,,,,001,2025-03-10_19h50.41.080,SL_sali_41,2021.2.3,Win32,100,1.521,,,69,0,69,0,1,,,,,,,,
,,"[""circle"",""red"",""vert"",""up"",[106,106],[-106,106]]",circle,red,vert,up,"[106,106]","[-106,106]",up,1,,,,,,001,2025-03-10_19h50.41.080,SL_sali_41,2021.2.3,Win32,100,1.28,,,70,0,70,0,1,,,,,,,,
,,"[""diamond"",""green"",""vert"",""up"",[-150,0],[-106,106]]",diamond,green,vert,up,"[-150,0]","[-106,106]",up,1,,,,,,001,2025-03-10_19h50.41.080,SL_sali_41,2021.2.3,Win32,100,1.372,,,71,0,71,0,1,,,,,,,,
,,"[""circle"",""green"",""vert"",""up"",[-150,0],[-106,106]]",circle,green,vert,up,"[-150,0]","[-106,106]",up,1,,,,,,001,2025-03-10_19h50.41.080,SL_sali_41,2021.2.3,Win32,100,1.161,,,72,0,72,0,1,,,,,,,,
,,"[""circle"",""no_dis"",""vert"",""up"",[99999,99999],[106,-106]]",circle,no_dis,vert,up,"[99999,99999]","[106,-106]",up,1,,,,,,001,2025-03-10_19h50.41.080,SL_sali_41,2021.2.3,Win32,100,1.024,,,73,0,73,0,1,,,,,,,,
,,"[""diamond"",""green"",""hori"",""left"",[106,-106],[-106,106]]",diamond,green,hori,left,"[106,-106]","[-106,106]",left,1,,,,,,001,2025-03-10_19h50.41.080,SL_sali_41,2021.2.3,Win32,100,1.274,,,74,0,74,0,1,,,,,,,,
,,"[""diamond"",""red"",""vert"",""up"",[-150,0],[0,-150]]",diamond,red,vert,up,"[-150,0]","[0,-150]",up,1,,,,,,001,2025-03-10_19h50.41.080,SL_sali_41,2021.2.3,Win32,100,1.419,,,75,0,75,0,1,,,,,,,,
,,"[""diamond"",""red"",""vert"",""up"",[0,-150],[-150,0]]",diamond,red,vert,up,"[0,-150]","[-150,0]",up,1,,,,,,001,2025-03-10_19h50.41.080,SL_sali_41,2021.2.3,Win32,100,1.38,,,76,0,76,0,1,,,,,,,,
,,"[""circle"",""green"",""hori"",""left"",[-150,0],[0,-150]]",circle,green,hori,left,"[-150,0]","[0,-150]",left,1,,,,,,001,2025-03-10_19h50.41.080,SL_sali_41,2021.2.3,Win32,100,1.591,,,77,0,77,0,1,,,,,,,,
,,"[""diamond"",""no_dis"",""hori"",""left"",[99999,99999],[-150,0]]",diamond,no_dis,hori,left,"[99999,99999]","[-150,0]",left,1,,,,,,001,2025-03-10_19h50.41.080,SL_sali_41,2021.2.3,Win32,100,1.881,,,78,0,78,0,1,,,,,,,,
,,"[""circle"",""green"",""hori"",""left"",[-150,0],[106,-106]]",circle,green,hori,left,"[-150,0]","[106,-106]",left,1,,,,,,001,2025-03-10_19h50.41.080,SL_sali_41,2021.2.3,Win32,100,1.164,,,79,0,79,0,1,,,,,,,,
,,"[""circle"",""green"",""hori"",""left"",[0,150],[106,-106]]",circle,green,hori,left,"[0,150]","[106,-106]",left,1,,,,,,001,2025-03-10_19h50.41.080,SL_sali_41,2021.2.3,Win32,100,1.262,,,80,0,80,0,1,,,,,,,,
,,"[""circle"",""no_dis"",""hori"",""left"",[99999,99999],[106,-106]]",circle,no_dis,hori,left,"[99999,99999]","[106,-106]",left,1,,,,,,001,2025-03-10_19h50.41.080,SL_sali_41,2021.2.3,Win32,100,1.462,,,81,0,81,0,1,,,,,,,,
,,"[""diamond"",""green"",""vert"",""up"",[0,150],[106,106]]",diamond,green,vert,up,"[0,150]","[106,106]",up,1,,,,,,001,2025-03-10_19h50.41.080,SL_sali_41,2021.2.3,Win32,100,1.731,,,82,0,82,0,1,,,,,,,,
,,"[""circle"",""red"",""hori"",""left"",[-150,0],[106,-106]]",circle,red,hori,left,"[-150,0]","[106,-106]",left,1,,,,,,001,2025-03-10_19h50.41.080,SL_sali_41,2021.2.3,Win32,100,1.543,,,83,0,83,0,1,,,,,,,,
,,"[""circle"",""green"",""vert"",""up"",[106,-106],[106,106]]",circle,green,vert,up,"[106,-106]","[106,106]",up,1,,,,,,001,2025-03-10_19h50.41.080,SL_sali_41,2021.2.3,Win32,100,1.302,,,84,0,84,0,1,,,,,,,,
,,"[""diamond"",""red"",""vert"",""up"",[-106,-106],[0,-150]]",diamond,red,vert,up,"[-106,-106]","[0,-150]",up,1,,,,,,001,2025-03-10_19h50.41.080,SL_sali_41,2021.2.3,Win32,100,1.803,,,85,0,85,0,1,,,,,,,,
,,"[""circle"",""no_dis"",""hori"",""left"",[99999,99999],[106,106]]",circle,no_dis,hori,left,"[99999,99999]","[106,106]",left,1,,,,,,001,2025-03-10_19h50.41.080,SL_sali_41,2021.2.3,Win32,100,1.373,,,86,0,86,0,1,,,,,,,,
,,"[""diamond"",""red"",""vert"",""up"",[-150,0],[106,-106]]",diamond,red,vert,up,"[-150,0]","[106,-106]",up,1,,,,,,001,2025-03-10_19h50.41.080,SL_sali_41,2021.2.3,Win32,100,1.493,,,87,0,87,0,1,,,,,,,,
,,"[""diamond"",""no_dis"",""hori"",""left"",[99999,99999],[0,-150]]",diamond,no_dis,hori,left,"[99999,99999]","[0,-150]",left,1,,,,,,001,2025-03-10_19h50.41.080,SL_sali_41,2021.2.3,Win32,100,1.423,,,88,0,88,0,1,,,,,,,,
,,"[""circle"",""red"",""hori"",""left"",[0,-150],[106,106]]",circle,red,hori,left,"[0,-150]","[106,106]",left,1,,,,,,001,2025-03-10_19h50.41.080,SL_sali_41,2021.2.3,Win32,100,1.391,,,89,0,89,0,1,,,,,,,,
,,"[""diamond"",""red"",""hori"",""left"",[-150,0],[150,0]]",diamond,red,hori,left,"[-150,0]","[150,0]",left,1,,,,,,001,2025-03-10_19h50.41.080,SL_sali_41,2021.2.3,Win32,100,1.392,,,90,0,90,0,1,,,,,,,,
,,"[""circle"",""no_dis"",""vert"",""up"",[99999,99999],[-106,-106]]",circle,no_dis,vert,up,"[99999,99999]","[-106,-106]",up,1,,,,,,001,2025-03-10_19h50.41.080,SL_sali_41,2021.2.3,Win32,100,1.631,,,91,0,91,0,1,,,,,,,,
,,"[""circle"",""red"",""vert"",""up"",[-106,106],[0,-150]]",circle,red,vert,up,"[-106,106]","[0,-150]",up,1,,,,,,001,2025-03-10_19h50.41.080,SL_sali_41,2021.2.3,Win32,100,0.963,,,92,0,92,0,1,,,,,,,,
,,"[""circle"",""green"",""hori"",""left"",[-150,0],[-106,-106]]",circle,green,hori,left,"[-150,0]","[-106,-106]",left,1,,,,,,001,2025-03-10_19h50.41.080,SL_sali_41,2021.2.3,Win32,100,1.43,,,93,0,93,0,1,,,,,,,,
,,"[""diamond"",""green"",""hori"",""left"",[-106,-106],[0,-150]]",diamond,green,hori,left,"[-106,-106]","[0,-150]",left,1,,,,,,001,2025-03-10_19h50.41.080,SL_sali_41,2021.2.3,Win32,100,2.231,,,94,0,94,0,1,,,,,,,,
,,"[""diamond"",""green"",""hori"",""left"",[150,0],[0,150]]",diamond,green,hori,left,"[150,0]","[0,150]",left,1,,,,,,001,2025-03-10_19h50.41.080,SL_sali_41,2021.2.3,Win32,100,1.331,,,95,0,95,0,1,,,,,,,,
,,"[""diamond"",""green"",""hori"",""left"",[-106,106],[0,-150]]",diamond,green,hori,left,"[-106,106]","[0,-150]",left,1,,,,,,001,2025-03-10_19h50.41.080,SL_sali_41,2021.2.3,Win32,100,1.212,,,96,0,96,0,1,,,,,,,,
,,"[""circle"",""red"",""hori"",""left"",[106,-106],[-106,-106]]",circle,red,hori,left,"[106,-106]","[-106,-106]",left,1,,,,,,001,2025-03-10_19h50.41.080,SL_sali_41,2021.2.3,Win32,100,1.614,,,97,0,97,0,1,,,,,,,,
,,"[""circle"",""no_dis"",""hori"",""left"",[99999,99999],[-106,106]]",circle,no_dis,hori,left,"[99999,99999]","[-106,106]",left,1,,,,,,001,2025-03-10_19h50.41.080,SL_sali_41,2021.2.3,Win32,100,0.939,,,98,0,98,0,1,,,,,,,,
,,"[""diamond"",""green"",""hori"",""left"",[150,0],[-106,-106]]",diamond,green,hori,left,"[150,0]","[-106,-106]",left,1,,,,,,001,2025-03-10_19h50.41.080,SL_sali_41,2021.2.3,Win32,100,1.986,,,99,0,99,0,1,,,,,,,,
,,"[""diamond"",""red"",""vert"",""up"",[-150,0],[-106,106]]",diamond,red,vert,up,"[-150,0]","[-106,106]",up,1,,,,,,001,2025-03-10_19h50.41.080,SL_sali_41,2021.2.3,Win32,100,1.555,,,100,0,100,0,1,,,,,,,,
,,"[""diamond"",""green"",""vert"",""up"",[0,-150],[106,-106]]",diamond,green,vert,up,"[0,-150]","[106,-106]",up,1,,,,,,001,2025-03-10_19h50.41.080,SL_sali_41,2021.2.3,Win32,100,1.159,,,101,0,101,0,1,,,,,,,,
,,"[""circle"",""red"",""vert"",""up"",[106,106],[106,-106]]",circle,red,vert,up,"[106,106]","[106,-106]",up,1,,,,,,001,2025-03-10_19h50.41.080,SL_sali_41,2021.2.3,Win32,100,1.152,,,102,0,102,0,1,,,,,,,,
,,"[""diamond"",""red"",""hori"",""left"",[0,-150],[-150,0]]",diamond,red,hori,left,"[0,-150]","[-150,0]",left,1,,,,,,001,2025-03-10_19h50.41.080,SL_sali_41,2021.2.3,Win32,100,1.56,,,103,0,103,0,1,,,,,,,,
,,"[""circle"",""green"",""hori"",""left"",[-106,106],[-150,0]]",circle,green,hori,left,"[-106,106]","[-150,0]",left,1,,,,,,001,2025-03-10_19h50.41.080,SL_sali_41,2021.2.3,Win32,100,1.27,,,104,0,104,0,1,,,,,,,,
,,"[""diamond"",""no_dis"",""hori"",""left"",[99999,99999],[106,106]]",diamond,no_dis,hori,left,"[99999,99999]","[106,106]",left,1,,,,,,001,2025-03-10_19h50.41.080,SL_sali_41,2021.2.3,Win32,100,1.301,,,105,0,105,0,1,,,,,,,,
,,"[""diamond"",""no_dis"",""hori"",""left"",[99999,99999],[-106,106]]",diamond,no_dis,hori,left,"[99999,99999]","[-106,106]",left,1,,,,,,001,2025-03-10_19h50.41.080,SL_sali_41,2021.2.3,Win32,100,1.389,,,106,0,106,0,1,,,,,,,,
,,"[""circle"",""green"",""vert"",""up"",[-150,0],[-106,106]]",circle,green,vert,up,"[-150,0]","[-106,106]",up,1,,,,,,001,2025-03-10_19h50.41.080,SL_sali_41,2021.2.3,Win32,100,1.821,,,107,0,107,0,1,,,,,,,,
,,"[""circle"",""no_dis"",""hori"",""left"",[99999,99999],[106,106]]",circle,no_dis,hori,left,"[99999,99999]","[106,106]",left,1,,,,,,001,2025-03-10_19h50.41.080,SL_sali_41,2021.2.3,Win32,100,1.153,,,108,0,108,0,1,,,,,,,,
,,"[""diamond"",""no_dis"",""vert"",""up"",[99999,99999],[0,150]]",diamond,no_dis,vert,up,"[99999,99999]","[0,150]",up,1,,,,,,001,2025-03-10_19h50.41.080,SL_sali_41,2021.2.3,Win32,100,1.212,,,109,0,109,0,1,,,,,,,,
,,"[""diamond"",""no_dis"",""vert"",""up"",[99999,99999],[0,-150]]",diamond,no_dis,vert,up,"[99999,99999]","[0,-150]",up,1,,,,,,001,2025-03-10_19h50.41.080,SL_sali_41,2021.2.3,Win32,100,1.299,,,110,0,110,0,1,,,,,,,,
,,"[""circle"",""no_dis"",""vert"",""up"",[99999,99999],[-106,-106]]",circle,no_dis,vert,up,"[99999,99999]","[-106,-106]",up,1,,,,,,001,2025-03-10_19h50.41.080,SL_sali_41,2021.2.3,Win32,100,2.091,,,111,0,111,0,1,,,,,,,,
,,"[""circle"",""green"",""hori"",""left"",[106,-106],[0,-150]]",circle,green,hori,left,"[106,-106]","[0,-150]",left,1,,,,,,001,2025-03-10_19h50.41.080,SL_sali_41,2021.2.3,Win32,100,0.99,,,112,0,112,0,1,,,,,,,,
,,"[""circle"",""no_dis"",""hori"",""left"",[99999,99999],[150,0]]",circle,no_dis,hori,left,"[99999,99999]","[150,0]",left,1,,,,,,001,2025-03-10_19h50.41.080,SL_sali_41,2021.2.3,Win32,100,0.947,,,113,0,113,0,1,,,,,,,,
,,"[""circle"",""red"",""vert"",""up"",[0,150],[-150,0]]",circle,red,vert,up,"[0,150]","[-150,0]",up,1,,,,,,001,2025-03-10_19h50.41.080,SL_sali_41,2021.2.3,Win32,100,1.31,,,114,0,114,0,1,,,,,,,,
,,"[""diamond"",""red"",""vert"",""up"",[-150,0],[150,0]]",diamond,red,vert,up,"[-150,0]","[150,0]",up,1,,,,,,001,2025-03-10_19h50.41.080,SL_sali_41,2021.2.3,Win32,100,1.271,,,115,0,115,0,1,,,,,,,,
,,"[""circle"",""green"",""vert"",""up"",[106,-106],[-106,106]]",circle,green,vert,up,"[106,-106]","[-106,106]",up,1,,,,,,001,2025-03-10_19h50.41.080,SL_sali_41,2021.2.3,Win32,100,1.388,,,116,0,116,0,1,,,,,,,,
,,"[""circle"",""no_dis"",""vert"",""up"",[99999,99999],[150,0]]",circle,no_dis,vert,up,"[99999,99999]","[150,0]",up,1,,,,,,001,2025-03-10_19h50.41.080,SL_sali_41,2021.2.3,Win32,100,1.27,,,117,0,117,0,1,,,,,,,,
,,"[""diamond"",""no_dis"",""vert"",""up"",[99999,99999],[0,-150]]",diamond,no_dis,vert,up,"[99999,99999]","[0,-150]",up,1,,,,,,001,2025-03-10_19h50.41.080,SL_sali_41,2021.2.3,Win32,100,1.499,,,118,0,118,0,1,,,,,,,,
,,"[""circle"",""no_dis"",""vert"",""up"",[99999,99999],[150,0]]",circle,no_dis,vert,up,"[99999,99999]","[150,0]",up,1,,,,,,001,2025-03-10_19h50.41.080,SL_sali_41,2021.2.3,Win32,100,1.334,,,119,0,119,0,1,,,,,,,,
,,"[""circle"",""green"",""vert"",""up"",[-150,0],[0,-150]]",circle,green,vert,up,"[-150,0]","[0,-150]",up,1,,,,,,001,2025-03-10_19h50.41.080,SL_sali_41,2021.2.3,Win32,100,1.095,,,120,0,120,0,1,,,,,,,,
,,"[""diamond"",""no_dis"",""hori"",""left"",[99999,99999],[0,-150]]",diamond,no_dis,hori,left,"[99999,99999]","[0,-150]",left,1,,,,,,001,2025-03-10_19h50.41.080,SL_sali_41,2021.2.3,Win32,100,1.302,,,121,0,121,0,1,,,,,,,,
,,"[""diamond"",""red"",""hori"",""left"",[0,-150],[-150,0]]",diamond,red,hori,left,"[0,-150]","[-150,0]",left,1,,,,,,001,2025-03-10_19h50.41.080,SL_sali_41,2021.2.3,Win32,100,1.379,,,122,0,122,0,1,,,,,,,,
,,"[""circle"",""green"",""vert"",""up"",[0,150],[106,-106]]",circle,green,vert,up,"[0,150]","[106,-106]",up,1,,,,,,001,2025-03-10_19h50.41.080,SL_sali_41,2021.2.3,Win32,100,1.365,,,123,0,123,0,1,,,,,,,,
,,"[""circle"",""red"",""hori"",""left"",[-150,0],[-106,-106]]",circle,red,hori,left,"[-150,0]","[-106,-106]",left,1,,,,,,001,2025-03-10_19h50.41.080,SL_sali_41,2021.2.3,Win32,100,1.689,,,124,0,124,0,1,,,,,,,,
,,"[""circle"",""no_dis"",""hori"",""left"",[99999,99999],[-150,0]]",circle,no_dis,hori,left,"[99999,99999]","[-150,0]",left,1,,,,,,001,2025-03-10_19h50.41.080,SL_sali_41,2021.2.3,Win32,100,1.505,,,125,0,125,0,1,,,,,,,,
,,"[""diamond"",""no_dis"",""vert"",""up"",[99999,99999],[106,106]]",diamond,no_dis,vert,up,"[99999,99999]","[106,106]",up,1,,,,,,001,2025-03-10_19h50.41.080,SL_sali_41,2021.2.3,Win32,100,1.234,,,126,0,126,0,1,,,,,,,,
,,"[""diamond"",""green"",""vert"",""up"",[0,150],[106,106]]",diamond,green,vert,up,"[0,150]","[106,106]",up,1,,,,,,001,2025-03-10_19h50.41.080,SL_sali_41,2021.2.3,Win32,100,1.11,,,127,0,127,0,1,,,,,,,,
,,,,,,,,,,,,,,,,001,2025-03-10_19h50.41.080,SL_sali_41,2021.2.3,Win32,100,,,,,,,,,2,space,13.412,1,0,1,0,1
,,"[""diamond"",""green"",""hori"",""left"",[-106,106],[0,-150]]",diamond,green,hori,left,"[-106,106]","[0,-150]",left,1,,,,,,001,2025-03-10_19h50.41.080,SL_sali_41,2021.2.3,Win32,100,1.284,,,0,0,0,0,1,,,,,,,,
,,"[""diamond"",""no_dis"",""vert"",""up"",[99999,99999],[106,106]]",diamond,no_dis,vert,up,"[99999,99999]","[106,106]",up,1,,,,,,001,2025-03-10_19h50.41.080,SL_sali_41,2021.2.3,Win32,100,1.658,,,1,0,1,0,1,,,,,,,,
,,"[""circle"",""red"",""hori"",""left"",[106,106],[0,-150]]",circle,red,hori,left,"[106,106]","[0,-150]",left,1,,,,,,001,2025-03-10_19h50.41.080,SL_sali_41,2021.2.3,Win32,100,1.839,,,2,0,2,0,1,,,,,,,,
,,"[""diamond"",""no_dis"",""vert"",""up"",[99999,99999],[0,150]]",diamond,no_dis,vert,up,"[99999,99999]","[0,150]",up,1,,,,,,001,2025-03-10_19h50.41.080,SL_sali_41,2021.2.3,Win32,100,1.003,,,3,0,3,0,1,,,,,,,,
,,"[""diamond"",""green"",""hori"",""left"",[106,-106],[-106,106]]",diamond,green,hori,left,"[106,-106]","[-106,106]",left,1,,,,,,001,2025-03-10_19h50.41.080,SL_sali_41,2021.2.3,Win32,100,1.093,,,4,0,4,0,1,,,,,,,,
,,"[""diamond"",""red"",""hori"",""left"",[0,-150],[-150,0]]",diamond,red,hori,left,"[0,-150]","[-150,0]",left,1,,,,,,001,2025-03-10_19h50.41.080,SL_sali_41,2021.2.3,Win32,100,1.278,,,5,0,5,0,1,,,,,,,,
,,"[""circle"",""no_dis"",""hori"",""left"",[99999,99999],[106,106]]",circle,no_dis,hori,left,"[99999,99999]","[106,106]",left,1,,,,,,001,2025-03-10_19h50.41.080,SL_sali_41,2021.2.3,Win32,100,0.978,,,6,0,6,0,1,,,,,,,,
,,"[""circle"",""green"",""hori"",""left"",[-150,0],[-106,106]]",circle,green,hori,left,"[-150,0]","[-106,106]",left,1,,,,,,001,2025-03-10_19h50.41.080,SL_sali_41,2021.2.3,Win32,100,1.052,,,7,0,7,0,1,,,,,,,,
,,"[""diamond"",""green"",""vert"",""up"",[-150,0],[0,150]]",diamond,green,vert,up,"[-150,0]","[0,150]",up,1,,,,,,001,2025-03-10_19h50.41.080,SL_sali_41,2021.2.3,Win32,100,1.159,,,8,0,8,0,1,,,,,,,,
,,"[""diamond"",""red"",""vert"",""up"",[-150,0],[106,-106]]",diamond,red,vert,up,"[-150,0]","[106,-106]",up,1,,,,,,001,2025-03-10_19h50.41.080,SL_sali_41,2021.2.3,Win32,100,1.298,,,9,0,9,0,1,,,,,,,,
,,"[""circle"",""green"",""hori"",""left"",[-150,0],[106,-106]]",circle,green,hori,left,"[-150,0]","[106,-106]",left,1,,,,,,001,2025-03-10_19h50.41.080,SL_sali_41,2021.2.3,Win32,100,1.045,,,10,0,10,0,1,,,,,,,,
,,"[""diamond"",""green"",""vert"",""up"",[0,150],[106,106]]",diamond,green,vert,up,"[0,150]","[106,106]",up,1,,,,,,001,2025-03-10_19h50.41.080,SL_sali_41,2021.2.3,Win32,100,1.29,,,11,0,11,0,1,,,,,,,,
,,"[""circle"",""red"",""hori"",""left"",[-150,0],[-106,-106]]",circle,red,hori,left,"[-150,0]","[-106,-106]",left,1,,,,,,001,2025-03-10_19h50.41.080,SL_sali_41,2021.2.3,Win32,100,1.672,,,12,0,12,0,1,,,,,,,,
,,"[""diamond"",""green"",""hori"",""left"",[150,0],[-106,-106]]",diamond,green,hori,left,"[150,0]","[-106,-106]",left,1,,,,,,001,2025-03-10_19h50.41.080,SL_sali_41,2021.2.3,Win32,100,1.573,,,13,0,13,0,1,,,,,,,,
,,"[""diamond"",""no_dis"",""vert"",""up"",[99999,99999],[0,-150]]",diamond,no_dis,vert,up,"[99999,99999]","[0,-150]",up,1,,,,,,001,2025-03-10_19h50.41.080,SL_sali_41,2021.2.3,Win32,100,1.37,,,14,0,14,0,1,,,,,,,,
,,"[""circle"",""no_dis"",""hori"",""left"",[99999,99999],[0,150]]",circle,no_dis,hori,left,"[99999,99999]","[0,150]",left,1,,,,,,001,2025-03-10_19h50.41.080,SL_sali_41,2021.2.3,Win32,100,1.46,,,15,0,15,0,1,,,,,,,,
,,"[""diamond"",""no_dis"",""hori"",""left"",[99999,99999],[-150,0]]",diamond,no_dis,hori,left,"[99999,99999]","[-150,0]",left,1,,,,,,001,2025-03-10_19h50.41.080,SL_sali_41,2021.2.3,Win32,100,1.605,,,16,0,16,0,1,,,,,,,,
,,"[""diamond"",""green"",""vert"",""up"",[-150,0],[150,0]]",diamond,green,vert,up,"[-150,0]","[150,0]",up,1,,,,,,001,2025-03-10_19h50.41.080,SL_sali_41,2021.2.3,Win32,100,1.172,,,17,0,17,0,1,,,,,,,,
,,"[""diamond"",""red"",""vert"",""up"",[106,106],[106,-106]]",diamond,red,vert,up,"[106,106]","[106,-106]",up,1,,,,,,001,2025-03-10_19h50.41.080,SL_sali_41,2021.2.3,Win32,100,1.02,,,18,0,18,0,1,,,,,,,,
,,"[""circle"",""red"",""vert"",""up"",[106,106],[-106,106]]",circle,red,vert,up,"[106,106]","[-106,106]",up,1,,,,,,001,2025-03-10_19h50.41.080,SL_sali_41,2021.2.3,Win32,100,1.471,,,19,0,19,0,1,,,,,,,,
,,"[""circle"",""green"",""vert"",""up"",[-150,0],[150,0]]",circle,green,vert,up,"[-150,0]","[150,0]",up,1,,,,,,001,2025-03-10_19h50.41.080,SL_sali_41,2021.2.3,Win32,100,1.055,,,20,0,20,0,1,,,,,,,,
,,"[""circle"",""red"",""vert"",""up"",[0,150],[-150,0]]",circle,red,vert,up,"[0,150]","[-150,0]",up,1,,,,,,001,2025-03-10_19h50.41.080,SL_sali_41,2021.2.3,Win32,100,1.32,,,21,0,21,0,1,,,,,,,,
,,"[""diamond"",""no_dis"",""vert"",""up"",[99999,99999],[-106,-106]]",diamond,no_dis,vert,up,"[99999,99999]","[-106,-106]",up,1,,,,,,001,2025-03-10_19h50.41.080,SL_sali_41,2021.2.3,Win32,100,1.902,,,22,0,22,0,1,,,,,,,,
,,"[""diamond"",""green"",""hori"",""left"",[0,-150],[-150,0]]",diamond,green,hori,left,"[0,-150]","[-150,0]",left,1,,,,,,001,2025-03-10_19h50.41.080,SL_sali_41,2021.2.3,Win32,100,1.4,,,23,0,23,0,1,,,,,,,,
,,"[""diamond"",""green"",""hori"",""left"",[106,106],[-106,-106]]",diamond,green,hori,left,"[106,106]","[-106,-106]",left,1,,,,,,001,2025-03-10_19h50.41.080,SL_sali_41,2021.2.3,Win32,100,1.53,,,24,0,24,0,1,,,,,,,,
,,"[""circle"",""red"",""hori"",""left"",[-106,-106],[106,106]]",circle,red,hori,left,"[-106,-106]","[106,106]",left,1,,,,,,001,2025-03-10_19h50.41.080,SL_sali_41,2021.2.3,Win32,100,1.548,,,25,0,25,0,1,,,,,,,,
,,"[""diamond"",""green"",""vert"",""up"",[-150,0],[-106,106]]",diamond,green,vert,up,"[-150,0]","[-106,106]",up,1,,,,,,001,2025-03-10_19h50.41.080,SL_sali_41,2021.2.3,Win32,100,1.513,,,26,0,26,0,1,,,,,,,,
,,"[""circle"",""green"",""vert"",""up"",[-150,0],[0,150]]",circle,green,vert,up,"[-150,0]","[0,150]",up,1,,,,,,001,2025-03-10_19h50.41.080,SL_sali_41,2021.2.3,Win32,100,1.41,,,27,0,27,0,1,,,,,,,,
,,"[""diamond"",""no_dis"",""hori"",""left"",[99999,99999],[106,106]]",diamond,no_dis,hori,left,"[99999,99999]","[106,106]",left,1,,,,,,001,2025-03-10_19h50.41.080,SL_sali_41,2021.2.3,Win32,100,1.933,,,28,0,28,0,1,,,,,,,,
,,"[""diamond"",""red"",""vert"",""up"",[-150,0],[-106,106]]",diamond,red,vert,up,"[-150,0]","[-106,106]",up,1,,,,,,001,2025-03-10_19h50.41.080,SL_sali_41,2021.2.3,Win32,100,1.47,,,29,0,29,0,1,,,,,,,,
,,"[""diamond"",""no_dis"",""hori"",""left"",[99999,99999],[0,-150]]",diamond,no_dis,hori,left,"[99999,99999]","[0,-150]",left,1,,,,,,001,2025-03-10_19h50.41.080,SL_sali_41,2021.2.3,Win32,100,1.212,,,30,0,30,0,1,,,,,,,,
,,"[""circle"",""no_dis"",""vert"",""up"",[99999,99999],[0,150]]",circle,no_dis,vert,up,"[99999,99999]","[0,150]",up,1,,,,,,001,2025-03-10_19h50.41.080,SL_sali_41,2021.2.3,Win32,100,1.37,,,31,0,31,0,1,,,,,,,,
,,"[""circle"",""red"",""hori"",""left"",[-150,0],[150,0]]",circle,red,hori,left,"[-150,0]","[150,0]",left,1,,,,,,001,2025-03-10_19h50.41.080,SL_sali_41,2021.2.3,Win32,100,0.923,,,32,0,32,0,1,,,,,,,,
,,"[""diamond"",""red"",""hori"",""left"",[0,-150],[-150,0]]",diamond,red,hori,left,"[0,-150]","[-150,0]",left,1,,,,,,001,2025-03-10_19h50.41.080,SL_sali_41,2021.2.3,Win32,100,1.602,,,33,0,33,0,1,,,,,,,,
,,"[""circle"",""green"",""hori"",""left"",[-150,0],[0,150]]",circle,green,hori,left,"[-150,0]","[0,150]",left,1,,,,,,001,2025-03-10_19h50.41.080,SL_sali_41,2021.2.3,Win32,100,1.199,,,34,0,34,0,1,,,,,,,,
,,"[""circle"",""no_dis"",""vert"",""up"",[99999,99999],[-106,106]]",circle,no_dis,vert,up,"[99999,99999]","[-106,106]",up,1,,,,,,001,2025-03-10_19h50.41.080,SL_sali_41,2021.2.3,Win32,100,1.889,,,35,0,35,0,1,,,,,,,,
,,"[""circle"",""green"",""hori"",""left"",[-106,106],[-150,0]]",circle,green,hori,left,"[-106,106]","[-150,0]",left,1,,,,,,001,2025-03-10_19h50.41.080,SL_sali_41,2021.2.3,Win32,100,1.264,,,36,0,36,0,1,,,,,,,,
,,"[""diamond"",""green"",""vert"",""up"",[106,106],[106,-106]]",diamond,green,vert,up,"[106,106]","[106,-106]",up,1,,,,,,001,2025-03-10_19h50.41.080,SL_sali_41,2021.2.3,Win32,100,0.981,,,37,0,37,0,1,,,,,,,,
,,"[""circle"",""green"",""vert"",""up"",[106,-106],[-106,106]]",circle,green,vert,up,"[106,-106]","[-106,106]",up,1,,,,,,001,2025-03-10_19h50.41.080,SL_sali_41,2021.2.3,Win32,100,1.505,,,38,0,38,0,1,,,,,,,,
,,"[""diamond"",""red"",""hori"",""left"",[-106,106],[106,-106]]",diamond,red,hori,left,"[-106,106]","[106,-106]",left,1,,,,,,001,2025-03-10_19h50.41.080,SL_sali_41,2021.2.3,Win32,100,0.914,,,39,0,39,0,1,,,,,,,,
,,"[""circle"",""red"",""hori"",""left"",[106,-106],[-106,-106]]",circle,red,hori,left,"[106,-106]","[-106,-106]",left,1,,,,,,001,2025-03-10_19h50.41.080,SL_sali_41,2021.2.3,Win32,100,1.426,,,40,0,40,0,1,,,,,,,,
,,"[""diamond"",""green"",""hori"",""left"",[0,150],[-106,106]]",diamond,green,hori,left,"[0,150]","[-106,106]",left,1,,,,,,001,2025-03-10_19h50.41.080,SL_sali_41,2021.2.3,Win32,100,1.42,,,41,0,41,0,1,,,,,,,,
,,"[""diamond"",""no_dis"",""hori"",""left"",[99999,99999],[-106,106]]",diamond,no_dis,hori,left,"[99999,99999]","[-106,106]",left,1,,,,,,001,2025-03-10_19h50.41.080,SL_sali_41,2021.2.3,Win32,100,1.279,,,42,0,42,0,1,,,,,,,,
,,"[""diamond"",""no_dis"",""hori"",""left"",[99999,99999],[0,-150]]",diamond,no_dis,hori,left,"[99999,99999]","[0,-150]",left,1,,,,,,001,2025-03-10_19h50.41.080,SL_sali_41,2021.2.3,Win32,100,1.258,,,43,0,43,0,1,,,,,,,,
,,"[""circle"",""green"",""hori"",""left"",[0,150],[106,-106]]",circle,green,hori,left,"[0,150]","[106,-106]",left,1,,,,,,001,2025-03-10_19h50.41.080,SL_sali_41,2021.2.3,Win32,100,1.28,,,44,0,44,0,1,,,,,,,,
,,"[""diamond"",""no_dis"",""vert"",""up"",[99999,99999],[0,-150]]",diamond,no_dis,vert,up,"[99999,99999]","[0,-150]",up,1,,,,,,001,2025-03-10_19h50.41.080,SL_sali_41,2021.2.3,Win32,100,1.092,,,45,0,45,0,1,,,,,,,,
,,"[""diamond"",""red"",""vert"",""up"",[-150,0],[-106,106]]",diamond,red,vert,up,"[-150,0]","[-106,106]",up,1,,,,,,001,2025-03-10_19h50.41.080,SL_sali_41,2021.2.3,Win32,100,1.369,,,46,0,46,0,1,,,,,,,,
,,"[""diamond"",""no_dis"",""vert"",""up"",[99999,99999],[-106,106]]",diamond,no_dis,vert,up,"[99999,99999]","[-106,106]",up,1,,,,,,001,2025-03-10_19h50.41.080,SL_sali_41,2021.2.3,Win32,100,1.352,,,47,0,47,0,1,,,,,,,,
,,"[""circle"",""green"",""vert"",""up"",[106,-106],[106,106]]",circle,green,vert,up,"[106,-106]","[106,106]",up,1,,,,,,001,2025-03-10_19h50.41.080,SL_sali_41,2021.2.3,Win32,100,1.414,,,48,0,48,0,1,,,,,,,,
,,"[""circle"",""red"",""hori"",""left"",[0,-150],[106,106]]",circle,red,hori,left,"[0,-150]","[106,106]",left,1,,,,,,001,2025-03-10_19h50.41.080,SL_sali_41,2021.2.3,Win32,100,1.226,,,49,0,49,0,1,,,,,,,,
,,"[""diamond"",""no_dis"",""hori"",""left"",[99999,99999],[0,150]]",diamond,no_dis,hori,left,"[99999,99999]","[0,150]",left,1,,,,,,001,2025-03-10_19h50.41.080,SL_sali_41,2021.2.3,Win32,100,1.562,,,50,0,50,0,1,,,,,,,,
,,"[""circle"",""red"",""vert"",""up"",[0,150],[-150,0]]",circle,red,vert,up,"[0,150]","[-150,0]",up,1,,,,,,001,2025-03-10_19h50.41.080,SL_sali_41,2021.2.3,Win32,100,1.34,,,51,0,51,0,1,,,,,,,,
,,"[""circle"",""no_dis"",""hori"",""left"",[99999,99999],[-106,-106]]",circle,no_dis,hori,left,"[99999,99999]","[-106,-106]",left,1,,,,,,001,2025-03-10_19h50.41.080,SL_sali_41,2021.2.3,Win32,100,2.06,,,52,0,52,0,1,,,,,,,,
,,"[""circle"",""green"",""vert"",""up"",[-106,-106],[-150,0]]",circle,green,vert,up,"[-106,-106]","[-150,0]",up,1,,,,,,001,2025-03-10_19h50.41.080,SL_sali_41,2021.2.3,Win32,100,1.66,,,53,0,53,0,1,,,,,,,,
,,"[""diamond"",""red"",""vert"",""up"",[0,-150],[-150,0]]",diamond,red,vert,up,"[0,-150]","[-150,0]",up,1,,,,,,001,2025-03-10_19h50.41.080,SL_sali_41,2021.2.3,Win32,100,1.332,,,54,0,54,0,1,,,,,,,,
,,"[""circle"",""green"",""hori"",""left"",[150,0],[106,-106]]",circle,green,hori,left,"[150,0]","[106,-106]",left,1,,,,,,001,2025-03-10_19h50.41.080,SL_sali_41,2021.2.3,Win32,100,1.01,,,55,0,55,0,1,,,,,,,,
,,"[""diamond"",""red"",""hori"",""left"",[-150,0],[150,0]]",diamond,red,hori,left,"[-150,0]","[150,0]",left,1,,,,,,001,2025-03-10_19h50.41.080,SL_sali_41,2021.2.3,Win32,100,1.28,,,56,0,56,0,1,,,,,,,,
,,"[""diamond"",""red"",""vert"",""up"",[106,-106],[-106,106]]",diamond,red,vert,up,"[106,-106]","[-106,106]",up,1,,,,,,001,2025-03-10_19h50.41.080,SL_sali_41,2021.2.3,Win32,100,1.201,,,57,0,57,0,1,,,,,,,,
,,"[""circle"",""green"",""hori"",""left"",[-150,0],[-106,-106]]",circle,green,hori,left,"[-150,0]","[-106,-106]",left,1,,,,,,001,2025-03-10_19h50.41.080,SL_sali_41,2021.2.3,Win32,100,1.18,,,58,0,58,0,1,,,,,,,,
,,"[""circle"",""green"",""hori"",""left"",[106,-106],[0,-150]]",circle,green,hori,left,"[106,-106]","[0,-150]",left,1,,,,,,001,2025-03-10_19h50.41.080,SL_sali_41,2021.2.3,Win32,100,1.56,,,59,0,59,0,1,,,,,,,,
,,"[""circle"",""no_dis"",""vert"",""up"",[99999,99999],[-106,-106]]",circle,no_dis,vert,up,"[99999,99999]","[-106,-106]",up,1,,,,,,001,2025-03-10_19h50.41.080,SL_sali_41,2021.2.3,Win32,100,1.8,,,60,0,60,0,1,,,,,,,,
,,"[""circle"",""red"",""hori"",""left"",[-150,0],[106,-106]]",circle,red,hori,left,"[-150,0]","[106,-106]",left,1,,,,,,001,2025-03-10_19h50.41.080,SL_sali_41,2021.2.3,Win32,100,1.115,,,61,0,61,0,1,,,,,,,,
,,"[""diamond"",""red"",""hori"",""left"",[150,0],[-150,0]]",diamond,red,hori,left,"[150,0]","[-150,0]",left,1,,,,,,001,2025-03-10_19h50.41.080,SL_sali_41,2021.2.3,Win32,100,1.283,,,62,0,62,0,1,,,,,,,,
,,"[""diamond"",""no_dis"",""hori"",""left"",[99999,99999],[-106,106]]",diamond,no_dis,hori,left,"[99999,99999]","[-106,106]",left,1,,,,,,001,2025-03-10_19h50.41.080,SL_sali_41,2021.2.3,Win32,100,0.94,,,63,0,63,0,1,,,,,,,,
,,"[""diamond"",""red"",""vert"",""up"",[-150,0],[150,0]]",diamond,red,vert,up,"[-150,0]","[150,0]",up,1,,,,,,001,2025-03-10_19h50.41.080,SL_sali_41,2021.2.3,Win32,100,0.899,,,64,0,64,0,1,,,,,,,,
,,"[""circle"",""no_dis"",""hori"",""left"",[99999,99999],[150,0]]",circle,no_dis,hori,left,"[99999,99999]","[150,0]",left,1,,,,,,001,2025-03-10_19h50.41.080,SL_sali_41,2021.2.3,Win32,100,1.15,,,65,0,65,0,1,,,,,,,,
,,"[""diamond"",""green"",""vert"",""up"",[0,-150],[106,-106]]",diamond,green,vert,up,"[0,-150]","[106,-106]",up,1,,,,,,001,2025-03-10_19h50.41.080,SL_sali_41,2021.2.3,Win32,100,0.89,,,66,0,66,0,1,,,,,,,,
,,"[""circle"",""no_dis"",""hori"",""left"",[99999,99999],[106,-106]]",circle,no_dis,hori,left,"[99999,99999]","[106,-106]",left,1,,,,,,001,2025-03-10_19h50.41.080,SL_sali_41,2021.2.3,Win32,100,0.935,,,67,0,67,0,1,,,,,,,,
,,"[""circle"",""no_dis"",""hori"",""left"",[99999,99999],[-150,0]]",circle,no_dis,hori,left,"[99999,99999]","[-150,0]",left,1,,,,,,001,2025-03-10_19h50.41.080,SL_sali_41,2021.2.3,Win32,100,0.82,,,68,0,68,0,1,,,,,,,,
,,"[""circle"",""red"",""vert"",""up"",[106,106],[106,-106]]",circle,red,vert,up,"[106,106]","[106,-106]",up,1,,,,,,001,2025-03-10_19h50.41.080,SL_sali_41,2021.2.3,Win32,100,1.65,,,69,0,69,0,1,,,,,,,,
,,"[""circle"",""no_dis"",""vert"",""up"",[99999,99999],[-150,0]]",circle,no_dis,vert,up,"[99999,99999]","[-150,0]",up,1,,,,,,001,2025-03-10_19h50.41.080,SL_sali_41,2021.2.3,Win32,100,0.991,,,70,0,70,0,1,,,,,,,,
,,"[""circle"",""red"",""vert"",""up"",[106,106],[-106,106]]",circle,red,vert,up,"[106,106]","[-106,106]",up,1,,,,,,001,2025-03-10_19h50.41.080,SL_sali_41,2021.2.3,Win32,100,0.879,,,71,0,71,0,1,,,,,,,,
,,"[""diamond"",""red"",""vert"",""up"",[-150,0],[0,-150]]",diamond,red,vert,up,"[-150,0]","[0,-150]",up,1,,,,,,001,2025-03-10_19h50.41.080,SL_sali_41,2021.2.3,Win32,100,1.164,,,72,0,72,0,1,,,,,,,,
,,"[""diamond"",""green"",""hori"",""left"",[-106,-106],[0,150]]",diamond,green,hori,left,"[-106,-106]","[0,150]",left,1,,,,,,001,2025-03-10_19h50.41.080,SL_sali_41,2021.2.3,Win32,100,1.09,,,73,0,73,0,1,,,,,,,,
,,"[""circle"",""red"",""vert"",""up"",[150,0],[0,-150]]",circle,red,vert,up,"[150,0]","[0,-150]",up,1,,,,,,001,2025-03-10_19h50.41.080,SL_sali_41,2021.2.3,Win32,100,1.38,,,74,0,74,0,1,,,,,,,,
,,"[""diamond"",""green"",""vert"",""up"",[-106,106],[-150,0]]",diamond,green,vert,up,"[-106,106]","[-150,0]",up,1,,,,,,001,2025-03-10_19h50.41.080,SL_sali_41,2021.2.3,Win32,100,1.222,,,75,0,75,0,1,,,,,,,,
,,"[""diamond"",""green"",""hori"",""left"",[-150,0],[150,0]]",diamond,green,hori,left,"[-150,0]","[150,0]",left,1,,,,,,001,2025-03-10_19h50.41.080,SL_sali_41,2021.2.3,Win32,100,1.179,,,76,0,76,0,1,,,,,,,,
,,"[""circle"",""red"",""vert"",""up"",[-150,0],[106,-106]]",circle,red,vert,up,"[-150,0]","[106,-106]",up,1,,,,,,001,2025-03-10_19h50.41.080,SL_sali_41,2021.2.3,Win32,100,1.2,,,77,0,77,0,1,,,,,,,,
,,"[""diamond"",""red"",""hori"",""left"",[-150,0],[-106,106]]",diamond,red,hori,left,"[-150,0]","[-106,106]",left,1,,,,,,001,2025-03-10_19h50.41.080,SL_sali_41,2021.2.3,Win32,100,1.539,,,78,0,78,0,1,,,,,,,,
,,"[""circle"",""red"",""hori"",""left"",[150,0],[106,-106]]",circle,red,hori,left,"[150,0]","[106,-106]",up,0,,,,,,001,2025-03-10_19h50.41.080,SL_sali_41,2021.2.3,Win32,100,1.011,,,79,0,79,0,1,,,,,,,,
,,"[""circle"",""red"",""vert"",""up"",[-150,0],[150,0]]",circle,red,vert,up,"[-150,0]","[150,0]",up,1,,,,,,001,2025-03-10_19h50.41.080,SL_sali_41,2021.2.3,Win32,100,1.175,,,80,0,80,0,1,,,,,,,,
,,"[""circle"",""green"",""hori"",""left"",[-106,-106],[-150,0]]",circle,green,hori,left,"[-106,-106]","[-150,0]",left,1,,,,,,001,2025-03-10_19h50.41.080,SL_sali_41,2021.2.3,Win32,100,1.736,,,81,0,81,0,1,,,,,,,,
,,"[""diamond"",""red"",""vert"",""up"",[106,-106],[0,-150]]",diamond,red,vert,up,"[106,-106]","[0,-150]",up,1,,,,,,001,2025-03-10_19h50.41.080,SL_sali_41,2021.2.3,Win32,100,1.91,,,82,0,82,0,1,,,,,,,,
,,"[""circle"",""red"",""vert"",""up"",[-106,-106],[150,0]]",circle,red,vert,up,"[-106,-106]","[150,0]",up,1,,,,,,001,2025-03-10_19h50.41.080,SL_sali_41,2021.2.3,Win32,100,1.175,,,83,0,83,0,1,,,,,,,,
,,"[""circle"",""green"",""vert"",""up"",[-150,0],[-106,106]]",circle,green,vert,up,"[-150,0]","[-106,106]",up,1,,,,,,001,2025-03-10_19h50.41.080,SL_sali_41,2021.2.3,Win32,100,1.119,,,84,0,84,0,1,,,,,,,,
,,"[""circle"",""green"",""vert"",""up"",[0,150],[106,-106]]",circle,green,vert,up,"[0,150]","[106,-106]",up,1,,,,,,001,2025-03-10_19h50.41.080,SL_sali_41,2021.2.3,Win32,100,1.064,,,85,0,85,0,1,,,,,,,,
,,"[""diamond"",""no_dis"",""vert"",""up"",[99999,99999],[0,-150]]",diamond,no_dis,vert,up,"[99999,99999]","[0,-150]",up,1,,,,,,001,2025-03-10_19h50.41.080,SL_sali_41,2021.2.3,Win32,100,0.939,,,86,0,86,0,1,,,,,,,,
,,"[""diamond"",""green"",""vert"",""up"",[-150,0],[106,106]]",diamond,green,vert,up,"[-150,0]","[106,106]",up,1,,,,,,001,2025-03-10_19h50.41.080,SL_sali_41,2021.2.3,Win32,100,1.122,,,87,0,87,0,1,,,,,,,,
,,"[""diamond"",""no_dis"",""vert"",""up"",[99999,99999],[-150,0]]",diamond,no_dis,vert,up,"[99999,99999]","[-150,0]",up,1,,,,,,001,2025-03-10_19h50.41.080,SL_sali_41,2021.2.3,Win32,100,1.271,,,88,0,88,0,1,,,,,,,,
,,"[""circle"",""no_dis"",""vert"",""up"",[99999,99999],[-106,-106]]",circle,no_dis,vert,up,"[99999,99999]","[-106,-106]",up,1,,,,,,001,2025-03-10_19h50.41.080,SL_sali_41,2021.2.3,Win32,100,1.471,,,89,0,89,0,1,,,,,,,,
,,"[""diamond"",""red"",""hori"",""left"",[106,106],[-106,-106]]",diamond,red,hori,left,"[106,106]","[-106,-106]",left,1,,,,,,001,2025-03-10_19h50.41.080,SL_sali_41,2021.2.3,Win32,100,1.303,,,90,0,90,0,1,,,,,,,,
,,"[""diamond"",""no_dis"",""vert"",""up"",[99999,99999],[150,0]]",diamond,no_dis,vert,up,"[99999,99999]","[150,0]",up,1,,,,,,001,2025-03-10_19h50.41.080,SL_sali_41,2021.2.3,Win32,100,0.994,,,91,0,91,0,1,,,,,,,,
,,"[""diamond"",""red"",""hori"",""left"",[-106,106],[0,150]]",diamond,red,hori,left,"[-106,106]","[0,150]",left,1,,,,,,001,2025-03-10_19h50.41.080,SL_sali_41,2021.2.3,Win32,100,1.182,,,92,0,92,0,1,,,,,,,,
,,"[""diamond"",""no_dis"",""hori"",""left"",[99999,99999],[-106,-106]]",diamond,no_dis,hori,left,"[99999,99999]","[-106,-106]",left,1,,,,,,001,2025-03-10_19h50.41.080,SL_sali_41,2021.2.3,Win32,100,2.155,,,93,0,93,0,1,,,,,,,,
,,"[""circle"",""red"",""hori"",""left"",[-106,-106],[150,0]]",circle,red,hori,left,"[-106,-106]","[150,0]",left,1,,,,,,001,2025-03-10_19h50.41.080,SL_sali_41,2021.2.3,Win32,100,1.755,,,94,0,94,0,1,,,,,,,,
,,"[""circle"",""no_dis"",""vert"",""up"",[99999,99999],[150,0]]",circle,no_dis,vert,up,"[99999,99999]","[150,0]",up,1,,,,,,001,2025-03-10_19h50.41.080,SL_sali_41,2021.2.3,Win32,100,0.874,,,95,0,95,0,1,,,,,,,,
,,"[""circle"",""no_dis"",""vert"",""up"",[99999,99999],[106,-106]]",circle,no_dis,vert,up,"[99999,99999]","[106,-106]",up,1,,,,,,001,2025-03-10_19h50.41.080,SL_sali_41,2021.2.3,Win32,100,1.314,,,96,0,96,0,1,,,,,,,,
,,"[""circle"",""red"",""hori"",""left"",[0,150],[106,-106]]",circle,red,hori,left,"[0,150]","[106,-106]",left,1,,,,,,001,2025-03-10_19h50.41.080,SL_sali_41,2021.2.3,Win32,100,1.462,,,97,0,97,0,1,,,,,,,,
,,"[""circle"",""green"",""vert"",""up"",[150,0],[-106,106]]",circle,green,vert,up,"[150,0]","[-106,106]",up,1,,,,,,001,2025-03-10_19h50.41.080,SL_sali_41,2021.2.3,Win32,100,1.269,,,98,0,98,0,1,,,,,,,,
,,"[""diamond"",""green"",""vert"",""up"",[-106,106],[-106,-106]]",diamond,green,vert,up,"[-106,106]","[-106,-106]",up,1,,,,,,001,2025-03-10_19h50.41.080,SL_sali_41,2021.2.3,Win32,100,1.158,,,99,0,99,0,1,,,,,,,,
,,"[""diamond"",""green"",""vert"",""up"",[106,-106],[150,0]]",diamond,green,vert,up,"[106,-106]","[150,0]",up,1,,,,,,001,2025-03-10_19h50.41.080,SL_sali_41,2021.2.3,Win32,100,0.99,,,100,0,100,0,1,,,,,,,,
,,"[""diamond"",""red"",""vert"",""up"",[-106,-106],[0,-150]]",diamond,red,vert,up,"[-106,-106]","[0,-150]",up,1,,,,,,001,2025-03-10_19h50.41.080,SL_sali_41,2021.2.3,Win32,100,1.272,,,101,0,101,0,1,,,,,,,,
,,"[""circle"",""no_dis"",""hori"",""left"",[99999,99999],[0,150]]",circle,no_dis,hori,left,"[99999,99999]","[0,150]",left,1,,,,,,001,2025-03-10_19h50.41.080,SL_sali_41,2021.2.3,Win32,100,1.277,,,102,0,102,0,1,,,,,,,,
,,"[""diamond"",""green"",""hori"",""left"",[150,0],[0,150]]",diamond,green,hori,left,"[150,0]","[0,150]",left,1,,,,,,001,2025-03-10_19h50.41.080,SL_sali_41,2021.2.3,Win32,100,1.102,,,103,0,103,0,1,,,,,,,,
,,"[""circle"",""green"",""vert"",""up"",[150,0],[-106,106]]",circle,green,vert,up,"[150,0]","[-106,106]",up,1,,,,,,001,2025-03-10_19h50.41.080,SL_sali_41,2021.2.3,Win32,100,1.252,,,104,0,104,0,1,,,,,,,,
,,"[""circle"",""red"",""vert"",""up"",[-106,106],[0,-150]]",circle,red,vert,up,"[-106,106]","[0,-150]",up,1,,,,,,001,2025-03-10_19h50.41.080,SL_sali_41,2021.2.3,Win32,100,1.14,,,105,0,105,0,1,,,,,,,,
,,"[""diamond"",""green"",""hori"",""left"",[-150,0],[106,-106]]",diamond,green,hori,left,"[-150,0]","[106,-106]",left,1,,,,,,001,2025-03-10_19h50.41.080,SL_sali_41,2021.2.3,Win32,100,0.87,,,106,0,106,0,1,,,,,,,,
,,"[""circle"",""green"",""hori"",""left"",[-150,0],[150,0]]",circle,green,hori,left,"[-150,0]","[150,0]",left,1,,,,,,001,2025-03-10_19h50.41.080,SL_sali_41,2021.2.3,Win32,100,1.165,,,107,0,107,0,1,,,,,,,,
,,"[""diamond"",""red"",""hori"",""left"",[-150,0],[0,-150]]",diamond,red,hori,left,"[-150,0]","[0,-150]",left,1,,,,,,001,2025-03-10_19h50.41.080,SL_sali_41,2021.2.3,Win32,100,1.03,,,108,0,108,0,1,,,,,,,,
,,"[""diamond"",""no_dis"",""hori"",""left"",[99999,99999],[106,-106]]",diamond,no_dis,hori,left,"[99999,99999]","[106,-106]",left,1,,,,,,001,2025-03-10_19h50.41.080,SL_sali_41,2021.2.3,Win32,100,1.121,,,109,0,109,0,1,,,,,,,,
,,"[""circle"",""no_dis"",""hori"",""left"",[99999,99999],[106,106]]",circle,no_dis,hori,left,"[99999,99999]","[106,106]",left,1,,,,,,001,2025-03-10_19h50.41.080,SL_sali_41,2021.2.3,Win32,100,1.119,,,110,0,110,0,1,,,,,,,,
,,"[""diamond"",""green"",""hori"",""left"",[-106,-106],[0,-150]]",diamond,green,hori,left,"[-106,-106]","[0,-150]",left,1,,,,,,001,2025-03-10_19h50.41.080,SL_sali_41,2021.2.3,Win32,100,1.92,,,111,0,111,0,1,,,,,,,,
,,"[""circle"",""green"",""hori"",""left"",[-150,0],[0,-150]]",circle,green,hori,left,"[-150,0]","[0,-150]",left,1,,,,,,001,2025-03-10_19h50.41.080,SL_sali_41,2021.2.3,Win32,100,2.279,,,112,0,112,0,1,,,,,,,,
,,"[""diamond"",""no_dis"",""vert"",""up"",[99999,99999],[106,106]]",diamond,no_dis,vert,up,"[99999,99999]","[106,106]",up,1,,,,,,001,2025-03-10_19h50.41.080,SL_sali_41,2021.2.3,Win32,100,1.649,,,113,0,113,0,1,,,,,,,,
,,"[""circle"",""no_dis"",""hori"",""left"",[99999,99999],[-106,106]]",circle,no_dis,hori,left,"[99999,99999]","[-106,106]",left,1,,,,,,001,2025-03-10_19h50.41.080,SL_sali_41,2021.2.3,Win32,100,1.223,,,114,0,114,0,1,,,,,,,,
,,"[""circle"",""no_dis"",""hori"",""left"",[99999,99999],[150,0]]",circle,no_dis,hori,left,"[99999,99999]","[150,0]",left,1,,,,,,001,2025-03-10_19h50.41.080,SL_sali_41,2021.2.3,Win32,100,1.062,,,115,0,115,0,1,,,,,,,,
,,"[""diamond"",""red"",""hori"",""left"",[-150,0],[0,-150]]",diamond,red,hori,left,"[-150,0]","[0,-150]",left,1,,,,,,001,2025-03-10_19h50.41.080,SL_sali_41,2021.2.3,Win32,100,1.4,,,116,0,116,0,1,,,,,,,,
,,"[""circle"",""no_dis"",""vert"",""up"",[99999,99999],[106,-106]]",circle,no_dis,vert,up,"[99999,99999]","[106,-106]",up,1,,,,,,001,2025-03-10_19h50.41.080,SL_sali_41,2021.2.3,Win32,100,1.11,,,117,0,117,0,1,,,,,,,,
,,"[""diamond"",""green"",""vert"",""up"",[0,150],[106,106]]",diamond,green,vert,up,"[0,150]","[106,106]",up,1,,,,,,001,2025-03-10_19h50.41.080,SL_sali_41,2021.2.3,Win32,100,1.42,,,118,0,118,0,1,,,,,,,,
,,"[""circle"",""red"",""vert"",""up"",[0,-150],[-150,0]]",circle,red,vert,up,"[0,-150]","[-150,0]",up,1,,,,,,001,2025-03-10_19h50.41.080,SL_sali_41,2021.2.3,Win32,100,1.335,,,119,0,119,0,1,,,,,,,,
,,"[""circle"",""no_dis"",""vert"",""up"",[99999,99999],[106,-106]]",circle,no_dis,vert,up,"[99999,99999]","[106,-106]",up,1,,,,,,001,2025-03-10_19h50.41.080,SL_sali_41,2021.2.3,Win32,100,1.022,,,120,0,120,0,1,,,,,,,,
,,"[""diamond"",""red"",""hori"",""left"",[0,-150],[-106,106]]",diamond,red,hori,left,"[0,-150]","[-106,106]",left,1,,,,,,001,2025-03-10_19h50.41.080,SL_sali_41,2021.2.3,Win32,100,1.732,,,121,0,121,0,1,,,,,,,,
,,"[""diamond"",""no_dis"",""hori"",""left"",[99999,99999],[-150,0]]",diamond,no_dis,hori,left,"[99999,99999]","[-150,0]",left,1,,,,,,001,2025-03-10_19h50.41.080,SL_sali_41,2021.2.3,Win32,100,0.89,,,122,0,122,0,1,,,,,,,,
,,"[""diamond"",""red"",""vert"",""up"",[-150,0],[150,0]]",diamond,red,vert,up,"[-150,0]","[150,0]",up,1,,,,,,001,2025-03-10_19h50.41.080,SL_sali_41,2021.2.3,Win32,100,1.041,,,123,0,123,0,1,,,,,,,,
,,"[""circle"",""green"",""vert"",""up"",[-150,0],[-106,106]]",circle,green,vert,up,"[-150,0]","[-106,106]",up,1,,,,,,001,2025-03-10_19h50.41.080,SL_sali_41,2021.2.3,Win32,100,1.24,,,124,0,124,0,1,,,,,,,,
,,"[""circle"",""no_dis"",""vert"",""up"",[99999,99999],[150,0]]",circle,no_dis,vert,up,"[99999,99999]","[150,0]",up,1,,,,,,001,2025-03-10_19h50.41.080,SL_sali_41,2021.2.3,Win32,100,1.251,,,125,0,125,0,1,,,,,,,,
,,"[""circle"",""red"",""hori"",""left"",[-106,106],[106,106]]",circle,red,hori,left,"[-106,106]","[106,106]",left,1,,,,,,001,2025-03-10_19h50.41.080,SL_sali_41,2021.2.3,Win32,100,1.381,,,126,0,126,0,1,,,,,,,,
,,"[""circle"",""green"",""vert"",""up"",[-150,0],[0,-150]]",circle,green,vert,up,"[-150,0]","[0,-150]",up,1,,,,,,001,2025-03-10_19h50.41.080,SL_sali_41,2021.2.3,Win32,100,1.713,,,127,0,127,0,1,,,,,,,,
,,,,,,,,,,,,,,,,001,2025-03-10_19h50.41.080,SL_sali_41,2021.2.3,Win32,100,,,,,,,,,3,space,21.918,2,0,2,0,1
,,"[""diamond"",""red"",""hori"",""left"",[-150,0],[0,-150]]",diamond,red,hori,left,"[-150,0]","[0,-150]",left,1,,,,,,001,2025-03-10_19h50.41.080,SL_sali_41,2021.2.3,Win32,100,1.273,,,0,0,0,0,1,,,,,,,,
,,"[""diamond"",""no_dis"",""hori"",""left"",[99999,99999],[-150,0]]",diamond,no_dis,hori,left,"[99999,99999]","[-150,0]",left,1,,,,,,001,2025-03-10_19h50.41.080,SL_sali_41,2021.2.3,Win32,100,0.821,,,1,0,1,0,1,,,,,,,,
,,"[""circle"",""no_dis"",""hori"",""left"",[99999,99999],[150,0]]",circle,no_dis,hori,left,"[99999,99999]","[150,0]",left,1,,,,,,001,2025-03-10_19h50.41.080,SL_sali_41,2021.2.3,Win32,100,0.869,,,2,0,2,0,1,,,,,,,,
,,"[""diamond"",""red"",""vert"",""up"",[0,-150],[-150,0]]",diamond,red,vert,up,"[0,-150]","[-150,0]",up,1,,,,,,001,2025-03-10_19h50.41.080,SL_sali_41,2021.2.3,Win32,100,1.5,,,3,0,3,0,1,,,,,,,,
,,"[""circle"",""red"",""vert"",""up"",[-150,0],[150,0]]",circle,red,vert,up,"[-150,0]","[150,0]",up,1,,,,,,001,2025-03-10_19h50.41.080,SL_sali_41,2021.2.3,Win32,100,1.175,,,4,0,4,0,1,,,,,,,,
,,"[""circle"",""no_dis"",""vert"",""up"",[99999,99999],[106,-106]]",circle,no_dis,vert,up,"[99999,99999]","[106,-106]",up,1,,,,,,001,2025-03-10_19h50.41.080,SL_sali_41,2021.2.3,Win32,100,0.785,,,5,0,5,0,1,,,,,,,,
,,"[""diamond"",""green"",""hori"",""left"",[150,0],[0,150]]",diamond,green,hori,left,"[150,0]","[0,150]",left,1,,,,,,001,2025-03-10_19h50.41.080,SL_sali_41,2021.2.3,Win32,100,1.64,,,6,0,6,0,1,,,,,,,,
,,"[""diamond"",""red"",""hori"",""left"",[-150,0],[0,-150]]",diamond,red,hori,left,"[-150,0]","[0,-150]",left,1,,,,,,001,2025-03-10_19h50.41.080,SL_sali_41,2021.2.3,Win32,100,0.748,,,7,0,7,0,1,,,,,,,,
,,"[""circle"",""red"",""hori"",""left"",[106,-106],[-106,-106]]",circle,red,hori,left,"[106,-106]","[-106,-106]",left,1,,,,,,001,2025-03-10_19h50.41.080,SL_sali_41,2021.2.3,Win32,100,0.973,,,8,0,8,0,1,,,,,,,,
,,"[""diamond"",""red"",""hori"",""left"",[0,-150],[-150,0]]",diamond,red,hori,left,"[0,-150]","[-150,0]",left,1,,,,,,001,2025-03-10_19h50.41.080,SL_sali_41,2021.2.3,Win32,100,1.181,,,9,0,9,0,1,,,,,,,,
,,"[""diamond"",""no_dis"",""vert"",""up"",[99999,99999],[0,-150]]",diamond,no_dis,vert,up,"[99999,99999]","[0,-150]",up,1,,,,,,001,2025-03-10_19h50.41.080,SL_sali_41,2021.2.3,Win32,100,1.05,,,10,0,10,0,1,,,,,,,,
,,"[""circle"",""red"",""hori"",""left"",[-150,0],[150,0]]",circle,red,hori,left,"[-150,0]","[150,0]",left,1,,,,,,001,2025-03-10_19h50.41.080,SL_sali_41,2021.2.3,Win32,100,2.01,,,11,0,11,0,1,,,,,,,,
,,"[""circle"",""no_dis"",""hori"",""left"",[99999,99999],[-106,-106]]",circle,no_dis,hori,left,"[99999,99999]","[-106,-106]",left,1,,,,,,001,2025-03-10_19h50.41.080,SL_sali_41,2021.2.3,Win32,100,1.85,,,12,0,12,0,1,,,,,,,,
,,"[""circle"",""no_dis"",""vert"",""up"",[99999,99999],[106,-106]]",circle,no_dis,vert,up,"[99999,99999]","[106,-106]",up,1,,,,,,001,2025-03-10_19h50.41.080,SL_sali_41,2021.2.3,Win32,100,0.725,,,13,0,13,0,1,,,,,,,,
,,"[""diamond"",""no_dis"",""hori"",""left"",[99999,99999],[106,-106]]",diamond,no_dis,hori,left,"[99999,99999]","[106,-106]",left,1,,,,,,001,2025-03-10_19h50.41.080,SL_sali_41,2021.2.3,Win32,100,1.031,,,14,0,14,0,1,,,,,,,,
,,"[""circle"",""no_dis"",""vert"",""up"",[99999,99999],[150,0]]",circle,no_dis,vert,up,"[99999,99999]","[150,0]",up,1,,,,,,001,2025-03-10_19h50.41.080,SL_sali_41,2021.2.3,Win32,100,1.12,,,15,0,15,0,1,,,,,,,,
,,"[""circle"",""red"",""hori"",""left"",[-150,0],[-106,-106]]",circle,red,hori,left,"[-150,0]","[-106,-106]",left,1,,,,,,001,2025-03-10_19h50.41.080,SL_sali_41,2021.2.3,Win32,100,1.251,,,16,0,16,0,1,,,,,,,,
,,"[""diamond"",""red"",""vert"",""up"",[-150,0],[106,-106]]",diamond,red,vert,up,"[-150,0]","[106,-106]",up,1,,,,,,001,2025-03-10_19h50.41.080,SL_sali_41,2021.2.3,Win32,100,1.171,,,17,0,17,0,1,,,,,,,,
,,"[""circle"",""green"",""vert"",""up"",[-150,0],[150,0]]",circle,green,vert,up,"[-150,0]","[150,0]",up,1,,,,,,001,2025-03-10_19h50.41.080,SL_sali_41,2021.2.3,Win32,100,1.166,,,18,0,18,0,1,,,,,,,,
,,"[""diamond"",""no_dis"",""vert"",""up"",[99999,99999],[-106,-106]]",diamond,no_dis,vert,up,"[99999,99999]","[-106,-106]",up,1,,,,,,001,2025-03-10_19h50.41.080,SL_sali_41,2021.2.3,Win32,100,1.585,,,19,0,19,0,1,,,,,,,,
,,"[""circle"",""no_dis"",""vert"",""up"",[99999,99999],[0,150]]",circle,no_dis,vert,up,"[99999,99999]","[0,150]",up,1,,,,,,001,2025-03-10_19h50.41.080,SL_sali_41,2021.2.3,Win32,100,1.031,,,20,0,20,0,1,,,,,,,,
,,"[""circle"",""green"",""hori"",""left"",[-150,0],[-106,-106]]",circle,green,hori,left,"[-150,0]","[-106,-106]",left,1,,,,,,001,2025-03-10_19h50.41.080,SL_sali_41,2021.2.3,Win32,100,1.01,,,21,0,21,0,1,,,,,,,,
,,"[""circle"",""green"",""vert"",""up"",[106,-106],[-106,106]]",circle,green,vert,up,"[106,-106]","[-106,106]",up,1,,,,,,001,2025-03-10_19h50.41.080,SL_sali_41,2021.2.3,Win32,100,1.17,,,22,0,22,0,1,,,,,,,,
,,"[""diamond"",""no_dis"",""hori"",""left"",[99999,99999],[0,150]]",diamond,no_dis,hori,left,"[99999,99999]","[0,150]",left,1,,,,,,001,2025-03-10_19h50.41.080,SL_sali_41,2021.2.3,Win32,100,1.223,,,23,0,23,0,1,,,,,,,,
,,"[""diamond"",""no_dis"",""vert"",""up"",[99999,99999],[-150,0]]",diamond,no_dis,vert,up,"[99999,99999]","[-150,0]",up,1,,,,,,001,2025-03-10_19h50.41.080,SL_sali_41,2021.2.3,Win32,100,1.543,,,24,0,24,0,1,,,,,,,,
,,"[""circle"",""no_dis"",""hori"",""left"",[99999,99999],[106,106]]",circle,no_dis,hori,left,"[99999,99999]","[106,106]",left,1,,,,,,001,2025-03-10_19h50.41.080,SL_sali_41,2021.2.3,Win32,100,1.021,,,25,0,25,0,1,,,,,,,,
,,"[""circle"",""red"",""hori"",""left"",[-106,-106],[106,106]]",circle,red,hori,left,"[-106,-106]","[106,106]",left,1,,,,,,001,2025-03-10_19h50.41.080,SL_sali_41,2021.2.3,Win32,100,1.246,,,26,0,26,0,1,,,,,,,,
,,"[""circle"",""red"",""hori"",""left"",[106,106],[0,-150]]",circle,red,hori,left,"[106,106]","[0,-150]",left,1,,,,,,001,2025-03-10_19h50.41.080,SL_sali_41,2021.2.3,Win32,100,1.162,,,27,0,27,0,1,,,,,,,,
,,"[""diamond"",""green"",""hori"",""left"",[-150,0],[150,0]]",diamond,green,hori,left,"[-150,0]","[150,0]",left,1,,,,,,001,2025-03-10_19h50.41.080,SL_sali_41,2021.2.3,Win32,100,1.223,,,28,0,28,0,1,,,,,,,,
,,"[""diamond"",""green"",""hori"",""left"",[-106,-106],[0,150]]",diamond,green,hori,left,"[-106,-106]","[0,150]",left,1,,,,,,001,2025-03-10_19h50.41.080,SL_sali_41,2021.2.3,Win32,100,1.029,,,29,0,29,0,1,,,,,,,,
,,"[""diamond"",""red"",""vert"",""up"",[-150,0],[0,-150]]",diamond,red,vert,up,"[-150,0]","[0,-150]",up,1,,,,,,001,2025-03-10_19h50.41.080,SL_sali_41,2021.2.3,Win32,100,2.333,,,30,0,30,0,1,,,,,,,,
,,"[""circle"",""green"",""hori"",""left"",[-150,0],[106,-106]]",circle,green,hori,left,"[-150,0]","[106,-106]",left,1,,,,,,001,2025-03-10_19h50.41.080,SL_sali_41,2021.2.3,Win32,100,1.021,,,31,0,31,0,1,,,,,,,,
,,"[""circle"",""green"",""vert"",""up"",[-150,0],[-106,106]]",circle,green,vert,up,"[-150,0]","[-106,106]",up,1,,,,,,001,2025-03-10_19h50.41.080,SL_sali_41,2021.2.3,Win32,100,1.235,,,32,0,32,0,1,,,,,,,,
,,"[""circle"",""green"",""hori"",""left"",[-150,0],[0,-150]]",circle,green,hori,left,"[-150,0]","[0,-150]",left,1,,,,,,001,2025-03-10_19h50.41.080,SL_sali_41,2021.2.3,Win32,100,1.25,,,33,0,33,0,1,,,,,,,,
,,"[""diamond"",""red"",""hori"",""left"",[0,-150],[-106,106]]",diamond,red,hori,left,"[0,-150]","[-106,106]",left,1,,,,,,001,2025-03-10_19h50.41.080,SL_sali_41,2021.2.3,Win32,100,1.839,,,34,0,34,0,1,,,,,,,,
,,"[""circle"",""red"",""hori"",""left"",[0,150],[106,-106]]",circle,red,hori,left,"[0,150]","[106,-106]",left,1,,,,,,001,2025-03-10_19h50.41.080,SL_sali_41,2021.2.3,Win32,100,1,,,35,0,35,0,1,,,,,,,,
,,"[""circle"",""no_dis"",""vert"",""up"",[99999,99999],[106,-106]]",circle,no_dis,vert,up,"[99999,99999]","[106,-106]",up,1,,,,,,001,2025-03-10_19h50.41.080,SL_sali_41,2021.2.3,Win32,100,0.98,,,36,0,36,0,1,,,,,,,,
,,"[""diamond"",""no_dis"",""hori"",""left"",[99999,99999],[-106,106]]",diamond,no_dis,hori,left,"[99999,99999]","[-106,106]",left,1,,,,,,001,2025-03-10_19h50.41.080,SL_sali_41,2021.2.3,Win32,100,1.13,,,37,0,37,0,1,,,,,,,,
,,"[""circle"",""green"",""vert"",""up"",[-150,0],[0,-150]]",circle,green,vert,up,"[-150,0]","[0,-150]",up,1,,,,,,001,2025-03-10_19h50.41.080,SL_sali_41,2021.2.3,Win32,100,1.085,,,38,0,38,0,1,,,,,,,,
,,"[""diamond"",""red"",""vert"",""up"",[-150,0],[150,0]]",diamond,red,vert,up,"[-150,0]","[150,0]",up,1,,,,,,001,2025-03-10_19h50.41.080,SL_sali_41,2021.2.3,Win32,100,0.939,,,39,0,39,0,1,,,,,,,,
,,"[""circle"",""red"",""vert"",""up"",[-150,0],[106,-106]]",circle,red,vert,up,"[-150,0]","[106,-106]",up,1,,,,,,001,2025-03-10_19h50.41.080,SL_sali_41,2021.2.3,Win32,100,1.162,,,40,0,40,0,1,,,,,,,,
,,"[""circle"",""red"",""vert"",""up"",[0,-150],[-150,0]]",circle,red,vert,up,"[0,-150]","[-150,0]",up,1,,,,,,001,2025-03-10_19h50.41.080,SL_sali_41,2021.2.3,Win32,100,1.313,,,41,0,41,0,1,,,,,,,,
,,"[""circle"",""green"",""vert"",""up"",[106,-106],[106,106]]",circle,green,vert,up,"[106,-106]","[106,106]",up,1,,,,,,001,2025-03-10_19h50.41.080,SL_sali_41,2021.2.3,Win32,100,0.983,,,42,0,42,0,1,,,,,,,,
,,"[""diamond"",""green"",""vert"",""up"",[106,-106],[150,0]]",diamond,green,vert,up,"[106,-106]","[150,0]",up,1,,,,,,001,2025-03-10_19h50.41.080,SL_sali_41,2021.2.3,Win32,100,1.129,,,43,0,43,0,1,,,,,,,,
,,"[""circle"",""no_dis"",""hori"",""left"",[99999,99999],[0,150]]",circle,no_dis,hori,left,"[99999,99999]","[0,150]",left,1,,,,,,001,2025-03-10_19h50.41.080,SL_sali_41,2021.2.3,Win32,100,1.16,,,44,0,44,0,1,,,,,,,,
,,"[""circle"",""green"",""hori"",""left"",[-150,0],[-106,106]]",circle,green,hori,left,"[-150,0]","[-106,106]",left,1,,,,,,001,2025-03-10_19h50.41.080,SL_sali_41,2021.2.3,Win32,100,1.009,,,45,0,45,0,1,,,,,,,,
,,"[""circle"",""no_dis"",""hori"",""left"",[99999,99999],[-106,106]]",circle,no_dis,hori,left,"[99999,99999]","[-106,106]",left,1,,,,,,001,2025-03-10_19h50.41.080,SL_sali_41,2021.2.3,Win32,100,1.15,,,46,0,46,0,1,,,,,,,,
,,"[""circle"",""no_dis"",""vert"",""up"",[99999,99999],[-106,106]]",circle,no_dis,vert,up,"[99999,99999]","[-106,106]",up,1,,,,,,001,2025-03-10_19h50.41.080,SL_sali_41,2021.2.3,Win32,100,0.74,,,47,0,47,0,1,,,,,,,,
,,"[""diamond"",""no_dis"",""hori"",""left"",[99999,99999],[-106,106]]",diamond,no_dis,hori,left,"[99999,99999]","[-106,106]",left,1,,,,,,001,2025-03-10_19h50.41.080,SL_sali_41,2021.2.3,Win32,100,1.341,,,48,0,48,0,1,,,,,,,,
,,"[""circle"",""red"",""hori"",""left"",[150,0],[106,-106]]",circle,red,hori,left,"[150,0]","[106,-106]",left,1,,,,,,001,2025-03-10_19h50.41.080,SL_sali_41,2021.2.3,Win32,100,2.141,,,49,0,49,0,1,,,,,,,,
,,"[""circle"",""green"",""hori"",""left"",[-106,-106],[-150,0]]",circle,green,hori,left,"[-106,-106]","[-150,0]",left,1,,,,,,001,2025-03-10_19h50.41.080,SL_sali_41,2021.2.3,Win32,100,1.032,,,50,0,50,0,1,,,,,,,,
,,"[""circle"",""green"",""vert"",""up"",[150,0],[-106,106]]",circle,green,vert,up,"[150,0]","[-106,106]",up,1,,,,,,001,2025-03-10_19h50.41.080,SL_sali_41,2021.2.3,Win32,100,2.583,,,51,0,51,0,1,,,,,,,,
,,"[""circle"",""red"",""vert"",""up"",[-106,106],[0,-150]]",circle,red,vert,up,"[-106,106]","[0,-150]",up,1,,,,,,001,2025-03-10_19h50.41.080,SL_sali_41,2021.2.3,Win32,100,1.649,,,52,0,52,0,1,,,,,,,,
,,"[""diamond"",""red"",""hori"",""left"",[-106,106],[0,150]]",diamond,red,hori,left,"[-106,106]","[0,150]",left,1,,,,,,001,2025-03-10_19h50.41.080,SL_sali_41,2021.2.3,Win32,100,2.332,,,53,0,53,0,1,,,,,,,,
,,"[""circle"",""red"",""hori"",""left"",[-150,0],[106,-106]]",circle,red,hori,left,"[-150,0]","[106,-106]",left,1,,,,,,001,2025-03-10_19h50.41.080,SL_sali_41,2021.2.3,Win32,100,1.131,,,54,0,54,0,1,,,,,,,,
,,"[""diamond"",""green"",""hori"",""left"",[106,106],[-106,-106]]",diamond,green,hori,left,"[106,106]","[-106,-106]",left,1,,,,,,001,2025-03-10_19h50.41.080,SL_sali_41,2021.2.3,Win32,100,1.7,,,55,0,55,0,1,,,,,,,,
,,"[""circle"",""no_dis"",""hori"",""left"",[99999,99999],[150,0]]",circle,no_dis,hori,left,"[99999,99999]","[150,0]",left,1,,,,,,001,2025-03-10_19h50.41.080,SL_sali_41,2021.2.3,Win32,100,0.821,,,56,0,56,0,1,,,,,,,,
,,"[""diamond"",""no_dis"",""hori"",""left"",[99999,99999],[0,-150]]",diamond,no_dis,hori,left,"[99999,99999]","[0,-150]",left,1,,,,,,001,2025-03-10_19h50.41.080,SL_sali_41,2021.2.3,Win32,100,0.836,,,57,0,57,0,1,,,,,,,,
,,"[""circle"",""green"",""hori"",""left"",[-106,106],[-150,0]]",circle,green,hori,left,"[-106,106]","[-150,0]",left,1,,,,,,001,2025-03-10_19h50.41.080,SL_sali_41,2021.2.3,Win32,100,2.051,,,58,0,58,0,1,,,,,,,,
,,"[""diamond"",""red"",""vert"",""up"",[-150,0],[-106,106]]",diamond,red,vert,up,"[-150,0]","[-106,106]",up,1,,,,,,001,2025-03-10_19h50.41.080,SL_sali_41,2021.2.3,Win32,100,1.239,,,59,0,59,0,1,,,,,,,,
,,"[""diamond"",""green"",""hori"",""left"",[-106,106],[0,-150]]",diamond,green,hori,left,"[-106,106]","[0,-150]",left,1,,,,,,001,2025-03-10_19h50.41.080,SL_sali_41,2021.2.3,Win32,100,1.722,,,60,0,60,0,1,,,,,,,,
,,"[""diamond"",""green"",""vert"",""up"",[0,150],[106,106]]",diamond,green,vert,up,"[0,150]","[106,106]",up,1,,,,,,001,2025-03-10_19h50.41.080,SL_sali_41,2021.2.3,Win32,100,1,,,61,0,61,0,1,,,,,,,,
,,"[""diamond"",""red"",""vert"",""up"",[106,106],[106,-106]]",diamond,red,vert,up,"[106,106]","[106,-106]",up,1,,,,,,001,2025-03-10_19h50.41.080,SL_sali_41,2021.2.3,Win32,100,0.943,,,62,0,62,0,1,,,,,,,,
,,"[""diamond"",""green"",""vert"",""up"",[-106,106],[-106,-106]]",diamond,green,vert,up,"[-106,106]","[-106,-106]",up,1,,,,,,001,2025-03-10_19h50.41.080,SL_sali_41,2021.2.3,Win32,100,1.301,,,63,0,63,0,1,,,,,,,,
,,"[""diamond"",""red"",""vert"",""up"",[106,-106],[-106,106]]",diamond,red,vert,up,"[106,-106]","[-106,106]",up,1,,,,,,001,2025-03-10_19h50.41.080,SL_sali_41,2021.2.3,Win32,100,1.16,,,64,0,64,0,1,,,,,,,,
,,"[""circle"",""no_dis"",""vert"",""up"",[99999,99999],[-106,-106]]",circle,no_dis,vert,up,"[99999,99999]","[-106,-106]",left,0,,,,,,001,2025-03-10_19h50.41.080,SL_sali_41,2021.2.3,Win32,100,1.501,,,65,0,65,0,1,,,,,,,,
,,"[""diamond"",""red"",""hori"",""left"",[-106,106],[106,-106]]",diamond,red,hori,left,"[-106,106]","[106,-106]",left,1,,,,,,001,2025-03-10_19h50.41.080,SL_sali_41,2021.2.3,Win32,100,0.871,,,66,0,66,0,1,,,,,,,,
,,"[""diamond"",""no_dis"",""hori"",""left"",[99999,99999],[-150,0]]",diamond,no_dis,hori,left,"[99999,99999]","[-150,0]",left,1,,,,,,001,2025-03-10_19h50.41.080,SL_sali_41,2021.2.3,Win32,100,1.809,,,67,0,67,0,1,,,,,,,,
,,"[""circle"",""red"",""hori"",""left"",[-106,-106],[150,0]]",circle,red,hori,left,"[-106,-106]","[150,0]",left,1,,,,,,001,2025-03-10_19h50.41.080,SL_sali_41,2021.2.3,Win32,100,1.763,,,68,0,68,0,1,,,,,,,,
,,"[""circle"",""green"",""hori"",""left"",[150,0],[106,-106]]",circle,green,hori,left,"[150,0]","[106,-106]",left,1,,,,,,001,2025-03-10_19h50.41.080,SL_sali_41,2021.2.3,Win32,100,0.95,,,69,0,69,0,1,,,,,,,,
,,"[""circle"",""no_dis"",""hori"",""left"",[99999,99999],[106,-106]]",circle,no_dis,hori,left,"[99999,99999]","[106,-106]",left,1,,,,,,001,2025-03-10_19h50.41.080,SL_sali_41,2021.2.3,Win32,100,1.227,,,70,0,70,0,1,,,,,,,,
,,"[""circle"",""no_dis"",""vert"",""up"",[99999,99999],[-150,0]]",circle,no_dis,vert,up,"[99999,99999]","[-150,0]",up,1,,,,,,001,2025-03-10_19h50.41.080,SL_sali_41,2021.2.3,Win32,100,0.913,,,71,0,71,0,1,,,,,,,,
,,"[""diamond"",""red"",""hori"",""left"",[-150,0],[-106,106]]",diamond,red,hori,left,"[-150,0]","[-106,106]",left,1,,,,,,001,2025-03-10_19h50.41.080,SL_sali_41,2021.2.3,Win32,100,1.049,,,72,0,72,0,1,,,,,,,,
,,"[""circle"",""red"",""vert"",""up"",[106,106],[-106,106]]",circle,red,vert,up,"[106,106]","[-106,106]",up,1,,,,,,001,2025-03-10_19h50.41.080,SL_sali_41,2021.2.3,Win32,100,1.106,,,73,0,73,0,1,,,,,,,,
,,"[""diamond"",""green"",""hori"",""left"",[150,0],[-106,-106]]",diamond,green,hori,left,"[150,0]","[-106,-106]",left,1,,,,,,001,2025-03-10_19h50.41.080,SL_sali_41,2021.2.3,Win32,100,1.014,,,74,0,74,0,1,,,,,,,,
,,"[""diamond"",""green"",""hori"",""left"",[-150,0],[106,-106]]",diamond,green,hori,left,"[-150,0]","[106,-106]",left,1,,,,,,001,2025-03-10_19h50.41.080,SL_sali_41,2021.2.3,Win32,100,1.032,,,75,0,75,0,1,,,,,,,,
,,"[""diamond"",""no_dis"",""vert"",""up"",[99999,99999],[-106,106]]",diamond,no_dis,vert,up,"[99999,99999]","[-106,106]",up,1,,,,,,001,2025-03-10_19h50.41.080,SL_sali_41,2021.2.3,Win32,100,1.069,,,76,0,76,0,1,,,,,,,,
,,"[""circle"",""red"",""vert"",""up"",[150,0],[0,-150]]",circle,red,vert,up,"[150,0]","[0,-150]",up,1,,,,,,001,2025-03-10_19h50.41.080,SL_sali_41,2021.2.3,Win32,100,1.311,,,77,0,77,0,1,,,,,,,,
,,"[""diamond"",""red"",""hori"",""left"",[150,0],[-150,0]]",diamond,red,hori,left,"[150,0]","[-150,0]",left,1,,,,,,001,2025-03-10_19h50.41.080,SL_sali_41,2021.2.3,Win32,100,0.999,,,78,0,78,0,1,,,,,,,,
,,"[""diamond"",""green"",""hori"",""left"",[0,150],[-106,106]]",diamond,green,hori,left,"[0,150]","[-106,106]",left,1,,,,,,001,2025-03-10_19h50.41.080,SL_sali_41,2021.2.3,Win32,100,1.129,,,79,0,79,0,1,,,,,,,,
,,"[""diamond"",""red"",""hori"",""left"",[-150,0],[150,0]]",diamond,red,hori,left,"[-150,0]","[150,0]",left,1,,,,,,001,2025-03-10_19h50.41.080,SL_sali_41,2021.2.3,Win32,100,0.941,,,80,0,80,0,1,,,,,,,,
