﻿key_resp.keys,key_resp.rt,trial_para,tar_shape,dis_color_condi,tar_line,cor_resp,dis_loc,tar_loc,resp.keys,resp.corr,resp.rt,trials.thisRepN,trials.thisTrialN,trials.thisN,trials.thisIndex,trials.ran,participant,date,expName,psychopyVersion,OS,frameRate,key_resp_2.keys,key_resp_2.rt,trials_2.thisRepN,trials_2.thisTrialN,trials_2.thisN,trials_2.thisIndex,trials_2.ran,block_num,key_resp_3.keys,key_resp_3.rt,trials_3.thisRepN,trials_3.thisTrialN,trials_3.thisN,trials_3.thisIndex,trials_3.ran
space,44.963,"[""diamond"",""green"",""vert"",""up"",[0,-150],[106,106]]",diamond,green,vert,up,"[0,-150]","[106,106]",up,1,2.3076,0,0,0,0,1,001,2025-03-10_18h41.28.681,SL_sali_41,2021.2.3,Win32,243.902439,,,,,,,,,,,,,,,
,,"[""diamond"",""red"",""hori"",""left"",[-150,0],[-106,-106]]",diamond,red,hori,left,"[-150,0]","[-106,-106]",up,0,2.9163,1,0,1,0,1,001,2025-03-10_18h41.28.681,SL_sali_41,2021.2.3,Win32,243.902439,,,,,,,,,,,,,,,
,,"[""diamond"",""red"",""vert"",""up"",[-150,0],[-106,-106]]",diamond,red,vert,up,"[-150,0]","[-106,-106]",left,0,1.5029,2,0,2,0,1,001,2025-03-10_18h41.28.681,SL_sali_41,2021.2.3,Win32,243.902439,,,,,,,,,,,,,,,
,,"[""diamond"",""red"",""vert"",""up"",[-150,0],[-106,106]]",diamond,red,vert,up,"[-150,0]","[-106,106]",up,1,1.983,3,0,3,0,1,001,2025-03-10_18h41.28.681,SL_sali_41,2021.2.3,Win32,243.902439,,,,,,,,,,,,,,,
,,"[""diamond"",""green"",""vert"",""up"",[150,0],[106,106]]",diamond,green,vert,up,"[150,0]","[106,106]",up,1,2.5786,4,0,4,0,1,001,2025-03-10_18h41.28.681,SL_sali_41,2021.2.3,Win32,243.902439,,,,,,,,,,,,,,,
,,"[""circle"",""no_dis"",""hori"",""left"",[99999,99999],[106,-106]]",circle,no_dis,hori,left,"[99999,99999]","[106,-106]",,0,,5,0,5,0,1,001,2025-03-10_18h41.28.681,SL_sali_41,2021.2.3,Win32,243.902439,,,,,,,,,,,,,,,
,,"[""circle"",""red"",""hori"",""left"",[106,-106],[106,106]]",circle,red,hori,left,"[106,-106]","[106,106]",up,0,1.275,6,0,6,0,1,001,2025-03-10_18h41.28.681,SL_sali_41,2021.2.3,Win32,243.902439,,,,,,,,,,,,,,,
,,"[""circle"",""red"",""vert"",""up"",[106,106],[0,-150]]",circle,red,vert,up,"[106,106]","[0,-150]",,0,,7,0,7,0,1,001,2025-03-10_18h41.28.681,SL_sali_41,2021.2.3,Win32,243.902439,,,,,,,,,,,,,,,
,,"[""circle"",""red"",""vert"",""up"",[0,-150],[-106,-106]]",circle,red,vert,up,"[0,-150]","[-106,-106]",up,1,0.6436,8,0,8,0,1,001,2025-03-10_18h41.28.681,SL_sali_41,2021.2.3,Win32,243.902439,,,,,,,,,,,,,,,
,,"[""circle"",""red"",""hori"",""left"",[0,-150],[-150,0]]",circle,red,hori,left,"[0,-150]","[-150,0]",left,1,2.9429,9,0,9,0,1,001,2025-03-10_18h41.28.681,SL_sali_41,2021.2.3,Win32,243.902439,,,,,,,,,,,,,,,
,,"[""diamond"",""green"",""vert"",""up"",[0,-150],[106,106]]",diamond,green,vert,up,"[0,-150]","[106,106]",up,1,1.9122,,,,,,001,2025-03-10_18h41.28.681,SL_sali_41,2021.2.3,Win32,243.902439,space,21.4752,0,0,0,0,1,,,,,,,,
,,"[""diamond"",""red"",""hori"",""left"",[-150,0],[-106,-106]]",diamond,red,hori,left,"[-150,0]","[-106,-106]",left,1,0.9105,,,,,,001,2025-03-10_18h41.28.681,SL_sali_41,2021.2.3,Win32,243.902439,,,1,0,1,0,1,,,,,,,,
,,"[""diamond"",""red"",""vert"",""up"",[-150,0],[-106,-106]]",diamond,red,vert,up,"[-150,0]","[-106,-106]",up,1,1.9543,,,,,,001,2025-03-10_18h41.28.681,SL_sali_41,2021.2.3,Win32,243.902439,,,2,0,2,0,1,,,,,,,,
,,"[""diamond"",""red"",""vert"",""up"",[-150,0],[-106,106]]",diamond,red,vert,up,"[-150,0]","[-106,106]",left,0,2.6937,,,,,,001,2025-03-10_18h41.28.681,SL_sali_41,2021.2.3,Win32,243.902439,,,3,0,3,0,1,,,,,,,,
,,"[""diamond"",""green"",""vert"",""up"",[150,0],[106,106]]",diamond,green,vert,up,"[150,0]","[106,106]",up,1,1.2155,,,,,,001,2025-03-10_18h41.28.681,SL_sali_41,2021.2.3,Win32,243.902439,,,4,0,4,0,1,,,,,,,,
,,"[""circle"",""no_dis"",""hori"",""left"",[99999,99999],[106,-106]]",circle,no_dis,hori,left,"[99999,99999]","[106,-106]",left,1,1.0661,,,,,,001,2025-03-10_18h41.28.681,SL_sali_41,2021.2.3,Win32,243.902439,,,5,0,5,0,1,,,,,,,,
,,"[""circle"",""red"",""hori"",""left"",[106,-106],[106,106]]",circle,red,hori,left,"[106,-106]","[106,106]",left,1,1.3927,,,,,,001,2025-03-10_18h41.28.681,SL_sali_41,2021.2.3,Win32,243.902439,,,6,0,6,0,1,,,,,,,,
,,"[""circle"",""red"",""vert"",""up"",[106,106],[0,-150]]",circle,red,vert,up,"[106,106]","[0,-150]",up,1,0.7035,,,,,,001,2025-03-10_18h41.28.681,SL_sali_41,2021.2.3,Win32,243.902439,,,7,0,7,0,1,,,,,,,,
,,"[""circle"",""red"",""vert"",""up"",[0,-150],[-106,-106]]",circle,red,vert,up,"[0,-150]","[-106,-106]",up,1,0.666,,,,,,001,2025-03-10_18h41.28.681,SL_sali_41,2021.2.3,Win32,243.902439,,,8,0,8,0,1,,,,,,,,
,,"[""circle"",""red"",""hori"",""left"",[0,-150],[-150,0]]",circle,red,hori,left,"[0,-150]","[-150,0]",left,1,0.5883,,,,,,001,2025-03-10_18h41.28.681,SL_sali_41,2021.2.3,Win32,243.902439,,,9,0,9,0,1,,,,,,,,
,,"[""diamond"",""red"",""hori"",""left"",[150,0],[-106,106]]",diamond,red,hori,left,"[150,0]","[-106,106]",left,1,1.1236,,,,,,001,2025-03-10_18h41.28.681,SL_sali_41,2021.2.3,Win32,243.902439,,,10,0,10,0,1,,,,,,,,
,,"[""circle"",""green"",""vert"",""up"",[-106,106],[0,-150]]",circle,green,vert,up,"[-106,106]","[0,-150]",up,1,0.9033,,,,,,001,2025-03-10_18h41.28.681,SL_sali_41,2021.2.3,Win32,243.902439,,,11,0,11,0,1,,,,,,,,
,,"[""circle"",""no_dis"",""vert"",""up"",[99999,99999],[0,150]]",circle,no_dis,vert,up,"[99999,99999]","[0,150]",up,1,1.9636,,,,,,001,2025-03-10_18h41.28.681,SL_sali_41,2021.2.3,Win32,243.902439,,,12,0,12,0,1,,,,,,,,
,,"[""diamond"",""green"",""hori"",""left"",[-106,-106],[0,-150]]",diamond,green,hori,left,"[-106,-106]","[0,-150]",up,0,0.9077,,,,,,001,2025-03-10_18h41.28.681,SL_sali_41,2021.2.3,Win32,243.902439,,,13,0,13,0,1,,,,,,,,
,,"[""circle"",""no_dis"",""vert"",""up"",[99999,99999],[0,150]]",circle,no_dis,vert,up,"[99999,99999]","[0,150]",up,1,1.4472,,,,,,001,2025-03-10_18h41.28.681,SL_sali_41,2021.2.3,Win32,243.902439,,,14,0,14,0,1,,,,,,,,
,,"[""circle"",""red"",""hori"",""left"",[0,-150],[-106,106]]",circle,red,hori,left,"[0,-150]","[-106,106]",up,0,1.2666,,,,,,001,2025-03-10_18h41.28.681,SL_sali_41,2021.2.3,Win32,243.902439,,,15,0,15,0,1,,,,,,,,
,,"[""circle"",""red"",""hori"",""left"",[0,-150],[150,0]]",circle,red,hori,left,"[0,-150]","[150,0]",left,1,1.3512,,,,,,001,2025-03-10_18h41.28.681,SL_sali_41,2021.2.3,Win32,243.902439,,,16,0,16,0,1,,,,,,,,
,,"[""diamond"",""no_dis"",""hori"",""left"",[99999,99999],[-106,-106]]",diamond,no_dis,hori,left,"[99999,99999]","[-106,-106]",up,0,1.3866,,,,,,001,2025-03-10_18h41.28.681,SL_sali_41,2021.2.3,Win32,243.902439,,,17,0,17,0,1,,,,,,,,
,,"[""diamond"",""no_dis"",""vert"",""up"",[99999,99999],[150,0]]",diamond,no_dis,vert,up,"[99999,99999]","[150,0]",up,1,1.4784,,,,,,001,2025-03-10_18h41.28.681,SL_sali_41,2021.2.3,Win32,243.902439,,,18,0,18,0,1,,,,,,,,
,,"[""diamond"",""green"",""hori"",""left"",[-106,-106],[150,0]]",diamond,green,hori,left,"[-106,-106]","[150,0]",left,1,1.4561,,,,,,001,2025-03-10_18h41.28.681,SL_sali_41,2021.2.3,Win32,243.902439,,,19,0,19,0,1,,,,,,,,
,,"[""circle"",""green"",""hori"",""left"",[106,-106],[150,0]]",circle,green,hori,left,"[106,-106]","[150,0]",left,1,2.5459,,,,,,001,2025-03-10_18h41.28.681,SL_sali_41,2021.2.3,Win32,243.902439,,,20,0,20,0,1,,,,,,,,
,,"[""diamond"",""green"",""hori"",""left"",[106,106],[-106,-106]]",diamond,green,hori,left,"[106,106]","[-106,-106]",up,0,1.0577,,,,,,001,2025-03-10_18h41.28.681,SL_sali_41,2021.2.3,Win32,243.902439,,,21,0,21,0,1,,,,,,,,
,,"[""circle"",""red"",""hori"",""left"",[0,-150],[-106,106]]",circle,red,hori,left,"[0,-150]","[-106,106]",left,1,0.8082,,,,,,001,2025-03-10_18h41.28.681,SL_sali_41,2021.2.3,Win32,243.902439,,,22,0,22,0,1,,,,,,,,
,,"[""diamond"",""green"",""vert"",""up"",[-106,-106],[106,-106]]",diamond,green,vert,up,"[-106,-106]","[106,-106]",up,1,0.8546,,,,,,001,2025-03-10_18h41.28.681,SL_sali_41,2021.2.3,Win32,243.902439,,,23,0,23,0,1,,,,,,,,
,,"[""circle"",""green"",""vert"",""up"",[0,-150],[-106,106]]",circle,green,vert,up,"[0,-150]","[-106,106]",up,1,0.5312,,,,,,001,2025-03-10_18h41.28.681,SL_sali_41,2021.2.3,Win32,243.902439,,,24,0,24,0,1,,,,,,,,
,,"[""diamond"",""red"",""vert"",""up"",[106,106],[150,0]]",diamond,red,vert,up,"[106,106]","[150,0]",up,1,0.7286,,,,,,001,2025-03-10_18h41.28.681,SL_sali_41,2021.2.3,Win32,243.902439,,,25,0,25,0,1,,,,,,,,
,,"[""circle"",""no_dis"",""hori"",""left"",[99999,99999],[-106,-106]]",circle,no_dis,hori,left,"[99999,99999]","[-106,-106]",left,1,0.7251,,,,,,001,2025-03-10_18h41.28.681,SL_sali_41,2021.2.3,Win32,243.902439,,,26,0,26,0,1,,,,,,,,
,,"[""diamond"",""red"",""hori"",""left"",[0,150],[0,-150]]",diamond,red,hori,left,"[0,150]","[0,-150]",up,0,0.7448,,,,,,001,2025-03-10_18h41.28.681,SL_sali_41,2021.2.3,Win32,243.902439,,,27,0,27,0,1,,,,,,,,
,,"[""diamond"",""no_dis"",""hori"",""left"",[99999,99999],[0,-150]]",diamond,no_dis,hori,left,"[99999,99999]","[0,-150]",left,1,0.7368,,,,,,001,2025-03-10_18h41.28.681,SL_sali_41,2021.2.3,Win32,243.902439,,,28,0,28,0,1,,,,,,,,
,,"[""diamond"",""green"",""hori"",""left"",[150,0],[0,-150]]",diamond,green,hori,left,"[150,0]","[0,-150]",left,1,1.1917,,,,,,001,2025-03-10_18h41.28.681,SL_sali_41,2021.2.3,Win32,243.902439,,,29,0,29,0,1,,,,,,,,
,,"[""diamond"",""red"",""vert"",""up"",[-106,106],[106,106]]",diamond,red,vert,up,"[-106,106]","[106,106]",up,1,0.6912,,,,,,001,2025-03-10_18h41.28.681,SL_sali_41,2021.2.3,Win32,243.902439,,,30,0,30,0,1,,,,,,,,
,,"[""diamond"",""no_dis"",""hori"",""left"",[99999,99999],[-106,106]]",diamond,no_dis,hori,left,"[99999,99999]","[-106,106]",left,1,0.9191,,,,,,001,2025-03-10_18h41.28.681,SL_sali_41,2021.2.3,Win32,243.902439,,,31,0,31,0,1,,,,,,,,
,,"[""diamond"",""red"",""hori"",""left"",[0,-150],[-106,106]]",diamond,red,hori,left,"[0,-150]","[-106,106]",up,0,0.6032,,,,,,001,2025-03-10_18h41.28.681,SL_sali_41,2021.2.3,Win32,243.902439,,,32,0,32,0,1,,,,,,,,
,,"[""diamond"",""green"",""vert"",""up"",[0,-150],[106,-106]]",diamond,green,vert,up,"[0,-150]","[106,-106]",left,0,0.6098,,,,,,001,2025-03-10_18h41.28.681,SL_sali_41,2021.2.3,Win32,243.902439,,,33,0,33,0,1,,,,,,,,
,,"[""circle"",""no_dis"",""hori"",""left"",[99999,99999],[-150,0]]",circle,no_dis,hori,left,"[99999,99999]","[-150,0]",up,0,0.7498,,,,,,001,2025-03-10_18h41.28.681,SL_sali_41,2021.2.3,Win32,243.902439,,,34,0,34,0,1,,,,,,,,
,,"[""circle"",""no_dis"",""vert"",""up"",[99999,99999],[-106,-106]]",circle,no_dis,vert,up,"[99999,99999]","[-106,-106]",left,0,1.1077,,,,,,001,2025-03-10_18h41.28.681,SL_sali_41,2021.2.3,Win32,243.902439,,,35,0,35,0,1,,,,,,,,
,,"[""diamond"",""no_dis"",""vert"",""up"",[99999,99999],[150,0]]",diamond,no_dis,vert,up,"[99999,99999]","[150,0]",left,0,1.3858,,,,,,001,2025-03-10_18h41.28.681,SL_sali_41,2021.2.3,Win32,243.902439,,,36,0,36,0,1,,,,,,,,
,,"[""circle"",""no_dis"",""hori"",""left"",[99999,99999],[150,0]]",circle,no_dis,hori,left,"[99999,99999]","[150,0]",up,0,0.4028,,,,,,001,2025-03-10_18h41.28.681,SL_sali_41,2021.2.3,Win32,243.902439,,,37,0,37,0,1,,,,,,,,
,,"[""diamond"",""green"",""hori"",""left"",[0,-150],[-106,106]]",diamond,green,hori,left,"[0,-150]","[-106,106]",left,1,0.7494,,,,,,001,2025-03-10_18h41.28.681,SL_sali_41,2021.2.3,Win32,243.902439,,,38,0,38,0,1,,,,,,,,
,,"[""diamond"",""no_dis"",""hori"",""left"",[99999,99999],[0,-150]]",diamond,no_dis,hori,left,"[99999,99999]","[0,-150]",left,1,0.6167,,,,,,001,2025-03-10_18h41.28.681,SL_sali_41,2021.2.3,Win32,243.902439,,,39,0,39,0,1,,,,,,,,
,,"[""circle"",""red"",""hori"",""left"",[0,-150],[-150,0]]",circle,red,hori,left,"[0,-150]","[-150,0]",left,1,1.467,,,,,,001,2025-03-10_18h41.28.681,SL_sali_41,2021.2.3,Win32,243.902439,,,40,0,40,0,1,,,,,,,,
,,"[""diamond"",""red"",""hori"",""left"",[106,106],[-106,106]]",diamond,red,hori,left,"[106,106]","[-106,106]",left,1,1.2538,,,,,,001,2025-03-10_18h41.28.681,SL_sali_41,2021.2.3,Win32,243.902439,,,41,0,41,0,1,,,,,,,,
,,"[""circle"",""green"",""vert"",""up"",[106,-106],[150,0]]",circle,green,vert,up,"[106,-106]","[150,0]",left,0,0.7577,,,,,,001,2025-03-10_18h41.28.681,SL_sali_41,2021.2.3,Win32,243.902439,,,42,0,42,0,1,,,,,,,,
,,"[""circle"",""green"",""hori"",""left"",[0,-150],[106,106]]",circle,green,hori,left,"[0,-150]","[106,106]",up,0,0.7332,,,,,,001,2025-03-10_18h41.28.681,SL_sali_41,2021.2.3,Win32,243.902439,,,43,0,43,0,1,,,,,,,,
,,"[""circle"",""no_dis"",""hori"",""left"",[99999,99999],[-106,106]]",circle,no_dis,hori,left,"[99999,99999]","[-106,106]",left,1,0.5168,,,,,,001,2025-03-10_18h41.28.681,SL_sali_41,2021.2.3,Win32,243.902439,,,44,0,44,0,1,,,,,,,,
,,"[""diamond"",""green"",""hori"",""left"",[-106,106],[0,150]]",diamond,green,hori,left,"[-106,106]","[0,150]",left,1,0.6359,,,,,,001,2025-03-10_18h41.28.681,SL_sali_41,2021.2.3,Win32,243.902439,,,45,0,45,0,1,,,,,,,,
,,"[""circle"",""green"",""vert"",""up"",[0,-150],[150,0]]",circle,green,vert,up,"[0,-150]","[150,0]",up,1,0.9362,,,,,,001,2025-03-10_18h41.28.681,SL_sali_41,2021.2.3,Win32,243.902439,,,46,0,46,0,1,,,,,,,,
,,"[""diamond"",""no_dis"",""hori"",""left"",[99999,99999],[-106,-106]]",diamond,no_dis,hori,left,"[99999,99999]","[-106,-106]",left,1,0.9437,,,,,,001,2025-03-10_18h41.28.681,SL_sali_41,2021.2.3,Win32,243.902439,,,47,0,47,0,1,,,,,,,,
,,"[""circle"",""green"",""hori"",""left"",[-106,106],[0,150]]",circle,green,hori,left,"[-106,106]","[0,150]",up,0,1.0619,,,,,,001,2025-03-10_18h41.28.681,SL_sali_41,2021.2.3,Win32,243.902439,,,48,0,48,0,1,,,,,,,,
,,"[""circle"",""green"",""vert"",""up"",[106,106],[-150,0]]",circle,green,vert,up,"[106,106]","[-150,0]",up,1,0.7809,,,,,,001,2025-03-10_18h41.28.681,SL_sali_41,2021.2.3,Win32,243.902439,,,49,0,49,0,1,,,,,,,,
,,"[""circle"",""no_dis"",""hori"",""left"",[99999,99999],[106,-106]]",circle,no_dis,hori,left,"[99999,99999]","[106,-106]",left,1,1.1959,,,,,,001,2025-03-10_18h41.28.681,SL_sali_41,2021.2.3,Win32,243.902439,,,50,0,50,0,1,,,,,,,,
,,"[""circle"",""red"",""hori"",""left"",[0,-150],[-150,0]]",circle,red,hori,left,"[0,-150]","[-150,0]",up,0,0.6791,,,,,,001,2025-03-10_18h41.28.681,SL_sali_41,2021.2.3,Win32,243.902439,,,51,0,51,0,1,,,,,,,,
,,"[""circle"",""no_dis"",""vert"",""up"",[99999,99999],[106,-106]]",circle,no_dis,vert,up,"[99999,99999]","[106,-106]",left,0,0.7077,,,,,,001,2025-03-10_18h41.28.681,SL_sali_41,2021.2.3,Win32,243.902439,,,52,0,52,0,1,,,,,,,,
,,"[""diamond"",""red"",""hori"",""left"",[0,-150],[-150,0]]",diamond,red,hori,left,"[0,-150]","[-150,0]",up,0,0.8829,,,,,,001,2025-03-10_18h41.28.681,SL_sali_41,2021.2.3,Win32,243.902439,,,53,0,53,0,1,,,,,,,,
,,"[""diamond"",""no_dis"",""vert"",""up"",[99999,99999],[0,150]]",diamond,no_dis,vert,up,"[99999,99999]","[0,150]",left,0,0.5994,,,,,,001,2025-03-10_18h41.28.681,SL_sali_41,2021.2.3,Win32,243.902439,,,54,0,54,0,1,,,,,,,,
,,"[""circle"",""red"",""hori"",""left"",[-106,106],[106,-106]]",circle,red,hori,left,"[-106,106]","[106,-106]",left,1,0.5793,,,,,,001,2025-03-10_18h41.28.681,SL_sali_41,2021.2.3,Win32,243.902439,,,55,0,55,0,1,,,,,,,,
,,"[""diamond"",""red"",""vert"",""up"",[-150,0],[0,150]]",diamond,red,vert,up,"[-150,0]","[0,150]",left,0,0.6907,,,,,,001,2025-03-10_18h41.28.681,SL_sali_41,2021.2.3,Win32,243.902439,,,56,0,56,0,1,,,,,,,,
,,"[""diamond"",""green"",""hori"",""left"",[0,150],[0,-150]]",diamond,green,hori,left,"[0,150]","[0,-150]",up,0,0.5201,,,,,,001,2025-03-10_18h41.28.681,SL_sali_41,2021.2.3,Win32,243.902439,,,57,0,57,0,1,,,,,,,,
,,"[""diamond"",""red"",""hori"",""left"",[-106,-106],[106,-106]]",diamond,red,hori,left,"[-106,-106]","[106,-106]",left,1,0.8198,,,,,,001,2025-03-10_18h41.28.681,SL_sali_41,2021.2.3,Win32,243.902439,,,58,0,58,0,1,,,,,,,,
,,"[""diamond"",""green"",""vert"",""up"",[0,-150],[106,-106]]",diamond,green,vert,up,"[0,-150]","[106,-106]",up,1,1.383,,,,,,001,2025-03-10_18h41.28.681,SL_sali_41,2021.2.3,Win32,243.902439,,,59,0,59,0,1,,,,,,,,
,,"[""circle"",""red"",""hori"",""left"",[-106,106],[0,150]]",circle,red,hori,left,"[-106,106]","[0,150]",left,1,0.7503,,,,,,001,2025-03-10_18h41.28.681,SL_sali_41,2021.2.3,Win32,243.902439,,,60,0,60,0,1,,,,,,,,
,,"[""diamond"",""no_dis"",""hori"",""left"",[99999,99999],[-150,0]]",diamond,no_dis,hori,left,"[99999,99999]","[-150,0]",up,0,0.7202,,,,,,001,2025-03-10_18h41.28.681,SL_sali_41,2021.2.3,Win32,243.902439,,,61,0,61,0,1,,,,,,,,
,,"[""diamond"",""green"",""vert"",""up"",[-106,-106],[-150,0]]",diamond,green,vert,up,"[-106,-106]","[-150,0]",left,0,0.5617,,,,,,001,2025-03-10_18h41.28.681,SL_sali_41,2021.2.3,Win32,243.902439,,,62,0,62,0,1,,,,,,,,
,,"[""diamond"",""green"",""vert"",""up"",[0,-150],[-106,-106]]",diamond,green,vert,up,"[0,-150]","[-106,-106]",up,1,0.5576,,,,,,001,2025-03-10_18h41.28.681,SL_sali_41,2021.2.3,Win32,243.902439,,,63,0,63,0,1,,,,,,,,
,,"[""circle"",""red"",""vert"",""up"",[106,106],[-106,106]]",circle,red,vert,up,"[106,106]","[-106,106]",up,1,0.717,,,,,,001,2025-03-10_18h41.28.681,SL_sali_41,2021.2.3,Win32,243.902439,,,64,0,64,0,1,,,,,,,,
,,"[""diamond"",""no_dis"",""vert"",""up"",[99999,99999],[-150,0]]",diamond,no_dis,vert,up,"[99999,99999]","[-150,0]",up,1,0.7736,,,,,,001,2025-03-10_18h41.28.681,SL_sali_41,2021.2.3,Win32,243.902439,,,65,0,65,0,1,,,,,,,,
,,"[""diamond"",""no_dis"",""hori"",""left"",[99999,99999],[150,0]]",diamond,no_dis,hori,left,"[99999,99999]","[150,0]",up,0,1.6832,,,,,,001,2025-03-10_18h41.28.681,SL_sali_41,2021.2.3,Win32,243.902439,,,66,0,66,0,1,,,,,,,,
,,"[""circle"",""green"",""hori"",""left"",[0,150],[150,0]]",circle,green,hori,left,"[0,150]","[150,0]",left,1,1.5472,,,,,,001,2025-03-10_18h41.28.681,SL_sali_41,2021.2.3,Win32,243.902439,,,67,0,67,0,1,,,,,,,,
,,"[""diamond"",""no_dis"",""vert"",""up"",[99999,99999],[0,-150]]",diamond,no_dis,vert,up,"[99999,99999]","[0,-150]",left,0,0.3066,,,,,,001,2025-03-10_18h41.28.681,SL_sali_41,2021.2.3,Win32,243.902439,,,68,0,68,0,1,,,,,,,,
,,"[""circle"",""red"",""vert"",""up"",[0,150],[150,0]]",circle,red,vert,up,"[0,150]","[150,0]",up,1,0.9893,,,,,,001,2025-03-10_18h41.28.681,SL_sali_41,2021.2.3,Win32,243.902439,,,69,0,69,0,1,,,,,,,,
,,"[""circle"",""no_dis"",""hori"",""left"",[99999,99999],[-106,-106]]",circle,no_dis,hori,left,"[99999,99999]","[-106,-106]",up,0,1.0783,,,,,,001,2025-03-10_18h41.28.681,SL_sali_41,2021.2.3,Win32,243.902439,,,70,0,70,0,1,,,,,,,,
,,"[""circle"",""no_dis"",""vert"",""up"",[99999,99999],[0,150]]",circle,no_dis,vert,up,"[99999,99999]","[0,150]",left,0,2.2345,,,,,,001,2025-03-10_18h41.28.681,SL_sali_41,2021.2.3,Win32,243.902439,,,71,0,71,0,1,,,,,,,,
,,"[""diamond"",""no_dis"",""hori"",""left"",[99999,99999],[0,-150]]",diamond,no_dis,hori,left,"[99999,99999]","[0,-150]",left,1,2.1389,,,,,,001,2025-03-10_18h41.28.681,SL_sali_41,2021.2.3,Win32,243.902439,,,72,0,72,0,1,,,,,,,,
,,"[""diamond"",""no_dis"",""vert"",""up"",[99999,99999],[0,-150]]",diamond,no_dis,vert,up,"[99999,99999]","[0,-150]",up,1,2.1376,,,,,,001,2025-03-10_18h41.28.681,SL_sali_41,2021.2.3,Win32,243.902439,,,73,0,73,0,1,,,,,,,,
,,"[""diamond"",""green"",""hori"",""left"",[106,-106],[0,150]]",diamond,green,hori,left,"[106,-106]","[0,150]",left,1,1.2403,,,,,,001,2025-03-10_18h41.28.681,SL_sali_41,2021.2.3,Win32,243.902439,,,74,0,74,0,1,,,,,,,,
,,"[""circle"",""green"",""hori"",""left"",[106,-106],[-150,0]]",circle,green,hori,left,"[106,-106]","[-150,0]",left,1,1.2628,,,,,,001,2025-03-10_18h41.28.681,SL_sali_41,2021.2.3,Win32,243.902439,,,75,0,75,0,1,,,,,,,,
,,"[""diamond"",""red"",""hori"",""left"",[0,-150],[106,-106]]",diamond,red,hori,left,"[0,-150]","[106,-106]",up,0,0.7953,,,,,,001,2025-03-10_18h41.28.681,SL_sali_41,2021.2.3,Win32,243.902439,,,76,0,76,0,1,,,,,,,,
,,"[""circle"",""green"",""hori"",""left"",[0,-150],[-106,-106]]",circle,green,hori,left,"[0,-150]","[-106,-106]",left,1,1.0126,,,,,,001,2025-03-10_18h41.28.681,SL_sali_41,2021.2.3,Win32,243.902439,,,77,0,77,0,1,,,,,,,,
,,"[""circle"",""green"",""vert"",""up"",[-106,106],[0,150]]",circle,green,vert,up,"[-106,106]","[0,150]",up,1,1.1329,,,,,,001,2025-03-10_18h41.28.681,SL_sali_41,2021.2.3,Win32,243.902439,,,78,0,78,0,1,,,,,,,,
,,"[""circle"",""no_dis"",""vert"",""up"",[99999,99999],[106,-106]]",circle,no_dis,vert,up,"[99999,99999]","[106,-106]",left,0,1.112,,,,,,001,2025-03-10_18h41.28.681,SL_sali_41,2021.2.3,Win32,243.902439,,,79,0,79,0,1,,,,,,,,
,,"[""circle"",""red"",""vert"",""up"",[0,-150],[-106,-106]]",circle,red,vert,up,"[0,-150]","[-106,-106]",up,1,0.637,,,,,,001,2025-03-10_18h41.28.681,SL_sali_41,2021.2.3,Win32,243.902439,,,80,0,80,0,1,,,,,,,,
,,"[""circle"",""green"",""hori"",""left"",[-150,0],[-106,106]]",circle,green,hori,left,"[-150,0]","[-106,106]",left,1,0.7745,,,,,,001,2025-03-10_18h41.28.681,SL_sali_41,2021.2.3,Win32,243.902439,,,81,0,81,0,1,,,,,,,,
,,"[""circle"",""no_dis"",""hori"",""left"",[99999,99999],[106,106]]",circle,no_dis,hori,left,"[99999,99999]","[106,106]",left,1,1.4441,,,,,,001,2025-03-10_18h41.28.681,SL_sali_41,2021.2.3,Win32,243.902439,,,82,0,82,0,1,,,,,,,,
,,"[""diamond"",""red"",""vert"",""up"",[-150,0],[106,106]]",diamond,red,vert,up,"[-150,0]","[106,106]",up,1,0.7011,,,,,,001,2025-03-10_18h41.28.681,SL_sali_41,2021.2.3,Win32,243.902439,,,83,0,83,0,1,,,,,,,,
,,"[""diamond"",""no_dis"",""vert"",""up"",[99999,99999],[-150,0]]",diamond,no_dis,vert,up,"[99999,99999]","[-150,0]",left,0,1.0117,,,,,,001,2025-03-10_18h41.28.681,SL_sali_41,2021.2.3,Win32,243.902439,,,84,0,84,0,1,,,,,,,,
,,"[""diamond"",""green"",""vert"",""up"",[-106,-106],[-106,106]]",diamond,green,vert,up,"[-106,-106]","[-106,106]",up,1,0.6701,,,,,,001,2025-03-10_18h41.28.681,SL_sali_41,2021.2.3,Win32,243.902439,,,85,0,85,0,1,,,,,,,,
,,"[""diamond"",""red"",""vert"",""up"",[-150,0],[150,0]]",diamond,red,vert,up,"[-150,0]","[150,0]",up,1,0.475,,,,,,001,2025-03-10_18h41.28.681,SL_sali_41,2021.2.3,Win32,243.902439,,,86,0,86,0,1,,,,,,,,
,,"[""circle"",""red"",""vert"",""up"",[0,-150],[0,150]]",circle,red,vert,up,"[0,-150]","[0,150]",left,0,0.3954,,,,,,001,2025-03-10_18h41.28.681,SL_sali_41,2021.2.3,Win32,243.902439,,,87,0,87,0,1,,,,,,,,
,,"[""diamond"",""green"",""hori"",""left"",[0,-150],[-106,106]]",diamond,green,hori,left,"[0,-150]","[-106,106]",up,0,0.6081,,,,,,001,2025-03-10_18h41.28.681,SL_sali_41,2021.2.3,Win32,243.902439,,,88,0,88,0,1,,,,,,,,
,,"[""circle"",""green"",""vert"",""up"",[0,-150],[150,0]]",circle,green,vert,up,"[0,-150]","[150,0]",up,1,1.1499,,,,,,001,2025-03-10_18h41.28.681,SL_sali_41,2021.2.3,Win32,243.902439,,,89,0,89,0,1,,,,,,,,
,,"[""diamond"",""red"",""vert"",""up"",[106,106],[0,150]]",diamond,red,vert,up,"[106,106]","[0,150]",left,0,0.66,,,,,,001,2025-03-10_18h41.28.681,SL_sali_41,2021.2.3,Win32,243.902439,,,90,0,90,0,1,,,,,,,,
,,"[""diamond"",""red"",""vert"",""up"",[106,106],[0,-150]]",diamond,red,vert,up,"[106,106]","[0,-150]",up,1,0.5622,,,,,,001,2025-03-10_18h41.28.681,SL_sali_41,2021.2.3,Win32,243.902439,,,91,0,91,0,1,,,,,,,,
,,"[""circle"",""no_dis"",""vert"",""up"",[99999,99999],[106,106]]",circle,no_dis,vert,up,"[99999,99999]","[106,106]",up,1,0.5394,,,,,,001,2025-03-10_18h41.28.681,SL_sali_41,2021.2.3,Win32,243.902439,,,92,0,92,0,1,,,,,,,,
,,"[""circle"",""green"",""vert"",""up"",[-106,106],[106,106]]",circle,green,vert,up,"[-106,106]","[106,106]",left,0,0.4377,,,,,,001,2025-03-10_18h41.28.681,SL_sali_41,2021.2.3,Win32,243.902439,,,93,0,93,0,1,,,,,,,,
,,"[""circle"",""no_dis"",""vert"",""up"",[99999,99999],[106,106]]",circle,no_dis,vert,up,"[99999,99999]","[106,106]",up,1,0.3558,,,,,,001,2025-03-10_18h41.28.681,SL_sali_41,2021.2.3,Win32,243.902439,,,94,0,94,0,1,,,,,,,,
,,"[""diamond"",""green"",""hori"",""left"",[-106,-106],[-106,106]]",diamond,green,hori,left,"[-106,-106]","[-106,106]",up,0,0.6461,,,,,,001,2025-03-10_18h41.28.681,SL_sali_41,2021.2.3,Win32,243.902439,,,95,0,95,0,1,,,,,,,,
,,"[""diamond"",""green"",""vert"",""up"",[0,150],[150,0]]",diamond,green,vert,up,"[0,150]","[150,0]",left,0,0.5005,,,,,,001,2025-03-10_18h41.28.681,SL_sali_41,2021.2.3,Win32,243.902439,,,96,0,96,0,1,,,,,,,,
,,"[""diamond"",""green"",""vert"",""up"",[0,-150],[150,0]]",diamond,green,vert,up,"[0,-150]","[150,0]",up,1,0.4819,,,,,,001,2025-03-10_18h41.28.681,SL_sali_41,2021.2.3,Win32,243.902439,,,97,0,97,0,1,,,,,,,,
,,"[""diamond"",""green"",""hori"",""left"",[0,150],[-106,-106]]",diamond,green,hori,left,"[0,150]","[-106,-106]",left,1,0.6587,,,,,,001,2025-03-10_18h41.28.681,SL_sali_41,2021.2.3,Win32,243.902439,,,98,0,98,0,1,,,,,,,,
,,"[""circle"",""green"",""hori"",""left"",[0,-150],[0,150]]",circle,green,hori,left,"[0,-150]","[0,150]",up,0,0.5452,,,,,,001,2025-03-10_18h41.28.681,SL_sali_41,2021.2.3,Win32,243.902439,,,99,0,99,0,1,,,,,,,,
,,"[""circle"",""green"",""vert"",""up"",[150,0],[0,150]]",circle,green,vert,up,"[150,0]","[0,150]",left,0,0.9355,,,,,,001,2025-03-10_18h41.28.681,SL_sali_41,2021.2.3,Win32,243.902439,,,100,0,100,0,1,,,,,,,,
,,"[""circle"",""red"",""vert"",""up"",[150,0],[0,-150]]",circle,red,vert,up,"[150,0]","[0,-150]",up,1,0.571,,,,,,001,2025-03-10_18h41.28.681,SL_sali_41,2021.2.3,Win32,243.902439,,,101,0,101,0,1,,,,,,,,
,,"[""circle"",""green"",""hori"",""left"",[0,150],[106,-106]]",circle,green,hori,left,"[0,150]","[106,-106]",left,1,0.8184,,,,,,001,2025-03-10_18h41.28.681,SL_sali_41,2021.2.3,Win32,243.902439,,,102,0,102,0,1,,,,,,,,
,,"[""circle"",""green"",""vert"",""up"",[0,-150],[150,0]]",circle,green,vert,up,"[0,-150]","[150,0]",up,1,1.0438,,,,,,001,2025-03-10_18h41.28.681,SL_sali_41,2021.2.3,Win32,243.902439,,,103,0,103,0,1,,,,,,,,
,,"[""circle"",""no_dis"",""hori"",""left"",[99999,99999],[106,106]]",circle,no_dis,hori,left,"[99999,99999]","[106,106]",up,0,0.8833,,,,,,001,2025-03-10_18h41.28.681,SL_sali_41,2021.2.3,Win32,243.902439,,,104,0,104,0,1,,,,,,,,
,,"[""diamond"",""green"",""vert"",""up"",[0,150],[106,-106]]",diamond,green,vert,up,"[0,150]","[106,-106]",left,0,0.5249,,,,,,001,2025-03-10_18h41.28.681,SL_sali_41,2021.2.3,Win32,243.902439,,,105,0,105,0,1,,,,,,,,
,,"[""circle"",""no_dis"",""vert"",""up"",[99999,99999],[-106,106]]",circle,no_dis,vert,up,"[99999,99999]","[-106,106]",up,1,0.61,,,,,,001,2025-03-10_18h41.28.681,SL_sali_41,2021.2.3,Win32,243.902439,,,106,0,106,0,1,,,,,,,,
,,"[""diamond"",""red"",""vert"",""up"",[0,-150],[-106,106]]",diamond,red,vert,up,"[0,-150]","[-106,106]",up,1,0.4233,,,,,,001,2025-03-10_18h41.28.681,SL_sali_41,2021.2.3,Win32,243.902439,,,107,0,107,0,1,,,,,,,,
,,"[""diamond"",""no_dis"",""hori"",""left"",[99999,99999],[-106,106]]",diamond,no_dis,hori,left,"[99999,99999]","[-106,106]",left,1,0.3741,,,,,,001,2025-03-10_18h41.28.681,SL_sali_41,2021.2.3,Win32,243.902439,,,108,0,108,0,1,,,,,,,,
,,"[""circle"",""green"",""vert"",""up"",[0,-150],[0,150]]",circle,green,vert,up,"[0,-150]","[0,150]",left,0,0.4243,,,,,,001,2025-03-10_18h41.28.681,SL_sali_41,2021.2.3,Win32,243.902439,,,109,0,109,0,1,,,,,,,,
,,"[""diamond"",""red"",""hori"",""left"",[0,-150],[106,106]]",diamond,red,hori,left,"[0,-150]","[106,106]",left,1,0.5303,,,,,,001,2025-03-10_18h41.28.681,SL_sali_41,2021.2.3,Win32,243.902439,,,110,0,110,0,1,,,,,,,,
,,"[""circle"",""red"",""vert"",""up"",[106,-106],[-150,0]]",circle,red,vert,up,"[106,-106]","[-150,0]",up,1,0.5228,,,,,,001,2025-03-10_18h41.28.681,SL_sali_41,2021.2.3,Win32,243.902439,,,111,0,111,0,1,,,,,,,,
,,"[""circle"",""red"",""vert"",""up"",[0,-150],[106,-106]]",circle,red,vert,up,"[0,-150]","[106,-106]",up,1,0.4718,,,,,,001,2025-03-10_18h41.28.681,SL_sali_41,2021.2.3,Win32,243.902439,,,112,0,112,0,1,,,,,,,,
,,"[""diamond"",""no_dis"",""vert"",""up"",[99999,99999],[0,150]]",diamond,no_dis,vert,up,"[99999,99999]","[0,150]",left,0,0.4974,,,,,,001,2025-03-10_18h41.28.681,SL_sali_41,2021.2.3,Win32,243.902439,,,113,0,113,0,1,,,,,,,,
,,"[""diamond"",""no_dis"",""vert"",""up"",[99999,99999],[-150,0]]",diamond,no_dis,vert,up,"[99999,99999]","[-150,0]",left,0,0.9087,,,,,,001,2025-03-10_18h41.28.681,SL_sali_41,2021.2.3,Win32,243.902439,,,114,0,114,0,1,,,,,,,,
,,"[""circle"",""no_dis"",""hori"",""left"",[99999,99999],[-106,106]]",circle,no_dis,hori,left,"[99999,99999]","[-106,106]",up,0,0.9043,,,,,,001,2025-03-10_18h41.28.681,SL_sali_41,2021.2.3,Win32,243.902439,,,115,0,115,0,1,,,,,,,,
,,"[""circle"",""red"",""vert"",""up"",[150,0],[0,-150]]",circle,red,vert,up,"[150,0]","[0,-150]",left,0,0.8544,,,,,,001,2025-03-10_18h41.28.681,SL_sali_41,2021.2.3,Win32,243.902439,,,116,0,116,0,1,,,,,,,,
,,"[""diamond"",""no_dis"",""hori"",""left"",[99999,99999],[150,0]]",diamond,no_dis,hori,left,"[99999,99999]","[150,0]",left,1,1.3092,,,,,,001,2025-03-10_18h41.28.681,SL_sali_41,2021.2.3,Win32,243.902439,,,117,0,117,0,1,,,,,,,,
,,"[""diamond"",""no_dis"",""vert"",""up"",[99999,99999],[106,106]]",diamond,no_dis,vert,up,"[99999,99999]","[106,106]",up,1,1.2746,,,,,,001,2025-03-10_18h41.28.681,SL_sali_41,2021.2.3,Win32,243.902439,,,118,0,118,0,1,,,,,,,,
,,"[""diamond"",""red"",""hori"",""left"",[106,-106],[0,150]]",diamond,red,hori,left,"[106,-106]","[0,150]",left,1,1.1207,,,,,,001,2025-03-10_18h41.28.681,SL_sali_41,2021.2.3,Win32,243.902439,,,119,0,119,0,1,,,,,,,,
,,"[""diamond"",""red"",""vert"",""up"",[-106,-106],[106,-106]]",diamond,red,vert,up,"[-106,-106]","[106,-106]",left,0,1.1911,,,,,,001,2025-03-10_18h41.28.681,SL_sali_41,2021.2.3,Win32,243.902439,,,120,0,120,0,1,,,,,,,,
,,"[""circle"",""red"",""hori"",""left"",[150,0],[106,106]]",circle,red,hori,left,"[150,0]","[106,106]",up,0,1.5047,,,,,,001,2025-03-10_18h41.28.681,SL_sali_41,2021.2.3,Win32,243.902439,,,121,0,121,0,1,,,,,,,,
,,"[""circle"",""green"",""hori"",""left"",[106,-106],[-106,-106]]",circle,green,hori,left,"[106,-106]","[-106,-106]",up,0,1.3717,,,,,,001,2025-03-10_18h41.28.681,SL_sali_41,2021.2.3,Win32,243.902439,,,122,0,122,0,1,,,,,,,,
,,"[""diamond"",""red"",""hori"",""left"",[0,-150],[-150,0]]",diamond,red,hori,left,"[0,-150]","[-150,0]",left,1,0.7847,,,,,,001,2025-03-10_18h41.28.681,SL_sali_41,2021.2.3,Win32,243.902439,,,123,0,123,0,1,,,,,,,,
,,"[""circle"",""green"",""hori"",""left"",[-150,0],[106,106]]",circle,green,hori,left,"[-150,0]","[106,106]",left,1,1.4836,,,,,,001,2025-03-10_18h41.28.681,SL_sali_41,2021.2.3,Win32,243.902439,,,124,0,124,0,1,,,,,,,,
,,"[""circle"",""red"",""vert"",""up"",[150,0],[106,-106]]",circle,red,vert,up,"[150,0]","[106,-106]",left,0,0.7457,,,,,,001,2025-03-10_18h41.28.681,SL_sali_41,2021.2.3,Win32,243.902439,,,125,0,125,0,1,,,,,,,,
,,"[""circle"",""no_dis"",""vert"",""up"",[99999,99999],[106,-106]]",circle,no_dis,vert,up,"[99999,99999]","[106,-106]",up,1,1.2889,,,,,,001,2025-03-10_18h41.28.681,SL_sali_41,2021.2.3,Win32,243.902439,,,126,0,126,0,1,,,,,,,,
,,"[""circle"",""red"",""hori"",""left"",[0,-150],[-106,-106]]",circle,red,hori,left,"[0,-150]","[-106,-106]",up,0,1.5651,,,,,,001,2025-03-10_18h41.28.681,SL_sali_41,2021.2.3,Win32,243.902439,,,127,0,127,0,1,,,,,,,,
,,,,,,,,,,,,,,,,,001,2025-03-10_18h41.28.681,SL_sali_41,2021.2.3,Win32,243.902439,,,,,,,,1,space,25.7271,0,0,0,0,1
,,"[""diamond"",""green"",""hori"",""left"",[-106,106],[0,150]]",diamond,green,hori,left,"[-106,106]","[0,150]",left,1,0.8048,,,,,,001,2025-03-10_18h41.28.681,SL_sali_41,2021.2.3,Win32,243.902439,,,0,0,0,0,1,,,,,,,,
,,"[""circle"",""green"",""hori"",""left"",[0,-150],[0,150]]",circle,green,hori,left,"[0,-150]","[0,150]",up,0,0.7811,,,,,,001,2025-03-10_18h41.28.681,SL_sali_41,2021.2.3,Win32,243.902439,,,1,0,1,0,1,,,,,,,,
,,"[""circle"",""no_dis"",""vert"",""up"",[99999,99999],[0,150]]",circle,no_dis,vert,up,"[99999,99999]","[0,150]",left,0,1.2386,,,,,,001,2025-03-10_18h41.28.681,SL_sali_41,2021.2.3,Win32,243.902439,,,2,0,2,0,1,,,,,,,,
,,"[""diamond"",""no_dis"",""vert"",""up"",[99999,99999],[0,-150]]",diamond,no_dis,vert,up,"[99999,99999]","[0,-150]",up,1,0.589,,,,,,001,2025-03-10_18h41.28.681,SL_sali_41,2021.2.3,Win32,243.902439,,,3,0,3,0,1,,,,,,,,
,,"[""circle"",""no_dis"",""hori"",""left"",[99999,99999],[-106,-106]]",circle,no_dis,hori,left,"[99999,99999]","[-106,-106]",left,1,0.6449,,,,,,001,2025-03-10_18h41.28.681,SL_sali_41,2021.2.3,Win32,243.902439,,,4,0,4,0,1,,,,,,,,
,,"[""circle"",""green"",""vert"",""up"",[-106,106],[0,-150]]",circle,green,vert,up,"[-106,106]","[0,-150]",left,0,0.7645,,,,,,001,2025-03-10_18h41.28.681,SL_sali_41,2021.2.3,Win32,243.902439,,,5,0,5,0,1,,,,,,,,
,,"[""diamond"",""red"",""vert"",""up"",[-150,0],[106,106]]",diamond,red,vert,up,"[-150,0]","[106,106]",up,1,0.8424,,,,,,001,2025-03-10_18h41.28.681,SL_sali_41,2021.2.3,Win32,243.902439,,,6,0,6,0,1,,,,,,,,
,,"[""diamond"",""no_dis"",""vert"",""up"",[99999,99999],[150,0]]",diamond,no_dis,vert,up,"[99999,99999]","[150,0]",left,0,1.1247,,,,,,001,2025-03-10_18h41.28.681,SL_sali_41,2021.2.3,Win32,243.902439,,,7,0,7,0,1,,,,,,,,
,,"[""diamond"",""green"",""vert"",""up"",[0,-150],[106,106]]",diamond,green,vert,up,"[0,-150]","[106,106]",up,1,0.9373,,,,,,001,2025-03-10_18h41.28.681,SL_sali_41,2021.2.3,Win32,243.902439,,,8,0,8,0,1,,,,,,,,
,,"[""circle"",""green"",""vert"",""up"",[-106,106],[106,106]]",circle,green,vert,up,"[-106,106]","[106,106]",up,1,0.6704,,,,,,001,2025-03-10_18h41.28.681,SL_sali_41,2021.2.3,Win32,243.902439,,,9,0,9,0,1,,,,,,,,
,,"[""diamond"",""red"",""hori"",""left"",[150,0],[-106,106]]",diamond,red,hori,left,"[150,0]","[-106,106]",up,0,0.599,,,,,,001,2025-03-10_18h41.28.681,SL_sali_41,2021.2.3,Win32,243.902439,,,10,0,10,0,1,,,,,,,,
,,"[""circle"",""green"",""hori"",""left"",[106,-106],[150,0]]",circle,green,hori,left,"[106,-106]","[150,0]",left,1,0.8977,,,,,,001,2025-03-10_18h41.28.681,SL_sali_41,2021.2.3,Win32,243.902439,,,11,0,11,0,1,,,,,,,,
,,"[""diamond"",""green"",""vert"",""up"",[0,-150],[106,-106]]",diamond,green,vert,up,"[0,-150]","[106,-106]",up,1,1.6055,,,,,,001,2025-03-10_18h41.28.681,SL_sali_41,2021.2.3,Win32,243.902439,,,12,0,12,0,1,,,,,,,,
,,"[""diamond"",""no_dis"",""vert"",""up"",[99999,99999],[106,106]]",diamond,no_dis,vert,up,"[99999,99999]","[106,106]",up,1,1.033,,,,,,001,2025-03-10_18h41.28.681,SL_sali_41,2021.2.3,Win32,243.902439,,,13,0,13,0,1,,,,,,,,
,,"[""diamond"",""green"",""hori"",""left"",[0,150],[0,-150]]",diamond,green,hori,left,"[0,150]","[0,-150]",left,1,1.3656,,,,,,001,2025-03-10_18h41.28.681,SL_sali_41,2021.2.3,Win32,243.902439,,,14,0,14,0,1,,,,,,,,
,,"[""diamond"",""no_dis"",""hori"",""left"",[99999,99999],[150,0]]",diamond,no_dis,hori,left,"[99999,99999]","[150,0]",left,1,0.7997,,,,,,001,2025-03-10_18h41.28.681,SL_sali_41,2021.2.3,Win32,243.902439,,,15,0,15,0,1,,,,,,,,
,,"[""circle"",""red"",""hori"",""left"",[0,-150],[-106,106]]",circle,red,hori,left,"[0,-150]","[-106,106]",up,0,0.8453,,,,,,001,2025-03-10_18h41.28.681,SL_sali_41,2021.2.3,Win32,243.902439,,,16,0,16,0,1,,,,,,,,
,,"[""diamond"",""green"",""hori"",""left"",[-106,-106],[150,0]]",diamond,green,hori,left,"[-106,-106]","[150,0]",left,1,0.9269,,,,,,001,2025-03-10_18h41.28.681,SL_sali_41,2021.2.3,Win32,243.902439,,,17,0,17,0,1,,,,,,,,
,,"[""circle"",""green"",""hori"",""left"",[-150,0],[-106,106]]",circle,green,hori,left,"[-150,0]","[-106,106]",up,0,0.9673,,,,,,001,2025-03-10_18h41.28.681,SL_sali_41,2021.2.3,Win32,243.902439,,,18,0,18,0,1,,,,,,,,
,,"[""circle"",""green"",""vert"",""up"",[0,-150],[150,0]]",circle,green,vert,up,"[0,-150]","[150,0]",left,0,1.2049,,,,,,001,2025-03-10_18h41.28.681,SL_sali_41,2021.2.3,Win32,243.902439,,,19,0,19,0,1,,,,,,,,
,,"[""diamond"",""red"",""vert"",""up"",[-106,106],[106,106]]",diamond,red,vert,up,"[-106,106]","[106,106]",up,1,1.2786,,,,,,001,2025-03-10_18h41.28.681,SL_sali_41,2021.2.3,Win32,243.902439,,,20,0,20,0,1,,,,,,,,
,,"[""diamond"",""no_dis"",""hori"",""left"",[99999,99999],[-106,106]]",diamond,no_dis,hori,left,"[99999,99999]","[-106,106]",left,1,1.7932,,,,,,001,2025-03-10_18h41.28.681,SL_sali_41,2021.2.3,Win32,243.902439,,,21,0,21,0,1,,,,,,,,
,,"[""diamond"",""green"",""hori"",""left"",[0,150],[-106,-106]]",diamond,green,hori,left,"[0,150]","[-106,-106]",left,1,1.4729,,,,,,001,2025-03-10_18h41.28.681,SL_sali_41,2021.2.3,Win32,243.902439,,,22,0,22,0,1,,,,,,,,
,,"[""circle"",""green"",""vert"",""up"",[106,106],[-150,0]]",circle,green,vert,up,"[106,106]","[-150,0]",up,1,1.9757,,,,,,001,2025-03-10_18h41.28.681,SL_sali_41,2021.2.3,Win32,243.902439,,,23,0,23,0,1,,,,,,,,
,,"[""diamond"",""green"",""vert"",""up"",[150,0],[106,106]]",diamond,green,vert,up,"[150,0]","[106,106]",left,0,1.8251,,,,,,001,2025-03-10_18h41.28.681,SL_sali_41,2021.2.3,Win32,243.902439,,,24,0,24,0,1,,,,,,,,
,,"[""diamond"",""no_dis"",""hori"",""left"",[99999,99999],[0,-150]]",diamond,no_dis,hori,left,"[99999,99999]","[0,-150]",up,0,1.7004,,,,,,001,2025-03-10_18h41.28.681,SL_sali_41,2021.2.3,Win32,243.902439,,,25,0,25,0,1,,,,,,,,
,,"[""diamond"",""no_dis"",""vert"",""up"",[99999,99999],[-150,0]]",diamond,no_dis,vert,up,"[99999,99999]","[-150,0]",left,0,1.1352,,,,,,001,2025-03-10_18h41.28.681,SL_sali_41,2021.2.3,Win32,243.902439,,,26,0,26,0,1,,,,,,,,
,,"[""circle"",""green"",""vert"",""up"",[0,-150],[-106,106]]",circle,green,vert,up,"[0,-150]","[-106,106]",up,1,1.1593,,,,,,001,2025-03-10_18h41.28.681,SL_sali_41,2021.2.3,Win32,243.902439,,,27,0,27,0,1,,,,,,,,
,,"[""diamond"",""green"",""vert"",""up"",[0,-150],[106,-106]]",diamond,green,vert,up,"[0,-150]","[106,-106]",up,1,0.4833,,,,,,001,2025-03-10_18h41.28.681,SL_sali_41,2021.2.3,Win32,243.902439,,,28,0,28,0,1,,,,,,,,
,,"[""circle"",""green"",""hori"",""left"",[0,150],[106,-106]]",circle,green,hori,left,"[0,150]","[106,-106]",up,0,0.6022,,,,,,001,2025-03-10_18h41.28.681,SL_sali_41,2021.2.3,Win32,243.902439,,,29,0,29,0,1,,,,,,,,
,,"[""diamond"",""red"",""vert"",""up"",[-150,0],[-106,-106]]",diamond,red,vert,up,"[-150,0]","[-106,-106]",left,0,0.6793,,,,,,001,2025-03-10_18h41.28.681,SL_sali_41,2021.2.3,Win32,243.902439,,,30,0,30,0,1,,,,,,,,
,,"[""circle"",""red"",""vert"",""up"",[0,-150],[-106,-106]]",circle,red,vert,up,"[0,-150]","[-106,-106]",up,1,1.1982,,,,,,001,2025-03-10_18h41.28.681,SL_sali_41,2021.2.3,Win32,243.902439,,,31,0,31,0,1,,,,,,,,
,,"[""circle"",""red"",""hori"",""left"",[0,-150],[150,0]]",circle,red,hori,left,"[0,-150]","[150,0]",up,0,0.4667,,,,,,001,2025-03-10_18h41.28.681,SL_sali_41,2021.2.3,Win32,243.902439,,,32,0,32,0,1,,,,,,,,
,,"[""diamond"",""green"",""vert"",""up"",[-106,-106],[106,-106]]",diamond,green,vert,up,"[-106,-106]","[106,-106]",left,0,1.0996,,,,,,001,2025-03-10_18h41.28.681,SL_sali_41,2021.2.3,Win32,243.902439,,,33,0,33,0,1,,,,,,,,
,,"[""diamond"",""red"",""hori"",""left"",[-106,-106],[106,-106]]",diamond,red,hori,left,"[-106,-106]","[106,-106]",up,0,1.2553,,,,,,001,2025-03-10_18h41.28.681,SL_sali_41,2021.2.3,Win32,243.902439,,,34,0,34,0,1,,,,,,,,
,,"[""circle"",""green"",""vert"",""up"",[0,-150],[150,0]]",circle,green,vert,up,"[0,-150]","[150,0]",left,0,0.5795,,,,,,001,2025-03-10_18h41.28.681,SL_sali_41,2021.2.3,Win32,243.902439,,,35,0,35,0,1,,,,,,,,
,,"[""circle"",""red"",""vert"",""up"",[106,-106],[-150,0]]",circle,red,vert,up,"[106,-106]","[-150,0]",up,1,1.4253,,,,,,001,2025-03-10_18h41.28.681,SL_sali_41,2021.2.3,Win32,243.902439,,,36,0,36,0,1,,,,,,,,
,,"[""circle"",""no_dis"",""vert"",""up"",[99999,99999],[106,-106]]",circle,no_dis,vert,up,"[99999,99999]","[106,-106]",left,0,1.3189,,,,,,001,2025-03-10_18h41.28.681,SL_sali_41,2021.2.3,Win32,243.902439,,,37,0,37,0,1,,,,,,,,
,,"[""diamond"",""no_dis"",""vert"",""up"",[99999,99999],[0,-150]]",diamond,no_dis,vert,up,"[99999,99999]","[0,-150]",up,1,1.5488,,,,,,001,2025-03-10_18h41.28.681,SL_sali_41,2021.2.3,Win32,243.902439,,,38,0,38,0,1,,,,,,,,
,,"[""diamond"",""red"",""vert"",""up"",[-106,-106],[106,-106]]",diamond,red,vert,up,"[-106,-106]","[106,-106]",up,1,1.6667,,,,,,001,2025-03-10_18h41.28.681,SL_sali_41,2021.2.3,Win32,243.902439,,,39,0,39,0,1,,,,,,,,
,,"[""circle"",""red"",""vert"",""up"",[0,-150],[0,150]]",circle,red,vert,up,"[0,-150]","[0,150]",left,0,0.9681,,,,,,001,2025-03-10_18h41.28.681,SL_sali_41,2021.2.3,Win32,243.902439,,,40,0,40,0,1,,,,,,,,
,,"[""diamond"",""no_dis"",""hori"",""left"",[99999,99999],[0,-150]]",diamond,no_dis,hori,left,"[99999,99999]","[0,-150]",up,0,1.0553,,,,,,001,2025-03-10_18h41.28.681,SL_sali_41,2021.2.3,Win32,243.902439,,,41,0,41,0,1,,,,,,,,
,,"[""circle"",""no_dis"",""hori"",""left"",[99999,99999],[-106,106]]",circle,no_dis,hori,left,"[99999,99999]","[-106,106]",left,1,0.592,,,,,,001,2025-03-10_18h41.28.681,SL_sali_41,2021.2.3,Win32,243.902439,,,42,0,42,0,1,,,,,,,,
,,"[""diamond"",""no_dis"",""vert"",""up"",[99999,99999],[150,0]]",diamond,no_dis,vert,up,"[99999,99999]","[150,0]",left,0,0.6573,,,,,,001,2025-03-10_18h41.28.681,SL_sali_41,2021.2.3,Win32,243.902439,,,43,0,43,0,1,,,,,,,,
,,"[""circle"",""red"",""vert"",""up"",[0,-150],[106,-106]]",circle,red,vert,up,"[0,-150]","[106,-106]",up,1,0.5668,,,,,,001,2025-03-10_18h41.28.681,SL_sali_41,2021.2.3,Win32,243.902439,,,44,0,44,0,1,,,,,,,,
,,"[""circle"",""red"",""vert"",""up"",[150,0],[106,-106]]",circle,red,vert,up,"[150,0]","[106,-106]",left,0,0.8713,,,,,,001,2025-03-10_18h41.28.681,SL_sali_41,2021.2.3,Win32,243.902439,,,45,0,45,0,1,,,,,,,,
,,"[""diamond"",""red"",""hori"",""left"",[0,-150],[-150,0]]",diamond,red,hori,left,"[0,-150]","[-150,0]",up,0,0.478,,,,,,001,2025-03-10_18h41.28.681,SL_sali_41,2021.2.3,Win32,243.902439,,,46,0,46,0,1,,,,,,,,
,,"[""circle"",""red"",""hori"",""left"",[106,-106],[106,106]]",circle,red,hori,left,"[106,-106]","[106,106]",left,1,0.8287,,,,,,001,2025-03-10_18h41.28.681,SL_sali_41,2021.2.3,Win32,243.902439,,,47,0,47,0,1,,,,,,,,
,,"[""circle"",""no_dis"",""vert"",""up"",[99999,99999],[106,-106]]",circle,no_dis,vert,up,"[99999,99999]","[106,-106]",left,0,0.5812,,,,,,001,2025-03-10_18h41.28.681,SL_sali_41,2021.2.3,Win32,243.902439,,,48,0,48,0,1,,,,,,,,
,,"[""circle"",""green"",""vert"",""up"",[0,-150],[150,0]]",circle,green,vert,up,"[0,-150]","[150,0]",up,1,0.531,,,,,,001,2025-03-10_18h41.28.681,SL_sali_41,2021.2.3,Win32,243.902439,,,49,0,49,0,1,,,,,,,,
,,"[""diamond"",""red"",""hori"",""left"",[0,-150],[-150,0]]",diamond,red,hori,left,"[0,-150]","[-150,0]",left,1,0.6676,,,,,,001,2025-03-10_18h41.28.681,SL_sali_41,2021.2.3,Win32,243.902439,,,50,0,50,0,1,,,,,,,,
,,"[""diamond"",""no_dis"",""vert"",""up"",[99999,99999],[-150,0]]",diamond,no_dis,vert,up,"[99999,99999]","[-150,0]",left,0,0.6797,,,,,,001,2025-03-10_18h41.28.681,SL_sali_41,2021.2.3,Win32,243.902439,,,51,0,51,0,1,,,,,,,,
,,"[""diamond"",""red"",""vert"",""up"",[-150,0],[150,0]]",diamond,red,vert,up,"[-150,0]","[150,0]",up,1,0.7126,,,,,,001,2025-03-10_18h41.28.681,SL_sali_41,2021.2.3,Win32,243.902439,,,52,0,52,0,1,,,,,,,,
,,"[""circle"",""green"",""hori"",""left"",[-106,106],[0,150]]",circle,green,hori,left,"[-106,106]","[0,150]",up,0,0.7493,,,,,,001,2025-03-10_18h41.28.681,SL_sali_41,2021.2.3,Win32,243.902439,,,53,0,53,0,1,,,,,,,,
,,"[""circle"",""red"",""hori"",""left"",[0,-150],[-106,-106]]",circle,red,hori,left,"[0,-150]","[-106,-106]",left,1,0.4599,,,,,,001,2025-03-10_18h41.28.681,SL_sali_41,2021.2.3,Win32,243.902439,,,54,0,54,0,1,,,,,,,,
,,"[""circle"",""red"",""vert"",""up"",[106,106],[0,-150]]",circle,red,vert,up,"[106,106]","[0,-150]",left,0,0.6842,,,,,,001,2025-03-10_18h41.28.681,SL_sali_41,2021.2.3,Win32,243.902439,,,55,0,55,0,1,,,,,,,,
,,"[""circle"",""green"",""hori"",""left"",[0,-150],[-106,-106]]",circle,green,hori,left,"[0,-150]","[-106,-106]",up,0,0.4923,,,,,,001,2025-03-10_18h41.28.681,SL_sali_41,2021.2.3,Win32,243.902439,,,56,0,56,0,1,,,,,,,,
,,"[""diamond"",""red"",""hori"",""left"",[-150,0],[-106,-106]]",diamond,red,hori,left,"[-150,0]","[-106,-106]",left,1,0.7764,,,,,,001,2025-03-10_18h41.28.681,SL_sali_41,2021.2.3,Win32,243.902439,,,57,0,57,0,1,,,,,,,,
,,"[""diamond"",""red"",""hori"",""left"",[0,-150],[106,106]]",diamond,red,hori,left,"[0,-150]","[106,106]",left,1,0.3876,,,,,,001,2025-03-10_18h41.28.681,SL_sali_41,2021.2.3,Win32,243.902439,,,58,0,58,0,1,,,,,,,,
,,"[""diamond"",""green"",""vert"",""up"",[-106,-106],[-106,106]]",diamond,green,vert,up,"[-106,-106]","[-106,106]",left,0,0.8414,,,,,,001,2025-03-10_18h41.28.681,SL_sali_41,2021.2.3,Win32,243.902439,,,59,0,59,0,1,,,,,,,,
,,"[""circle"",""no_dis"",""vert"",""up"",[99999,99999],[106,106]]",circle,no_dis,vert,up,"[99999,99999]","[106,106]",up,1,1.0465,,,,,,001,2025-03-10_18h41.28.681,SL_sali_41,2021.2.3,Win32,243.902439,,,60,0,60,0,1,,,,,,,,
,,"[""diamond"",""green"",""hori"",""left"",[106,-106],[0,150]]",diamond,green,hori,left,"[106,-106]","[0,150]",left,1,0.6756,,,,,,001,2025-03-10_18h41.28.681,SL_sali_41,2021.2.3,Win32,243.902439,,,61,0,61,0,1,,,,,,,,
,,"[""diamond"",""red"",""hori"",""left"",[0,150],[0,-150]]",diamond,red,hori,left,"[0,150]","[0,-150]",up,0,0.7952,,,,,,001,2025-03-10_18h41.28.681,SL_sali_41,2021.2.3,Win32,243.902439,,,62,0,62,0,1,,,,,,,,
,,"[""diamond"",""no_dis"",""hori"",""left"",[99999,99999],[0,-150]]",diamond,no_dis,hori,left,"[99999,99999]","[0,-150]",left,1,0.684,,,,,,001,2025-03-10_18h41.28.681,SL_sali_41,2021.2.3,Win32,243.902439,,,63,0,63,0,1,,,,,,,,
,,"[""diamond"",""green"",""vert"",""up"",[-106,-106],[-150,0]]",diamond,green,vert,up,"[-106,-106]","[-150,0]",up,1,0.701,,,,,,001,2025-03-10_18h41.28.681,SL_sali_41,2021.2.3,Win32,243.902439,,,64,0,64,0,1,,,,,,,,
,,"[""diamond"",""red"",""hori"",""left"",[0,-150],[-106,106]]",diamond,red,hori,left,"[0,-150]","[-106,106]",left,1,1.083,,,,,,001,2025-03-10_18h41.28.681,SL_sali_41,2021.2.3,Win32,243.902439,,,65,0,65,0,1,,,,,,,,
,,"[""circle"",""red"",""hori"",""left"",[0,-150],[-106,106]]",circle,red,hori,left,"[0,-150]","[-106,106]",left,1,1.1345,,,,,,001,2025-03-10_18h41.28.681,SL_sali_41,2021.2.3,Win32,243.902439,,,66,0,66,0,1,,,,,,,,
,,"[""circle"",""red"",""hori"",""left"",[0,-150],[-150,0]]",circle,red,hori,left,"[0,-150]","[-150,0]",left,1,0.6926,,,,,,001,2025-03-10_18h41.28.681,SL_sali_41,2021.2.3,Win32,243.902439,,,67,0,67,0,1,,,,,,,,
,,"[""diamond"",""green"",""hori"",""left"",[0,-150],[-106,106]]",diamond,green,hori,left,"[0,-150]","[-106,106]",up,0,0.6911,,,,,,001,2025-03-10_18h41.28.681,SL_sali_41,2021.2.3,Win32,243.902439,,,68,0,68,0,1,,,,,,,,
,,"[""circle"",""no_dis"",""vert"",""up"",[99999,99999],[0,150]]",circle,no_dis,vert,up,"[99999,99999]","[0,150]",left,0,0.7514,,,,,,001,2025-03-10_18h41.28.681,SL_sali_41,2021.2.3,Win32,243.902439,,,69,0,69,0,1,,,,,,,,
,,"[""circle"",""red"",""vert"",""up"",[0,150],[150,0]]",circle,red,vert,up,"[0,150]","[150,0]",up,1,0.95,,,,,,001,2025-03-10_18h41.28.681,SL_sali_41,2021.2.3,Win32,243.902439,,,70,0,70,0,1,,,,,,,,
,,"[""circle"",""red"",""hori"",""left"",[0,-150],[-150,0]]",circle,red,hori,left,"[0,-150]","[-150,0]",left,1,0.7596,,,,,,001,2025-03-10_18h41.28.681,SL_sali_41,2021.2.3,Win32,243.902439,,,71,0,71,0,1,,,,,,,,
,,"[""circle"",""green"",""hori"",""left"",[-150,0],[106,106]]",circle,green,hori,left,"[-150,0]","[106,106]",up,0,0.8005,,,,,,001,2025-03-10_18h41.28.681,SL_sali_41,2021.2.3,Win32,243.902439,,,72,0,72,0,1,,,,,,,,
,,"[""circle"",""no_dis"",""hori"",""left"",[99999,99999],[-106,106]]",circle,no_dis,hori,left,"[99999,99999]","[-106,106]",left,1,0.4839,,,,,,001,2025-03-10_18h41.28.681,SL_sali_41,2021.2.3,Win32,243.902439,,,73,0,73,0,1,,,,,,,,
,,"[""circle"",""no_dis"",""vert"",""up"",[99999,99999],[0,150]]",circle,no_dis,vert,up,"[99999,99999]","[0,150]",left,0,0.5842,,,,,,001,2025-03-10_18h41.28.681,SL_sali_41,2021.2.3,Win32,243.902439,,,74,0,74,0,1,,,,,,,,
,,"[""circle"",""no_dis"",""hori"",""left"",[99999,99999],[106,-106]]",circle,no_dis,hori,left,"[99999,99999]","[106,-106]",up,0,0.3587,,,,,,001,2025-03-10_18h41.28.681,SL_sali_41,2021.2.3,Win32,243.902439,,,75,0,75,0,1,,,,,,,,
,,"[""circle"",""red"",""hori"",""left"",[-106,106],[106,-106]]",circle,red,hori,left,"[-106,106]","[106,-106]",left,1,0.9335,,,,,,001,2025-03-10_18h41.28.681,SL_sali_41,2021.2.3,Win32,243.902439,,,76,0,76,0,1,,,,,,,,
,,"[""circle"",""green"",""hori"",""left"",[0,150],[150,0]]",circle,green,hori,left,"[0,150]","[150,0]",left,1,0.8981,,,,,,001,2025-03-10_18h41.28.681,SL_sali_41,2021.2.3,Win32,243.902439,,,77,0,77,0,1,,,,,,,,
,,"[""diamond"",""red"",""vert"",""up"",[106,106],[0,-150]]",diamond,red,vert,up,"[106,106]","[0,-150]",up,1,0.6257,,,,,,001,2025-03-10_18h41.28.681,SL_sali_41,2021.2.3,Win32,243.902439,,,78,0,78,0,1,,,,,,,,
,,"[""circle"",""red"",""vert"",""up"",[0,-150],[-106,-106]]",circle,red,vert,up,"[0,-150]","[-106,-106]",left,0,0.473,,,,,,001,2025-03-10_18h41.28.681,SL_sali_41,2021.2.3,Win32,243.902439,,,79,0,79,0,1,,,,,,,,
,,"[""diamond"",""green"",""hori"",""left"",[0,-150],[-106,106]]",diamond,green,hori,left,"[0,-150]","[-106,106]",up,0,0.5041,,,,,,001,2025-03-10_18h41.28.681,SL_sali_41,2021.2.3,Win32,243.902439,,,80,0,80,0,1,,,,,,,,
,,"[""diamond"",""green"",""vert"",""up"",[0,-150],[150,0]]",diamond,green,vert,up,"[0,-150]","[150,0]",left,0,0.7086,,,,,,001,2025-03-10_18h41.28.681,SL_sali_41,2021.2.3,Win32,243.902439,,,81,0,81,0,1,,,,,,,,
,,"[""diamond"",""red"",""vert"",""up"",[0,-150],[-106,106]]",diamond,red,vert,up,"[0,-150]","[-106,106]",up,1,0.8579,,,,,,001,2025-03-10_18h41.28.681,SL_sali_41,2021.2.3,Win32,243.902439,,,82,0,82,0,1,,,,,,,,
,,"[""circle"",""no_dis"",""vert"",""up"",[99999,99999],[-106,106]]",circle,no_dis,vert,up,"[99999,99999]","[-106,106]",up,1,1.2448,,,,,,001,2025-03-10_18h41.28.681,SL_sali_41,2021.2.3,Win32,243.902439,,,83,0,83,0,1,,,,,,,,
,,"[""circle"",""green"",""vert"",""up"",[106,-106],[150,0]]",circle,green,vert,up,"[106,-106]","[150,0]",left,0,1.7503,,,,,,001,2025-03-10_18h41.28.681,SL_sali_41,2021.2.3,Win32,243.902439,,,84,0,84,0,1,,,,,,,,
,,"[""circle"",""green"",""hori"",""left"",[0,-150],[106,106]]",circle,green,hori,left,"[0,-150]","[106,106]",up,0,1.8724,,,,,,001,2025-03-10_18h41.28.681,SL_sali_41,2021.2.3,Win32,243.902439,,,85,0,85,0,1,,,,,,,,
,,"[""diamond"",""red"",""hori"",""left"",[0,-150],[106,-106]]",diamond,red,hori,left,"[0,-150]","[106,-106]",left,1,1.3964,,,,,,001,2025-03-10_18h41.28.681,SL_sali_41,2021.2.3,Win32,243.902439,,,86,0,86,0,1,,,,,,,,
,,"[""diamond"",""green"",""vert"",""up"",[0,150],[106,-106]]",diamond,green,vert,up,"[0,150]","[106,-106]",left,0,1.7472,,,,,,001,2025-03-10_18h41.28.681,SL_sali_41,2021.2.3,Win32,243.902439,,,87,0,87,0,1,,,,,,,,
,,"[""diamond"",""green"",""hori"",""left"",[150,0],[0,-150]]",diamond,green,hori,left,"[150,0]","[0,-150]",up,0,1.5238,,,,,,001,2025-03-10_18h41.28.681,SL_sali_41,2021.2.3,Win32,243.902439,,,88,0,88,0,1,,,,,,,,
,,"[""circle"",""no_dis"",""hori"",""left"",[99999,99999],[-106,-106]]",circle,no_dis,hori,left,"[99999,99999]","[-106,-106]",up,0,0.9476,,,,,,001,2025-03-10_18h41.28.681,SL_sali_41,2021.2.3,Win32,243.902439,,,89,0,89,0,1,,,,,,,,
,,"[""diamond"",""green"",""hori"",""left"",[-106,-106],[0,-150]]",diamond,green,hori,left,"[-106,-106]","[0,-150]",up,0,1.2459,,,,,,001,2025-03-10_18h41.28.681,SL_sali_41,2021.2.3,Win32,243.902439,,,90,0,90,0,1,,,,,,,,
,,"[""circle"",""red"",""vert"",""up"",[150,0],[0,-150]]",circle,red,vert,up,"[150,0]","[0,-150]",left,0,1.2559,,,,,,001,2025-03-10_18h41.28.681,SL_sali_41,2021.2.3,Win32,243.902439,,,91,0,91,0,1,,,,,,,,
,,"[""circle"",""green"",""vert"",""up"",[0,-150],[0,150]]",circle,green,vert,up,"[0,-150]","[0,150]",left,0,0.7551,,,,,,001,2025-03-10_18h41.28.681,SL_sali_41,2021.2.3,Win32,243.902439,,,92,0,92,0,1,,,,,,,,
,,"[""diamond"",""no_dis"",""hori"",""left"",[99999,99999],[-150,0]]",diamond,no_dis,hori,left,"[99999,99999]","[-150,0]",left,1,0.978,,,,,,001,2025-03-10_18h41.28.681,SL_sali_41,2021.2.3,Win32,243.902439,,,93,0,93,0,1,,,,,,,,
,,"[""circle"",""no_dis"",""hori"",""left"",[99999,99999],[106,106]]",circle,no_dis,hori,left,"[99999,99999]","[106,106]",left,1,0.4306,,,,,,001,2025-03-10_18h41.28.681,SL_sali_41,2021.2.3,Win32,243.902439,,,94,0,94,0,1,,,,,,,,
,,"[""diamond"",""red"",""vert"",""up"",[-150,0],[-106,106]]",diamond,red,vert,up,"[-150,0]","[-106,106]",up,1,0.6415,,,,,,001,2025-03-10_18h41.28.681,SL_sali_41,2021.2.3,Win32,243.902439,,,95,0,95,0,1,,,,,,,,
,,"[""diamond"",""no_dis"",""hori"",""left"",[99999,99999],[150,0]]",diamond,no_dis,hori,left,"[99999,99999]","[150,0]",left,1,0.9129,,,,,,001,2025-03-10_18h41.28.681,SL_sali_41,2021.2.3,Win32,243.902439,,,96,0,96,0,1,,,,,,,,
,,"[""diamond"",""no_dis"",""vert"",""up"",[99999,99999],[0,150]]",diamond,no_dis,vert,up,"[99999,99999]","[0,150]",left,0,0.4467,,,,,,001,2025-03-10_18h41.28.681,SL_sali_41,2021.2.3,Win32,243.902439,,,97,0,97,0,1,,,,,,,,
,,"[""circle"",""no_dis"",""hori"",""left"",[99999,99999],[106,-106]]",circle,no_dis,hori,left,"[99999,99999]","[106,-106]",left,1,0.4802,,,,,,001,2025-03-10_18h41.28.681,SL_sali_41,2021.2.3,Win32,243.902439,,,98,0,98,0,1,,,,,,,,
,,"[""diamond"",""no_dis"",""vert"",""up"",[99999,99999],[-150,0]]",diamond,no_dis,vert,up,"[99999,99999]","[-150,0]",left,0,0.4249,,,,,,001,2025-03-10_18h41.28.681,SL_sali_41,2021.2.3,Win32,243.902439,,,99,0,99,0,1,,,,,,,,
,,"[""diamond"",""no_dis"",""hori"",""left"",[99999,99999],[-106,106]]",diamond,no_dis,hori,left,"[99999,99999]","[-106,106]",up,0,0.5012,,,,,,001,2025-03-10_18h41.28.681,SL_sali_41,2021.2.3,Win32,243.902439,,,100,0,100,0,1,,,,,,,,
,,"[""circle"",""red"",""hori"",""left"",[-106,106],[0,150]]",circle,red,hori,left,"[-106,106]","[0,150]",up,0,0.7835,,,,,,001,2025-03-10_18h41.28.681,SL_sali_41,2021.2.3,Win32,243.902439,,,101,0,101,0,1,,,,,,,,
,,"[""diamond"",""red"",""hori"",""left"",[106,-106],[0,150]]",diamond,red,hori,left,"[106,-106]","[0,150]",left,1,1.2725,,,,,,001,2025-03-10_18h41.28.681,SL_sali_41,2021.2.3,Win32,243.902439,,,102,0,102,0,1,,,,,,,,
,,"[""diamond"",""green"",""hori"",""left"",[-106,-106],[-106,106]]",diamond,green,hori,left,"[-106,-106]","[-106,106]",left,1,0.6801,,,,,,001,2025-03-10_18h41.28.681,SL_sali_41,2021.2.3,Win32,243.902439,,,103,0,103,0,1,,,,,,,,
,,"[""diamond"",""red"",""vert"",""up"",[106,106],[150,0]]",diamond,red,vert,up,"[106,106]","[150,0]",up,1,0.5908,,,,,,001,2025-03-10_18h41.28.681,SL_sali_41,2021.2.3,Win32,243.902439,,,104,0,104,0,1,,,,,,,,
,,"[""diamond"",""red"",""hori"",""left"",[106,106],[-106,106]]",diamond,red,hori,left,"[106,106]","[-106,106]",left,1,0.8606,,,,,,001,2025-03-10_18h41.28.681,SL_sali_41,2021.2.3,Win32,243.902439,,,105,0,105,0,1,,,,,,,,
,,"[""circle"",""red"",""hori"",""left"",[150,0],[106,106]]",circle,red,hori,left,"[150,0]","[106,106]",left,1,0.6209,,,,,,001,2025-03-10_18h41.28.681,SL_sali_41,2021.2.3,Win32,243.902439,,,106,0,106,0,1,,,,,,,,
,,"[""diamond"",""green"",""hori"",""left"",[106,106],[-106,-106]]",diamond,green,hori,left,"[106,106]","[-106,-106]",up,0,0.5419,,,,,,001,2025-03-10_18h41.28.681,SL_sali_41,2021.2.3,Win32,243.902439,,,107,0,107,0,1,,,,,,,,
,,"[""diamond"",""no_dis"",""hori"",""left"",[99999,99999],[-106,-106]]",diamond,no_dis,hori,left,"[99999,99999]","[-106,-106]",left,1,0.6663,,,,,,001,2025-03-10_18h41.28.681,SL_sali_41,2021.2.3,Win32,243.902439,,,108,0,108,0,1,,,,,,,,
,,"[""diamond"",""no_dis"",""hori"",""left"",[99999,99999],[-106,-106]]",diamond,no_dis,hori,left,"[99999,99999]","[-106,-106]",left,1,1.0333,,,,,,001,2025-03-10_18h41.28.681,SL_sali_41,2021.2.3,Win32,243.902439,,,109,0,109,0,1,,,,,,,,
,,"[""circle"",""no_dis"",""hori"",""left"",[99999,99999],[106,106]]",circle,no_dis,hori,left,"[99999,99999]","[106,106]",up,0,0.7906,,,,,,001,2025-03-10_18h41.28.681,SL_sali_41,2021.2.3,Win32,243.902439,,,110,0,110,0,1,,,,,,,,
,,"[""circle"",""no_dis"",""hori"",""left"",[99999,99999],[150,0]]",circle,no_dis,hori,left,"[99999,99999]","[150,0]",left,1,0.9895,,,,,,001,2025-03-10_18h41.28.681,SL_sali_41,2021.2.3,Win32,243.902439,,,111,0,111,0,1,,,,,,,,
,,"[""circle"",""red"",""hori"",""left"",[0,-150],[-150,0]]",circle,red,hori,left,"[0,-150]","[-150,0]",up,0,0.5814,,,,,,001,2025-03-10_18h41.28.681,SL_sali_41,2021.2.3,Win32,243.902439,,,112,0,112,0,1,,,,,,,,
,,"[""diamond"",""no_dis"",""vert"",""up"",[99999,99999],[0,150]]",diamond,no_dis,vert,up,"[99999,99999]","[0,150]",left,0,0.7786,,,,,,001,2025-03-10_18h41.28.681,SL_sali_41,2021.2.3,Win32,243.902439,,,113,0,113,0,1,,,,,,,,
,,"[""diamond"",""green"",""vert"",""up"",[0,-150],[-106,-106]]",diamond,green,vert,up,"[0,-150]","[-106,-106]",left,0,0.9962,,,,,,001,2025-03-10_18h41.28.681,SL_sali_41,2021.2.3,Win32,243.902439,,,114,0,114,0,1,,,,,,,,
,,"[""diamond"",""red"",""vert"",""up"",[-150,0],[0,150]]",diamond,red,vert,up,"[-150,0]","[0,150]",up,1,1.2919,,,,,,001,2025-03-10_18h41.28.681,SL_sali_41,2021.2.3,Win32,243.902439,,,115,0,115,0,1,,,,,,,,
,,"[""circle"",""green"",""hori"",""left"",[106,-106],[-150,0]]",circle,green,hori,left,"[106,-106]","[-150,0]",left,1,1.4806,,,,,,001,2025-03-10_18h41.28.681,SL_sali_41,2021.2.3,Win32,243.902439,,,116,0,116,0,1,,,,,,,,
,,"[""diamond"",""red"",""vert"",""up"",[106,106],[0,150]]",diamond,red,vert,up,"[106,106]","[0,150]",up,1,1.5033,,,,,,001,2025-03-10_18h41.28.681,SL_sali_41,2021.2.3,Win32,243.902439,,,117,0,117,0,1,,,,,,,,
,,"[""circle"",""no_dis"",""vert"",""up"",[99999,99999],[106,106]]",circle,no_dis,vert,up,"[99999,99999]","[106,106]",left,0,0.6142,,,,,,001,2025-03-10_18h41.28.681,SL_sali_41,2021.2.3,Win32,243.902439,,,118,0,118,0,1,,,,,,,,
,,"[""circle"",""no_dis"",""vert"",""up"",[99999,99999],[106,-106]]",circle,no_dis,vert,up,"[99999,99999]","[106,-106]",up,1,0.7331,,,,,,001,2025-03-10_18h41.28.681,SL_sali_41,2021.2.3,Win32,243.902439,,,119,0,119,0,1,,,,,,,,
,,"[""circle"",""green"",""vert"",""up"",[150,0],[0,150]]",circle,green,vert,up,"[150,0]","[0,150]",left,0,0.5093,,,,,,001,2025-03-10_18h41.28.681,SL_sali_41,2021.2.3,Win32,243.902439,,,120,0,120,0,1,,,,,,,,
,,"[""diamond"",""green"",""vert"",""up"",[0,150],[150,0]]",diamond,green,vert,up,"[0,150]","[150,0]",up,1,0.627,,,,,,001,2025-03-10_18h41.28.681,SL_sali_41,2021.2.3,Win32,243.902439,,,121,0,121,0,1,,,,,,,,
,,"[""circle"",""red"",""vert"",""up"",[150,0],[0,-150]]",circle,red,vert,up,"[150,0]","[0,-150]",left,0,0.6991,,,,,,001,2025-03-10_18h41.28.681,SL_sali_41,2021.2.3,Win32,243.902439,,,122,0,122,0,1,,,,,,,,
,,"[""circle"",""red"",""vert"",""up"",[106,106],[-106,106]]",circle,red,vert,up,"[106,106]","[-106,106]",left,0,0.8878,,,,,,001,2025-03-10_18h41.28.681,SL_sali_41,2021.2.3,Win32,243.902439,,,123,0,123,0,1,,,,,,,,
,,"[""circle"",""no_dis"",""hori"",""left"",[99999,99999],[-150,0]]",circle,no_dis,hori,left,"[99999,99999]","[-150,0]",up,0,0.642,,,,,,001,2025-03-10_18h41.28.681,SL_sali_41,2021.2.3,Win32,243.902439,,,124,0,124,0,1,,,,,,,,
,,"[""circle"",""no_dis"",""vert"",""up"",[99999,99999],[-106,-106]]",circle,no_dis,vert,up,"[99999,99999]","[-106,-106]",left,0,0.9337,,,,,,001,2025-03-10_18h41.28.681,SL_sali_41,2021.2.3,Win32,243.902439,,,125,0,125,0,1,,,,,,,,
,,"[""circle"",""green"",""hori"",""left"",[106,-106],[-106,-106]]",circle,green,hori,left,"[106,-106]","[-106,-106]",left,1,1.3018,,,,,,001,2025-03-10_18h41.28.681,SL_sali_41,2021.2.3,Win32,243.902439,,,126,0,126,0,1,,,,,,,,
,,"[""circle"",""green"",""vert"",""up"",[-106,106],[0,150]]",circle,green,vert,up,"[-106,106]","[0,150]",up,1,0.5183,,,,,,001,2025-03-10_18h41.28.681,SL_sali_41,2021.2.3,Win32,243.902439,,,127,0,127,0,1,,,,,,,,
,,,,,,,,,,,,,,,,,001,2025-03-10_18h41.28.681,SL_sali_41,2021.2.3,Win32,243.902439,,,,,,,,2,space,196.799,1,0,1,0,1
,,"[""diamond"",""no_dis"",""hori"",""left"",[99999,99999],[0,-150]]",diamond,no_dis,hori,left,"[99999,99999]","[0,-150]",left,1,1.3124,,,,,,001,2025-03-10_18h41.28.681,SL_sali_41,2021.2.3,Win32,243.902439,,,0,0,0,0,1,,,,,,,,
,,"[""circle"",""green"",""vert"",""up"",[0,-150],[150,0]]",circle,green,vert,up,"[0,-150]","[150,0]",left,0,1.1009,,,,,,001,2025-03-10_18h41.28.681,SL_sali_41,2021.2.3,Win32,243.902439,,,1,0,1,0,1,,,,,,,,
,,"[""circle"",""red"",""hori"",""left"",[-106,106],[106,-106]]",circle,red,hori,left,"[-106,106]","[106,-106]",up,0,0.6009,,,,,,001,2025-03-10_18h41.28.681,SL_sali_41,2021.2.3,Win32,243.902439,,,2,0,2,0,1,,,,,,,,
,,"[""circle"",""green"",""hori"",""left"",[0,-150],[106,106]]",circle,green,hori,left,"[0,-150]","[106,106]",left,1,1.0288,,,,,,001,2025-03-10_18h41.28.681,SL_sali_41,2021.2.3,Win32,243.902439,,,3,0,3,0,1,,,,,,,,
,,"[""diamond"",""green"",""vert"",""up"",[-106,-106],[-106,106]]",diamond,green,vert,up,"[-106,-106]","[-106,106]",up,1,0.7334,,,,,,001,2025-03-10_18h41.28.681,SL_sali_41,2021.2.3,Win32,243.902439,,,4,0,4,0,1,,,,,,,,
,,"[""circle"",""green"",""vert"",""up"",[150,0],[0,150]]",circle,green,vert,up,"[150,0]","[0,150]",left,0,0.8471,,,,,,001,2025-03-10_18h41.28.681,SL_sali_41,2021.2.3,Win32,243.902439,,,5,0,5,0,1,,,,,,,,
,,"[""circle"",""no_dis"",""hori"",""left"",[99999,99999],[-106,106]]",circle,no_dis,hori,left,"[99999,99999]","[-106,106]",left,1,1.013,,,,,,001,2025-03-10_18h41.28.681,SL_sali_41,2021.2.3,Win32,243.902439,,,6,0,6,0,1,,,,,,,,
,,"[""diamond"",""red"",""vert"",""up"",[-150,0],[-106,-106]]",diamond,red,vert,up,"[-150,0]","[-106,-106]",left,0,0.7629,,,,,,001,2025-03-10_18h41.28.681,SL_sali_41,2021.2.3,Win32,243.902439,,,7,0,7,0,1,,,,,,,,
,,"[""diamond"",""no_dis"",""vert"",""up"",[99999,99999],[-150,0]]",diamond,no_dis,vert,up,"[99999,99999]","[-150,0]",up,1,0.9362,,,,,,001,2025-03-10_18h41.28.681,SL_sali_41,2021.2.3,Win32,243.902439,,,8,0,8,0,1,,,,,,,,
,,"[""circle"",""no_dis"",""vert"",""up"",[99999,99999],[-106,-106]]",circle,no_dis,vert,up,"[99999,99999]","[-106,-106]",left,0,0.6924,,,,,,001,2025-03-10_18h41.28.681,SL_sali_41,2021.2.3,Win32,243.902439,,,9,0,9,0,1,,,,,,,,
,,"[""diamond"",""no_dis"",""vert"",""up"",[99999,99999],[150,0]]",diamond,no_dis,vert,up,"[99999,99999]","[150,0]",up,1,0.7072,,,,,,001,2025-03-10_18h41.28.681,SL_sali_41,2021.2.3,Win32,243.902439,,,10,0,10,0,1,,,,,,,,
,,"[""circle"",""no_dis"",""vert"",""up"",[99999,99999],[106,-106]]",circle,no_dis,vert,up,"[99999,99999]","[106,-106]",up,1,0.447,,,,,,001,2025-03-10_18h41.28.681,SL_sali_41,2021.2.3,Win32,243.902439,,,11,0,11,0,1,,,,,,,,
,,"[""circle"",""no_dis"",""hori"",""left"",[99999,99999],[106,106]]",circle,no_dis,hori,left,"[99999,99999]","[106,106]",up,0,0.3806,,,,,,001,2025-03-10_18h41.28.681,SL_sali_41,2021.2.3,Win32,243.902439,,,12,0,12,0,1,,,,,,,,
,,"[""circle"",""red"",""vert"",""up"",[106,106],[-106,106]]",circle,red,vert,up,"[106,106]","[-106,106]",left,0,0.642,,,,,,001,2025-03-10_18h41.28.681,SL_sali_41,2021.2.3,Win32,243.902439,,,13,0,13,0,1,,,,,,,,
,,"[""circle"",""green"",""hori"",""left"",[0,150],[106,-106]]",circle,green,hori,left,"[0,150]","[106,-106]",left,1,2.0142,,,,,,001,2025-03-10_18h41.28.681,SL_sali_41,2021.2.3,Win32,243.902439,,,14,0,14,0,1,,,,,,,,
,,"[""diamond"",""red"",""vert"",""up"",[-150,0],[150,0]]",diamond,red,vert,up,"[-150,0]","[150,0]",left,0,1.9322,,,,,,001,2025-03-10_18h41.28.681,SL_sali_41,2021.2.3,Win32,243.902439,,,15,0,15,0,1,,,,,,,,
,,"[""diamond"",""red"",""hori"",""left"",[0,-150],[-106,106]]",diamond,red,hori,left,"[0,-150]","[-106,106]",left,1,2.0161,,,,,,001,2025-03-10_18h41.28.681,SL_sali_41,2021.2.3,Win32,243.902439,,,16,0,16,0,1,,,,,,,,
,,"[""circle"",""no_dis"",""vert"",""up"",[99999,99999],[106,106]]",circle,no_dis,vert,up,"[99999,99999]","[106,106]",,0,,,,,,,001,2025-03-10_18h41.28.681,SL_sali_41,2021.2.3,Win32,243.902439,,,17,0,17,0,1,,,,,,,,
,,"[""diamond"",""red"",""vert"",""up"",[-106,-106],[106,-106]]",diamond,red,vert,up,"[-106,-106]","[106,-106]",left,0,1.2061,,,,,,001,2025-03-10_18h41.28.681,SL_sali_41,2021.2.3,Win32,243.902439,,,18,0,18,0,1,,,,,,,,
,,"[""circle"",""no_dis"",""vert"",""up"",[99999,99999],[106,-106]]",circle,no_dis,vert,up,"[99999,99999]","[106,-106]",up,1,0.5591,,,,,,001,2025-03-10_18h41.28.681,SL_sali_41,2021.2.3,Win32,243.902439,,,19,0,19,0,1,,,,,,,,
,,"[""diamond"",""green"",""vert"",""up"",[-106,-106],[-150,0]]",diamond,green,vert,up,"[-106,-106]","[-150,0]",left,0,0.6031,,,,,,001,2025-03-10_18h41.28.681,SL_sali_41,2021.2.3,Win32,243.902439,,,20,0,20,0,1,,,,,,,,
,,"[""diamond"",""green"",""hori"",""left"",[-106,106],[0,150]]",diamond,green,hori,left,"[-106,106]","[0,150]",up,0,0.5779,,,,,,001,2025-03-10_18h41.28.681,SL_sali_41,2021.2.3,Win32,243.902439,,,21,0,21,0,1,,,,,,,,
,,"[""circle"",""green"",""hori"",""left"",[-150,0],[106,106]]",circle,green,hori,left,"[-150,0]","[106,106]",left,1,0.8711,,,,,,001,2025-03-10_18h41.28.681,SL_sali_41,2021.2.3,Win32,243.902439,,,22,0,22,0,1,,,,,,,,
,,"[""circle"",""green"",""vert"",""up"",[-106,106],[0,150]]",circle,green,vert,up,"[-106,106]","[0,150]",left,0,0.626,,,,,,001,2025-03-10_18h41.28.681,SL_sali_41,2021.2.3,Win32,243.902439,,,23,0,23,0,1,,,,,,,,
,,"[""diamond"",""red"",""vert"",""up"",[-150,0],[0,150]]",diamond,red,vert,up,"[-150,0]","[0,150]",up,1,0.5251,,,,,,001,2025-03-10_18h41.28.681,SL_sali_41,2021.2.3,Win32,243.902439,,,24,0,24,0,1,,,,,,,,
,,"[""circle"",""no_dis"",""hori"",""left"",[99999,99999],[150,0]]",circle,no_dis,hori,left,"[99999,99999]","[150,0]",left,1,0.977,,,,,,001,2025-03-10_18h41.28.681,SL_sali_41,2021.2.3,Win32,243.902439,,,25,0,25,0,1,,,,,,,,
,,"[""circle"",""green"",""vert"",""up"",[-106,106],[106,106]]",circle,green,vert,up,"[-106,106]","[106,106]",left,0,0.668,,,,,,001,2025-03-10_18h41.28.681,SL_sali_41,2021.2.3,Win32,243.902439,,,26,0,26,0,1,,,,,,,,
,,"[""circle"",""red"",""vert"",""up"",[0,-150],[-106,-106]]",circle,red,vert,up,"[0,-150]","[-106,-106]",up,1,0.7395,,,,,,001,2025-03-10_18h41.28.681,SL_sali_41,2021.2.3,Win32,243.902439,,,27,0,27,0,1,,,,,,,,
,,"[""diamond"",""green"",""hori"",""left"",[-106,-106],[150,0]]",diamond,green,hori,left,"[-106,-106]","[150,0]",up,0,1.2516,,,,,,001,2025-03-10_18h41.28.681,SL_sali_41,2021.2.3,Win32,243.902439,,,28,0,28,0,1,,,,,,,,
,,"[""diamond"",""green"",""hori"",""left"",[0,-150],[-106,106]]",diamond,green,hori,left,"[0,-150]","[-106,106]",left,1,0.433,,,,,,001,2025-03-10_18h41.28.681,SL_sali_41,2021.2.3,Win32,243.902439,,,29,0,29,0,1,,,,,,,,
,,"[""circle"",""no_dis"",""hori"",""left"",[99999,99999],[106,106]]",circle,no_dis,hori,left,"[99999,99999]","[106,106]",left,1,0.6828,,,,,,001,2025-03-10_18h41.28.681,SL_sali_41,2021.2.3,Win32,243.902439,,,30,0,30,0,1,,,,,,,,
,,"[""diamond"",""no_dis"",""vert"",""up"",[99999,99999],[-150,0]]",diamond,no_dis,vert,up,"[99999,99999]","[-150,0]",left,0,0.7263,,,,,,001,2025-03-10_18h41.28.681,SL_sali_41,2021.2.3,Win32,243.902439,,,31,0,31,0,1,,,,,,,,
,,"[""diamond"",""no_dis"",""hori"",""left"",[99999,99999],[-150,0]]",diamond,no_dis,hori,left,"[99999,99999]","[-150,0]",up,0,0.4657,,,,,,001,2025-03-10_18h41.28.681,SL_sali_41,2021.2.3,Win32,243.902439,,,32,0,32,0,1,,,,,,,,
,,"[""diamond"",""no_dis"",""vert"",""up"",[99999,99999],[0,150]]",diamond,no_dis,vert,up,"[99999,99999]","[0,150]",left,0,0.3786,,,,,,001,2025-03-10_18h41.28.681,SL_sali_41,2021.2.3,Win32,243.902439,,,33,0,33,0,1,,,,,,,,
,,"[""circle"",""green"",""vert"",""up"",[106,106],[-150,0]]",circle,green,vert,up,"[106,106]","[-150,0]",left,0,0.8044,,,,,,001,2025-03-10_18h41.28.681,SL_sali_41,2021.2.3,Win32,243.902439,,,34,0,34,0,1,,,,,,,,
,,"[""circle"",""red"",""vert"",""up"",[0,-150],[106,-106]]",circle,red,vert,up,"[0,-150]","[106,-106]",up,1,0.6753,,,,,,001,2025-03-10_18h41.28.681,SL_sali_41,2021.2.3,Win32,243.902439,,,35,0,35,0,1,,,,,,,,
,,"[""circle"",""no_dis"",""vert"",""up"",[99999,99999],[0,150]]",circle,no_dis,vert,up,"[99999,99999]","[0,150]",left,0,0.6298,,,,,,001,2025-03-10_18h41.28.681,SL_sali_41,2021.2.3,Win32,243.902439,,,36,0,36,0,1,,,,,,,,
,,"[""diamond"",""no_dis"",""hori"",""left"",[99999,99999],[-106,-106]]",diamond,no_dis,hori,left,"[99999,99999]","[-106,-106]",up,0,0.3127,,,,,,001,2025-03-10_18h41.28.681,SL_sali_41,2021.2.3,Win32,243.902439,,,37,0,37,0,1,,,,,,,,
,,"[""diamond"",""red"",""hori"",""left"",[0,-150],[106,106]]",diamond,red,hori,left,"[0,-150]","[106,106]",left,1,0.6114,,,,,,001,2025-03-10_18h41.28.681,SL_sali_41,2021.2.3,Win32,243.902439,,,38,0,38,0,1,,,,,,,,
,,"[""diamond"",""red"",""hori"",""left"",[0,-150],[-150,0]]",diamond,red,hori,left,"[0,-150]","[-150,0]",left,1,0.4596,,,,,,001,2025-03-10_18h41.28.681,SL_sali_41,2021.2.3,Win32,243.902439,,,39,0,39,0,1,,,,,,,,
,,"[""diamond"",""no_dis"",""vert"",""up"",[99999,99999],[0,150]]",diamond,no_dis,vert,up,"[99999,99999]","[0,150]",left,0,0.554,,,,,,001,2025-03-10_18h41.28.681,SL_sali_41,2021.2.3,Win32,243.902439,,,40,0,40,0,1,,,,,,,,
,,"[""circle"",""red"",""hori"",""left"",[0,-150],[-106,106]]",circle,red,hori,left,"[0,-150]","[-106,106]",up,0,0.2926,,,,,,001,2025-03-10_18h41.28.681,SL_sali_41,2021.2.3,Win32,243.902439,,,41,0,41,0,1,,,,,,,,
,,"[""circle"",""green"",""vert"",""up"",[0,-150],[150,0]]",circle,green,vert,up,"[0,-150]","[150,0]",left,0,0.5619,,,,,,001,2025-03-10_18h41.28.681,SL_sali_41,2021.2.3,Win32,243.902439,,,42,0,42,0,1,,,,,,,,
,,"[""circle"",""red"",""hori"",""left"",[0,-150],[-150,0]]",circle,red,hori,left,"[0,-150]","[-150,0]",left,1,0.5012,,,,,,001,2025-03-10_18h41.28.681,SL_sali_41,2021.2.3,Win32,243.902439,,,43,0,43,0,1,,,,,,,,
,,"[""diamond"",""red"",""hori"",""left"",[-106,-106],[106,-106]]",diamond,red,hori,left,"[-106,-106]","[106,-106]",up,0,0.4919,,,,,,001,2025-03-10_18h41.28.681,SL_sali_41,2021.2.3,Win32,243.902439,,,44,0,44,0,1,,,,,,,,
,,"[""diamond"",""no_dis"",""hori"",""left"",[99999,99999],[0,-150]]",diamond,no_dis,hori,left,"[99999,99999]","[0,-150]",left,1,0.5912,,,,,,001,2025-03-10_18h41.28.681,SL_sali_41,2021.2.3,Win32,243.902439,,,45,0,45,0,1,,,,,,,,
,,"[""circle"",""red"",""vert"",""up"",[0,-150],[-106,-106]]",circle,red,vert,up,"[0,-150]","[-106,-106]",left,0,0.7659,,,,,,001,2025-03-10_18h41.28.681,SL_sali_41,2021.2.3,Win32,243.902439,,,46,0,46,0,1,,,,,,,,
,,"[""diamond"",""no_dis"",""hori"",""left"",[99999,99999],[150,0]]",diamond,no_dis,hori,left,"[99999,99999]","[150,0]",left,1,0.6061,,,,,,001,2025-03-10_18h41.28.681,SL_sali_41,2021.2.3,Win32,243.902439,,,47,0,47,0,1,,,,,,,,
,,"[""diamond"",""no_dis"",""vert"",""up"",[99999,99999],[106,106]]",diamond,no_dis,vert,up,"[99999,99999]","[106,106]",left,0,0.4621,,,,,,001,2025-03-10_18h41.28.681,SL_sali_41,2021.2.3,Win32,243.902439,,,48,0,48,0,1,,,,,,,,
,,"[""circle"",""green"",""vert"",""up"",[0,-150],[150,0]]",circle,green,vert,up,"[0,-150]","[150,0]",up,1,0.6635,,,,,,001,2025-03-10_18h41.28.681,SL_sali_41,2021.2.3,Win32,243.902439,,,49,0,49,0,1,,,,,,,,
,,"[""diamond"",""red"",""hori"",""left"",[0,-150],[106,-106]]",diamond,red,hori,left,"[0,-150]","[106,-106]",left,1,0.6601,,,,,,001,2025-03-10_18h41.28.681,SL_sali_41,2021.2.3,Win32,243.902439,,,50,0,50,0,1,,,,,,,,
,,"[""circle"",""no_dis"",""hori"",""left"",[99999,99999],[106,-106]]",circle,no_dis,hori,left,"[99999,99999]","[106,-106]",left,1,0.623,,,,,,001,2025-03-10_18h41.28.681,SL_sali_41,2021.2.3,Win32,243.902439,,,51,0,51,0,1,,,,,,,,
,,"[""diamond"",""red"",""hori"",""left"",[150,0],[-106,106]]",diamond,red,hori,left,"[150,0]","[-106,106]",up,0,0.5906,,,,,,001,2025-03-10_18h41.28.681,SL_sali_41,2021.2.3,Win32,243.902439,,,52,0,52,0,1,,,,,,,,
,,"[""diamond"",""green"",""vert"",""up"",[0,-150],[106,-106]]",diamond,green,vert,up,"[0,-150]","[106,-106]",left,0,0.8796,,,,,,001,2025-03-10_18h41.28.681,SL_sali_41,2021.2.3,Win32,243.902439,,,53,0,53,0,1,,,,,,,,
,,"[""diamond"",""red"",""vert"",""up"",[0,-150],[-106,106]]",diamond,red,vert,up,"[0,-150]","[-106,106]",up,1,0.7531,,,,,,001,2025-03-10_18h41.28.681,SL_sali_41,2021.2.3,Win32,243.902439,,,54,0,54,0,1,,,,,,,,
,,"[""circle"",""red"",""hori"",""left"",[0,-150],[-150,0]]",circle,red,hori,left,"[0,-150]","[-150,0]",left,1,0.5584,,,,,,001,2025-03-10_18h41.28.681,SL_sali_41,2021.2.3,Win32,243.902439,,,55,0,55,0,1,,,,,,,,
,,"[""circle"",""green"",""hori"",""left"",[-150,0],[-106,106]]",circle,green,hori,left,"[-150,0]","[-106,106]",up,0,0.8186,,,,,,001,2025-03-10_18h41.28.681,SL_sali_41,2021.2.3,Win32,243.902439,,,56,0,56,0,1,,,,,,,,
,,"[""diamond"",""green"",""vert"",""up"",[0,-150],[-106,-106]]",diamond,green,vert,up,"[0,-150]","[-106,-106]",left,0,0.313,,,,,,001,2025-03-10_18h41.28.681,SL_sali_41,2021.2.3,Win32,243.902439,,,57,0,57,0,1,,,,,,,,
,,"[""circle"",""green"",""vert"",""up"",[0,-150],[-106,106]]",circle,green,vert,up,"[0,-150]","[-106,106]",left,0,0.5614,,,,,,001,2025-03-10_18h41.28.681,SL_sali_41,2021.2.3,Win32,243.902439,,,58,0,58,0,1,,,,,,,,
,,"[""circle"",""no_dis"",""hori"",""left"",[99999,99999],[-106,106]]",circle,no_dis,hori,left,"[99999,99999]","[-106,106]",up,0,0.7099,,,,,,001,2025-03-10_18h41.28.681,SL_sali_41,2021.2.3,Win32,243.902439,,,59,0,59,0,1,,,,,,,,
,,"[""diamond"",""red"",""vert"",""up"",[-106,106],[106,106]]",diamond,red,vert,up,"[-106,106]","[106,106]",left,0,0.8827,,,,,,001,2025-03-10_18h41.28.681,SL_sali_41,2021.2.3,Win32,243.902439,,,60,0,60,0,1,,,,,,,,
,,"[""diamond"",""no_dis"",""vert"",""up"",[99999,99999],[0,-150]]",diamond,no_dis,vert,up,"[99999,99999]","[0,-150]",left,0,1.3088,,,,,,001,2025-03-10_18h41.28.681,SL_sali_41,2021.2.3,Win32,243.902439,,,61,0,61,0,1,,,,,,,,
,,"[""diamond"",""red"",""vert"",""up"",[106,106],[0,150]]",diamond,red,vert,up,"[106,106]","[0,150]",left,0,1.8001,,,,,,001,2025-03-10_18h41.28.681,SL_sali_41,2021.2.3,Win32,243.902439,,,62,0,62,0,1,,,,,,,,
,,"[""circle"",""red"",""vert"",""up"",[106,106],[0,-150]]",circle,red,vert,up,"[106,106]","[0,-150]",up,1,0.9804,,,,,,001,2025-03-10_18h41.28.681,SL_sali_41,2021.2.3,Win32,243.902439,,,63,0,63,0,1,,,,,,,,
,,"[""circle"",""no_dis"",""vert"",""up"",[99999,99999],[106,-106]]",circle,no_dis,vert,up,"[99999,99999]","[106,-106]",left,0,1.5289,,,,,,001,2025-03-10_18h41.28.681,SL_sali_41,2021.2.3,Win32,243.902439,,,64,0,64,0,1,,,,,,,,
,,"[""circle"",""green"",""hori"",""left"",[106,-106],[-150,0]]",circle,green,hori,left,"[106,-106]","[-150,0]",up,0,2.0744,,,,,,001,2025-03-10_18h41.28.681,SL_sali_41,2021.2.3,Win32,243.902439,,,65,0,65,0,1,,,,,,,,
,,"[""circle"",""green"",""hori"",""left"",[0,150],[150,0]]",circle,green,hori,left,"[0,150]","[150,0]",left,1,1.3119,,,,,,001,2025-03-10_18h41.28.681,SL_sali_41,2021.2.3,Win32,243.902439,,,66,0,66,0,1,,,,,,,,
,,"[""circle"",""green"",""hori"",""left"",[106,-106],[-106,-106]]",circle,green,hori,left,"[106,-106]","[-106,-106]",left,1,0.5961,,,,,,001,2025-03-10_18h41.28.681,SL_sali_41,2021.2.3,Win32,243.902439,,,67,0,67,0,1,,,,,,,,
,,"[""circle"",""red"",""hori"",""left"",[0,-150],[-106,-106]]",circle,red,hori,left,"[0,-150]","[-106,-106]",up,0,0.6395,,,,,,001,2025-03-10_18h41.28.681,SL_sali_41,2021.2.3,Win32,243.902439,,,68,0,68,0,1,,,,,,,,
,,"[""diamond"",""green"",""vert"",""up"",[-106,-106],[106,-106]]",diamond,green,vert,up,"[-106,-106]","[106,-106]",,0,,,,,,,001,2025-03-10_18h41.28.681,SL_sali_41,2021.2.3,Win32,243.902439,,,69,0,69,0,1,,,,,,,,
,,"[""circle"",""green"",""vert"",""up"",[106,-106],[150,0]]",circle,green,vert,up,"[106,-106]","[150,0]",up,1,1.1096,,,,,,001,2025-03-10_18h41.28.681,SL_sali_41,2021.2.3,Win32,243.902439,,,70,0,70,0,1,,,,,,,,
,,"[""diamond"",""red"",""vert"",""up"",[106,106],[0,-150]]",diamond,red,vert,up,"[106,106]","[0,-150]",left,0,1.6673,,,,,,001,2025-03-10_18h41.28.681,SL_sali_41,2021.2.3,Win32,243.902439,,,71,0,71,0,1,,,,,,,,
,,"[""diamond"",""green"",""vert"",""up"",[0,150],[106,-106]]",diamond,green,vert,up,"[0,150]","[106,-106]",up,1,0.9076,,,,,,001,2025-03-10_18h41.28.681,SL_sali_41,2021.2.3,Win32,243.902439,,,72,0,72,0,1,,,,,,,,
,,"[""diamond"",""green"",""vert"",""up"",[0,-150],[106,-106]]",diamond,green,vert,up,"[0,-150]","[106,-106]",left,0,0.6623,,,,,,001,2025-03-10_18h41.28.681,SL_sali_41,2021.2.3,Win32,243.902439,,,73,0,73,0,1,,,,,,,,
,,"[""diamond"",""red"",""hori"",""left"",[-150,0],[-106,-106]]",diamond,red,hori,left,"[-150,0]","[-106,-106]",up,0,0.7678,,,,,,001,2025-03-10_18h41.28.681,SL_sali_41,2021.2.3,Win32,243.902439,,,74,0,74,0,1,,,,,,,,
,,"[""diamond"",""red"",""hori"",""left"",[0,-150],[-150,0]]",diamond,red,hori,left,"[0,-150]","[-150,0]",left,1,1.5131,,,,,,001,2025-03-10_18h41.28.681,SL_sali_41,2021.2.3,Win32,243.902439,,,75,0,75,0,1,,,,,,,,
,,"[""circle"",""no_dis"",""hori"",""left"",[99999,99999],[-150,0]]",circle,no_dis,hori,left,"[99999,99999]","[-150,0]",left,1,0.9257,,,,,,001,2025-03-10_18h41.28.681,SL_sali_41,2021.2.3,Win32,243.902439,,,76,0,76,0,1,,,,,,,,
,,"[""circle"",""red"",""vert"",""up"",[0,150],[150,0]]",circle,red,vert,up,"[0,150]","[150,0]",up,1,0.8999,,,,,,001,2025-03-10_18h41.28.681,SL_sali_41,2021.2.3,Win32,243.902439,,,77,0,77,0,1,,,,,,,,
,,"[""circle"",""no_dis"",""vert"",""up"",[99999,99999],[106,106]]",circle,no_dis,vert,up,"[99999,99999]","[106,106]",left,0,1.2055,,,,,,001,2025-03-10_18h41.28.681,SL_sali_41,2021.2.3,Win32,243.902439,,,78,0,78,0,1,,,,,,,,
,,"[""diamond"",""red"",""hori"",""left"",[106,106],[-106,106]]",diamond,red,hori,left,"[106,106]","[-106,106]",left,1,0.9534,,,,,,001,2025-03-10_18h41.28.681,SL_sali_41,2021.2.3,Win32,243.902439,,,79,0,79,0,1,,,,,,,,
,,"[""circle"",""green"",""hori"",""left"",[0,-150],[-106,-106]]",circle,green,hori,left,"[0,-150]","[-106,-106]",up,0,0.598,,,,,,001,2025-03-10_18h41.28.681,SL_sali_41,2021.2.3,Win32,243.902439,,,80,0,80,0,1,,,,,,,,
,,"[""circle"",""no_dis"",""hori"",""left"",[99999,99999],[-106,-106]]",circle,no_dis,hori,left,"[99999,99999]","[-106,-106]",left,1,0.4918,,,,,,001,2025-03-10_18h41.28.681,SL_sali_41,2021.2.3,Win32,243.902439,,,81,0,81,0,1,,,,,,,,
,,"[""diamond"",""green"",""hori"",""left"",[-106,-106],[0,-150]]",diamond,green,hori,left,"[-106,-106]","[0,-150]",left,1,0.6804,,,,,,001,2025-03-10_18h41.28.681,SL_sali_41,2021.2.3,Win32,243.902439,,,82,0,82,0,1,,,,,,,,
,,"[""diamond"",""no_dis"",""hori"",""left"",[99999,99999],[0,-150]]",diamond,no_dis,hori,left,"[99999,99999]","[0,-150]",up,0,0.5713,,,,,,001,2025-03-10_18h41.28.681,SL_sali_41,2021.2.3,Win32,243.902439,,,83,0,83,0,1,,,,,,,,
,,"[""diamond"",""no_dis"",""hori"",""left"",[99999,99999],[-106,106]]",diamond,no_dis,hori,left,"[99999,99999]","[-106,106]",left,1,0.5801,,,,,,001,2025-03-10_18h41.28.681,SL_sali_41,2021.2.3,Win32,243.902439,,,84,0,84,0,1,,,,,,,,
,,"[""diamond"",""green"",""vert"",""up"",[150,0],[106,106]]",diamond,green,vert,up,"[150,0]","[106,106]",left,0,0.791,,,,,,001,2025-03-10_18h41.28.681,SL_sali_41,2021.2.3,Win32,243.902439,,,85,0,85,0,1,,,,,,,,
,,"[""circle"",""no_dis"",""hori"",""left"",[99999,99999],[-106,-106]]",circle,no_dis,hori,left,"[99999,99999]","[-106,-106]",up,0,0.9039,,,,,,001,2025-03-10_18h41.28.681,SL_sali_41,2021.2.3,Win32,243.902439,,,86,0,86,0,1,,,,,,,,
,,"[""diamond"",""red"",""vert"",""up"",[-150,0],[106,106]]",diamond,red,vert,up,"[-150,0]","[106,106]",up,1,0.0591,,,,,,001,2025-03-10_18h41.28.681,SL_sali_41,2021.2.3,Win32,243.902439,,,87,0,87,0,1,,,,,,,,
,,"[""diamond"",""green"",""hori"",""left"",[-106,-106],[-106,106]]",diamond,green,hori,left,"[-106,-106]","[-106,106]",left,1,0.9697,,,,,,001,2025-03-10_18h41.28.681,SL_sali_41,2021.2.3,Win32,243.902439,,,88,0,88,0,1,,,,,,,,
,,"[""diamond"",""green"",""hori"",""left"",[106,106],[-106,-106]]",diamond,green,hori,left,"[106,106]","[-106,-106]",up,0,0.3223,,,,,,001,2025-03-10_18h41.28.681,SL_sali_41,2021.2.3,Win32,243.902439,,,89,0,89,0,1,,,,,,,,
,,"[""circle"",""red"",""hori"",""left"",[106,-106],[106,106]]",circle,red,hori,left,"[106,-106]","[106,106]",left,1,0.2126,,,,,,001,2025-03-10_18h41.28.681,SL_sali_41,2021.2.3,Win32,243.902439,,,90,0,90,0,1,,,,,,,,
,,"[""circle"",""red"",""hori"",""left"",[-106,106],[0,150]]",circle,red,hori,left,"[-106,106]","[0,150]",up,0,0.396,,,,,,001,2025-03-10_18h41.28.681,SL_sali_41,2021.2.3,Win32,243.902439,,,91,0,91,0,1,,,,,,,,
,,"[""circle"",""no_dis"",""vert"",""up"",[99999,99999],[0,150]]",circle,no_dis,vert,up,"[99999,99999]","[0,150]",left,0,0.2585,,,,,,001,2025-03-10_18h41.28.681,SL_sali_41,2021.2.3,Win32,243.902439,,,92,0,92,0,1,,,,,,,,
,,"[""diamond"",""red"",""hori"",""left"",[106,-106],[0,150]]",diamond,red,hori,left,"[106,-106]","[0,150]",up,0,0.4136,,,,,,001,2025-03-10_18h41.28.681,SL_sali_41,2021.2.3,Win32,243.902439,,,93,0,93,0,1,,,,,,,,
,,"[""circle"",""red"",""hori"",""left"",[0,-150],[-106,106]]",circle,red,hori,left,"[0,-150]","[-106,106]",left,1,0.5653,,,,,,001,2025-03-10_18h41.28.681,SL_sali_41,2021.2.3,Win32,243.902439,,,94,0,94,0,1,,,,,,,,
,,"[""diamond"",""no_dis"",""vert"",""up"",[99999,99999],[-150,0]]",diamond,no_dis,vert,up,"[99999,99999]","[-150,0]",up,1,0.5767,,,,,,001,2025-03-10_18h41.28.681,SL_sali_41,2021.2.3,Win32,243.902439,,,95,0,95,0,1,,,,,,,,
,,"[""circle"",""red"",""hori"",""left"",[0,-150],[150,0]]",circle,red,hori,left,"[0,-150]","[150,0]",left,1,0.5252,,,,,,001,2025-03-10_18h41.28.681,SL_sali_41,2021.2.3,Win32,243.902439,,,96,0,96,0,1,,,,,,,,
,,"[""circle"",""red"",""hori"",""left"",[0,-150],[-150,0]]",circle,red,hori,left,"[0,-150]","[-150,0]",up,0,0.3257,,,,,,001,2025-03-10_18h41.28.681,SL_sali_41,2021.2.3,Win32,243.902439,,,97,0,97,0,1,,,,,,,,
,,"[""diamond"",""green"",""vert"",""up"",[0,150],[150,0]]",diamond,green,vert,up,"[0,150]","[150,0]",left,0,0.6154,,,,,,001,2025-03-10_18h41.28.681,SL_sali_41,2021.2.3,Win32,243.902439,,,98,0,98,0,1,,,,,,,,
,,"[""diamond"",""red"",""hori"",""left"",[0,150],[0,-150]]",diamond,red,hori,left,"[0,150]","[0,-150]",up,0,0.3581,,,,,,001,2025-03-10_18h41.28.681,SL_sali_41,2021.2.3,Win32,243.902439,,,99,0,99,0,1,,,,,,,,
,,"[""diamond"",""green"",""hori"",""left"",[0,150],[0,-150]]",diamond,green,hori,left,"[0,150]","[0,-150]",left,1,0.5275,,,,,,001,2025-03-10_18h41.28.681,SL_sali_41,2021.2.3,Win32,243.902439,,,100,0,100,0,1,,,,,,,,
,,"[""circle"",""no_dis"",""hori"",""left"",[99999,99999],[106,-106]]",circle,no_dis,hori,left,"[99999,99999]","[106,-106]",up,0,0.605,,,,,,001,2025-03-10_18h41.28.681,SL_sali_41,2021.2.3,Win32,243.902439,,,101,0,101,0,1,,,,,,,,
,,"[""diamond"",""green"",""hori"",""left"",[0,-150],[-106,106]]",diamond,green,hori,left,"[0,-150]","[-106,106]",left,1,0.359,,,,,,001,2025-03-10_18h41.28.681,SL_sali_41,2021.2.3,Win32,243.902439,,,102,0,102,0,1,,,,,,,,
,,"[""circle"",""red"",""vert"",""up"",[150,0],[0,-150]]",circle,red,vert,up,"[150,0]","[0,-150]",left,0,0.4222,,,,,,001,2025-03-10_18h41.28.681,SL_sali_41,2021.2.3,Win32,243.902439,,,103,0,103,0,1,,,,,,,,
,,"[""diamond"",""green"",""hori"",""left"",[106,-106],[0,150]]",diamond,green,hori,left,"[106,-106]","[0,150]",up,0,0.3871,,,,,,001,2025-03-10_18h41.28.681,SL_sali_41,2021.2.3,Win32,243.902439,,,104,0,104,0,1,,,,,,,,
,,"[""diamond"",""green"",""vert"",""up"",[0,-150],[150,0]]",diamond,green,vert,up,"[0,-150]","[150,0]",left,0,0.3197,,,,,,001,2025-03-10_18h41.28.681,SL_sali_41,2021.2.3,Win32,243.902439,,,105,0,105,0,1,,,,,,,,
,,"[""circle"",""green"",""hori"",""left"",[-106,106],[0,150]]",circle,green,hori,left,"[-106,106]","[0,150]",up,0,0.9915,,,,,,001,2025-03-10_18h41.28.681,SL_sali_41,2021.2.3,Win32,243.902439,,,106,0,106,0,1,,,,,,,,
,,"[""diamond"",""green"",""hori"",""left"",[150,0],[0,-150]]",diamond,green,hori,left,"[150,0]","[0,-150]",left,1,0.9582,,,,,,001,2025-03-10_18h41.28.681,SL_sali_41,2021.2.3,Win32,243.902439,,,107,0,107,0,1,,,,,,,,
,,"[""circle"",""no_dis"",""vert"",""up"",[99999,99999],[0,150]]",circle,no_dis,vert,up,"[99999,99999]","[0,150]",left,0,1.2006,,,,,,001,2025-03-10_18h41.28.681,SL_sali_41,2021.2.3,Win32,243.902439,,,108,0,108,0,1,,,,,,,,
,,"[""circle"",""green"",""vert"",""up"",[-106,106],[0,-150]]",circle,green,vert,up,"[-106,106]","[0,-150]",up,1,1.401,,,,,,001,2025-03-10_18h41.28.681,SL_sali_41,2021.2.3,Win32,243.902439,,,109,0,109,0,1,,,,,,,,
,,"[""circle"",""green"",""vert"",""up"",[0,-150],[0,150]]",circle,green,vert,up,"[0,-150]","[0,150]",left,0,0.7306,,,,,,001,2025-03-10_18h41.28.681,SL_sali_41,2021.2.3,Win32,243.902439,,,110,0,110,0,1,,,,,,,,
,,"[""diamond"",""green"",""hori"",""left"",[0,150],[-106,-106]]",diamond,green,hori,left,"[0,150]","[-106,-106]",left,1,1.1804,,,,,,001,2025-03-10_18h41.28.681,SL_sali_41,2021.2.3,Win32,243.902439,,,111,0,111,0,1,,,,,,,,
,,"[""circle"",""red"",""vert"",""up"",[106,-106],[-150,0]]",circle,red,vert,up,"[106,-106]","[-150,0]",left,0,1.5052,,,,,,001,2025-03-10_18h41.28.681,SL_sali_41,2021.2.3,Win32,243.902439,,,112,0,112,0,1,,,,,,,,
,,"[""diamond"",""red"",""vert"",""up"",[-150,0],[-106,106]]",diamond,red,vert,up,"[-150,0]","[-106,106]",left,0,1.393,,,,,,001,2025-03-10_18h41.28.681,SL_sali_41,2021.2.3,Win32,243.902439,,,113,0,113,0,1,,,,,,,,
,,"[""circle"",""red"",""vert"",""up"",[0,-150],[0,150]]",circle,red,vert,up,"[0,-150]","[0,150]",up,1,1.2376,,,,,,001,2025-03-10_18h41.28.681,SL_sali_41,2021.2.3,Win32,243.902439,,,114,0,114,0,1,,,,,,,,
,,"[""diamond"",""red"",""vert"",""up"",[106,106],[150,0]]",diamond,red,vert,up,"[106,106]","[150,0]",left,0,1.0764,,,,,,001,2025-03-10_18h41.28.681,SL_sali_41,2021.2.3,Win32,243.902439,,,115,0,115,0,1,,,,,,,,
,,"[""diamond"",""no_dis"",""vert"",""up"",[99999,99999],[150,0]]",diamond,no_dis,vert,up,"[99999,99999]","[150,0]",up,1,1.445,,,,,,001,2025-03-10_18h41.28.681,SL_sali_41,2021.2.3,Win32,243.902439,,,116,0,116,0,1,,,,,,,,
,,"[""diamond"",""no_dis"",""hori"",""left"",[99999,99999],[-106,106]]",diamond,no_dis,hori,left,"[99999,99999]","[-106,106]",left,1,0.8017,,,,,,001,2025-03-10_18h41.28.681,SL_sali_41,2021.2.3,Win32,243.902439,,,117,0,117,0,1,,,,,,,,
,,"[""circle"",""red"",""hori"",""left"",[150,0],[106,106]]",circle,red,hori,left,"[150,0]","[106,106]",up,0,0.9291,,,,,,001,2025-03-10_18h41.28.681,SL_sali_41,2021.2.3,Win32,243.902439,,,118,0,118,0,1,,,,,,,,
,,"[""circle"",""green"",""hori"",""left"",[0,-150],[0,150]]",circle,green,hori,left,"[0,-150]","[0,150]",left,1,0.429,,,,,,001,2025-03-10_18h41.28.681,SL_sali_41,2021.2.3,Win32,243.902439,,,119,0,119,0,1,,,,,,,,
,,"[""circle"",""red"",""vert"",""up"",[150,0],[0,-150]]",circle,red,vert,up,"[150,0]","[0,-150]",up,1,0.5426,,,,,,001,2025-03-10_18h41.28.681,SL_sali_41,2021.2.3,Win32,243.902439,,,120,0,120,0,1,,,,,,,,
,,"[""diamond"",""green"",""vert"",""up"",[0,-150],[106,106]]",diamond,green,vert,up,"[0,-150]","[106,106]",up,1,0.2912,,,,,,001,2025-03-10_18h41.28.681,SL_sali_41,2021.2.3,Win32,243.902439,,,121,0,121,0,1,,,,,,,,
,,"[""diamond"",""no_dis"",""hori"",""left"",[99999,99999],[-106,-106]]",diamond,no_dis,hori,left,"[99999,99999]","[-106,-106]",up,0,0.2923,,,,,,001,2025-03-10_18h41.28.681,SL_sali_41,2021.2.3,Win32,243.902439,,,122,0,122,0,1,,,,,,,,
,,"[""circle"",""green"",""hori"",""left"",[106,-106],[150,0]]",circle,green,hori,left,"[106,-106]","[150,0]",left,1,0.563,,,,,,001,2025-03-10_18h41.28.681,SL_sali_41,2021.2.3,Win32,243.902439,,,123,0,123,0,1,,,,,,,,
,,"[""diamond"",""no_dis"",""vert"",""up"",[99999,99999],[0,-150]]",diamond,no_dis,vert,up,"[99999,99999]","[0,-150]",left,0,0.453,,,,,,001,2025-03-10_18h41.28.681,SL_sali_41,2021.2.3,Win32,243.902439,,,124,0,124,0,1,,,,,,,,
,,"[""diamond"",""no_dis"",""hori"",""left"",[99999,99999],[150,0]]",diamond,no_dis,hori,left,"[99999,99999]","[150,0]",up,0,0.462,,,,,,001,2025-03-10_18h41.28.681,SL_sali_41,2021.2.3,Win32,243.902439,,,125,0,125,0,1,,,,,,,,
,,"[""circle"",""no_dis"",""vert"",""up"",[99999,99999],[-106,106]]",circle,no_dis,vert,up,"[99999,99999]","[-106,106]",left,0,0.7831,,,,,,001,2025-03-10_18h41.28.681,SL_sali_41,2021.2.3,Win32,243.902439,,,126,0,126,0,1,,,,,,,,
,,"[""circle"",""red"",""vert"",""up"",[150,0],[106,-106]]",circle,red,vert,up,"[150,0]","[106,-106]",up,1,0.8878,,,,,,001,2025-03-10_18h41.28.681,SL_sali_41,2021.2.3,Win32,243.902439,,,127,0,127,0,1,,,,,,,,
,,,,,,,,,,,,,,,,,001,2025-03-10_18h41.28.681,SL_sali_41,2021.2.3,Win32,243.902439,,,,,,,,3,space,21.1575,2,0,2,0,1
,,"[""circle"",""no_dis"",""vert"",""up"",[99999,99999],[106,106]]",circle,no_dis,vert,up,"[99999,99999]","[106,106]",left,0,1.0463,,,,,,001,2025-03-10_18h41.28.681,SL_sali_41,2021.2.3,Win32,243.902439,,,0,0,0,0,1,,,,,,,,
,,"[""circle"",""green"",""hori"",""left"",[-150,0],[-106,106]]",circle,green,hori,left,"[-150,0]","[-106,106]",left,1,0.8154,,,,,,001,2025-03-10_18h41.28.681,SL_sali_41,2021.2.3,Win32,243.902439,,,1,0,1,0,1,,,,,,,,
,,"[""diamond"",""red"",""vert"",""up"",[-106,106],[106,106]]",diamond,red,vert,up,"[-106,106]","[106,106]",up,1,0.2237,,,,,,001,2025-03-10_18h41.28.681,SL_sali_41,2021.2.3,Win32,243.902439,,,2,0,2,0,1,,,,,,,,
,,"[""circle"",""red"",""hori"",""left"",[106,-106],[106,106]]",circle,red,hori,left,"[106,-106]","[106,106]",left,1,0.21,,,,,,001,2025-03-10_18h41.28.681,SL_sali_41,2021.2.3,Win32,243.902439,,,3,0,3,0,1,,,,,,,,
,,"[""circle"",""green"",""hori"",""left"",[0,150],[106,-106]]",circle,green,hori,left,"[0,150]","[106,-106]",left,1,0.0762,,,,,,001,2025-03-10_18h41.28.681,SL_sali_41,2021.2.3,Win32,243.902439,,,4,0,4,0,1,,,,,,,,
,,"[""circle"",""green"",""vert"",""up"",[150,0],[0,150]]",circle,green,vert,up,"[150,0]","[0,150]",up,1,0.1674,,,,,,001,2025-03-10_18h41.28.681,SL_sali_41,2021.2.3,Win32,243.902439,,,5,0,5,0,1,,,,,,,,
,,"[""diamond"",""green"",""hori"",""left"",[0,150],[0,-150]]",diamond,green,hori,left,"[0,150]","[0,-150]",up,0,0.3454,,,,,,001,2025-03-10_18h41.28.681,SL_sali_41,2021.2.3,Win32,243.902439,,,6,0,6,0,1,,,,,,,,
,,"[""diamond"",""red"",""hori"",""left"",[106,-106],[0,150]]",diamond,red,hori,left,"[106,-106]","[0,150]",left,1,0.401,,,,,,001,2025-03-10_18h41.28.681,SL_sali_41,2021.2.3,Win32,243.902439,,,7,0,7,0,1,,,,,,,,
,,"[""circle"",""no_dis"",""hori"",""left"",[99999,99999],[-106,-106]]",circle,no_dis,hori,left,"[99999,99999]","[-106,-106]",left,1,0.3617,,,,,,001,2025-03-10_18h41.28.681,SL_sali_41,2021.2.3,Win32,243.902439,,,8,0,8,0,1,,,,,,,,
,,"[""diamond"",""no_dis"",""vert"",""up"",[99999,99999],[0,150]]",diamond,no_dis,vert,up,"[99999,99999]","[0,150]",up,1,0.3417,,,,,,001,2025-03-10_18h41.28.681,SL_sali_41,2021.2.3,Win32,243.902439,,,9,0,9,0,1,,,,,,,,
,,"[""circle"",""red"",""vert"",""up"",[0,-150],[-106,-106]]",circle,red,vert,up,"[0,-150]","[-106,-106]",left,0,0.1062,,,,,,001,2025-03-10_18h41.28.681,SL_sali_41,2021.2.3,Win32,243.902439,,,10,0,10,0,1,,,,,,,,
,,"[""diamond"",""red"",""hori"",""left"",[150,0],[-106,106]]",diamond,red,hori,left,"[150,0]","[-106,106]",up,0,0.1711,,,,,,001,2025-03-10_18h41.28.681,SL_sali_41,2021.2.3,Win32,243.902439,,,11,0,11,0,1,,,,,,,,
,,"[""circle"",""green"",""hori"",""left"",[106,-106],[-150,0]]",circle,green,hori,left,"[106,-106]","[-150,0]",left,1,0.7464,,,,,,001,2025-03-10_18h41.28.681,SL_sali_41,2021.2.3,Win32,243.902439,,,12,0,12,0,1,,,,,,,,
,,"[""circle"",""green"",""vert"",""up"",[0,-150],[-106,106]]",circle,green,vert,up,"[0,-150]","[-106,106]",left,0,0.4126,,,,,,001,2025-03-10_18h41.28.681,SL_sali_41,2021.2.3,Win32,243.902439,,,13,0,13,0,1,,,,,,,,
,,"[""circle"",""red"",""hori"",""left"",[0,-150],[-150,0]]",circle,red,hori,left,"[0,-150]","[-150,0]",up,0,0.7287,,,,,,001,2025-03-10_18h41.28.681,SL_sali_41,2021.2.3,Win32,243.902439,,,14,0,14,0,1,,,,,,,,
,,"[""circle"",""green"",""hori"",""left"",[0,-150],[-106,-106]]",circle,green,hori,left,"[0,-150]","[-106,-106]",left,1,0.3847,,,,,,001,2025-03-10_18h41.28.681,SL_sali_41,2021.2.3,Win32,243.902439,,,15,0,15,0,1,,,,,,,,
,,"[""diamond"",""green"",""vert"",""up"",[0,150],[150,0]]",diamond,green,vert,up,"[0,150]","[150,0]",left,0,0.4875,,,,,,001,2025-03-10_18h41.28.681,SL_sali_41,2021.2.3,Win32,243.902439,,,16,0,16,0,1,,,,,,,,
,,"[""circle"",""green"",""vert"",""up"",[-106,106],[0,-150]]",circle,green,vert,up,"[-106,106]","[0,-150]",up,1,0.4292,,,,,,001,2025-03-10_18h41.28.681,SL_sali_41,2021.2.3,Win32,243.902439,,,17,0,17,0,1,,,,,,,,
,,"[""circle"",""green"",""hori"",""left"",[0,-150],[106,106]]",circle,green,hori,left,"[0,-150]","[106,106]",left,1,0.4761,,,,,,001,2025-03-10_18h41.28.681,SL_sali_41,2021.2.3,Win32,243.902439,,,18,0,18,0,1,,,,,,,,
,,"[""circle"",""no_dis"",""vert"",""up"",[99999,99999],[106,106]]",circle,no_dis,vert,up,"[99999,99999]","[106,106]",up,1,0.5965,,,,,,001,2025-03-10_18h41.28.681,SL_sali_41,2021.2.3,Win32,243.902439,,,19,0,19,0,1,,,,,,,,
,,"[""diamond"",""red"",""vert"",""up"",[-106,-106],[106,-106]]",diamond,red,vert,up,"[-106,-106]","[106,-106]",left,0,0.3297,,,,,,001,2025-03-10_18h41.28.681,SL_sali_41,2021.2.3,Win32,243.902439,,,20,0,20,0,1,,,,,,,,
,,"[""diamond"",""no_dis"",""hori"",""left"",[99999,99999],[-106,-106]]",diamond,no_dis,hori,left,"[99999,99999]","[-106,-106]",up,0,0.4761,,,,,,001,2025-03-10_18h41.28.681,SL_sali_41,2021.2.3,Win32,243.902439,,,21,0,21,0,1,,,,,,,,
,,"[""diamond"",""no_dis"",""vert"",""up"",[99999,99999],[106,106]]",diamond,no_dis,vert,up,"[99999,99999]","[106,106]",left,0,0.3336,,,,,,001,2025-03-10_18h41.28.681,SL_sali_41,2021.2.3,Win32,243.902439,,,22,0,22,0,1,,,,,,,,
,,"[""circle"",""no_dis"",""hori"",""left"",[99999,99999],[106,106]]",circle,no_dis,hori,left,"[99999,99999]","[106,106]",left,1,0.035,,,,,,001,2025-03-10_18h41.28.681,SL_sali_41,2021.2.3,Win32,243.902439,,,23,0,23,0,1,,,,,,,,
,,"[""diamond"",""no_dis"",""vert"",""up"",[99999,99999],[0,-150]]",diamond,no_dis,vert,up,"[99999,99999]","[0,-150]",up,1,0.4123,,,,,,001,2025-03-10_18h41.28.681,SL_sali_41,2021.2.3,Win32,243.902439,,,24,0,24,0,1,,,,,,,,
,,"[""diamond"",""red"",""vert"",""up"",[0,-150],[-106,106]]",diamond,red,vert,up,"[0,-150]","[-106,106]",left,0,0.3965,,,,,,001,2025-03-10_18h41.28.681,SL_sali_41,2021.2.3,Win32,243.902439,,,25,0,25,0,1,,,,,,,,
,,"[""diamond"",""green"",""vert"",""up"",[0,-150],[150,0]]",diamond,green,vert,up,"[0,-150]","[150,0]",left,0,0.4404,,,,,,001,2025-03-10_18h41.28.681,SL_sali_41,2021.2.3,Win32,243.902439,,,26,0,26,0,1,,,,,,,,
,,"[""diamond"",""no_dis"",""hori"",""left"",[99999,99999],[-106,106]]",diamond,no_dis,hori,left,"[99999,99999]","[-106,106]",up,0,0.532,,,,,,001,2025-03-10_18h41.28.681,SL_sali_41,2021.2.3,Win32,243.902439,,,27,0,27,0,1,,,,,,,,
,,"[""circle"",""no_dis"",""vert"",""up"",[99999,99999],[-106,106]]",circle,no_dis,vert,up,"[99999,99999]","[-106,106]",left,0,0.3008,,,,,,001,2025-03-10_18h41.28.681,SL_sali_41,2021.2.3,Win32,243.902439,,,28,0,28,0,1,,,,,,,,
,,"[""circle"",""green"",""hori"",""left"",[106,-106],[150,0]]",circle,green,hori,left,"[106,-106]","[150,0]",up,0,0.4585,,,,,,001,2025-03-10_18h41.28.681,SL_sali_41,2021.2.3,Win32,243.902439,,,29,0,29,0,1,,,,,,,,
,,"[""circle"",""no_dis"",""hori"",""left"",[99999,99999],[-106,106]]",circle,no_dis,hori,left,"[99999,99999]","[-106,106]",left,1,0.4045,,,,,,001,2025-03-10_18h41.28.681,SL_sali_41,2021.2.3,Win32,243.902439,,,30,0,30,0,1,,,,,,,,
,,"[""diamond"",""green"",""hori"",""left"",[-106,-106],[150,0]]",diamond,green,hori,left,"[-106,-106]","[150,0]",left,1,0.3364,,,,,,001,2025-03-10_18h41.28.681,SL_sali_41,2021.2.3,Win32,243.902439,,,31,0,31,0,1,,,,,,,,
,,"[""diamond"",""green"",""hori"",""left"",[0,150],[-106,-106]]",diamond,green,hori,left,"[0,150]","[-106,-106]",up,0,0.2205,,,,,,001,2025-03-10_18h41.28.681,SL_sali_41,2021.2.3,Win32,243.902439,,,32,0,32,0,1,,,,,,,,
,,"[""diamond"",""no_dis"",""vert"",""up"",[99999,99999],[150,0]]",diamond,no_dis,vert,up,"[99999,99999]","[150,0]",left,0,0.5118,,,,,,001,2025-03-10_18h41.28.681,SL_sali_41,2021.2.3,Win32,243.902439,,,33,0,33,0,1,,,,,,,,
,,"[""circle"",""red"",""vert"",""up"",[106,-106],[-150,0]]",circle,red,vert,up,"[106,-106]","[-150,0]",left,0,0.7127,,,,,,001,2025-03-10_18h41.28.681,SL_sali_41,2021.2.3,Win32,243.902439,,,34,0,34,0,1,,,,,,,,
,,"[""circle"",""red"",""hori"",""left"",[-106,106],[106,-106]]",circle,red,hori,left,"[-106,106]","[106,-106]",up,0,0.3928,,,,,,001,2025-03-10_18h41.28.681,SL_sali_41,2021.2.3,Win32,243.902439,,,35,0,35,0,1,,,,,,,,
,,"[""diamond"",""green"",""vert"",""up"",[150,0],[106,106]]",diamond,green,vert,up,"[150,0]","[106,106]",up,1,0.4971,,,,,,001,2025-03-10_18h41.28.681,SL_sali_41,2021.2.3,Win32,243.902439,,,36,0,36,0,1,,,,,,,,
,,"[""circle"",""red"",""vert"",""up"",[150,0],[106,-106]]",circle,red,vert,up,"[150,0]","[106,-106]",left,0,0.5382,,,,,,001,2025-03-10_18h41.28.681,SL_sali_41,2021.2.3,Win32,243.902439,,,37,0,37,0,1,,,,,,,,
,,"[""circle"",""red"",""vert"",""up"",[0,-150],[106,-106]]",circle,red,vert,up,"[0,-150]","[106,-106]",left,0,0.5246,,,,,,001,2025-03-10_18h41.28.681,SL_sali_41,2021.2.3,Win32,243.902439,,,38,0,38,0,1,,,,,,,,
,,"[""circle"",""no_dis"",""vert"",""up"",[99999,99999],[106,-106]]",circle,no_dis,vert,up,"[99999,99999]","[106,-106]",up,1,0.4896,,,,,,001,2025-03-10_18h41.28.681,SL_sali_41,2021.2.3,Win32,243.902439,,,39,0,39,0,1,,,,,,,,
,,"[""diamond"",""red"",""hori"",""left"",[106,106],[-106,106]]",diamond,red,hori,left,"[106,106]","[-106,106]",up,0,0.4709,,,,,,001,2025-03-10_18h41.28.681,SL_sali_41,2021.2.3,Win32,243.902439,,,40,0,40,0,1,,,,,,,,
,,"[""circle"",""no_dis"",""hori"",""left"",[99999,99999],[-106,106]]",circle,no_dis,hori,left,"[99999,99999]","[-106,106]",left,1,0.3811,,,,,,001,2025-03-10_18h41.28.681,SL_sali_41,2021.2.3,Win32,243.902439,,,41,0,41,0,1,,,,,,,,
,,"[""diamond"",""green"",""vert"",""up"",[0,-150],[-106,-106]]",diamond,green,vert,up,"[0,-150]","[-106,-106]",left,0,0.2674,,,,,,001,2025-03-10_18h41.28.681,SL_sali_41,2021.2.3,Win32,243.902439,,,42,0,42,0,1,,,,,,,,
,,"[""diamond"",""red"",""hori"",""left"",[0,150],[0,-150]]",diamond,red,hori,left,"[0,150]","[0,-150]",up,0,0.3388,,,,,,001,2025-03-10_18h41.28.681,SL_sali_41,2021.2.3,Win32,243.902439,,,43,0,43,0,1,,,,,,,,
,,"[""diamond"",""no_dis"",""vert"",""up"",[99999,99999],[0,150]]",diamond,no_dis,vert,up,"[99999,99999]","[0,150]",left,0,0.9046,,,,,,001,2025-03-10_18h41.28.681,SL_sali_41,2021.2.3,Win32,243.902439,,,44,0,44,0,1,,,,,,,,
,,"[""circle"",""green"",""hori"",""left"",[0,-150],[0,150]]",circle,green,hori,left,"[0,-150]","[0,150]",left,1,0.9167,,,,,,001,2025-03-10_18h41.28.681,SL_sali_41,2021.2.3,Win32,243.902439,,,45,0,45,0,1,,,,,,,,
,,"[""diamond"",""red"",""hori"",""left"",[0,-150],[-106,106]]",diamond,red,hori,left,"[0,-150]","[-106,106]",up,0,0.499,,,,,,001,2025-03-10_18h41.28.681,SL_sali_41,2021.2.3,Win32,243.902439,,,46,0,46,0,1,,,,,,,,
,,"[""diamond"",""green"",""vert"",""up"",[0,-150],[106,106]]",diamond,green,vert,up,"[0,-150]","[106,106]",left,0,0.4906,,,,,,001,2025-03-10_18h41.28.681,SL_sali_41,2021.2.3,Win32,243.902439,,,47,0,47,0,1,,,,,,,,
,,"[""diamond"",""red"",""vert"",""up"",[-150,0],[106,106]]",diamond,red,vert,up,"[-150,0]","[106,106]",left,0,0.733,,,,,,001,2025-03-10_18h41.28.681,SL_sali_41,2021.2.3,Win32,243.902439,,,48,0,48,0,1,,,,,,,,
,,"[""circle"",""no_dis"",""vert"",""up"",[99999,99999],[0,150]]",circle,no_dis,vert,up,"[99999,99999]","[0,150]",up,1,0.739,,,,,,001,2025-03-10_18h41.28.681,SL_sali_41,2021.2.3,Win32,243.902439,,,49,0,49,0,1,,,,,,,,
,,"[""circle"",""red"",""vert"",""up"",[0,-150],[0,150]]",circle,red,vert,up,"[0,-150]","[0,150]",left,0,0.9759,,,,,,001,2025-03-10_18h41.28.681,SL_sali_41,2021.2.3,Win32,243.902439,,,50,0,50,0,1,,,,,,,,
,,"[""diamond"",""no_dis"",""hori"",""left"",[99999,99999],[-106,-106]]",diamond,no_dis,hori,left,"[99999,99999]","[-106,-106]",up,0,0.5808,,,,,,001,2025-03-10_18h41.28.681,SL_sali_41,2021.2.3,Win32,243.902439,,,51,0,51,0,1,,,,,,,,
,,"[""circle"",""no_dis"",""hori"",""left"",[99999,99999],[106,-106]]",circle,no_dis,hori,left,"[99999,99999]","[106,-106]",left,1,0.5464,,,,,,001,2025-03-10_18h41.28.681,SL_sali_41,2021.2.3,Win32,243.902439,,,52,0,52,0,1,,,,,,,,
,,"[""diamond"",""green"",""vert"",""up"",[-106,-106],[-150,0]]",diamond,green,vert,up,"[-106,-106]","[-150,0]",left,0,0.224,,,,,,001,2025-03-10_18h41.28.681,SL_sali_41,2021.2.3,Win32,243.902439,,,53,0,53,0,1,,,,,,,,
,,"[""diamond"",""green"",""hori"",""left"",[0,-150],[-106,106]]",diamond,green,hori,left,"[0,-150]","[-106,106]",up,0,0.2748,,,,,,001,2025-03-10_18h41.28.681,SL_sali_41,2021.2.3,Win32,243.902439,,,54,0,54,0,1,,,,,,,,
,,"[""diamond"",""no_dis"",""hori"",""left"",[99999,99999],[150,0]]",diamond,no_dis,hori,left,"[99999,99999]","[150,0]",left,1,0.3396,,,,,,001,2025-03-10_18h41.28.681,SL_sali_41,2021.2.3,Win32,243.902439,,,55,0,55,0,1,,,,,,,,
,,"[""circle"",""red"",""hori"",""left"",[0,-150],[-150,0]]",circle,red,hori,left,"[0,-150]","[-150,0]",left,1,0.4053,,,,,,001,2025-03-10_18h41.28.681,SL_sali_41,2021.2.3,Win32,243.902439,,,56,0,56,0,1,,,,,,,,
,,"[""circle"",""red"",""hori"",""left"",[0,-150],[-150,0]]",circle,red,hori,left,"[0,-150]","[-150,0]",left,1,0.5581,,,,,,001,2025-03-10_18h41.28.681,SL_sali_41,2021.2.3,Win32,243.902439,,,57,0,57,0,1,,,,,,,,
,,"[""circle"",""green"",""vert"",""up"",[0,-150],[150,0]]",circle,green,vert,up,"[0,-150]","[150,0]",up,1,0.2527,,,,,,001,2025-03-10_18h41.28.681,SL_sali_41,2021.2.3,Win32,243.902439,,,58,0,58,0,1,,,,,,,,
,,"[""circle"",""green"",""hori"",""left"",[-150,0],[106,106]]",circle,green,hori,left,"[-150,0]","[106,106]",left,1,0.0798,,,,,,001,2025-03-10_18h41.28.681,SL_sali_41,2021.2.3,Win32,243.902439,,,59,0,59,0,1,,,,,,,,
,,"[""diamond"",""no_dis"",""vert"",""up"",[99999,99999],[-150,0]]",diamond,no_dis,vert,up,"[99999,99999]","[-150,0]",up,1,0.3081,,,,,,001,2025-03-10_18h41.28.681,SL_sali_41,2021.2.3,Win32,243.902439,,,60,0,60,0,1,,,,,,,,
,,"[""diamond"",""red"",""hori"",""left"",[0,-150],[106,106]]",diamond,red,hori,left,"[0,-150]","[106,106]",left,1,0.5287,,,,,,001,2025-03-10_18h41.28.681,SL_sali_41,2021.2.3,Win32,243.902439,,,61,0,61,0,1,,,,,,,,
,,"[""diamond"",""red"",""vert"",""up"",[-150,0],[150,0]]",diamond,red,vert,up,"[-150,0]","[150,0]",left,0,0.7468,,,,,,001,2025-03-10_18h41.28.681,SL_sali_41,2021.2.3,Win32,243.902439,,,62,0,62,0,1,,,,,,,,
