﻿key_resp.keys,key_resp.rt,trial_para,tar_shape,dis_color_condi,tar_line,cor_resp,dis_loc,tar_loc,resp.keys,resp.corr,trials.thisRepN,trials.thisTrialN,trials.thisN,trials.thisIndex,trials.ran,participant,date,expName,psychopyVersion,OS,frameRate,resp.rt,key_resp_2.keys,key_resp_2.rt,trials_2.thisRepN,trials_2.thisTrialN,trials_2.thisN,trials_2.thisIndex,trials_2.ran,block_num,key_resp_3.keys,key_resp_3.rt,trials_3.thisRepN,trials_3.thisTrialN,trials_3.thisN,trials_3.thisIndex,trials_3.ran
space,28.6234,"[""diamond"",""green"",""vert"",""up"",[106,106],[-106,-106]]",diamond,green,vert,up,"[106,106]","[-106,-106]",,0,0,0,0,0,1,001,2025-03-17_13h04.38.538,SL_sali_41,2021.2.3,Win32,60.24096386,,,,,,,,,,,,,,,,
,,"[""diamond"",""green"",""vert"",""up"",[0,-150],[150,0]]",diamond,green,vert,up,"[0,-150]","[150,0]",,0,1,0,1,0,1,001,2025-03-17_13h04.38.538,SL_sali_41,2021.2.3,Win32,60.24096386,,,,,,,,,,,,,,,,
,,"[""circle"",""green"",""hori"",""left"",[150,0],[106,106]]",circle,green,hori,left,"[150,0]","[106,106]",up,0,2,0,2,0,1,001,2025-03-17_13h04.38.538,SL_sali_41,2021.2.3,Win32,60.24096386,0.7448,,,,,,,,,,,,,,,
,,"[""diamond"",""no_dis"",""hori"",""left"",[99999,99999],[-150,0]]",diamond,no_dis,hori,left,"[99999,99999]","[-150,0]",,0,3,0,3,0,1,001,2025-03-17_13h04.38.538,SL_sali_41,2021.2.3,Win32,60.24096386,,,,,,,,,,,,,,,,
,,"[""circle"",""green"",""vert"",""up"",[0,150],[-106,106]]",circle,green,vert,up,"[0,150]","[-106,106]",up,1,4,0,4,0,1,001,2025-03-17_13h04.38.538,SL_sali_41,2021.2.3,Win32,60.24096386,2.2593,,,,,,,,,,,,,,,
,,"[""diamond"",""green"",""vert"",""up"",[106,-106],[106,106]]",diamond,green,vert,up,"[106,-106]","[106,106]",,0,5,0,5,0,1,001,2025-03-17_13h04.38.538,SL_sali_41,2021.2.3,Win32,60.24096386,,,,,,,,,,,,,,,,
,,"[""diamond"",""no_dis"",""hori"",""left"",[99999,99999],[-150,0]]",diamond,no_dis,hori,left,"[99999,99999]","[-150,0]",up,0,6,0,6,0,1,001,2025-03-17_13h04.38.538,SL_sali_41,2021.2.3,Win32,60.24096386,0.6782,,,,,,,,,,,,,,,
,,"[""diamond"",""green"",""vert"",""up"",[0,-150],[-106,106]]",diamond,green,vert,up,"[0,-150]","[-106,106]",up,1,7,0,7,0,1,001,2025-03-17_13h04.38.538,SL_sali_41,2021.2.3,Win32,60.24096386,2.4804,,,,,,,,,,,,,,,
,,"[""diamond"",""red"",""vert"",""up"",[106,106],[-106,-106]]",diamond,red,vert,up,"[106,106]","[-106,-106]",up,1,8,0,8,0,1,001,2025-03-17_13h04.38.538,SL_sali_41,2021.2.3,Win32,60.24096386,2.1542,,,,,,,,,,,,,,,
,,"[""diamond"",""green"",""vert"",""up"",[106,106],[-106,-106]]",diamond,green,vert,up,"[106,106]","[-106,-106]",up,1,9,0,9,0,1,001,2025-03-17_13h04.38.538,SL_sali_41,2021.2.3,Win32,60.24096386,2.7654,,,,,,,,,,,,,,,
,,"[""diamond"",""green"",""vert"",""up"",[106,106],[-106,-106]]",diamond,green,vert,up,"[106,106]","[-106,-106]",up,1,,,,,,001,2025-03-17_13h04.38.538,SL_sali_41,2021.2.3,Win32,60.24096386,2.1448,space,10.3701,0,0,0,0,1,,,,,,,,
,,"[""diamond"",""green"",""vert"",""up"",[0,-150],[150,0]]",diamond,green,vert,up,"[0,-150]","[150,0]",up,1,,,,,,001,2025-03-17_13h04.38.538,SL_sali_41,2021.2.3,Win32,60.24096386,2.8704,,,1,0,1,0,1,,,,,,,,
,,"[""circle"",""green"",""hori"",""left"",[150,0],[106,106]]",circle,green,hori,left,"[150,0]","[106,106]",,0,,,,,,001,2025-03-17_13h04.38.538,SL_sali_41,2021.2.3,Win32,60.24096386,,,,2,0,2,0,1,,,,,,,,
,,"[""diamond"",""no_dis"",""hori"",""left"",[99999,99999],[-150,0]]",diamond,no_dis,hori,left,"[99999,99999]","[-150,0]",up,0,,,,,,001,2025-03-17_13h04.38.538,SL_sali_41,2021.2.3,Win32,60.24096386,1.9088,,,3,0,3,0,1,,,,,,,,
,,"[""circle"",""green"",""vert"",""up"",[0,150],[-106,106]]",circle,green,vert,up,"[0,150]","[-106,106]",up,1,,,,,,001,2025-03-17_13h04.38.538,SL_sali_41,2021.2.3,Win32,60.24096386,2.7936,,,4,0,4,0,1,,,,,,,,
,,"[""diamond"",""green"",""vert"",""up"",[106,-106],[106,106]]",diamond,green,vert,up,"[106,-106]","[106,106]",up,1,,,,,,001,2025-03-17_13h04.38.538,SL_sali_41,2021.2.3,Win32,60.24096386,2.2373,,,5,0,5,0,1,,,,,,,,
,,"[""diamond"",""no_dis"",""hori"",""left"",[99999,99999],[-150,0]]",diamond,no_dis,hori,left,"[99999,99999]","[-150,0]",,0,,,,,,001,2025-03-17_13h04.38.538,SL_sali_41,2021.2.3,Win32,60.24096386,,,,6,0,6,0,1,,,,,,,,
,,"[""diamond"",""green"",""vert"",""up"",[0,-150],[-106,106]]",diamond,green,vert,up,"[0,-150]","[-106,106]",up,1,,,,,,001,2025-03-17_13h04.38.538,SL_sali_41,2021.2.3,Win32,60.24096386,1.8011,,,7,0,7,0,1,,,,,,,,
,,"[""diamond"",""red"",""vert"",""up"",[106,106],[-106,-106]]",diamond,red,vert,up,"[106,106]","[-106,-106]",,0,,,,,,001,2025-03-17_13h04.38.538,SL_sali_41,2021.2.3,Win32,60.24096386,,,,8,0,8,0,1,,,,,,,,
,,"[""diamond"",""green"",""vert"",""up"",[106,106],[-106,-106]]",diamond,green,vert,up,"[106,106]","[-106,-106]",up,1,,,,,,001,2025-03-17_13h04.38.538,SL_sali_41,2021.2.3,Win32,60.24096386,1.6281,,,9,0,9,0,1,,,,,,,,
,,"[""diamond"",""no_dis"",""vert"",""up"",[99999,99999],[0,-150]]",diamond,no_dis,vert,up,"[99999,99999]","[0,-150]",up,1,,,,,,001,2025-03-17_13h04.38.538,SL_sali_41,2021.2.3,Win32,60.24096386,2.284,,,10,0,10,0,1,,,,,,,,
,,"[""diamond"",""red"",""vert"",""up"",[-106,106],[-106,-106]]",diamond,red,vert,up,"[-106,106]","[-106,-106]",up,1,,,,,,001,2025-03-17_13h04.38.538,SL_sali_41,2021.2.3,Win32,60.24096386,1.5341,,,11,0,11,0,1,,,,,,,,
,,"[""diamond"",""no_dis"",""hori"",""left"",[99999,99999],[106,-106]]",diamond,no_dis,hori,left,"[99999,99999]","[106,-106]",,0,,,,,,001,2025-03-17_13h04.38.538,SL_sali_41,2021.2.3,Win32,60.24096386,,,,12,0,12,0,1,,,,,,,,
,,"[""circle"",""green"",""hori"",""left"",[150,0],[106,-106]]",circle,green,hori,left,"[150,0]","[106,-106]",,0,,,,,,001,2025-03-17_13h04.38.538,SL_sali_41,2021.2.3,Win32,60.24096386,,,,13,0,13,0,1,,,,,,,,
,,"[""circle"",""red"",""hori"",""left"",[-150,0],[106,-106]]",circle,red,hori,left,"[-150,0]","[106,-106]",up,0,,,,,,001,2025-03-17_13h04.38.538,SL_sali_41,2021.2.3,Win32,60.24096386,1.6653,,,14,0,14,0,1,,,,,,,,
,,"[""diamond"",""green"",""vert"",""up"",[106,106],[150,0]]",diamond,green,vert,up,"[106,106]","[150,0]",up,1,,,,,,001,2025-03-17_13h04.38.538,SL_sali_41,2021.2.3,Win32,60.24096386,2.0921,,,15,0,15,0,1,,,,,,,,
,,"[""circle"",""red"",""vert"",""up"",[106,106],[0,150]]",circle,red,vert,up,"[106,106]","[0,150]",up,1,,,,,,001,2025-03-17_13h04.38.538,SL_sali_41,2021.2.3,Win32,60.24096386,2.6023,,,16,0,16,0,1,,,,,,,,
,,"[""circle"",""no_dis"",""hori"",""left"",[99999,99999],[-106,106]]",circle,no_dis,hori,left,"[99999,99999]","[-106,106]",up,0,,,,,,001,2025-03-17_13h04.38.538,SL_sali_41,2021.2.3,Win32,60.24096386,2.6019,,,17,0,17,0,1,,,,,,,,
,,"[""circle"",""red"",""hori"",""left"",[106,106],[-150,0]]",circle,red,hori,left,"[106,106]","[-150,0]",,0,,,,,,001,2025-03-17_13h04.38.538,SL_sali_41,2021.2.3,Win32,60.24096386,,,,18,0,18,0,1,,,,,,,,
,,"[""diamond"",""red"",""hori"",""left"",[-106,106],[106,-106]]",diamond,red,hori,left,"[-106,106]","[106,-106]",,0,,,,,,001,2025-03-17_13h04.38.538,SL_sali_41,2021.2.3,Win32,60.24096386,,,,19,0,19,0,1,,,,,,,,
,,"[""diamond"",""green"",""hori"",""left"",[-150,0],[106,-106]]",diamond,green,hori,left,"[-150,0]","[106,-106]",up,0,,,,,,001,2025-03-17_13h04.38.538,SL_sali_41,2021.2.3,Win32,60.24096386,1.6759,,,20,0,20,0,1,,,,,,,,
,,"[""diamond"",""red"",""hori"",""left"",[-106,106],[106,-106]]",diamond,red,hori,left,"[-106,106]","[106,-106]",up,0,,,,,,001,2025-03-17_13h04.38.538,SL_sali_41,2021.2.3,Win32,60.24096386,1.7454,,,21,0,21,0,1,,,,,,,,
,,"[""diamond"",""red"",""vert"",""up"",[106,106],[-106,106]]",diamond,red,vert,up,"[106,106]","[-106,106]",up,1,,,,,,001,2025-03-17_13h04.38.538,SL_sali_41,2021.2.3,Win32,60.24096386,2.508,,,22,0,22,0,1,,,,,,,,
,,"[""diamond"",""red"",""hori"",""left"",[-150,0],[106,106]]",diamond,red,hori,left,"[-150,0]","[106,106]",up,0,,,,,,001,2025-03-17_13h04.38.538,SL_sali_41,2021.2.3,Win32,60.24096386,1.9634,,,23,0,23,0,1,,,,,,,,
,,"[""circle"",""red"",""vert"",""up"",[-106,-106],[106,-106]]",circle,red,vert,up,"[-106,-106]","[106,-106]",,0,,,,,,001,2025-03-17_13h04.38.538,SL_sali_41,2021.2.3,Win32,60.24096386,,,,24,0,24,0,1,,,,,,,,
,,"[""diamond"",""no_dis"",""hori"",""left"",[99999,99999],[0,150]]",diamond,no_dis,hori,left,"[99999,99999]","[0,150]",,0,,,,,,001,2025-03-17_13h04.38.538,SL_sali_41,2021.2.3,Win32,60.24096386,,,,25,0,25,0,1,,,,,,,,
,,"[""circle"",""red"",""vert"",""up"",[-106,-106],[106,106]]",circle,red,vert,up,"[-106,-106]","[106,106]",left,0,,,,,,001,2025-03-17_13h04.38.538,SL_sali_41,2021.2.3,Win32,60.24096386,2.2821,,,26,0,26,0,1,,,,,,,,
,,"[""circle"",""green"",""vert"",""up"",[-106,106],[0,-150]]",circle,green,vert,up,"[-106,106]","[0,-150]",up,1,,,,,,001,2025-03-17_13h04.38.538,SL_sali_41,2021.2.3,Win32,60.24096386,1.4065,,,27,0,27,0,1,,,,,,,,
,,"[""diamond"",""no_dis"",""vert"",""up"",[99999,99999],[106,106]]",diamond,no_dis,vert,up,"[99999,99999]","[106,106]",left,0,,,,,,001,2025-03-17_13h04.38.538,SL_sali_41,2021.2.3,Win32,60.24096386,0.6887,,,28,0,28,0,1,,,,,,,,
,,"[""circle"",""green"",""hori"",""left"",[150,0],[106,106]]",circle,green,hori,left,"[150,0]","[106,106]",up,0,,,,,,001,2025-03-17_13h04.38.538,SL_sali_41,2021.2.3,Win32,60.24096386,2.3851,,,29,0,29,0,1,,,,,,,,
,,"[""circle"",""no_dis"",""hori"",""left"",[99999,99999],[0,150]]",circle,no_dis,hori,left,"[99999,99999]","[0,150]",up,0,,,,,,001,2025-03-17_13h04.38.538,SL_sali_41,2021.2.3,Win32,60.24096386,2.1872,,,30,0,30,0,1,,,,,,,,
,,"[""diamond"",""green"",""vert"",""up"",[-106,-106],[106,106]]",diamond,green,vert,up,"[-106,-106]","[106,106]",left,0,,,,,,001,2025-03-17_13h04.38.538,SL_sali_41,2021.2.3,Win32,60.24096386,2.2516,,,31,0,31,0,1,,,,,,,,
,,"[""diamond"",""green"",""hori"",""left"",[-106,-106],[-150,0]]",diamond,green,hori,left,"[-106,-106]","[-150,0]",up,0,,,,,,001,2025-03-17_13h04.38.538,SL_sali_41,2021.2.3,Win32,60.24096386,1.7232,,,32,0,32,0,1,,,,,,,,
,,"[""circle"",""red"",""vert"",""up"",[0,150],[106,106]]",circle,red,vert,up,"[0,150]","[106,106]",up,1,,,,,,001,2025-03-17_13h04.38.538,SL_sali_41,2021.2.3,Win32,60.24096386,2.0988,,,33,0,33,0,1,,,,,,,,
,,"[""diamond"",""no_dis"",""hori"",""left"",[99999,99999],[106,106]]",diamond,no_dis,hori,left,"[99999,99999]","[106,106]",up,0,,,,,,001,2025-03-17_13h04.38.538,SL_sali_41,2021.2.3,Win32,60.24096386,2.368,,,34,0,34,0,1,,,,,,,,
,,"[""circle"",""red"",""vert"",""up"",[-150,0],[0,150]]",circle,red,vert,up,"[-150,0]","[0,150]",,0,,,,,,001,2025-03-17_13h04.38.538,SL_sali_41,2021.2.3,Win32,60.24096386,,,,35,0,35,0,1,,,,,,,,
,,"[""circle"",""green"",""vert"",""up"",[-106,-106],[106,-106]]",circle,green,vert,up,"[-106,-106]","[106,-106]",,0,,,,,,001,2025-03-17_13h04.38.538,SL_sali_41,2021.2.3,Win32,60.24096386,,,,36,0,36,0,1,,,,,,,,
,,"[""circle"",""green"",""hori"",""left"",[106,106],[0,150]]",circle,green,hori,left,"[106,106]","[0,150]",left,1,,,,,,001,2025-03-17_13h04.38.538,SL_sali_41,2021.2.3,Win32,60.24096386,1.9075,,,37,0,37,0,1,,,,,,,,
,,"[""circle"",""green"",""hori"",""left"",[106,106],[-150,0]]",circle,green,hori,left,"[106,106]","[-150,0]",,0,,,,,,001,2025-03-17_13h04.38.538,SL_sali_41,2021.2.3,Win32,60.24096386,,,,38,0,38,0,1,,,,,,,,
,,"[""circle"",""green"",""vert"",""up"",[0,-150],[-106,106]]",circle,green,vert,up,"[0,-150]","[-106,106]",up,1,,,,,,001,2025-03-17_13h04.38.538,SL_sali_41,2021.2.3,Win32,60.24096386,1.6659,,,39,0,39,0,1,,,,,,,,
,,"[""diamond"",""red"",""vert"",""up"",[106,-106],[0,150]]",diamond,red,vert,up,"[106,-106]","[0,150]",up,1,,,,,,001,2025-03-17_13h04.38.538,SL_sali_41,2021.2.3,Win32,60.24096386,1.0999,,,40,0,40,0,1,,,,,,,,
,,"[""diamond"",""green"",""vert"",""up"",[-150,0],[-106,-106]]",diamond,green,vert,up,"[-150,0]","[-106,-106]",left,0,,,,,,001,2025-03-17_13h04.38.538,SL_sali_41,2021.2.3,Win32,60.24096386,2.7487,,,41,0,41,0,1,,,,,,,,
,,"[""circle"",""red"",""vert"",""up"",[106,106],[-106,-106]]",circle,red,vert,up,"[106,106]","[-106,-106]",up,1,,,,,,001,2025-03-17_13h04.38.538,SL_sali_41,2021.2.3,Win32,60.24096386,1.741,,,42,0,42,0,1,,,,,,,,
,,"[""circle"",""no_dis"",""vert"",""up"",[99999,99999],[0,150]]",circle,no_dis,vert,up,"[99999,99999]","[0,150]",left,0,,,,,,001,2025-03-17_13h04.38.538,SL_sali_41,2021.2.3,Win32,60.24096386,2.0324,,,43,0,43,0,1,,,,,,,,
,,"[""circle"",""green"",""vert"",""up"",[106,106],[106,-106]]",circle,green,vert,up,"[106,106]","[106,-106]",up,1,,,,,,001,2025-03-17_13h04.38.538,SL_sali_41,2021.2.3,Win32,60.24096386,1.8912,,,44,0,44,0,1,,,,,,,,
,,"[""circle"",""green"",""vert"",""up"",[106,106],[150,0]]",circle,green,vert,up,"[106,106]","[150,0]",up,1,,,,,,001,2025-03-17_13h04.38.538,SL_sali_41,2021.2.3,Win32,60.24096386,2.3009,,,45,0,45,0,1,,,,,,,,
,,"[""circle"",""no_dis"",""vert"",""up"",[99999,99999],[-106,-106]]",circle,no_dis,vert,up,"[99999,99999]","[-106,-106]",up,1,,,,,,001,2025-03-17_13h04.38.538,SL_sali_41,2021.2.3,Win32,60.24096386,2.0998,,,46,0,46,0,1,,,,,,,,
,,"[""circle"",""red"",""hori"",""left"",[150,0],[106,106]]",circle,red,hori,left,"[150,0]","[106,106]",left,1,,,,,,001,2025-03-17_13h04.38.538,SL_sali_41,2021.2.3,Win32,60.24096386,1.417,,,47,0,47,0,1,,,,,,,,
,,"[""diamond"",""red"",""hori"",""left"",[150,0],[106,-106]]",diamond,red,hori,left,"[150,0]","[106,-106]",up,0,,,,,,001,2025-03-17_13h04.38.538,SL_sali_41,2021.2.3,Win32,60.24096386,1.501,,,48,0,48,0,1,,,,,,,,
,,"[""circle"",""green"",""vert"",""up"",[150,0],[106,106]]",circle,green,vert,up,"[150,0]","[106,106]",up,1,,,,,,001,2025-03-17_13h04.38.538,SL_sali_41,2021.2.3,Win32,60.24096386,2.8489,,,49,0,49,0,1,,,,,,,,
,,"[""diamond"",""no_dis"",""vert"",""up"",[99999,99999],[-106,106]]",diamond,no_dis,vert,up,"[99999,99999]","[-106,106]",up,1,,,,,,001,2025-03-17_13h04.38.538,SL_sali_41,2021.2.3,Win32,60.24096386,2.2492,,,50,0,50,0,1,,,,,,,,
,,"[""diamond"",""red"",""vert"",""up"",[0,-150],[150,0]]",diamond,red,vert,up,"[0,-150]","[150,0]",left,0,,,,,,001,2025-03-17_13h04.38.538,SL_sali_41,2021.2.3,Win32,60.24096386,1.8343,,,51,0,51,0,1,,,,,,,,
,,"[""diamond"",""green"",""hori"",""left"",[106,-106],[-106,-106]]",diamond,green,hori,left,"[106,-106]","[-106,-106]",left,1,,,,,,001,2025-03-17_13h04.38.538,SL_sali_41,2021.2.3,Win32,60.24096386,2.0485,,,52,0,52,0,1,,,,,,,,
,,"[""circle"",""green"",""hori"",""left"",[106,106],[150,0]]",circle,green,hori,left,"[106,106]","[150,0]",up,0,,,,,,001,2025-03-17_13h04.38.538,SL_sali_41,2021.2.3,Win32,60.24096386,2.3892,,,53,0,53,0,1,,,,,,,,
,,"[""diamond"",""green"",""hori"",""left"",[106,-106],[106,106]]",diamond,green,hori,left,"[106,-106]","[106,106]",left,1,,,,,,001,2025-03-17_13h04.38.538,SL_sali_41,2021.2.3,Win32,60.24096386,1.4171,,,54,0,54,0,1,,,,,,,,
,,"[""circle"",""no_dis"",""vert"",""up"",[99999,99999],[106,-106]]",circle,no_dis,vert,up,"[99999,99999]","[106,-106]",up,1,,,,,,001,2025-03-17_13h04.38.538,SL_sali_41,2021.2.3,Win32,60.24096386,2.5714,,,55,0,55,0,1,,,,,,,,
,,"[""diamond"",""red"",""vert"",""up"",[-106,106],[-150,0]]",diamond,red,vert,up,"[-106,106]","[-150,0]",up,1,,,,,,001,2025-03-17_13h04.38.538,SL_sali_41,2021.2.3,Win32,60.24096386,2,,,56,0,56,0,1,,,,,,,,
,,"[""diamond"",""red"",""vert"",""up"",[106,106],[150,0]]",diamond,red,vert,up,"[106,106]","[150,0]",left,0,,,,,,001,2025-03-17_13h04.38.538,SL_sali_41,2021.2.3,Win32,60.24096386,2.085,,,57,0,57,0,1,,,,,,,,
,,"[""circle"",""no_dis"",""vert"",""up"",[99999,99999],[-150,0]]",circle,no_dis,vert,up,"[99999,99999]","[-150,0]",left,0,,,,,,001,2025-03-17_13h04.38.538,SL_sali_41,2021.2.3,Win32,60.24096386,2.8508,,,58,0,58,0,1,,,,,,,,
,,"[""circle"",""no_dis"",""vert"",""up"",[99999,99999],[-106,-106]]",circle,no_dis,vert,up,"[99999,99999]","[-106,-106]",,0,,,,,,001,2025-03-17_13h04.38.538,SL_sali_41,2021.2.3,Win32,60.24096386,,,,59,0,59,0,1,,,,,,,,
,,"[""circle"",""red"",""vert"",""up"",[-150,0],[-106,106]]",circle,red,vert,up,"[-150,0]","[-106,106]",up,1,,,,,,001,2025-03-17_13h04.38.538,SL_sali_41,2021.2.3,Win32,60.24096386,1.2999,,,60,0,60,0,1,,,,,,,,
,,"[""diamond"",""red"",""hori"",""left"",[106,106],[0,-150]]",diamond,red,hori,left,"[106,106]","[0,-150]",left,1,,,,,,001,2025-03-17_13h04.38.538,SL_sali_41,2021.2.3,Win32,60.24096386,1.7667,,,61,0,61,0,1,,,,,,,,
,,"[""diamond"",""red"",""hori"",""left"",[106,-106],[-106,-106]]",diamond,red,hori,left,"[106,-106]","[-106,-106]",left,1,,,,,,001,2025-03-17_13h04.38.538,SL_sali_41,2021.2.3,Win32,60.24096386,1.8068,,,62,0,62,0,1,,,,,,,,
,,"[""circle"",""green"",""hori"",""left"",[0,-150],[0,150]]",circle,green,hori,left,"[0,-150]","[0,150]",left,1,,,,,,001,2025-03-17_13h04.38.538,SL_sali_41,2021.2.3,Win32,60.24096386,1.4539,,,63,0,63,0,1,,,,,,,,
,,"[""circle"",""red"",""hori"",""left"",[-106,106],[150,0]]",circle,red,hori,left,"[-106,106]","[150,0]",left,1,,,,,,001,2025-03-17_13h04.38.538,SL_sali_41,2021.2.3,Win32,60.24096386,2.1396,,,64,0,64,0,1,,,,,,,,
,,"[""circle"",""red"",""hori"",""left"",[106,106],[0,-150]]",circle,red,hori,left,"[106,106]","[0,-150]",left,1,,,,,,001,2025-03-17_13h04.38.538,SL_sali_41,2021.2.3,Win32,60.24096386,1.884,,,65,0,65,0,1,,,,,,,,
,,"[""circle"",""red"",""hori"",""left"",[0,150],[106,-106]]",circle,red,hori,left,"[0,150]","[106,-106]",left,1,,,,,,001,2025-03-17_13h04.38.538,SL_sali_41,2021.2.3,Win32,60.24096386,1.6007,,,66,0,66,0,1,,,,,,,,
,,"[""circle"",""no_dis"",""hori"",""left"",[99999,99999],[0,-150]]",circle,no_dis,hori,left,"[99999,99999]","[0,-150]",left,1,,,,,,001,2025-03-17_13h04.38.538,SL_sali_41,2021.2.3,Win32,60.24096386,1.2402,,,67,0,67,0,1,,,,,,,,
,,"[""circle"",""green"",""hori"",""left"",[106,106],[-106,106]]",circle,green,hori,left,"[106,106]","[-106,106]",left,1,,,,,,001,2025-03-17_13h04.38.538,SL_sali_41,2021.2.3,Win32,60.24096386,0.9496,,,68,0,68,0,1,,,,,,,,
,,"[""circle"",""no_dis"",""hori"",""left"",[99999,99999],[-106,-106]]",circle,no_dis,hori,left,"[99999,99999]","[-106,-106]",left,1,,,,,,001,2025-03-17_13h04.38.538,SL_sali_41,2021.2.3,Win32,60.24096386,1.2197,,,69,0,69,0,1,,,,,,,,
,,"[""diamond"",""green"",""vert"",""up"",[0,150],[0,-150]]",diamond,green,vert,up,"[0,150]","[0,-150]",left,0,,,,,,001,2025-03-17_13h04.38.538,SL_sali_41,2021.2.3,Win32,60.24096386,1.1,,,70,0,70,0,1,,,,,,,,
,,"[""circle"",""no_dis"",""vert"",""up"",[99999,99999],[150,0]]",circle,no_dis,vert,up,"[99999,99999]","[150,0]",up,1,,,,,,001,2025-03-17_13h04.38.538,SL_sali_41,2021.2.3,Win32,60.24096386,2.5821,,,71,0,71,0,1,,,,,,,,
,,"[""circle"",""no_dis"",""vert"",""up"",[99999,99999],[0,-150]]",circle,no_dis,vert,up,"[99999,99999]","[0,-150]",up,1,,,,,,001,2025-03-17_13h04.38.538,SL_sali_41,2021.2.3,Win32,60.24096386,1.0379,,,72,0,72,0,1,,,,,,,,
,,"[""circle"",""no_dis"",""hori"",""left"",[99999,99999],[106,106]]",circle,no_dis,hori,left,"[99999,99999]","[106,106]",left,1,,,,,,001,2025-03-17_13h04.38.538,SL_sali_41,2021.2.3,Win32,60.24096386,1.7163,,,73,0,73,0,1,,,,,,,,
,,"[""circle"",""no_dis"",""hori"",""left"",[99999,99999],[150,0]]",circle,no_dis,hori,left,"[99999,99999]","[150,0]",left,1,,,,,,001,2025-03-17_13h04.38.538,SL_sali_41,2021.2.3,Win32,60.24096386,1.3102,,,74,0,74,0,1,,,,,,,,
,,"[""diamond"",""green"",""hori"",""left"",[-150,0],[106,106]]",diamond,green,hori,left,"[-150,0]","[106,106]",up,0,,,,,,001,2025-03-17_13h04.38.538,SL_sali_41,2021.2.3,Win32,60.24096386,0.9767,,,75,0,75,0,1,,,,,,,,
,,"[""circle"",""green"",""hori"",""left"",[106,106],[0,150]]",circle,green,hori,left,"[106,106]","[0,150]",left,1,,,,,,001,2025-03-17_13h04.38.538,SL_sali_41,2021.2.3,Win32,60.24096386,1.4353,,,76,0,76,0,1,,,,,,,,
,,"[""diamond"",""no_dis"",""vert"",""up"",[99999,99999],[106,-106]]",diamond,no_dis,vert,up,"[99999,99999]","[106,-106]",left,0,,,,,,001,2025-03-17_13h04.38.538,SL_sali_41,2021.2.3,Win32,60.24096386,2.4647,,,77,0,77,0,1,,,,,,,,
,,"[""circle"",""no_dis"",""hori"",""left"",[99999,99999],[106,-106]]",circle,no_dis,hori,left,"[99999,99999]","[106,-106]",up,0,,,,,,001,2025-03-17_13h04.38.538,SL_sali_41,2021.2.3,Win32,60.24096386,2.3739,,,78,0,78,0,1,,,,,,,,
,,"[""diamond"",""red"",""vert"",""up"",[106,106],[-106,-106]]",diamond,red,vert,up,"[106,106]","[-106,-106]",up,1,,,,,,001,2025-03-17_13h04.38.538,SL_sali_41,2021.2.3,Win32,60.24096386,2.3021,,,79,0,79,0,1,,,,,,,,
,,"[""circle"",""red"",""hori"",""left"",[106,106],[0,150]]",circle,red,hori,left,"[106,106]","[0,150]",left,1,,,,,,001,2025-03-17_13h04.38.538,SL_sali_41,2021.2.3,Win32,60.24096386,2.4672,,,80,0,80,0,1,,,,,,,,
,,"[""diamond"",""red"",""hori"",""left"",[106,106],[-150,0]]",diamond,red,hori,left,"[106,106]","[-150,0]",up,0,,,,,,001,2025-03-17_13h04.38.538,SL_sali_41,2021.2.3,Win32,60.24096386,1.5993,,,81,0,81,0,1,,,,,,,,
,,"[""diamond"",""no_dis"",""vert"",""up"",[99999,99999],[-150,0]]",diamond,no_dis,vert,up,"[99999,99999]","[-150,0]",up,1,,,,,,001,2025-03-17_13h04.38.538,SL_sali_41,2021.2.3,Win32,60.24096386,2.1193,,,82,0,82,0,1,,,,,,,,
,,"[""diamond"",""no_dis"",""vert"",""up"",[99999,99999],[-106,-106]]",diamond,no_dis,vert,up,"[99999,99999]","[-106,-106]",up,1,,,,,,001,2025-03-17_13h04.38.538,SL_sali_41,2021.2.3,Win32,60.24096386,2.3804,,,83,0,83,0,1,,,,,,,,
,,"[""circle"",""no_dis"",""hori"",""left"",[99999,99999],[-106,106]]",circle,no_dis,hori,left,"[99999,99999]","[-106,106]",left,1,,,,,,001,2025-03-17_13h04.38.538,SL_sali_41,2021.2.3,Win32,60.24096386,2.1742,,,84,0,84,0,1,,,,,,,,
,,"[""circle"",""red"",""vert"",""up"",[0,150],[150,0]]",circle,red,vert,up,"[0,150]","[150,0]",up,1,,,,,,001,2025-03-17_13h04.38.538,SL_sali_41,2021.2.3,Win32,60.24096386,2.7477,,,85,0,85,0,1,,,,,,,,
,,"[""diamond"",""red"",""hori"",""left"",[0,-150],[-106,-106]]",diamond,red,hori,left,"[0,-150]","[-106,-106]",left,1,,,,,,001,2025-03-17_13h04.38.538,SL_sali_41,2021.2.3,Win32,60.24096386,1.7832,,,86,0,86,0,1,,,,,,,,
,,"[""diamond"",""no_dis"",""hori"",""left"",[99999,99999],[150,0]]",diamond,no_dis,hori,left,"[99999,99999]","[150,0]",,0,,,,,,001,2025-03-17_13h04.38.538,SL_sali_41,2021.2.3,Win32,60.24096386,,,,87,0,87,0,1,,,,,,,,
,,"[""circle"",""green"",""vert"",""up"",[106,106],[-106,106]]",circle,green,vert,up,"[106,106]","[-106,106]",up,1,,,,,,001,2025-03-17_13h04.38.538,SL_sali_41,2021.2.3,Win32,60.24096386,1.2167,,,88,0,88,0,1,,,,,,,,
,,"[""diamond"",""no_dis"",""hori"",""left"",[99999,99999],[-106,106]]",diamond,no_dis,hori,left,"[99999,99999]","[-106,106]",up,0,,,,,,001,2025-03-17_13h04.38.538,SL_sali_41,2021.2.3,Win32,60.24096386,1.8917,,,89,0,89,0,1,,,,,,,,
,,"[""diamond"",""no_dis"",""hori"",""left"",[99999,99999],[106,106]]",diamond,no_dis,hori,left,"[99999,99999]","[106,106]",left,1,,,,,,001,2025-03-17_13h04.38.538,SL_sali_41,2021.2.3,Win32,60.24096386,1.1834,,,90,0,90,0,1,,,,,,,,
,,"[""circle"",""red"",""vert"",""up"",[-106,-106],[-150,0]]",circle,red,vert,up,"[-106,-106]","[-150,0]",left,0,,,,,,001,2025-03-17_13h04.38.538,SL_sali_41,2021.2.3,Win32,60.24096386,1.4374,,,91,0,91,0,1,,,,,,,,
,,"[""circle"",""red"",""vert"",""up"",[106,106],[-150,0]]",circle,red,vert,up,"[106,106]","[-150,0]",left,0,,,,,,001,2025-03-17_13h04.38.538,SL_sali_41,2021.2.3,Win32,60.24096386,2.149,,,92,0,92,0,1,,,,,,,,
,,"[""circle"",""green"",""vert"",""up"",[0,150],[-106,-106]]",circle,green,vert,up,"[0,150]","[-106,-106]",left,0,,,,,,001,2025-03-17_13h04.38.538,SL_sali_41,2021.2.3,Win32,60.24096386,1.8185,,,93,0,93,0,1,,,,,,,,
,,"[""diamond"",""red"",""vert"",""up"",[106,-106],[0,150]]",diamond,red,vert,up,"[106,-106]","[0,150]",up,1,,,,,,001,2025-03-17_13h04.38.538,SL_sali_41,2021.2.3,Win32,60.24096386,2.3653,,,94,0,94,0,1,,,,,,,,
,,"[""diamond"",""no_dis"",""vert"",""up"",[99999,99999],[-106,-106]]",diamond,no_dis,vert,up,"[99999,99999]","[-106,-106]",,0,,,,,,001,2025-03-17_13h04.38.538,SL_sali_41,2021.2.3,Win32,60.24096386,,,,95,0,95,0,1,,,,,,,,
,,"[""diamond"",""no_dis"",""vert"",""up"",[99999,99999],[106,-106]]",diamond,no_dis,vert,up,"[99999,99999]","[106,-106]",up,1,,,,,,001,2025-03-17_13h04.38.538,SL_sali_41,2021.2.3,Win32,60.24096386,1.4488,,,96,0,96,0,1,,,,,,,,
,,"[""diamond"",""no_dis"",""hori"",""left"",[99999,99999],[106,106]]",diamond,no_dis,hori,left,"[99999,99999]","[106,106]",up,0,,,,,,001,2025-03-17_13h04.38.538,SL_sali_41,2021.2.3,Win32,60.24096386,2.4327,,,97,0,97,0,1,,,,,,,,
,,"[""diamond"",""red"",""hori"",""left"",[106,106],[0,-150]]",diamond,red,hori,left,"[106,106]","[0,-150]",up,0,,,,,,001,2025-03-17_13h04.38.538,SL_sali_41,2021.2.3,Win32,60.24096386,2.4867,,,98,0,98,0,1,,,,,,,,
,,"[""diamond"",""no_dis"",""hori"",""left"",[99999,99999],[150,0]]",diamond,no_dis,hori,left,"[99999,99999]","[150,0]",left,1,,,,,,001,2025-03-17_13h04.38.538,SL_sali_41,2021.2.3,Win32,60.24096386,1.504,,,99,0,99,0,1,,,,,,,,
,,"[""circle"",""green"",""vert"",""up"",[150,0],[106,-106]]",circle,green,vert,up,"[150,0]","[106,-106]",left,0,,,,,,001,2025-03-17_13h04.38.538,SL_sali_41,2021.2.3,Win32,60.24096386,1.8985,,,100,0,100,0,1,,,,,,,,
,,"[""circle"",""no_dis"",""vert"",""up"",[99999,99999],[0,150]]",circle,no_dis,vert,up,"[99999,99999]","[0,150]",up,1,,,,,,001,2025-03-17_13h04.38.538,SL_sali_41,2021.2.3,Win32,60.24096386,2.1657,,,101,0,101,0,1,,,,,,,,
,,"[""circle"",""red"",""hori"",""left"",[106,106],[106,-106]]",circle,red,hori,left,"[106,106]","[106,-106]",left,1,,,,,,001,2025-03-17_13h04.38.538,SL_sali_41,2021.2.3,Win32,60.24096386,2.5487,,,102,0,102,0,1,,,,,,,,
,,"[""circle"",""no_dis"",""vert"",""up"",[99999,99999],[0,-150]]",circle,no_dis,vert,up,"[99999,99999]","[0,-150]",up,1,,,,,,001,2025-03-17_13h04.38.538,SL_sali_41,2021.2.3,Win32,60.24096386,1.8379,,,103,0,103,0,1,,,,,,,,
,,"[""circle"",""green"",""hori"",""left"",[0,-150],[-150,0]]",circle,green,hori,left,"[0,-150]","[-150,0]",up,0,,,,,,001,2025-03-17_13h04.38.538,SL_sali_41,2021.2.3,Win32,60.24096386,1.4254,,,104,0,104,0,1,,,,,,,,
,,"[""diamond"",""red"",""hori"",""left"",[106,106],[-106,106]]",diamond,red,hori,left,"[106,106]","[-106,106]",left,1,,,,,,001,2025-03-17_13h04.38.538,SL_sali_41,2021.2.3,Win32,60.24096386,2.3682,,,105,0,105,0,1,,,,,,,,
,,"[""diamond"",""green"",""vert"",""up"",[0,150],[106,106]]",diamond,green,vert,up,"[0,150]","[106,106]",left,0,,,,,,001,2025-03-17_13h04.38.538,SL_sali_41,2021.2.3,Win32,60.24096386,0.0545,,,106,0,106,0,1,,,,,,,,
,,"[""diamond"",""no_dis"",""vert"",""up"",[99999,99999],[-106,106]]",diamond,no_dis,vert,up,"[99999,99999]","[-106,106]",up,1,,,,,,001,2025-03-17_13h04.38.538,SL_sali_41,2021.2.3,Win32,60.24096386,1.8664,,,107,0,107,0,1,,,,,,,,
,,"[""diamond"",""red"",""hori"",""left"",[0,-150],[-106,-106]]",diamond,red,hori,left,"[0,-150]","[-106,-106]",left,1,,,,,,001,2025-03-17_13h04.38.538,SL_sali_41,2021.2.3,Win32,60.24096386,1.5823,,,108,0,108,0,1,,,,,,,,
,,"[""circle"",""red"",""hori"",""left"",[106,106],[0,-150]]",circle,red,hori,left,"[106,106]","[0,-150]",up,0,,,,,,001,2025-03-17_13h04.38.538,SL_sali_41,2021.2.3,Win32,60.24096386,1.1026,,,109,0,109,0,1,,,,,,,,
,,"[""diamond"",""red"",""vert"",""up"",[106,106],[-150,0]]",diamond,red,vert,up,"[106,106]","[-150,0]",left,0,,,,,,001,2025-03-17_13h04.38.538,SL_sali_41,2021.2.3,Win32,60.24096386,2.4489,,,110,0,110,0,1,,,,,,,,
,,"[""circle"",""no_dis"",""hori"",""left"",[99999,99999],[0,150]]",circle,no_dis,hori,left,"[99999,99999]","[0,150]",up,0,,,,,,001,2025-03-17_13h04.38.538,SL_sali_41,2021.2.3,Win32,60.24096386,2.1491,,,111,0,111,0,1,,,,,,,,
,,"[""circle"",""red"",""hori"",""left"",[106,-106],[-106,-106]]",circle,red,hori,left,"[106,-106]","[-106,-106]",up,0,,,,,,001,2025-03-17_13h04.38.538,SL_sali_41,2021.2.3,Win32,60.24096386,2.6564,,,112,0,112,0,1,,,,,,,,
,,"[""diamond"",""green"",""vert"",""up"",[106,106],[106,-106]]",diamond,green,vert,up,"[106,106]","[106,-106]",up,1,,,,,,001,2025-03-17_13h04.38.538,SL_sali_41,2021.2.3,Win32,60.24096386,2.3571,,,113,0,113,0,1,,,,,,,,
,,"[""diamond"",""green"",""hori"",""left"",[-106,106],[-150,0]]",diamond,green,hori,left,"[-106,106]","[-150,0]",left,1,,,,,,001,2025-03-17_13h04.38.538,SL_sali_41,2021.2.3,Win32,60.24096386,1.3171,,,114,0,114,0,1,,,,,,,,
,,"[""circle"",""red"",""hori"",""left"",[106,106],[-106,106]]",circle,red,hori,left,"[106,106]","[-106,106]",up,0,,,,,,001,2025-03-17_13h04.38.538,SL_sali_41,2021.2.3,Win32,60.24096386,1.6661,,,115,0,115,0,1,,,,,,,,
,,"[""circle"",""green"",""vert"",""up"",[150,0],[-106,106]]",circle,green,vert,up,"[150,0]","[-106,106]",left,0,,,,,,001,2025-03-17_13h04.38.538,SL_sali_41,2021.2.3,Win32,60.24096386,0.8501,,,116,0,116,0,1,,,,,,,,
,,"[""circle"",""red"",""vert"",""up"",[106,-106],[150,0]]",circle,red,vert,up,"[106,-106]","[150,0]",,0,,,,,,001,2025-03-17_13h04.38.538,SL_sali_41,2021.2.3,Win32,60.24096386,,,,117,0,117,0,1,,,,,,,,
,,"[""diamond"",""green"",""hori"",""left"",[-106,106],[0,-150]]",diamond,green,hori,left,"[-106,106]","[0,-150]",left,1,,,,,,001,2025-03-17_13h04.38.538,SL_sali_41,2021.2.3,Win32,60.24096386,1.9156,,,118,0,118,0,1,,,,,,,,
,,"[""diamond"",""green"",""hori"",""left"",[-150,0],[0,150]]",diamond,green,hori,left,"[-150,0]","[0,150]",left,1,,,,,,001,2025-03-17_13h04.38.538,SL_sali_41,2021.2.3,Win32,60.24096386,2.3828,,,119,0,119,0,1,,,,,,,,
,,"[""circle"",""green"",""hori"",""left"",[0,150],[106,106]]",circle,green,hori,left,"[0,150]","[106,106]",left,1,,,,,,001,2025-03-17_13h04.38.538,SL_sali_41,2021.2.3,Win32,60.24096386,2.0495,,,120,0,120,0,1,,,,,,,,
,,"[""diamond"",""green"",""hori"",""left"",[-106,-106],[-106,106]]",diamond,green,hori,left,"[-106,-106]","[-106,106]",up,0,,,,,,001,2025-03-17_13h04.38.538,SL_sali_41,2021.2.3,Win32,60.24096386,1.5202,,,121,0,121,0,1,,,,,,,,
,,"[""diamond"",""red"",""vert"",""up"",[-106,-106],[0,150]]",diamond,red,vert,up,"[-106,-106]","[0,150]",up,1,,,,,,001,2025-03-17_13h04.38.538,SL_sali_41,2021.2.3,Win32,60.24096386,2.0851,,,122,0,122,0,1,,,,,,,,
,,"[""circle"",""no_dis"",""hori"",""left"",[99999,99999],[150,0]]",circle,no_dis,hori,left,"[99999,99999]","[150,0]",left,1,,,,,,001,2025-03-17_13h04.38.538,SL_sali_41,2021.2.3,Win32,60.24096386,2.1874,,,123,0,123,0,1,,,,,,,,
,,"[""diamond"",""no_dis"",""vert"",""up"",[99999,99999],[-150,0]]",diamond,no_dis,vert,up,"[99999,99999]","[-150,0]",up,1,,,,,,001,2025-03-17_13h04.38.538,SL_sali_41,2021.2.3,Win32,60.24096386,2.1368,,,124,0,124,0,1,,,,,,,,
,,"[""diamond"",""green"",""hori"",""left"",[106,106],[106,-106]]",diamond,green,hori,left,"[106,106]","[106,-106]",left,1,,,,,,001,2025-03-17_13h04.38.538,SL_sali_41,2021.2.3,Win32,60.24096386,1.8256,,,125,0,125,0,1,,,,,,,,
,,"[""circle"",""no_dis"",""vert"",""up"",[99999,99999],[0,-150]]",circle,no_dis,vert,up,"[99999,99999]","[0,-150]",left,0,,,,,,001,2025-03-17_13h04.38.538,SL_sali_41,2021.2.3,Win32,60.24096386,1.5994,,,126,0,126,0,1,,,,,,,,
,,"[""diamond"",""green"",""hori"",""left"",[106,106],[150,0]]",diamond,green,hori,left,"[106,106]","[150,0]",left,1,,,,,,001,2025-03-17_13h04.38.538,SL_sali_41,2021.2.3,Win32,60.24096386,1.5831,,,127,0,127,0,1,,,,,,,,
,,,,,,,,,,,,,,,,001,2025-03-17_13h04.38.538,SL_sali_41,2021.2.3,Win32,60.24096386,,,,,,,,,1,space,1.8507,0,0,0,0,1
,,"[""diamond"",""no_dis"",""vert"",""up"",[99999,99999],[-106,-106]]",diamond,no_dis,vert,up,"[99999,99999]","[-106,-106]",up,1,,,,,,001,2025-03-17_13h04.38.538,SL_sali_41,2021.2.3,Win32,60.24096386,1.8045,,,0,0,0,0,1,,,,,,,,
,,"[""circle"",""no_dis"",""hori"",""left"",[99999,99999],[0,150]]",circle,no_dis,hori,left,"[99999,99999]","[0,150]",up,0,,,,,,001,2025-03-17_13h04.38.538,SL_sali_41,2021.2.3,Win32,60.24096386,1.3654,,,1,0,1,0,1,,,,,,,,
,,"[""circle"",""red"",""vert"",""up"",[106,106],[0,150]]",circle,red,vert,up,"[106,106]","[0,150]",up,1,,,,,,001,2025-03-17_13h04.38.538,SL_sali_41,2021.2.3,Win32,60.24096386,1.6228,,,2,0,2,0,1,,,,,,,,
,,"[""diamond"",""red"",""vert"",""up"",[106,106],[150,0]]",diamond,red,vert,up,"[106,106]","[150,0]",left,0,,,,,,001,2025-03-17_13h04.38.538,SL_sali_41,2021.2.3,Win32,60.24096386,1.0168,,,3,0,3,0,1,,,,,,,,
,,"[""diamond"",""green"",""hori"",""left"",[106,106],[106,-106]]",diamond,green,hori,left,"[106,106]","[106,-106]",up,0,,,,,,001,2025-03-17_13h04.38.538,SL_sali_41,2021.2.3,Win32,60.24096386,1.7567,,,4,0,4,0,1,,,,,,,,
,,"[""diamond"",""green"",""vert"",""up"",[0,-150],[150,0]]",diamond,green,vert,up,"[0,-150]","[150,0]",up,1,,,,,,001,2025-03-17_13h04.38.538,SL_sali_41,2021.2.3,Win32,60.24096386,1.4235,,,5,0,5,0,1,,,,,,,,
,,"[""diamond"",""red"",""hori"",""left"",[-150,0],[106,106]]",diamond,red,hori,left,"[-150,0]","[106,106]",left,1,,,,,,001,2025-03-17_13h04.38.538,SL_sali_41,2021.2.3,Win32,60.24096386,1.0989,,,6,0,6,0,1,,,,,,,,
,,"[""diamond"",""green"",""vert"",""up"",[0,150],[0,-150]]",diamond,green,vert,up,"[0,150]","[0,-150]",up,1,,,,,,001,2025-03-17_13h04.38.538,SL_sali_41,2021.2.3,Win32,60.24096386,2.131,,,7,0,7,0,1,,,,,,,,
,,"[""circle"",""green"",""vert"",""up"",[-106,106],[0,-150]]",circle,green,vert,up,"[-106,106]","[0,-150]",up,1,,,,,,001,2025-03-17_13h04.38.538,SL_sali_41,2021.2.3,Win32,60.24096386,1.724,,,8,0,8,0,1,,,,,,,,
,,"[""circle"",""no_dis"",""hori"",""left"",[99999,99999],[106,106]]",circle,no_dis,hori,left,"[99999,99999]","[106,106]",left,1,,,,,,001,2025-03-17_13h04.38.538,SL_sali_41,2021.2.3,Win32,60.24096386,1.1259,,,9,0,9,0,1,,,,,,,,
,,"[""diamond"",""no_dis"",""hori"",""left"",[99999,99999],[106,106]]",diamond,no_dis,hori,left,"[99999,99999]","[106,106]",left,1,,,,,,001,2025-03-17_13h04.38.538,SL_sali_41,2021.2.3,Win32,60.24096386,1.7242,,,10,0,10,0,1,,,,,,,,
,,"[""circle"",""green"",""hori"",""left"",[0,150],[106,106]]",circle,green,hori,left,"[0,150]","[106,106]",left,1,,,,,,001,2025-03-17_13h04.38.538,SL_sali_41,2021.2.3,Win32,60.24096386,1.6013,,,11,0,11,0,1,,,,,,,,
,,"[""diamond"",""red"",""vert"",""up"",[106,106],[-106,-106]]",diamond,red,vert,up,"[106,106]","[-106,-106]",up,1,,,,,,001,2025-03-17_13h04.38.538,SL_sali_41,2021.2.3,Win32,60.24096386,1.483,,,12,0,12,0,1,,,,,,,,
,,"[""circle"",""green"",""hori"",""left"",[150,0],[106,106]]",circle,green,hori,left,"[150,0]","[106,106]",left,1,,,,,,001,2025-03-17_13h04.38.538,SL_sali_41,2021.2.3,Win32,60.24096386,1.3903,,,13,0,13,0,1,,,,,,,,
,,"[""circle"",""red"",""vert"",""up"",[-106,-106],[106,106]]",circle,red,vert,up,"[-106,-106]","[106,106]",left,0,,,,,,001,2025-03-17_13h04.38.538,SL_sali_41,2021.2.3,Win32,60.24096386,1.8028,,,14,0,14,0,1,,,,,,,,
,,"[""circle"",""no_dis"",""hori"",""left"",[99999,99999],[-106,106]]",circle,no_dis,hori,left,"[99999,99999]","[-106,106]",left,1,,,,,,001,2025-03-17_13h04.38.538,SL_sali_41,2021.2.3,Win32,60.24096386,2.1983,,,15,0,15,0,1,,,,,,,,
,,"[""diamond"",""green"",""hori"",""left"",[-106,106],[0,-150]]",diamond,green,hori,left,"[-106,106]","[0,-150]",left,1,,,,,,001,2025-03-17_13h04.38.538,SL_sali_41,2021.2.3,Win32,60.24096386,2.1708,,,16,0,16,0,1,,,,,,,,
,,"[""circle"",""green"",""vert"",""up"",[106,106],[106,-106]]",circle,green,vert,up,"[106,106]","[106,-106]",up,1,,,,,,001,2025-03-17_13h04.38.538,SL_sali_41,2021.2.3,Win32,60.24096386,1.8162,,,17,0,17,0,1,,,,,,,,
,,"[""diamond"",""no_dis"",""vert"",""up"",[99999,99999],[-150,0]]",diamond,no_dis,vert,up,"[99999,99999]","[-150,0]",left,0,,,,,,001,2025-03-17_13h04.38.538,SL_sali_41,2021.2.3,Win32,60.24096386,2.1473,,,18,0,18,0,1,,,,,,,,
,,"[""circle"",""green"",""hori"",""left"",[0,-150],[-150,0]]",circle,green,hori,left,"[0,-150]","[-150,0]",left,1,,,,,,001,2025-03-17_13h04.38.538,SL_sali_41,2021.2.3,Win32,60.24096386,1.6399,,,19,0,19,0,1,,,,,,,,
,,"[""diamond"",""green"",""vert"",""up"",[106,-106],[106,106]]",diamond,green,vert,up,"[106,-106]","[106,106]",up,1,,,,,,001,2025-03-17_13h04.38.538,SL_sali_41,2021.2.3,Win32,60.24096386,2.3011,,,20,0,20,0,1,,,,,,,,
,,"[""diamond"",""green"",""hori"",""left"",[106,-106],[-106,-106]]",diamond,green,hori,left,"[106,-106]","[-106,-106]",left,1,,,,,,001,2025-03-17_13h04.38.538,SL_sali_41,2021.2.3,Win32,60.24096386,1.8353,,,21,0,21,0,1,,,,,,,,
,,"[""circle"",""green"",""hori"",""left"",[150,0],[106,-106]]",circle,green,hori,left,"[150,0]","[106,-106]",left,1,,,,,,001,2025-03-17_13h04.38.538,SL_sali_41,2021.2.3,Win32,60.24096386,1.449,,,22,0,22,0,1,,,,,,,,
,,"[""circle"",""red"",""hori"",""left"",[106,106],[0,150]]",circle,red,hori,left,"[106,106]","[0,150]",left,1,,,,,,001,2025-03-17_13h04.38.538,SL_sali_41,2021.2.3,Win32,60.24096386,1.3539,,,23,0,23,0,1,,,,,,,,
,,"[""circle"",""red"",""vert"",""up"",[106,-106],[150,0]]",circle,red,vert,up,"[106,-106]","[150,0]",up,1,,,,,,001,2025-03-17_13h04.38.538,SL_sali_41,2021.2.3,Win32,60.24096386,1.4662,,,24,0,24,0,1,,,,,,,,
,,"[""diamond"",""red"",""hori"",""left"",[-106,106],[106,-106]]",diamond,red,hori,left,"[-106,106]","[106,-106]",left,1,,,,,,001,2025-03-17_13h04.38.538,SL_sali_41,2021.2.3,Win32,60.24096386,2.0813,,,25,0,25,0,1,,,,,,,,
,,"[""diamond"",""no_dis"",""vert"",""up"",[99999,99999],[106,-106]]",diamond,no_dis,vert,up,"[99999,99999]","[106,-106]",up,1,,,,,,001,2025-03-17_13h04.38.538,SL_sali_41,2021.2.3,Win32,60.24096386,1.8495,,,26,0,26,0,1,,,,,,,,
,,"[""diamond"",""red"",""vert"",""up"",[106,106],[-106,-106]]",diamond,red,vert,up,"[106,106]","[-106,-106]",left,0,,,,,,001,2025-03-17_13h04.38.538,SL_sali_41,2021.2.3,Win32,60.24096386,1.5332,,,27,0,27,0,1,,,,,,,,
,,"[""diamond"",""no_dis"",""hori"",""left"",[99999,99999],[150,0]]",diamond,no_dis,hori,left,"[99999,99999]","[150,0]",left,1,,,,,,001,2025-03-17_13h04.38.538,SL_sali_41,2021.2.3,Win32,60.24096386,1.4378,,,28,0,28,0,1,,,,,,,,
,,"[""diamond"",""no_dis"",""hori"",""left"",[99999,99999],[0,150]]",diamond,no_dis,hori,left,"[99999,99999]","[0,150]",left,1,,,,,,001,2025-03-17_13h04.38.538,SL_sali_41,2021.2.3,Win32,60.24096386,1.3572,,,29,0,29,0,1,,,,,,,,
,,"[""circle"",""red"",""hori"",""left"",[0,150],[106,-106]]",circle,red,hori,left,"[0,150]","[106,-106]",up,0,,,,,,001,2025-03-17_13h04.38.538,SL_sali_41,2021.2.3,Win32,60.24096386,2.4322,,,30,0,30,0,1,,,,,,,,
,,"[""diamond"",""no_dis"",""hori"",""left"",[99999,99999],[-106,106]]",diamond,no_dis,hori,left,"[99999,99999]","[-106,106]",left,1,,,,,,001,2025-03-17_13h04.38.538,SL_sali_41,2021.2.3,Win32,60.24096386,1.4657,,,31,0,31,0,1,,,,,,,,
,,"[""circle"",""no_dis"",""vert"",""up"",[99999,99999],[0,-150]]",circle,no_dis,vert,up,"[99999,99999]","[0,-150]",left,0,,,,,,001,2025-03-17_13h04.38.538,SL_sali_41,2021.2.3,Win32,60.24096386,2.1659,,,32,0,32,0,1,,,,,,,,
,,"[""diamond"",""green"",""vert"",""up"",[0,-150],[-106,106]]",diamond,green,vert,up,"[0,-150]","[-106,106]",left,0,,,,,,001,2025-03-17_13h04.38.538,SL_sali_41,2021.2.3,Win32,60.24096386,1.916,,,33,0,33,0,1,,,,,,,,
,,"[""diamond"",""no_dis"",""vert"",""up"",[99999,99999],[106,106]]",diamond,no_dis,vert,up,"[99999,99999]","[106,106]",up,1,,,,,,001,2025-03-17_13h04.38.538,SL_sali_41,2021.2.3,Win32,60.24096386,1.7159,,,34,0,34,0,1,,,,,,,,
,,"[""circle"",""no_dis"",""hori"",""left"",[99999,99999],[-106,-106]]",circle,no_dis,hori,left,"[99999,99999]","[-106,-106]",left,1,,,,,,001,2025-03-17_13h04.38.538,SL_sali_41,2021.2.3,Win32,60.24096386,1.681,,,35,0,35,0,1,,,,,,,,
,,"[""diamond"",""red"",""hori"",""left"",[106,106],[0,-150]]",diamond,red,hori,left,"[106,106]","[0,-150]",up,0,,,,,,001,2025-03-17_13h04.38.538,SL_sali_41,2021.2.3,Win32,60.24096386,2.1546,,,36,0,36,0,1,,,,,,,,
,,"[""circle"",""no_dis"",""vert"",""up"",[99999,99999],[0,150]]",circle,no_dis,vert,up,"[99999,99999]","[0,150]",up,1,,,,,,001,2025-03-17_13h04.38.538,SL_sali_41,2021.2.3,Win32,60.24096386,2.1193,,,37,0,37,0,1,,,,,,,,
,,"[""circle"",""green"",""vert"",""up"",[150,0],[-106,106]]",circle,green,vert,up,"[150,0]","[-106,106]",up,1,,,,,,001,2025-03-17_13h04.38.538,SL_sali_41,2021.2.3,Win32,60.24096386,0.9188,,,38,0,38,0,1,,,,,,,,
,,"[""circle"",""green"",""vert"",""up"",[106,106],[150,0]]",circle,green,vert,up,"[106,106]","[150,0]",up,1,,,,,,001,2025-03-17_13h04.38.538,SL_sali_41,2021.2.3,Win32,60.24096386,1.5483,,,39,0,39,0,1,,,,,,,,
,,"[""circle"",""red"",""vert"",""up"",[0,150],[106,106]]",circle,red,vert,up,"[0,150]","[106,106]",up,1,,,,,,001,2025-03-17_13h04.38.538,SL_sali_41,2021.2.3,Win32,60.24096386,2.5336,,,40,0,40,0,1,,,,,,,,
,,"[""diamond"",""green"",""hori"",""left"",[-150,0],[0,150]]",diamond,green,hori,left,"[-150,0]","[0,150]",left,1,,,,,,001,2025-03-17_13h04.38.538,SL_sali_41,2021.2.3,Win32,60.24096386,1.9277,,,41,0,41,0,1,,,,,,,,
,,"[""diamond"",""green"",""hori"",""left"",[-106,106],[-150,0]]",diamond,green,hori,left,"[-106,106]","[-150,0]",left,1,,,,,,001,2025-03-17_13h04.38.538,SL_sali_41,2021.2.3,Win32,60.24096386,2.1031,,,42,0,42,0,1,,,,,,,,
,,"[""diamond"",""green"",""vert"",""up"",[106,106],[-106,-106]]",diamond,green,vert,up,"[106,106]","[-106,-106]",left,0,,,,,,001,2025-03-17_13h04.38.538,SL_sali_41,2021.2.3,Win32,60.24096386,1.7218,,,43,0,43,0,1,,,,,,,,
,,"[""diamond"",""red"",""vert"",""up"",[106,-106],[0,150]]",diamond,red,vert,up,"[106,-106]","[0,150]",,0,,,,,,001,2025-03-17_13h04.38.538,SL_sali_41,2021.2.3,Win32,60.24096386,,,,44,0,44,0,1,,,,,,,,
,,"[""diamond"",""red"",""vert"",""up"",[106,106],[-106,106]]",diamond,red,vert,up,"[106,106]","[-106,106]",up,1,,,,,,001,2025-03-17_13h04.38.538,SL_sali_41,2021.2.3,Win32,60.24096386,2.9069,,,45,0,45,0,1,,,,,,,,
,,"[""diamond"",""green"",""hori"",""left"",[106,-106],[106,106]]",diamond,green,hori,left,"[106,-106]","[106,106]",left,1,,,,,,001,2025-03-17_13h04.38.538,SL_sali_41,2021.2.3,Win32,60.24096386,1.4994,,,46,0,46,0,1,,,,,,,,
,,"[""diamond"",""green"",""hori"",""left"",[-150,0],[106,106]]",diamond,green,hori,left,"[-150,0]","[106,106]",left,1,,,,,,001,2025-03-17_13h04.38.538,SL_sali_41,2021.2.3,Win32,60.24096386,2.4403,,,47,0,47,0,1,,,,,,,,
,,"[""diamond"",""green"",""vert"",""up"",[0,150],[106,106]]",diamond,green,vert,up,"[0,150]","[106,106]",up,1,,,,,,001,2025-03-17_13h04.38.538,SL_sali_41,2021.2.3,Win32,60.24096386,1.4824,,,48,0,48,0,1,,,,,,,,
,,"[""circle"",""no_dis"",""hori"",""left"",[99999,99999],[-106,106]]",circle,no_dis,hori,left,"[99999,99999]","[-106,106]",left,1,,,,,,001,2025-03-17_13h04.38.538,SL_sali_41,2021.2.3,Win32,60.24096386,1.3359,,,49,0,49,0,1,,,,,,,,
,,"[""diamond"",""green"",""hori"",""left"",[-150,0],[106,-106]]",diamond,green,hori,left,"[-150,0]","[106,-106]",up,0,,,,,,001,2025-03-17_13h04.38.538,SL_sali_41,2021.2.3,Win32,60.24096386,2.1377,,,50,0,50,0,1,,,,,,,,
,,"[""circle"",""red"",""hori"",""left"",[106,106],[106,-106]]",circle,red,hori,left,"[106,106]","[106,-106]",left,1,,,,,,001,2025-03-17_13h04.38.538,SL_sali_41,2021.2.3,Win32,60.24096386,2.3158,,,51,0,51,0,1,,,,,,,,
,,"[""diamond"",""no_dis"",""hori"",""left"",[99999,99999],[150,0]]",diamond,no_dis,hori,left,"[99999,99999]","[150,0]",left,1,,,,,,001,2025-03-17_13h04.38.538,SL_sali_41,2021.2.3,Win32,60.24096386,1.9821,,,52,0,52,0,1,,,,,,,,
,,"[""circle"",""no_dis"",""hori"",""left"",[99999,99999],[0,-150]]",circle,no_dis,hori,left,"[99999,99999]","[0,-150]",left,1,,,,,,001,2025-03-17_13h04.38.538,SL_sali_41,2021.2.3,Win32,60.24096386,1.5492,,,53,0,53,0,1,,,,,,,,
,,"[""circle"",""no_dis"",""vert"",""up"",[99999,99999],[0,150]]",circle,no_dis,vert,up,"[99999,99999]","[0,150]",up,1,,,,,,001,2025-03-17_13h04.38.538,SL_sali_41,2021.2.3,Win32,60.24096386,1.5692,,,54,0,54,0,1,,,,,,,,
,,"[""diamond"",""red"",""hori"",""left"",[0,-150],[-106,-106]]",diamond,red,hori,left,"[0,-150]","[-106,-106]",up,0,,,,,,001,2025-03-17_13h04.38.538,SL_sali_41,2021.2.3,Win32,60.24096386,2.3317,,,55,0,55,0,1,,,,,,,,
,,"[""circle"",""red"",""vert"",""up"",[-150,0],[0,150]]",circle,red,vert,up,"[-150,0]","[0,150]",up,1,,,,,,001,2025-03-17_13h04.38.538,SL_sali_41,2021.2.3,Win32,60.24096386,2.615,,,56,0,56,0,1,,,,,,,,
,,"[""circle"",""red"",""vert"",""up"",[-106,-106],[-150,0]]",circle,red,vert,up,"[-106,-106]","[-150,0]",up,1,,,,,,001,2025-03-17_13h04.38.538,SL_sali_41,2021.2.3,Win32,60.24096386,1.706,,,57,0,57,0,1,,,,,,,,
,,"[""diamond"",""green"",""hori"",""left"",[106,106],[150,0]]",diamond,green,hori,left,"[106,106]","[150,0]",left,1,,,,,,001,2025-03-17_13h04.38.538,SL_sali_41,2021.2.3,Win32,60.24096386,1.536,,,58,0,58,0,1,,,,,,,,
,,"[""diamond"",""no_dis"",""hori"",""left"",[99999,99999],[106,106]]",diamond,no_dis,hori,left,"[99999,99999]","[106,106]",,0,,,,,,001,2025-03-17_13h04.38.538,SL_sali_41,2021.2.3,Win32,60.24096386,,,,59,0,59,0,1,,,,,,,,
,,"[""circle"",""red"",""vert"",""up"",[106,106],[-106,-106]]",circle,red,vert,up,"[106,106]","[-106,-106]",up,1,,,,,,001,2025-03-17_13h04.38.538,SL_sali_41,2021.2.3,Win32,60.24096386,1.4349,,,60,0,60,0,1,,,,,,,,
,,"[""circle"",""green"",""vert"",""up"",[0,-150],[-106,106]]",circle,green,vert,up,"[0,-150]","[-106,106]",left,0,,,,,,001,2025-03-17_13h04.38.538,SL_sali_41,2021.2.3,Win32,60.24096386,1.9821,,,61,0,61,0,1,,,,,,,,
,,"[""circle"",""green"",""vert"",""up"",[150,0],[106,-106]]",circle,green,vert,up,"[150,0]","[106,-106]",up,1,,,,,,001,2025-03-17_13h04.38.538,SL_sali_41,2021.2.3,Win32,60.24096386,1.3825,,,62,0,62,0,1,,,,,,,,
,,"[""diamond"",""red"",""vert"",""up"",[-106,106],[-150,0]]",diamond,red,vert,up,"[-106,106]","[-150,0]",up,1,,,,,,001,2025-03-17_13h04.38.538,SL_sali_41,2021.2.3,Win32,60.24096386,1.9548,,,63,0,63,0,1,,,,,,,,
,,"[""diamond"",""no_dis"",""hori"",""left"",[99999,99999],[106,-106]]",diamond,no_dis,hori,left,"[99999,99999]","[106,-106]",up,0,,,,,,001,2025-03-17_13h04.38.538,SL_sali_41,2021.2.3,Win32,60.24096386,1.4492,,,64,0,64,0,1,,,,,,,,
,,"[""diamond"",""red"",""vert"",""up"",[0,-150],[150,0]]",diamond,red,vert,up,"[0,-150]","[150,0]",up,1,,,,,,001,2025-03-17_13h04.38.538,SL_sali_41,2021.2.3,Win32,60.24096386,1.415,,,65,0,65,0,1,,,,,,,,
,,"[""diamond"",""green"",""vert"",""up"",[-150,0],[-106,-106]]",diamond,green,vert,up,"[-150,0]","[-106,-106]",up,1,,,,,,001,2025-03-17_13h04.38.538,SL_sali_41,2021.2.3,Win32,60.24096386,1.3829,,,66,0,66,0,1,,,,,,,,
,,"[""circle"",""green"",""vert"",""up"",[-106,-106],[106,-106]]",circle,green,vert,up,"[-106,-106]","[106,-106]",up,1,,,,,,001,2025-03-17_13h04.38.538,SL_sali_41,2021.2.3,Win32,60.24096386,1.6378,,,67,0,67,0,1,,,,,,,,
,,"[""diamond"",""red"",""hori"",""left"",[106,-106],[-106,-106]]",diamond,red,hori,left,"[106,-106]","[-106,-106]",up,0,,,,,,001,2025-03-17_13h04.38.538,SL_sali_41,2021.2.3,Win32,60.24096386,2.7305,,,68,0,68,0,1,,,,,,,,
,,"[""circle"",""red"",""vert"",""up"",[-106,-106],[106,-106]]",circle,red,vert,up,"[-106,-106]","[106,-106]",left,0,,,,,,001,2025-03-17_13h04.38.538,SL_sali_41,2021.2.3,Win32,60.24096386,1.166,,,69,0,69,0,1,,,,,,,,
,,"[""diamond"",""no_dis"",""hori"",""left"",[99999,99999],[106,106]]",diamond,no_dis,hori,left,"[99999,99999]","[106,106]",left,1,,,,,,001,2025-03-17_13h04.38.538,SL_sali_41,2021.2.3,Win32,60.24096386,1.6163,,,70,0,70,0,1,,,,,,,,
,,"[""circle"",""green"",""hori"",""left"",[150,0],[106,106]]",circle,green,hori,left,"[150,0]","[106,106]",left,1,,,,,,001,2025-03-17_13h04.38.538,SL_sali_41,2021.2.3,Win32,60.24096386,1.3508,,,71,0,71,0,1,,,,,,,,
,,"[""circle"",""red"",""vert"",""up"",[106,106],[-150,0]]",circle,red,vert,up,"[106,106]","[-150,0]",up,1,,,,,,001,2025-03-17_13h04.38.538,SL_sali_41,2021.2.3,Win32,60.24096386,2.0666,,,72,0,72,0,1,,,,,,,,
,,"[""circle"",""red"",""vert"",""up"",[0,150],[150,0]]",circle,red,vert,up,"[0,150]","[150,0]",left,0,,,,,,001,2025-03-17_13h04.38.538,SL_sali_41,2021.2.3,Win32,60.24096386,2.3039,,,73,0,73,0,1,,,,,,,,
,,"[""circle"",""green"",""hori"",""left"",[106,106],[-106,106]]",circle,green,hori,left,"[106,106]","[-106,106]",left,1,,,,,,001,2025-03-17_13h04.38.538,SL_sali_41,2021.2.3,Win32,60.24096386,1.0187,,,74,0,74,0,1,,,,,,,,
,,"[""diamond"",""red"",""hori"",""left"",[106,106],[-150,0]]",diamond,red,hori,left,"[106,106]","[-150,0]",left,1,,,,,,001,2025-03-17_13h04.38.538,SL_sali_41,2021.2.3,Win32,60.24096386,2.1306,,,75,0,75,0,1,,,,,,,,
,,"[""diamond"",""no_dis"",""vert"",""up"",[99999,99999],[-106,106]]",diamond,no_dis,vert,up,"[99999,99999]","[-106,106]",left,0,,,,,,001,2025-03-17_13h04.38.538,SL_sali_41,2021.2.3,Win32,60.24096386,1.1343,,,76,0,76,0,1,,,,,,,,
,,"[""diamond"",""red"",""hori"",""left"",[150,0],[106,-106]]",diamond,red,hori,left,"[150,0]","[106,-106]",up,0,,,,,,001,2025-03-17_13h04.38.538,SL_sali_41,2021.2.3,Win32,60.24096386,1.8328,,,77,0,77,0,1,,,,,,,,
,,"[""diamond"",""red"",""hori"",""left"",[-106,106],[106,-106]]",diamond,red,hori,left,"[-106,106]","[106,-106]",left,1,,,,,,001,2025-03-17_13h04.38.538,SL_sali_41,2021.2.3,Win32,60.24096386,1.3329,,,78,0,78,0,1,,,,,,,,
,,"[""diamond"",""red"",""vert"",""up"",[106,106],[-150,0]]",diamond,red,vert,up,"[106,106]","[-150,0]",up,1,,,,,,001,2025-03-17_13h04.38.538,SL_sali_41,2021.2.3,Win32,60.24096386,1.2319,,,79,0,79,0,1,,,,,,,,
,,"[""diamond"",""no_dis"",""vert"",""up"",[99999,99999],[-106,-106]]",diamond,no_dis,vert,up,"[99999,99999]","[-106,-106]",left,0,,,,,,001,2025-03-17_13h04.38.538,SL_sali_41,2021.2.3,Win32,60.24096386,1.936,,,80,0,80,0,1,,,,,,,,
,,"[""circle"",""green"",""hori"",""left"",[106,106],[0,150]]",circle,green,hori,left,"[106,106]","[0,150]",left,1,,,,,,001,2025-03-17_13h04.38.538,SL_sali_41,2021.2.3,Win32,60.24096386,0.8004,,,81,0,81,0,1,,,,,,,,
,,"[""diamond"",""green"",""hori"",""left"",[-106,-106],[-106,106]]",diamond,green,hori,left,"[-106,-106]","[-106,106]",up,0,,,,,,001,2025-03-17_13h04.38.538,SL_sali_41,2021.2.3,Win32,60.24096386,2.3661,,,82,0,82,0,1,,,,,,,,
,,"[""circle"",""no_dis"",""vert"",""up"",[99999,99999],[0,-150]]",circle,no_dis,vert,up,"[99999,99999]","[0,-150]",up,1,,,,,,001,2025-03-17_13h04.38.538,SL_sali_41,2021.2.3,Win32,60.24096386,1.317,,,83,0,83,0,1,,,,,,,,
,,"[""diamond"",""red"",""vert"",""up"",[106,-106],[0,150]]",diamond,red,vert,up,"[106,-106]","[0,150]",left,0,,,,,,001,2025-03-17_13h04.38.538,SL_sali_41,2021.2.3,Win32,60.24096386,2.1244,,,84,0,84,0,1,,,,,,,,
,,"[""circle"",""red"",""hori"",""left"",[-106,106],[150,0]]",circle,red,hori,left,"[-106,106]","[150,0]",left,1,,,,,,001,2025-03-17_13h04.38.538,SL_sali_41,2021.2.3,Win32,60.24096386,1.4498,,,85,0,85,0,1,,,,,,,,
,,"[""diamond"",""green"",""vert"",""up"",[106,106],[150,0]]",diamond,green,vert,up,"[106,106]","[150,0]",up,1,,,,,,001,2025-03-17_13h04.38.538,SL_sali_41,2021.2.3,Win32,60.24096386,1.6748,,,86,0,86,0,1,,,,,,,,
,,"[""circle"",""red"",""hori"",""left"",[106,-106],[-106,-106]]",circle,red,hori,left,"[106,-106]","[-106,-106]",left,1,,,,,,001,2025-03-17_13h04.38.538,SL_sali_41,2021.2.3,Win32,60.24096386,1.916,,,87,0,87,0,1,,,,,,,,
,,"[""circle"",""green"",""vert"",""up"",[0,150],[-106,-106]]",circle,green,vert,up,"[0,150]","[-106,-106]",up,1,,,,,,001,2025-03-17_13h04.38.538,SL_sali_41,2021.2.3,Win32,60.24096386,2.0663,,,88,0,88,0,1,,,,,,,,
,,"[""diamond"",""no_dis"",""hori"",""left"",[99999,99999],[-150,0]]",diamond,no_dis,hori,left,"[99999,99999]","[-150,0]",left,1,,,,,,001,2025-03-17_13h04.38.538,SL_sali_41,2021.2.3,Win32,60.24096386,1.0983,,,89,0,89,0,1,,,,,,,,
,,"[""diamond"",""red"",""hori"",""left"",[0,-150],[-106,-106]]",diamond,red,hori,left,"[0,-150]","[-106,-106]",up,0,,,,,,001,2025-03-17_13h04.38.538,SL_sali_41,2021.2.3,Win32,60.24096386,1.1667,,,90,0,90,0,1,,,,,,,,
,,"[""circle"",""green"",""hori"",""left"",[0,-150],[0,150]]",circle,green,hori,left,"[0,-150]","[0,150]",left,1,,,,,,001,2025-03-17_13h04.38.538,SL_sali_41,2021.2.3,Win32,60.24096386,0.8832,,,91,0,91,0,1,,,,,,,,
,,"[""diamond"",""green"",""vert"",""up"",[106,106],[106,-106]]",diamond,green,vert,up,"[106,106]","[106,-106]",up,1,,,,,,001,2025-03-17_13h04.38.538,SL_sali_41,2021.2.3,Win32,60.24096386,1.6362,,,92,0,92,0,1,,,,,,,,
,,"[""circle"",""no_dis"",""vert"",""up"",[99999,99999],[-106,-106]]",circle,no_dis,vert,up,"[99999,99999]","[-106,-106]",left,0,,,,,,001,2025-03-17_13h04.38.538,SL_sali_41,2021.2.3,Win32,60.24096386,1.6385,,,93,0,93,0,1,,,,,,,,
,,"[""diamond"",""no_dis"",""vert"",""up"",[99999,99999],[-106,106]]",diamond,no_dis,vert,up,"[99999,99999]","[-106,106]",up,1,,,,,,001,2025-03-17_13h04.38.538,SL_sali_41,2021.2.3,Win32,60.24096386,1.3022,,,94,0,94,0,1,,,,,,,,
,,"[""circle"",""green"",""vert"",""up"",[106,106],[-106,106]]",circle,green,vert,up,"[106,106]","[-106,106]",up,1,,,,,,001,2025-03-17_13h04.38.538,SL_sali_41,2021.2.3,Win32,60.24096386,2.018,,,95,0,95,0,1,,,,,,,,
,,"[""circle"",""green"",""vert"",""up"",[0,150],[-106,106]]",circle,green,vert,up,"[0,150]","[-106,106]",left,0,,,,,,001,2025-03-17_13h04.38.538,SL_sali_41,2021.2.3,Win32,60.24096386,1.5024,,,96,0,96,0,1,,,,,,,,
,,"[""circle"",""red"",""hori"",""left"",[150,0],[106,106]]",circle,red,hori,left,"[150,0]","[106,106]",left,1,,,,,,001,2025-03-17_13h04.38.538,SL_sali_41,2021.2.3,Win32,60.24096386,2.0663,,,97,0,97,0,1,,,,,,,,
,,"[""circle"",""red"",""vert"",""up"",[-150,0],[-106,106]]",circle,red,vert,up,"[-150,0]","[-106,106]",left,0,,,,,,001,2025-03-17_13h04.38.538,SL_sali_41,2021.2.3,Win32,60.24096386,1.9918,,,98,0,98,0,1,,,,,,,,
,,"[""circle"",""no_dis"",""vert"",""up"",[99999,99999],[150,0]]",circle,no_dis,vert,up,"[99999,99999]","[150,0]",up,1,,,,,,001,2025-03-17_13h04.38.538,SL_sali_41,2021.2.3,Win32,60.24096386,1.0331,,,99,0,99,0,1,,,,,,,,
,,"[""circle"",""green"",""hori"",""left"",[106,106],[0,150]]",circle,green,hori,left,"[106,106]","[0,150]",left,1,,,,,,001,2025-03-17_13h04.38.538,SL_sali_41,2021.2.3,Win32,60.24096386,2.3821,,,100,0,100,0,1,,,,,,,,
,,"[""circle"",""no_dis"",""vert"",""up"",[99999,99999],[106,-106]]",circle,no_dis,vert,up,"[99999,99999]","[106,-106]",up,1,,,,,,001,2025-03-17_13h04.38.538,SL_sali_41,2021.2.3,Win32,60.24096386,1.5737,,,101,0,101,0,1,,,,,,,,
,,"[""circle"",""red"",""hori"",""left"",[106,106],[-106,106]]",circle,red,hori,left,"[106,106]","[-106,106]",up,0,,,,,,001,2025-03-17_13h04.38.538,SL_sali_41,2021.2.3,Win32,60.24096386,2.1321,,,102,0,102,0,1,,,,,,,,
,,"[""diamond"",""red"",""hori"",""left"",[106,106],[0,-150]]",diamond,red,hori,left,"[106,106]","[0,-150]",left,1,,,,,,001,2025-03-17_13h04.38.538,SL_sali_41,2021.2.3,Win32,60.24096386,1.4147,,,103,0,103,0,1,,,,,,,,
,,"[""circle"",""green"",""vert"",""up"",[150,0],[106,106]]",circle,green,vert,up,"[150,0]","[106,106]",up,1,,,,,,001,2025-03-17_13h04.38.538,SL_sali_41,2021.2.3,Win32,60.24096386,1.7335,,,104,0,104,0,1,,,,,,,,
,,"[""diamond"",""red"",""vert"",""up"",[-106,106],[-106,-106]]",diamond,red,vert,up,"[-106,106]","[-106,-106]",up,1,,,,,,001,2025-03-17_13h04.38.538,SL_sali_41,2021.2.3,Win32,60.24096386,1.7329,,,105,0,105,0,1,,,,,,,,
,,"[""circle"",""red"",""hori"",""left"",[106,106],[0,-150]]",circle,red,hori,left,"[106,106]","[0,-150]",left,1,,,,,,001,2025-03-17_13h04.38.538,SL_sali_41,2021.2.3,Win32,60.24096386,1.7992,,,106,0,106,0,1,,,,,,,,
,,"[""circle"",""green"",""hori"",""left"",[106,106],[150,0]]",circle,green,hori,left,"[106,106]","[150,0]",left,1,,,,,,001,2025-03-17_13h04.38.538,SL_sali_41,2021.2.3,Win32,60.24096386,1.9823,,,107,0,107,0,1,,,,,,,,
,,"[""diamond"",""no_dis"",""vert"",""up"",[99999,99999],[-150,0]]",diamond,no_dis,vert,up,"[99999,99999]","[-150,0]",up,1,,,,,,001,2025-03-17_13h04.38.538,SL_sali_41,2021.2.3,Win32,60.24096386,2.7821,,,108,0,108,0,1,,,,,,,,
,,"[""circle"",""no_dis"",""vert"",""up"",[99999,99999],[-106,-106]]",circle,no_dis,vert,up,"[99999,99999]","[-106,-106]",left,0,,,,,,001,2025-03-17_13h04.38.538,SL_sali_41,2021.2.3,Win32,60.24096386,1.1502,,,109,0,109,0,1,,,,,,,,
,,"[""circle"",""no_dis"",""vert"",""up"",[99999,99999],[0,-150]]",circle,no_dis,vert,up,"[99999,99999]","[0,-150]",up,1,,,,,,001,2025-03-17_13h04.38.538,SL_sali_41,2021.2.3,Win32,60.24096386,1.7198,,,110,0,110,0,1,,,,,,,,
,,"[""circle"",""red"",""hori"",""left"",[106,106],[-150,0]]",circle,red,hori,left,"[106,106]","[-150,0]",left,1,,,,,,001,2025-03-17_13h04.38.538,SL_sali_41,2021.2.3,Win32,60.24096386,1.1616,,,111,0,111,0,1,,,,,,,,
,,"[""diamond"",""red"",""hori"",""left"",[106,106],[-106,106]]",diamond,red,hori,left,"[106,106]","[-106,106]",left,1,,,,,,001,2025-03-17_13h04.38.538,SL_sali_41,2021.2.3,Win32,60.24096386,0.9379,,,112,0,112,0,1,,,,,,,,
,,"[""diamond"",""no_dis"",""hori"",""left"",[99999,99999],[-150,0]]",diamond,no_dis,hori,left,"[99999,99999]","[-150,0]",left,1,,,,,,001,2025-03-17_13h04.38.538,SL_sali_41,2021.2.3,Win32,60.24096386,1.2096,,,113,0,113,0,1,,,,,,,,
,,"[""diamond"",""no_dis"",""vert"",""up"",[99999,99999],[106,-106]]",diamond,no_dis,vert,up,"[99999,99999]","[106,-106]",left,0,,,,,,001,2025-03-17_13h04.38.538,SL_sali_41,2021.2.3,Win32,60.24096386,1.026,,,114,0,114,0,1,,,,,,,,
,,"[""diamond"",""green"",""vert"",""up"",[-106,-106],[106,106]]",diamond,green,vert,up,"[-106,-106]","[106,106]",up,1,,,,,,001,2025-03-17_13h04.38.538,SL_sali_41,2021.2.3,Win32,60.24096386,0.7367,,,115,0,115,0,1,,,,,,,,
,,"[""circle"",""no_dis"",""hori"",""left"",[99999,99999],[150,0]]",circle,no_dis,hori,left,"[99999,99999]","[150,0]",up,0,,,,,,001,2025-03-17_13h04.38.538,SL_sali_41,2021.2.3,Win32,60.24096386,1.3164,,,116,0,116,0,1,,,,,,,,
,,"[""circle"",""red"",""hori"",""left"",[-150,0],[106,-106]]",circle,red,hori,left,"[-150,0]","[106,-106]",up,0,,,,,,001,2025-03-17_13h04.38.538,SL_sali_41,2021.2.3,Win32,60.24096386,0.8849,,,117,0,117,0,1,,,,,,,,
,,"[""circle"",""red"",""hori"",""left"",[106,106],[0,-150]]",circle,red,hori,left,"[106,106]","[0,-150]",left,1,,,,,,001,2025-03-17_13h04.38.538,SL_sali_41,2021.2.3,Win32,60.24096386,1.5448,,,118,0,118,0,1,,,,,,,,
,,"[""circle"",""no_dis"",""vert"",""up"",[99999,99999],[-150,0]]",circle,no_dis,vert,up,"[99999,99999]","[-150,0]",up,1,,,,,,001,2025-03-17_13h04.38.538,SL_sali_41,2021.2.3,Win32,60.24096386,1.1499,,,119,0,119,0,1,,,,,,,,
,,"[""diamond"",""green"",""vert"",""up"",[106,106],[-106,-106]]",diamond,green,vert,up,"[106,106]","[-106,-106]",up,1,,,,,,001,2025-03-17_13h04.38.538,SL_sali_41,2021.2.3,Win32,60.24096386,1.3832,,,120,0,120,0,1,,,,,,,,
,,"[""circle"",""no_dis"",""hori"",""left"",[99999,99999],[106,-106]]",circle,no_dis,hori,left,"[99999,99999]","[106,-106]",left,1,,,,,,001,2025-03-17_13h04.38.538,SL_sali_41,2021.2.3,Win32,60.24096386,1.7509,,,121,0,121,0,1,,,,,,,,
,,"[""circle"",""green"",""hori"",""left"",[106,106],[-150,0]]",circle,green,hori,left,"[106,106]","[-150,0]",left,1,,,,,,001,2025-03-17_13h04.38.538,SL_sali_41,2021.2.3,Win32,60.24096386,2.7987,,,122,0,122,0,1,,,,,,,,
,,"[""diamond"",""red"",""vert"",""up"",[-106,-106],[0,150]]",diamond,red,vert,up,"[-106,-106]","[0,150]",up,1,,,,,,001,2025-03-17_13h04.38.538,SL_sali_41,2021.2.3,Win32,60.24096386,2.0619,,,123,0,123,0,1,,,,,,,,
,,"[""circle"",""no_dis"",""hori"",""left"",[99999,99999],[0,150]]",circle,no_dis,hori,left,"[99999,99999]","[0,150]",left,1,,,,,,001,2025-03-17_13h04.38.538,SL_sali_41,2021.2.3,Win32,60.24096386,1.2145,,,124,0,124,0,1,,,,,,,,
,,"[""diamond"",""no_dis"",""vert"",""up"",[99999,99999],[0,-150]]",diamond,no_dis,vert,up,"[99999,99999]","[0,-150]",up,1,,,,,,001,2025-03-17_13h04.38.538,SL_sali_41,2021.2.3,Win32,60.24096386,1.379,,,125,0,125,0,1,,,,,,,,
,,"[""circle"",""no_dis"",""hori"",""left"",[99999,99999],[150,0]]",circle,no_dis,hori,left,"[99999,99999]","[150,0]",left,1,,,,,,001,2025-03-17_13h04.38.538,SL_sali_41,2021.2.3,Win32,60.24096386,1.7399,,,126,0,126,0,1,,,,,,,,
,,"[""diamond"",""green"",""hori"",""left"",[-106,-106],[-150,0]]",diamond,green,hori,left,"[-106,-106]","[-150,0]",left,1,,,,,,001,2025-03-17_13h04.38.538,SL_sali_41,2021.2.3,Win32,60.24096386,1.4472,,,127,0,127,0,1,,,,,,,,
,,,,,,,,,,,,,,,,001,2025-03-17_13h04.38.538,SL_sali_41,2021.2.3,Win32,60.24096386,,,,,,,,,2,space,24.2541,1,0,1,0,1
,,"[""diamond"",""green"",""vert"",""up"",[-150,0],[-106,-106]]",diamond,green,vert,up,"[-150,0]","[-106,-106]",up,1,,,,,,001,2025-03-17_13h04.38.538,SL_sali_41,2021.2.3,Win32,60.24096386,2.2366,,,0,0,0,0,1,,,,,,,,
,,"[""diamond"",""green"",""vert"",""up"",[106,-106],[106,106]]",diamond,green,vert,up,"[106,-106]","[106,106]",up,1,,,,,,001,2025-03-17_13h04.38.538,SL_sali_41,2021.2.3,Win32,60.24096386,1.3179,,,1,0,1,0,1,,,,,,,,
,,"[""diamond"",""green"",""vert"",""up"",[106,106],[-106,-106]]",diamond,green,vert,up,"[106,106]","[-106,-106]",up,1,,,,,,001,2025-03-17_13h04.38.538,SL_sali_41,2021.2.3,Win32,60.24096386,0.9015,,,2,0,2,0,1,,,,,,,,
,,"[""circle"",""red"",""vert"",""up"",[-106,-106],[-150,0]]",circle,red,vert,up,"[-106,-106]","[-150,0]",up,1,,,,,,001,2025-03-17_13h04.38.538,SL_sali_41,2021.2.3,Win32,60.24096386,0.8441,,,3,0,3,0,1,,,,,,,,
,,"[""diamond"",""red"",""hori"",""left"",[-106,106],[106,-106]]",diamond,red,hori,left,"[-106,106]","[106,-106]",left,1,,,,,,001,2025-03-17_13h04.38.538,SL_sali_41,2021.2.3,Win32,60.24096386,1.4481,,,4,0,4,0,1,,,,,,,,
,,"[""diamond"",""red"",""hori"",""left"",[-150,0],[106,106]]",diamond,red,hori,left,"[-150,0]","[106,106]",left,1,,,,,,001,2025-03-17_13h04.38.538,SL_sali_41,2021.2.3,Win32,60.24096386,1.7532,,,5,0,5,0,1,,,,,,,,
,,"[""diamond"",""red"",""vert"",""up"",[106,106],[150,0]]",diamond,red,vert,up,"[106,106]","[150,0]",up,1,,,,,,001,2025-03-17_13h04.38.538,SL_sali_41,2021.2.3,Win32,60.24096386,1.8863,,,6,0,6,0,1,,,,,,,,
,,"[""circle"",""red"",""hori"",""left"",[106,106],[-106,106]]",circle,red,hori,left,"[106,106]","[-106,106]",left,1,,,,,,001,2025-03-17_13h04.38.538,SL_sali_41,2021.2.3,Win32,60.24096386,1.2867,,,7,0,7,0,1,,,,,,,,
,,"[""diamond"",""red"",""hori"",""left"",[-106,106],[106,-106]]",diamond,red,hori,left,"[-106,106]","[106,-106]",left,1,,,,,,001,2025-03-17_13h04.38.538,SL_sali_41,2021.2.3,Win32,60.24096386,1.3324,,,8,0,8,0,1,,,,,,,,
,,"[""diamond"",""red"",""hori"",""left"",[106,-106],[-106,-106]]",diamond,red,hori,left,"[106,-106]","[-106,-106]",left,1,,,,,,001,2025-03-17_13h04.38.538,SL_sali_41,2021.2.3,Win32,60.24096386,1.9136,,,9,0,9,0,1,,,,,,,,
,,"[""diamond"",""red"",""hori"",""left"",[106,106],[-150,0]]",diamond,red,hori,left,"[106,106]","[-150,0]",left,1,,,,,,001,2025-03-17_13h04.38.538,SL_sali_41,2021.2.3,Win32,60.24096386,1.0392,,,10,0,10,0,1,,,,,,,,
,,"[""circle"",""green"",""vert"",""up"",[0,150],[-106,106]]",circle,green,vert,up,"[0,150]","[-106,106]",left,0,,,,,,001,2025-03-17_13h04.38.538,SL_sali_41,2021.2.3,Win32,60.24096386,2.3328,,,11,0,11,0,1,,,,,,,,
,,"[""circle"",""no_dis"",""hori"",""left"",[99999,99999],[150,0]]",circle,no_dis,hori,left,"[99999,99999]","[150,0]",left,1,,,,,,001,2025-03-17_13h04.38.538,SL_sali_41,2021.2.3,Win32,60.24096386,1.8184,,,12,0,12,0,1,,,,,,,,
,,"[""diamond"",""green"",""hori"",""left"",[106,-106],[-106,-106]]",diamond,green,hori,left,"[106,-106]","[-106,-106]",left,1,,,,,,001,2025-03-17_13h04.38.538,SL_sali_41,2021.2.3,Win32,60.24096386,1.8179,,,13,0,13,0,1,,,,,,,,
,,"[""circle"",""red"",""hori"",""left"",[106,106],[0,-150]]",circle,red,hori,left,"[106,106]","[0,-150]",up,0,,,,,,001,2025-03-17_13h04.38.538,SL_sali_41,2021.2.3,Win32,60.24096386,2.6389,,,14,0,14,0,1,,,,,,,,
,,"[""circle"",""red"",""vert"",""up"",[106,106],[-150,0]]",circle,red,vert,up,"[106,106]","[-150,0]",up,1,,,,,,001,2025-03-17_13h04.38.538,SL_sali_41,2021.2.3,Win32,60.24096386,1.5222,,,15,0,15,0,1,,,,,,,,
,,"[""diamond"",""red"",""vert"",""up"",[106,106],[-106,106]]",diamond,red,vert,up,"[106,106]","[-106,106]",left,0,,,,,,001,2025-03-17_13h04.38.538,SL_sali_41,2021.2.3,Win32,60.24096386,2.3367,,,16,0,16,0,1,,,,,,,,
,,"[""circle"",""green"",""hori"",""left"",[150,0],[106,-106]]",circle,green,hori,left,"[150,0]","[106,-106]",left,1,,,,,,001,2025-03-17_13h04.38.538,SL_sali_41,2021.2.3,Win32,60.24096386,1.8736,,,17,0,17,0,1,,,,,,,,
,,"[""circle"",""green"",""hori"",""left"",[106,106],[150,0]]",circle,green,hori,left,"[106,106]","[150,0]",left,1,,,,,,001,2025-03-17_13h04.38.538,SL_sali_41,2021.2.3,Win32,60.24096386,1.44,,,18,0,18,0,1,,,,,,,,
,,"[""circle"",""green"",""vert"",""up"",[0,150],[-106,-106]]",circle,green,vert,up,"[0,150]","[-106,-106]",left,0,,,,,,001,2025-03-17_13h04.38.538,SL_sali_41,2021.2.3,Win32,60.24096386,2.7126,,,19,0,19,0,1,,,,,,,,
,,"[""circle"",""red"",""vert"",""up"",[-106,-106],[106,-106]]",circle,red,vert,up,"[-106,-106]","[106,-106]",up,1,,,,,,001,2025-03-17_13h04.38.538,SL_sali_41,2021.2.3,Win32,60.24096386,1.4493,,,20,0,20,0,1,,,,,,,,
,,"[""circle"",""no_dis"",""vert"",""up"",[99999,99999],[0,150]]",circle,no_dis,vert,up,"[99999,99999]","[0,150]",up,1,,,,,,001,2025-03-17_13h04.38.538,SL_sali_41,2021.2.3,Win32,60.24096386,1.1947,,,21,0,21,0,1,,,,,,,,
,,"[""diamond"",""green"",""hori"",""left"",[106,106],[106,-106]]",diamond,green,hori,left,"[106,106]","[106,-106]",left,1,,,,,,001,2025-03-17_13h04.38.538,SL_sali_41,2021.2.3,Win32,60.24096386,1.7983,,,22,0,22,0,1,,,,,,,,
,,"[""diamond"",""green"",""vert"",""up"",[106,106],[-106,-106]]",diamond,green,vert,up,"[106,106]","[-106,-106]",up,1,,,,,,001,2025-03-17_13h04.38.538,SL_sali_41,2021.2.3,Win32,60.24096386,1.5776,,,23,0,23,0,1,,,,,,,,
,,"[""circle"",""red"",""vert"",""up"",[106,106],[0,150]]",circle,red,vert,up,"[106,106]","[0,150]",left,0,,,,,,001,2025-03-17_13h04.38.538,SL_sali_41,2021.2.3,Win32,60.24096386,2.4945,,,24,0,24,0,1,,,,,,,,
,,"[""circle"",""no_dis"",""vert"",""up"",[99999,99999],[0,-150]]",circle,no_dis,vert,up,"[99999,99999]","[0,-150]",up,1,,,,,,001,2025-03-17_13h04.38.538,SL_sali_41,2021.2.3,Win32,60.24096386,1.748,,,25,0,25,0,1,,,,,,,,
,,"[""diamond"",""red"",""vert"",""up"",[-106,-106],[0,150]]",diamond,red,vert,up,"[-106,-106]","[0,150]",left,0,,,,,,001,2025-03-17_13h04.38.538,SL_sali_41,2021.2.3,Win32,60.24096386,1.2971,,,26,0,26,0,1,,,,,,,,
,,"[""circle"",""no_dis"",""hori"",""left"",[99999,99999],[-106,-106]]",circle,no_dis,hori,left,"[99999,99999]","[-106,-106]",left,1,,,,,,001,2025-03-17_13h04.38.538,SL_sali_41,2021.2.3,Win32,60.24096386,1.8732,,,27,0,27,0,1,,,,,,,,
,,"[""circle"",""red"",""hori"",""left"",[106,106],[-150,0]]",circle,red,hori,left,"[106,106]","[-150,0]",up,0,,,,,,001,2025-03-17_13h04.38.538,SL_sali_41,2021.2.3,Win32,60.24096386,1.4651,,,28,0,28,0,1,,,,,,,,
,,"[""diamond"",""no_dis"",""vert"",""up"",[99999,99999],[-106,-106]]",diamond,no_dis,vert,up,"[99999,99999]","[-106,-106]",up,1,,,,,,001,2025-03-17_13h04.38.538,SL_sali_41,2021.2.3,Win32,60.24096386,1.3658,,,29,0,29,0,1,,,,,,,,
,,"[""circle"",""green"",""hori"",""left"",[106,106],[0,150]]",circle,green,hori,left,"[106,106]","[0,150]",left,1,,,,,,001,2025-03-17_13h04.38.538,SL_sali_41,2021.2.3,Win32,60.24096386,1.1158,,,30,0,30,0,1,,,,,,,,
,,"[""circle"",""green"",""hori"",""left"",[0,-150],[0,150]]",circle,green,hori,left,"[0,-150]","[0,150]",left,1,,,,,,001,2025-03-17_13h04.38.538,SL_sali_41,2021.2.3,Win32,60.24096386,1.2133,,,31,0,31,0,1,,,,,,,,
,,"[""circle"",""no_dis"",""vert"",""up"",[99999,99999],[150,0]]",circle,no_dis,vert,up,"[99999,99999]","[150,0]",up,1,,,,,,001,2025-03-17_13h04.38.538,SL_sali_41,2021.2.3,Win32,60.24096386,1.6494,,,32,0,32,0,1,,,,,,,,
,,"[""diamond"",""red"",""vert"",""up"",[106,-106],[0,150]]",diamond,red,vert,up,"[106,-106]","[0,150]",up,1,,,,,,001,2025-03-17_13h04.38.538,SL_sali_41,2021.2.3,Win32,60.24096386,1.6301,,,33,0,33,0,1,,,,,,,,
,,"[""circle"",""no_dis"",""hori"",""left"",[99999,99999],[0,-150]]",circle,no_dis,hori,left,"[99999,99999]","[0,-150]",left,1,,,,,,001,2025-03-17_13h04.38.538,SL_sali_41,2021.2.3,Win32,60.24096386,1.7785,,,34,0,34,0,1,,,,,,,,
,,"[""diamond"",""no_dis"",""hori"",""left"",[99999,99999],[-150,0]]",diamond,no_dis,hori,left,"[99999,99999]","[-150,0]",up,0,,,,,,001,2025-03-17_13h04.38.538,SL_sali_41,2021.2.3,Win32,60.24096386,1.7555,,,35,0,35,0,1,,,,,,,,
,,"[""circle"",""no_dis"",""vert"",""up"",[99999,99999],[-106,-106]]",circle,no_dis,vert,up,"[99999,99999]","[-106,-106]",up,1,,,,,,001,2025-03-17_13h04.38.538,SL_sali_41,2021.2.3,Win32,60.24096386,1.3606,,,36,0,36,0,1,,,,,,,,
,,"[""diamond"",""green"",""vert"",""up"",[0,150],[106,106]]",diamond,green,vert,up,"[0,150]","[106,106]",left,0,,,,,,001,2025-03-17_13h04.38.538,SL_sali_41,2021.2.3,Win32,60.24096386,2.1005,,,37,0,37,0,1,,,,,,,,
,,"[""diamond"",""no_dis"",""vert"",""up"",[99999,99999],[106,-106]]",diamond,no_dis,vert,up,"[99999,99999]","[106,-106]",up,1,,,,,,001,2025-03-17_13h04.38.538,SL_sali_41,2021.2.3,Win32,60.24096386,2.5113,,,38,0,38,0,1,,,,,,,,
,,"[""circle"",""no_dis"",""hori"",""left"",[99999,99999],[-106,106]]",circle,no_dis,hori,left,"[99999,99999]","[-106,106]",left,1,,,,,,001,2025-03-17_13h04.38.538,SL_sali_41,2021.2.3,Win32,60.24096386,1.4979,,,39,0,39,0,1,,,,,,,,
,,"[""circle"",""no_dis"",""hori"",""left"",[99999,99999],[150,0]]",circle,no_dis,hori,left,"[99999,99999]","[150,0]",left,1,,,,,,001,2025-03-17_13h04.38.538,SL_sali_41,2021.2.3,Win32,60.24096386,2.7943,,,40,0,40,0,1,,,,,,,,
,,"[""diamond"",""green"",""hori"",""left"",[-106,-106],[-150,0]]",diamond,green,hori,left,"[-106,-106]","[-150,0]",up,0,,,,,,001,2025-03-17_13h04.38.538,SL_sali_41,2021.2.3,Win32,60.24096386,1.7979,,,41,0,41,0,1,,,,,,,,
,,"[""diamond"",""red"",""vert"",""up"",[106,106],[-106,-106]]",diamond,red,vert,up,"[106,106]","[-106,-106]",,0,,,,,,001,2025-03-17_13h04.38.538,SL_sali_41,2021.2.3,Win32,60.24096386,,,,42,0,42,0,1,,,,,,,,
,,"[""circle"",""green"",""vert"",""up"",[0,-150],[-106,106]]",circle,green,vert,up,"[0,-150]","[-106,106]",up,1,,,,,,001,2025-03-17_13h04.38.538,SL_sali_41,2021.2.3,Win32,60.24096386,2.6291,,,43,0,43,0,1,,,,,,,,
,,"[""circle"",""green"",""vert"",""up"",[-106,106],[0,-150]]",circle,green,vert,up,"[-106,106]","[0,-150]",left,0,,,,,,001,2025-03-17_13h04.38.538,SL_sali_41,2021.2.3,Win32,60.24096386,1.8156,,,44,0,44,0,1,,,,,,,,
,,"[""circle"",""green"",""vert"",""up"",[106,106],[150,0]]",circle,green,vert,up,"[106,106]","[150,0]",up,1,,,,,,001,2025-03-17_13h04.38.538,SL_sali_41,2021.2.3,Win32,60.24096386,1.0621,,,45,0,45,0,1,,,,,,,,
,,"[""circle"",""red"",""vert"",""up"",[106,-106],[150,0]]",circle,red,vert,up,"[106,-106]","[150,0]",left,0,,,,,,001,2025-03-17_13h04.38.538,SL_sali_41,2021.2.3,Win32,60.24096386,1.236,,,46,0,46,0,1,,,,,,,,
,,"[""circle"",""red"",""hori"",""left"",[106,106],[106,-106]]",circle,red,hori,left,"[106,106]","[106,-106]",left,1,,,,,,001,2025-03-17_13h04.38.538,SL_sali_41,2021.2.3,Win32,60.24096386,1.1445,,,47,0,47,0,1,,,,,,,,
,,"[""circle"",""no_dis"",""vert"",""up"",[99999,99999],[0,-150]]",circle,no_dis,vert,up,"[99999,99999]","[0,-150]",up,1,,,,,,001,2025-03-17_13h04.38.538,SL_sali_41,2021.2.3,Win32,60.24096386,1.7852,,,48,0,48,0,1,,,,,,,,
,,"[""diamond"",""red"",""vert"",""up"",[-106,106],[-150,0]]",diamond,red,vert,up,"[-106,106]","[-150,0]",up,1,,,,,,001,2025-03-17_13h04.38.538,SL_sali_41,2021.2.3,Win32,60.24096386,1.5825,,,49,0,49,0,1,,,,,,,,
,,"[""circle"",""green"",""vert"",""up"",[-106,-106],[106,-106]]",circle,green,vert,up,"[-106,-106]","[106,-106]",up,1,,,,,,001,2025-03-17_13h04.38.538,SL_sali_41,2021.2.3,Win32,60.24096386,1.4139,,,50,0,50,0,1,,,,,,,,
,,"[""diamond"",""no_dis"",""vert"",""up"",[99999,99999],[106,-106]]",diamond,no_dis,vert,up,"[99999,99999]","[106,-106]",left,0,,,,,,001,2025-03-17_13h04.38.538,SL_sali_41,2021.2.3,Win32,60.24096386,0.8361,,,51,0,51,0,1,,,,,,,,
,,"[""circle"",""no_dis"",""vert"",""up"",[99999,99999],[-106,-106]]",circle,no_dis,vert,up,"[99999,99999]","[-106,-106]",up,1,,,,,,001,2025-03-17_13h04.38.538,SL_sali_41,2021.2.3,Win32,60.24096386,1.7302,,,52,0,52,0,1,,,,,,,,
,,"[""diamond"",""red"",""vert"",""up"",[106,106],[-150,0]]",diamond,red,vert,up,"[106,106]","[-150,0]",up,1,,,,,,001,2025-03-17_13h04.38.538,SL_sali_41,2021.2.3,Win32,60.24096386,1.8331,,,53,0,53,0,1,,,,,,,,
,,"[""circle"",""green"",""vert"",""up"",[150,0],[106,-106]]",circle,green,vert,up,"[150,0]","[106,-106]",left,0,,,,,,001,2025-03-17_13h04.38.538,SL_sali_41,2021.2.3,Win32,60.24096386,1.0498,,,54,0,54,0,1,,,,,,,,
,,"[""diamond"",""green"",""hori"",""left"",[-106,106],[0,-150]]",diamond,green,hori,left,"[-106,106]","[0,-150]",left,1,,,,,,001,2025-03-17_13h04.38.538,SL_sali_41,2021.2.3,Win32,60.24096386,1.7154,,,55,0,55,0,1,,,,,,,,
,,"[""circle"",""no_dis"",""hori"",""left"",[99999,99999],[0,150]]",circle,no_dis,hori,left,"[99999,99999]","[0,150]",left,1,,,,,,001,2025-03-17_13h04.38.538,SL_sali_41,2021.2.3,Win32,60.24096386,1.2663,,,56,0,56,0,1,,,,,,,,
,,"[""diamond"",""green"",""hori"",""left"",[-106,106],[-150,0]]",diamond,green,hori,left,"[-106,106]","[-150,0]",up,0,,,,,,001,2025-03-17_13h04.38.538,SL_sali_41,2021.2.3,Win32,60.24096386,1.8173,,,57,0,57,0,1,,,,,,,,
,,"[""diamond"",""no_dis"",""vert"",""up"",[99999,99999],[-106,106]]",diamond,no_dis,vert,up,"[99999,99999]","[-106,106]",up,1,,,,,,001,2025-03-17_13h04.38.538,SL_sali_41,2021.2.3,Win32,60.24096386,1.8828,,,58,0,58,0,1,,,,,,,,
,,"[""circle"",""green"",""hori"",""left"",[106,106],[-150,0]]",circle,green,hori,left,"[106,106]","[-150,0]",left,1,,,,,,001,2025-03-17_13h04.38.538,SL_sali_41,2021.2.3,Win32,60.24096386,1.0162,,,59,0,59,0,1,,,,,,,,
,,"[""diamond"",""no_dis"",""hori"",""left"",[99999,99999],[150,0]]",diamond,no_dis,hori,left,"[99999,99999]","[150,0]",left,1,,,,,,001,2025-03-17_13h04.38.538,SL_sali_41,2021.2.3,Win32,60.24096386,1.8906,,,60,0,60,0,1,,,,,,,,
,,"[""circle"",""no_dis"",""hori"",""left"",[99999,99999],[106,106]]",circle,no_dis,hori,left,"[99999,99999]","[106,106]",left,1,,,,,,001,2025-03-17_13h04.38.538,SL_sali_41,2021.2.3,Win32,60.24096386,1.6405,,,61,0,61,0,1,,,,,,,,
,,"[""diamond"",""no_dis"",""hori"",""left"",[99999,99999],[0,150]]",diamond,no_dis,hori,left,"[99999,99999]","[0,150]",left,1,,,,,,001,2025-03-17_13h04.38.538,SL_sali_41,2021.2.3,Win32,60.24096386,1.3842,,,62,0,62,0,1,,,,,,,,
,,"[""diamond"",""green"",""hori"",""left"",[-150,0],[106,-106]]",diamond,green,hori,left,"[-150,0]","[106,-106]",left,1,,,,,,001,2025-03-17_13h04.38.538,SL_sali_41,2021.2.3,Win32,60.24096386,1.4382,,,63,0,63,0,1,,,,,,,,
,,"[""circle"",""green"",""vert"",""up"",[150,0],[-106,106]]",circle,green,vert,up,"[150,0]","[-106,106]",up,1,,,,,,001,2025-03-17_13h04.38.538,SL_sali_41,2021.2.3,Win32,60.24096386,2.654,,,64,0,64,0,1,,,,,,,,
,,"[""diamond"",""green"",""vert"",""up"",[0,-150],[150,0]]",diamond,green,vert,up,"[0,-150]","[150,0]",left,0,,,,,,001,2025-03-17_13h04.38.538,SL_sali_41,2021.2.3,Win32,60.24096386,2.1576,,,65,0,65,0,1,,,,,,,,
,,"[""diamond"",""green"",""hori"",""left"",[106,106],[150,0]]",diamond,green,hori,left,"[106,106]","[150,0]",up,0,,,,,,001,2025-03-17_13h04.38.538,SL_sali_41,2021.2.3,Win32,60.24096386,2.8169,,,66,0,66,0,1,,,,,,,,
,,"[""diamond"",""no_dis"",""vert"",""up"",[99999,99999],[106,106]]",diamond,no_dis,vert,up,"[99999,99999]","[106,106]",up,1,,,,,,001,2025-03-17_13h04.38.538,SL_sali_41,2021.2.3,Win32,60.24096386,1.1656,,,67,0,67,0,1,,,,,,,,
,,"[""circle"",""red"",""hori"",""left"",[150,0],[106,106]]",circle,red,hori,left,"[150,0]","[106,106]",left,1,,,,,,001,2025-03-17_13h04.38.538,SL_sali_41,2021.2.3,Win32,60.24096386,1.3836,,,68,0,68,0,1,,,,,,,,
,,"[""diamond"",""no_dis"",""vert"",""up"",[99999,99999],[-106,-106]]",diamond,no_dis,vert,up,"[99999,99999]","[-106,-106]",up,1,,,,,,001,2025-03-17_13h04.38.538,SL_sali_41,2021.2.3,Win32,60.24096386,2.2997,,,69,0,69,0,1,,,,,,,,
,,"[""diamond"",""red"",""vert"",""up"",[106,106],[-106,-106]]",diamond,red,vert,up,"[106,106]","[-106,-106]",left,0,,,,,,001,2025-03-17_13h04.38.538,SL_sali_41,2021.2.3,Win32,60.24096386,1.5087,,,70,0,70,0,1,,,,,,,,
,,"[""circle"",""green"",""hori"",""left"",[0,150],[106,106]]",circle,green,hori,left,"[0,150]","[106,106]",left,1,,,,,,001,2025-03-17_13h04.38.538,SL_sali_41,2021.2.3,Win32,60.24096386,1.7654,,,71,0,71,0,1,,,,,,,,
,,"[""diamond"",""red"",""hori"",""left"",[0,-150],[-106,-106]]",diamond,red,hori,left,"[0,-150]","[-106,-106]",up,0,,,,,,001,2025-03-17_13h04.38.538,SL_sali_41,2021.2.3,Win32,60.24096386,2.0655,,,72,0,72,0,1,,,,,,,,
,,"[""diamond"",""no_dis"",""vert"",""up"",[99999,99999],[-106,106]]",diamond,no_dis,vert,up,"[99999,99999]","[-106,106]",up,1,,,,,,001,2025-03-17_13h04.38.538,SL_sali_41,2021.2.3,Win32,60.24096386,1.3325,,,73,0,73,0,1,,,,,,,,
,,"[""diamond"",""green"",""vert"",""up"",[0,150],[0,-150]]",diamond,green,vert,up,"[0,150]","[0,-150]",up,1,,,,,,001,2025-03-17_13h04.38.538,SL_sali_41,2021.2.3,Win32,60.24096386,1.0164,,,74,0,74,0,1,,,,,,,,
,,"[""diamond"",""green"",""hori"",""left"",[-150,0],[106,106]]",diamond,green,hori,left,"[-150,0]","[106,106]",left,1,,,,,,001,2025-03-17_13h04.38.538,SL_sali_41,2021.2.3,Win32,60.24096386,1.0072,,,75,0,75,0,1,,,,,,,,
,,"[""circle"",""red"",""hori"",""left"",[106,106],[0,-150]]",circle,red,hori,left,"[106,106]","[0,-150]",left,1,,,,,,001,2025-03-17_13h04.38.538,SL_sali_41,2021.2.3,Win32,60.24096386,1.3066,,,76,0,76,0,1,,,,,,,,
,,"[""diamond"",""red"",""vert"",""up"",[-106,106],[-106,-106]]",diamond,red,vert,up,"[-106,106]","[-106,-106]",up,1,,,,,,001,2025-03-17_13h04.38.538,SL_sali_41,2021.2.3,Win32,60.24096386,1.4992,,,77,0,77,0,1,,,,,,,,
,,"[""circle"",""red"",""hori"",""left"",[-150,0],[106,-106]]",circle,red,hori,left,"[-150,0]","[106,-106]",left,1,,,,,,001,2025-03-17_13h04.38.538,SL_sali_41,2021.2.3,Win32,60.24096386,1.8821,,,78,0,78,0,1,,,,,,,,
,,"[""diamond"",""red"",""hori"",""left"",[150,0],[106,-106]]",diamond,red,hori,left,"[150,0]","[106,-106]",left,1,,,,,,001,2025-03-17_13h04.38.538,SL_sali_41,2021.2.3,Win32,60.24096386,2.2888,,,79,0,79,0,1,,,,,,,,
,,"[""circle"",""red"",""hori"",""left"",[-106,106],[150,0]]",circle,red,hori,left,"[-106,106]","[150,0]",left,1,,,,,,001,2025-03-17_13h04.38.538,SL_sali_41,2021.2.3,Win32,60.24096386,1.9178,,,80,0,80,0,1,,,,,,,,
,,"[""circle"",""red"",""hori"",""left"",[106,-106],[-106,-106]]",circle,red,hori,left,"[106,-106]","[-106,-106]",left,1,,,,,,001,2025-03-17_13h04.38.538,SL_sali_41,2021.2.3,Win32,60.24096386,1.2539,,,81,0,81,0,1,,,,,,,,
,,"[""diamond"",""green"",""vert"",""up"",[106,106],[106,-106]]",diamond,green,vert,up,"[106,106]","[106,-106]",up,1,,,,,,001,2025-03-17_13h04.38.538,SL_sali_41,2021.2.3,Win32,60.24096386,1.52,,,82,0,82,0,1,,,,,,,,
,,"[""circle"",""red"",""vert"",""up"",[106,106],[-106,-106]]",circle,red,vert,up,"[106,106]","[-106,-106]",up,1,,,,,,001,2025-03-17_13h04.38.538,SL_sali_41,2021.2.3,Win32,60.24096386,1.633,,,83,0,83,0,1,,,,,,,,
,,"[""circle"",""green"",""hori"",""left"",[0,-150],[-150,0]]",circle,green,hori,left,"[0,-150]","[-150,0]",left,1,,,,,,001,2025-03-17_13h04.38.538,SL_sali_41,2021.2.3,Win32,60.24096386,1.3993,,,84,0,84,0,1,,,,,,,,
,,"[""circle"",""green"",""hori"",""left"",[106,106],[0,150]]",circle,green,hori,left,"[106,106]","[0,150]",left,1,,,,,,001,2025-03-17_13h04.38.538,SL_sali_41,2021.2.3,Win32,60.24096386,1.2,,,85,0,85,0,1,,,,,,,,
,,"[""circle"",""no_dis"",""vert"",""up"",[99999,99999],[106,-106]]",circle,no_dis,vert,up,"[99999,99999]","[106,-106]",up,1,,,,,,001,2025-03-17_13h04.38.538,SL_sali_41,2021.2.3,Win32,60.24096386,1.2836,,,86,0,86,0,1,,,,,,,,
,,"[""diamond"",""no_dis"",""hori"",""left"",[99999,99999],[106,106]]",diamond,no_dis,hori,left,"[99999,99999]","[106,106]",left,1,,,,,,001,2025-03-17_13h04.38.538,SL_sali_41,2021.2.3,Win32,60.24096386,1.8739,,,87,0,87,0,1,,,,,,,,
,,"[""circle"",""red"",""hori"",""left"",[0,150],[106,-106]]",circle,red,hori,left,"[0,150]","[106,-106]",left,1,,,,,,001,2025-03-17_13h04.38.538,SL_sali_41,2021.2.3,Win32,60.24096386,1.1561,,,88,0,88,0,1,,,,,,,,
,,"[""diamond"",""no_dis"",""hori"",""left"",[99999,99999],[-106,106]]",diamond,no_dis,hori,left,"[99999,99999]","[-106,106]",left,1,,,,,,001,2025-03-17_13h04.38.538,SL_sali_41,2021.2.3,Win32,60.24096386,1.3166,,,89,0,89,0,1,,,,,,,,
,,"[""circle"",""green"",""vert"",""up"",[150,0],[106,106]]",circle,green,vert,up,"[150,0]","[106,106]",up,1,,,,,,001,2025-03-17_13h04.38.538,SL_sali_41,2021.2.3,Win32,60.24096386,1.0336,,,90,0,90,0,1,,,,,,,,
,,"[""diamond"",""green"",""vert"",""up"",[-106,-106],[106,106]]",diamond,green,vert,up,"[-106,-106]","[106,106]",up,1,,,,,,001,2025-03-17_13h04.38.538,SL_sali_41,2021.2.3,Win32,60.24096386,1.6047,,,91,0,91,0,1,,,,,,,,
,,"[""circle"",""no_dis"",""hori"",""left"",[99999,99999],[-106,106]]",circle,no_dis,hori,left,"[99999,99999]","[-106,106]",left,1,,,,,,001,2025-03-17_13h04.38.538,SL_sali_41,2021.2.3,Win32,60.24096386,1.7391,,,92,0,92,0,1,,,,,,,,
,,"[""diamond"",""no_dis"",""hori"",""left"",[99999,99999],[106,106]]",diamond,no_dis,hori,left,"[99999,99999]","[106,106]",left,1,,,,,,001,2025-03-17_13h04.38.538,SL_sali_41,2021.2.3,Win32,60.24096386,1.6665,,,93,0,93,0,1,,,,,,,,
,,"[""circle"",""no_dis"",""vert"",""up"",[99999,99999],[0,150]]",circle,no_dis,vert,up,"[99999,99999]","[0,150]",up,1,,,,,,001,2025-03-17_13h04.38.538,SL_sali_41,2021.2.3,Win32,60.24096386,1.3317,,,94,0,94,0,1,,,,,,,,
,,"[""diamond"",""red"",""hori"",""left"",[106,106],[0,-150]]",diamond,red,hori,left,"[106,106]","[0,-150]",left,1,,,,,,001,2025-03-17_13h04.38.538,SL_sali_41,2021.2.3,Win32,60.24096386,1.5012,,,95,0,95,0,1,,,,,,,,
,,"[""diamond"",""red"",""hori"",""left"",[0,-150],[-106,-106]]",diamond,red,hori,left,"[0,-150]","[-106,-106]",left,1,,,,,,001,2025-03-17_13h04.38.538,SL_sali_41,2021.2.3,Win32,60.24096386,1.449,,,96,0,96,0,1,,,,,,,,
,,"[""diamond"",""red"",""hori"",""left"",[106,106],[-106,106]]",diamond,red,hori,left,"[106,106]","[-106,106]",left,1,,,,,,001,2025-03-17_13h04.38.538,SL_sali_41,2021.2.3,Win32,60.24096386,1.5837,,,97,0,97,0,1,,,,,,,,
,,"[""diamond"",""no_dis"",""hori"",""left"",[99999,99999],[106,-106]]",diamond,no_dis,hori,left,"[99999,99999]","[106,-106]",left,1,,,,,,001,2025-03-17_13h04.38.538,SL_sali_41,2021.2.3,Win32,60.24096386,1.1145,,,98,0,98,0,1,,,,,,,,
,,"[""circle"",""green"",""hori"",""left"",[150,0],[106,106]]",circle,green,hori,left,"[150,0]","[106,106]",left,1,,,,,,001,2025-03-17_13h04.38.538,SL_sali_41,2021.2.3,Win32,60.24096386,0.8008,,,99,0,99,0,1,,,,,,,,
,,"[""diamond"",""no_dis"",""hori"",""left"",[99999,99999],[150,0]]",diamond,no_dis,hori,left,"[99999,99999]","[150,0]",left,1,,,,,,001,2025-03-17_13h04.38.538,SL_sali_41,2021.2.3,Win32,60.24096386,1.5885,,,100,0,100,0,1,,,,,,,,
,,"[""circle"",""red"",""hori"",""left"",[106,106],[0,150]]",circle,red,hori,left,"[106,106]","[0,150]",up,0,,,,,,001,2025-03-17_13h04.38.538,SL_sali_41,2021.2.3,Win32,60.24096386,0.957,,,101,0,101,0,1,,,,,,,,
,,"[""circle"",""red"",""vert"",""up"",[0,150],[106,106]]",circle,red,vert,up,"[0,150]","[106,106]",up,1,,,,,,001,2025-03-17_13h04.38.538,SL_sali_41,2021.2.3,Win32,60.24096386,1.5829,,,102,0,102,0,1,,,,,,,,
,,"[""circle"",""no_dis"",""vert"",""up"",[99999,99999],[-150,0]]",circle,no_dis,vert,up,"[99999,99999]","[-150,0]",up,1,,,,,,001,2025-03-17_13h04.38.538,SL_sali_41,2021.2.3,Win32,60.24096386,0.8005,,,103,0,103,0,1,,,,,,,,
,,"[""circle"",""no_dis"",""hori"",""left"",[99999,99999],[0,150]]",circle,no_dis,hori,left,"[99999,99999]","[0,150]",left,1,,,,,,001,2025-03-17_13h04.38.538,SL_sali_41,2021.2.3,Win32,60.24096386,0.9187,,,104,0,104,0,1,,,,,,,,
,,"[""diamond"",""green"",""vert"",""up"",[106,106],[150,0]]",diamond,green,vert,up,"[106,106]","[150,0]",up,1,,,,,,001,2025-03-17_13h04.38.538,SL_sali_41,2021.2.3,Win32,60.24096386,1.5893,,,105,0,105,0,1,,,,,,,,
,,"[""circle"",""no_dis"",""vert"",""up"",[99999,99999],[0,-150]]",circle,no_dis,vert,up,"[99999,99999]","[0,-150]",up,1,,,,,,001,2025-03-17_13h04.38.538,SL_sali_41,2021.2.3,Win32,60.24096386,2.7539,,,106,0,106,0,1,,,,,,,,
,,"[""circle"",""red"",""vert"",""up"",[0,150],[150,0]]",circle,red,vert,up,"[0,150]","[150,0]",left,0,,,,,,001,2025-03-17_13h04.38.538,SL_sali_41,2021.2.3,Win32,60.24096386,2.1841,,,107,0,107,0,1,,,,,,,,
,,"[""diamond"",""red"",""vert"",""up"",[0,-150],[150,0]]",diamond,red,vert,up,"[0,-150]","[150,0]",up,1,,,,,,001,2025-03-17_13h04.38.538,SL_sali_41,2021.2.3,Win32,60.24096386,1.5483,,,108,0,108,0,1,,,,,,,,
,,"[""circle"",""no_dis"",""hori"",""left"",[99999,99999],[106,-106]]",circle,no_dis,hori,left,"[99999,99999]","[106,-106]",left,1,,,,,,001,2025-03-17_13h04.38.538,SL_sali_41,2021.2.3,Win32,60.24096386,1.05,,,109,0,109,0,1,,,,,,,,
,,"[""diamond"",""green"",""hori"",""left"",[106,-106],[106,106]]",diamond,green,hori,left,"[106,-106]","[106,106]",left,1,,,,,,001,2025-03-17_13h04.38.538,SL_sali_41,2021.2.3,Win32,60.24096386,2.5136,,,110,0,110,0,1,,,,,,,,
,,"[""diamond"",""no_dis"",""vert"",""up"",[99999,99999],[-150,0]]",diamond,no_dis,vert,up,"[99999,99999]","[-150,0]",up,1,,,,,,001,2025-03-17_13h04.38.538,SL_sali_41,2021.2.3,Win32,60.24096386,1.2403,,,111,0,111,0,1,,,,,,,,
,,"[""diamond"",""green"",""hori"",""left"",[-150,0],[0,150]]",diamond,green,hori,left,"[-150,0]","[0,150]",left,1,,,,,,001,2025-03-17_13h04.38.538,SL_sali_41,2021.2.3,Win32,60.24096386,1.3404,,,112,0,112,0,1,,,,,,,,
,,"[""circle"",""red"",""vert"",""up"",[-150,0],[0,150]]",circle,red,vert,up,"[-150,0]","[0,150]",up,1,,,,,,001,2025-03-17_13h04.38.538,SL_sali_41,2021.2.3,Win32,60.24096386,1.7657,,,113,0,113,0,1,,,,,,,,
,,"[""diamond"",""red"",""vert"",""up"",[106,-106],[0,150]]",diamond,red,vert,up,"[106,-106]","[0,150]",up,1,,,,,,001,2025-03-17_13h04.38.538,SL_sali_41,2021.2.3,Win32,60.24096386,1.1354,,,114,0,114,0,1,,,,,,,,
,,"[""circle"",""green"",""vert"",""up"",[106,106],[106,-106]]",circle,green,vert,up,"[106,106]","[106,-106]",up,1,,,,,,001,2025-03-17_13h04.38.538,SL_sali_41,2021.2.3,Win32,60.24096386,1.2001,,,115,0,115,0,1,,,,,,,,
,,"[""circle"",""green"",""hori"",""left"",[106,106],[-106,106]]",circle,green,hori,left,"[106,106]","[-106,106]",left,1,,,,,,001,2025-03-17_13h04.38.538,SL_sali_41,2021.2.3,Win32,60.24096386,0.7855,,,116,0,116,0,1,,,,,,,,
,,"[""circle"",""red"",""vert"",""up"",[-150,0],[-106,106]]",circle,red,vert,up,"[-150,0]","[-106,106]",up,1,,,,,,001,2025-03-17_13h04.38.538,SL_sali_41,2021.2.3,Win32,60.24096386,1.483,,,117,0,117,0,1,,,,,,,,
,,"[""circle"",""green"",""hori"",""left"",[150,0],[106,106]]",circle,green,hori,left,"[150,0]","[106,106]",left,1,,,,,,001,2025-03-17_13h04.38.538,SL_sali_41,2021.2.3,Win32,60.24096386,1.1406,,,118,0,118,0,1,,,,,,,,
,,"[""diamond"",""red"",""hori"",""left"",[106,106],[0,-150]]",diamond,red,hori,left,"[106,106]","[0,-150]",left,1,,,,,,001,2025-03-17_13h04.38.538,SL_sali_41,2021.2.3,Win32,60.24096386,1.9488,,,119,0,119,0,1,,,,,,,,
,,"[""diamond"",""no_dis"",""hori"",""left"",[99999,99999],[-150,0]]",diamond,no_dis,hori,left,"[99999,99999]","[-150,0]",left,1,,,,,,001,2025-03-17_13h04.38.538,SL_sali_41,2021.2.3,Win32,60.24096386,1.4715,,,120,0,120,0,1,,,,,,,,
,,"[""diamond"",""no_dis"",""vert"",""up"",[99999,99999],[0,-150]]",diamond,no_dis,vert,up,"[99999,99999]","[0,-150]",up,1,,,,,,001,2025-03-17_13h04.38.538,SL_sali_41,2021.2.3,Win32,60.24096386,1.4159,,,121,0,121,0,1,,,,,,,,
,,"[""diamond"",""no_dis"",""hori"",""left"",[99999,99999],[106,106]]",diamond,no_dis,hori,left,"[99999,99999]","[106,106]",left,1,,,,,,001,2025-03-17_13h04.38.538,SL_sali_41,2021.2.3,Win32,60.24096386,1.152,,,122,0,122,0,1,,,,,,,,
,,"[""diamond"",""no_dis"",""vert"",""up"",[99999,99999],[-150,0]]",diamond,no_dis,vert,up,"[99999,99999]","[-150,0]",up,1,,,,,,001,2025-03-17_13h04.38.538,SL_sali_41,2021.2.3,Win32,60.24096386,1.1362,,,123,0,123,0,1,,,,,,,,
,,"[""circle"",""green"",""vert"",""up"",[106,106],[-106,106]]",circle,green,vert,up,"[106,106]","[-106,106]",left,0,,,,,,001,2025-03-17_13h04.38.538,SL_sali_41,2021.2.3,Win32,60.24096386,1.806,,,124,0,124,0,1,,,,,,,,
,,"[""diamond"",""green"",""vert"",""up"",[0,-150],[-106,106]]",diamond,green,vert,up,"[0,-150]","[-106,106]",up,1,,,,,,001,2025-03-17_13h04.38.538,SL_sali_41,2021.2.3,Win32,60.24096386,1.8809,,,125,0,125,0,1,,,,,,,,
,,"[""diamond"",""green"",""hori"",""left"",[-106,-106],[-106,106]]",diamond,green,hori,left,"[-106,-106]","[-106,106]",left,1,,,,,,001,2025-03-17_13h04.38.538,SL_sali_41,2021.2.3,Win32,60.24096386,2.0157,,,126,0,126,0,1,,,,,,,,
,,"[""circle"",""red"",""vert"",""up"",[-106,-106],[106,106]]",circle,red,vert,up,"[-106,-106]","[106,106]",up,1,,,,,,001,2025-03-17_13h04.38.538,SL_sali_41,2021.2.3,Win32,60.24096386,1.3841,,,127,0,127,0,1,,,,,,,,
,,,,,,,,,,,,,,,,001,2025-03-17_13h04.38.538,SL_sali_41,2021.2.3,Win32,60.24096386,,,,,,,,,3,space,6.9964,2,0,2,0,1
,,"[""circle"",""no_dis"",""vert"",""up"",[99999,99999],[-106,-106]]",circle,no_dis,vert,up,"[99999,99999]","[-106,-106]",up,1,,,,,,001,2025-03-17_13h04.38.538,SL_sali_41,2021.2.3,Win32,60.24096386,1.8486,,,0,0,0,0,1,,,,,,,,
,,"[""circle"",""green"",""vert"",""up"",[150,0],[106,106]]",circle,green,vert,up,"[150,0]","[106,106]",up,1,,,,,,001,2025-03-17_13h04.38.538,SL_sali_41,2021.2.3,Win32,60.24096386,1.5152,,,1,0,1,0,1,,,,,,,,
,,"[""diamond"",""no_dis"",""vert"",""up"",[99999,99999],[-150,0]]",diamond,no_dis,vert,up,"[99999,99999]","[-150,0]",up,1,,,,,,001,2025-03-17_13h04.38.538,SL_sali_41,2021.2.3,Win32,60.24096386,2.1399,,,2,0,2,0,1,,,,,,,,
,,"[""diamond"",""green"",""hori"",""left"",[-150,0],[106,106]]",diamond,green,hori,left,"[-150,0]","[106,106]",left,1,,,,,,001,2025-03-17_13h04.38.538,SL_sali_41,2021.2.3,Win32,60.24096386,1.4074,,,3,0,3,0,1,,,,,,,,
,,"[""diamond"",""green"",""hori"",""left"",[106,-106],[-106,-106]]",diamond,green,hori,left,"[106,-106]","[-106,-106]",up,0,,,,,,001,2025-03-17_13h04.38.538,SL_sali_41,2021.2.3,Win32,60.24096386,1.2166,,,4,0,4,0,1,,,,,,,,
,,"[""circle"",""no_dis"",""vert"",""up"",[99999,99999],[-150,0]]",circle,no_dis,vert,up,"[99999,99999]","[-150,0]",up,1,,,,,,001,2025-03-17_13h04.38.538,SL_sali_41,2021.2.3,Win32,60.24096386,2.0655,,,5,0,5,0,1,,,,,,,,
,,"[""diamond"",""no_dis"",""hori"",""left"",[99999,99999],[-150,0]]",diamond,no_dis,hori,left,"[99999,99999]","[-150,0]",left,1,,,,,,001,2025-03-17_13h04.38.538,SL_sali_41,2021.2.3,Win32,60.24096386,2.8814,,,6,0,6,0,1,,,,,,,,
,,"[""diamond"",""no_dis"",""vert"",""up"",[99999,99999],[-106,-106]]",diamond,no_dis,vert,up,"[99999,99999]","[-106,-106]",up,1,,,,,,001,2025-03-17_13h04.38.538,SL_sali_41,2021.2.3,Win32,60.24096386,1.4146,,,7,0,7,0,1,,,,,,,,
,,"[""diamond"",""no_dis"",""vert"",""up"",[99999,99999],[106,-106]]",diamond,no_dis,vert,up,"[99999,99999]","[106,-106]",up,1,,,,,,001,2025-03-17_13h04.38.538,SL_sali_41,2021.2.3,Win32,60.24096386,1.6705,,,8,0,8,0,1,,,,,,,,
,,"[""diamond"",""no_dis"",""hori"",""left"",[99999,99999],[150,0]]",diamond,no_dis,hori,left,"[99999,99999]","[150,0]",left,1,,,,,,001,2025-03-17_13h04.38.538,SL_sali_41,2021.2.3,Win32,60.24096386,1.6558,,,9,0,9,0,1,,,,,,,,
,,"[""diamond"",""green"",""vert"",""up"",[106,106],[106,-106]]",diamond,green,vert,up,"[106,106]","[106,-106]",up,1,,,,,,001,2025-03-17_13h04.38.538,SL_sali_41,2021.2.3,Win32,60.24096386,1.1388,,,10,0,10,0,1,,,,,,,,
,,"[""circle"",""no_dis"",""hori"",""left"",[99999,99999],[-106,-106]]",circle,no_dis,hori,left,"[99999,99999]","[-106,-106]",left,1,,,,,,001,2025-03-17_13h04.38.538,SL_sali_41,2021.2.3,Win32,60.24096386,1.5156,,,11,0,11,0,1,,,,,,,,
,,"[""diamond"",""red"",""hori"",""left"",[106,-106],[-106,-106]]",diamond,red,hori,left,"[106,-106]","[-106,-106]",left,1,,,,,,001,2025-03-17_13h04.38.538,SL_sali_41,2021.2.3,Win32,60.24096386,2.1481,,,12,0,12,0,1,,,,,,,,
,,"[""circle"",""red"",""vert"",""up"",[-106,-106],[106,106]]",circle,red,vert,up,"[-106,-106]","[106,106]",up,1,,,,,,001,2025-03-17_13h04.38.538,SL_sali_41,2021.2.3,Win32,60.24096386,1.3994,,,13,0,13,0,1,,,,,,,,
,,"[""diamond"",""red"",""hori"",""left"",[106,106],[0,-150]]",diamond,red,hori,left,"[106,106]","[0,-150]",left,1,,,,,,001,2025-03-17_13h04.38.538,SL_sali_41,2021.2.3,Win32,60.24096386,1.7476,,,14,0,14,0,1,,,,,,,,
,,"[""diamond"",""red"",""vert"",""up"",[106,106],[-106,106]]",diamond,red,vert,up,"[106,106]","[-106,106]",up,1,,,,,,001,2025-03-17_13h04.38.538,SL_sali_41,2021.2.3,Win32,60.24096386,2.0303,,,15,0,15,0,1,,,,,,,,
,,"[""diamond"",""no_dis"",""vert"",""up"",[99999,99999],[-106,106]]",diamond,no_dis,vert,up,"[99999,99999]","[-106,106]",left,0,,,,,,001,2025-03-17_13h04.38.538,SL_sali_41,2021.2.3,Win32,60.24096386,2.4809,,,16,0,16,0,1,,,,,,,,
,,"[""circle"",""no_dis"",""vert"",""up"",[99999,99999],[0,-150]]",circle,no_dis,vert,up,"[99999,99999]","[0,-150]",up,1,,,,,,001,2025-03-17_13h04.38.538,SL_sali_41,2021.2.3,Win32,60.24096386,1.0167,,,17,0,17,0,1,,,,,,,,
,,"[""circle"",""green"",""vert"",""up"",[-106,106],[0,-150]]",circle,green,vert,up,"[-106,106]","[0,-150]",up,1,,,,,,001,2025-03-17_13h04.38.538,SL_sali_41,2021.2.3,Win32,60.24096386,1.2161,,,18,0,18,0,1,,,,,,,,
,,"[""diamond"",""green"",""hori"",""left"",[106,106],[106,-106]]",diamond,green,hori,left,"[106,106]","[106,-106]",left,1,,,,,,001,2025-03-17_13h04.38.538,SL_sali_41,2021.2.3,Win32,60.24096386,1.6491,,,19,0,19,0,1,,,,,,,,
,,"[""circle"",""red"",""vert"",""up"",[106,106],[0,150]]",circle,red,vert,up,"[106,106]","[0,150]",up,1,,,,,,001,2025-03-17_13h04.38.538,SL_sali_41,2021.2.3,Win32,60.24096386,1.1835,,,20,0,20,0,1,,,,,,,,
,,"[""diamond"",""no_dis"",""vert"",""up"",[99999,99999],[106,-106]]",diamond,no_dis,vert,up,"[99999,99999]","[106,-106]",left,0,,,,,,001,2025-03-17_13h04.38.538,SL_sali_41,2021.2.3,Win32,60.24096386,1.0352,,,21,0,21,0,1,,,,,,,,
,,"[""circle"",""red"",""vert"",""up"",[-106,-106],[-150,0]]",circle,red,vert,up,"[-106,-106]","[-150,0]",left,0,,,,,,001,2025-03-17_13h04.38.538,SL_sali_41,2021.2.3,Win32,60.24096386,1.0039,,,22,0,22,0,1,,,,,,,,
,,"[""circle"",""green"",""hori"",""left"",[106,106],[150,0]]",circle,green,hori,left,"[106,106]","[150,0]",left,1,,,,,,001,2025-03-17_13h04.38.538,SL_sali_41,2021.2.3,Win32,60.24096386,1.7189,,,23,0,23,0,1,,,,,,,,
,,"[""diamond"",""green"",""vert"",""up"",[106,106],[-106,-106]]",diamond,green,vert,up,"[106,106]","[-106,-106]",up,1,,,,,,001,2025-03-17_13h04.38.538,SL_sali_41,2021.2.3,Win32,60.24096386,1.5506,,,24,0,24,0,1,,,,,,,,
,,"[""circle"",""no_dis"",""hori"",""left"",[99999,99999],[106,106]]",circle,no_dis,hori,left,"[99999,99999]","[106,106]",left,1,,,,,,001,2025-03-17_13h04.38.538,SL_sali_41,2021.2.3,Win32,60.24096386,1.8927,,,25,0,25,0,1,,,,,,,,
,,"[""circle"",""red"",""hori"",""left"",[0,150],[106,-106]]",circle,red,hori,left,"[0,150]","[106,-106]",left,1,,,,,,001,2025-03-17_13h04.38.538,SL_sali_41,2021.2.3,Win32,60.24096386,1.0871,,,26,0,26,0,1,,,,,,,,
,,"[""circle"",""no_dis"",""hori"",""left"",[99999,99999],[150,0]]",circle,no_dis,hori,left,"[99999,99999]","[150,0]",left,1,,,,,,001,2025-03-17_13h04.38.538,SL_sali_41,2021.2.3,Win32,60.24096386,1.7503,,,27,0,27,0,1,,,,,,,,
,,"[""circle"",""red"",""hori"",""left"",[106,106],[106,-106]]",circle,red,hori,left,"[106,106]","[106,-106]",left,1,,,,,,001,2025-03-17_13h04.38.538,SL_sali_41,2021.2.3,Win32,60.24096386,0.7671,,,28,0,28,0,1,,,,,,,,
,,"[""circle"",""red"",""vert"",""up"",[-106,-106],[106,-106]]",circle,red,vert,up,"[-106,-106]","[106,-106]",up,1,,,,,,001,2025-03-17_13h04.38.538,SL_sali_41,2021.2.3,Win32,60.24096386,2.1372,,,29,0,29,0,1,,,,,,,,
,,"[""circle"",""red"",""hori"",""left"",[106,106],[0,-150]]",circle,red,hori,left,"[106,106]","[0,-150]",left,1,,,,,,001,2025-03-17_13h04.38.538,SL_sali_41,2021.2.3,Win32,60.24096386,1.1658,,,30,0,30,0,1,,,,,,,,
,,"[""circle"",""green"",""hori"",""left"",[0,150],[106,106]]",circle,green,hori,left,"[0,150]","[106,106]",left,1,,,,,,001,2025-03-17_13h04.38.538,SL_sali_41,2021.2.3,Win32,60.24096386,0.8006,,,31,0,31,0,1,,,,,,,,
,,"[""diamond"",""green"",""hori"",""left"",[-106,-106],[-150,0]]",diamond,green,hori,left,"[-106,-106]","[-150,0]",left,1,,,,,,001,2025-03-17_13h04.38.538,SL_sali_41,2021.2.3,Win32,60.24096386,1.7486,,,32,0,32,0,1,,,,,,,,
,,"[""circle"",""no_dis"",""vert"",""up"",[99999,99999],[0,-150]]",circle,no_dis,vert,up,"[99999,99999]","[0,-150]",up,1,,,,,,001,2025-03-17_13h04.38.538,SL_sali_41,2021.2.3,Win32,60.24096386,1.3161,,,33,0,33,0,1,,,,,,,,
,,"[""diamond"",""no_dis"",""hori"",""left"",[99999,99999],[0,150]]",diamond,no_dis,hori,left,"[99999,99999]","[0,150]",left,1,,,,,,001,2025-03-17_13h04.38.538,SL_sali_41,2021.2.3,Win32,60.24096386,1.4729,,,34,0,34,0,1,,,,,,,,
,,"[""diamond"",""no_dis"",""vert"",""up"",[99999,99999],[-106,-106]]",diamond,no_dis,vert,up,"[99999,99999]","[-106,-106]",up,1,,,,,,001,2025-03-17_13h04.38.538,SL_sali_41,2021.2.3,Win32,60.24096386,1.5826,,,35,0,35,0,1,,,,,,,,
,,"[""circle"",""red"",""hori"",""left"",[106,-106],[-106,-106]]",circle,red,hori,left,"[106,-106]","[-106,-106]",left,1,,,,,,001,2025-03-17_13h04.38.538,SL_sali_41,2021.2.3,Win32,60.24096386,1.3708,,,36,0,36,0,1,,,,,,,,
,,"[""circle"",""red"",""vert"",""up"",[0,150],[150,0]]",circle,red,vert,up,"[0,150]","[150,0]",up,1,,,,,,001,2025-03-17_13h04.38.538,SL_sali_41,2021.2.3,Win32,60.24096386,0.9338,,,37,0,37,0,1,,,,,,,,
,,"[""diamond"",""no_dis"",""hori"",""left"",[99999,99999],[106,106]]",diamond,no_dis,hori,left,"[99999,99999]","[106,106]",left,1,,,,,,001,2025-03-17_13h04.38.538,SL_sali_41,2021.2.3,Win32,60.24096386,1.4988,,,38,0,38,0,1,,,,,,,,
,,"[""diamond"",""no_dis"",""vert"",""up"",[99999,99999],[106,106]]",diamond,no_dis,vert,up,"[99999,99999]","[106,106]",up,1,,,,,,001,2025-03-17_13h04.38.538,SL_sali_41,2021.2.3,Win32,60.24096386,1.2996,,,39,0,39,0,1,,,,,,,,
,,"[""circle"",""green"",""vert"",""up"",[0,150],[-106,-106]]",circle,green,vert,up,"[0,150]","[-106,-106]",,0,,,,,,001,2025-03-17_13h04.38.538,SL_sali_41,2021.2.3,Win32,60.24096386,,,,40,0,40,0,1,,,,,,,,
,,"[""diamond"",""red"",""vert"",""up"",[-106,-106],[0,150]]",diamond,red,vert,up,"[-106,-106]","[0,150]",left,0,,,,,,001,2025-03-17_13h04.38.538,SL_sali_41,2021.2.3,Win32,60.24096386,1.6659,,,41,0,41,0,1,,,,,,,,
,,"[""circle"",""green"",""hori"",""left"",[150,0],[106,-106]]",circle,green,hori,left,"[150,0]","[106,-106]",left,1,,,,,,001,2025-03-17_13h04.38.538,SL_sali_41,2021.2.3,Win32,60.24096386,1.2079,,,42,0,42,0,1,,,,,,,,
,,"[""circle"",""no_dis"",""hori"",""left"",[99999,99999],[150,0]]",circle,no_dis,hori,left,"[99999,99999]","[150,0]",left,1,,,,,,001,2025-03-17_13h04.38.538,SL_sali_41,2021.2.3,Win32,60.24096386,1.1164,,,43,0,43,0,1,,,,,,,,
,,"[""circle"",""no_dis"",""hori"",""left"",[99999,99999],[-106,106]]",circle,no_dis,hori,left,"[99999,99999]","[-106,106]",left,1,,,,,,001,2025-03-17_13h04.38.538,SL_sali_41,2021.2.3,Win32,60.24096386,0.7012,,,44,0,44,0,1,,,,,,,,
,,"[""circle"",""red"",""hori"",""left"",[-106,106],[150,0]]",circle,red,hori,left,"[-106,106]","[150,0]",left,1,,,,,,001,2025-03-17_13h04.38.538,SL_sali_41,2021.2.3,Win32,60.24096386,0.7994,,,45,0,45,0,1,,,,,,,,
,,"[""diamond"",""green"",""vert"",""up"",[106,106],[150,0]]",diamond,green,vert,up,"[106,106]","[150,0]",up,1,,,,,,001,2025-03-17_13h04.38.538,SL_sali_41,2021.2.3,Win32,60.24096386,1.2165,,,46,0,46,0,1,,,,,,,,
,,"[""diamond"",""red"",""vert"",""up"",[-106,106],[-150,0]]",diamond,red,vert,up,"[-106,106]","[-150,0]",up,1,,,,,,001,2025-03-17_13h04.38.538,SL_sali_41,2021.2.3,Win32,60.24096386,1.7812,,,47,0,47,0,1,,,,,,,,
,,"[""diamond"",""red"",""vert"",""up"",[106,106],[-106,-106]]",diamond,red,vert,up,"[106,106]","[-106,-106]",up,1,,,,,,001,2025-03-17_13h04.38.538,SL_sali_41,2021.2.3,Win32,60.24096386,1.2147,,,48,0,48,0,1,,,,,,,,
,,"[""diamond"",""green"",""hori"",""left"",[-106,106],[0,-150]]",diamond,green,hori,left,"[-106,106]","[0,-150]",left,1,,,,,,001,2025-03-17_13h04.38.538,SL_sali_41,2021.2.3,Win32,60.24096386,1.2493,,,49,0,49,0,1,,,,,,,,
,,"[""circle"",""red"",""hori"",""left"",[106,106],[-106,106]]",circle,red,hori,left,"[106,106]","[-106,106]",left,1,,,,,,001,2025-03-17_13h04.38.538,SL_sali_41,2021.2.3,Win32,60.24096386,2.7867,,,50,0,50,0,1,,,,,,,,
,,"[""circle"",""no_dis"",""vert"",""up"",[99999,99999],[150,0]]",circle,no_dis,vert,up,"[99999,99999]","[150,0]",up,1,,,,,,001,2025-03-17_13h04.38.538,SL_sali_41,2021.2.3,Win32,60.24096386,1.3852,,,51,0,51,0,1,,,,,,,,
,,"[""diamond"",""no_dis"",""hori"",""left"",[99999,99999],[106,106]]",diamond,no_dis,hori,left,"[99999,99999]","[106,106]",left,1,,,,,,001,2025-03-17_13h04.38.538,SL_sali_41,2021.2.3,Win32,60.24096386,1.3981,,,52,0,52,0,1,,,,,,,,
,,"[""circle"",""green"",""hori"",""left"",[0,-150],[0,150]]",circle,green,hori,left,"[0,-150]","[0,150]",left,1,,,,,,001,2025-03-17_13h04.38.538,SL_sali_41,2021.2.3,Win32,60.24096386,1.2542,,,53,0,53,0,1,,,,,,,,
,,"[""diamond"",""green"",""hori"",""left"",[-150,0],[0,150]]",diamond,green,hori,left,"[-150,0]","[0,150]",left,1,,,,,,001,2025-03-17_13h04.38.538,SL_sali_41,2021.2.3,Win32,60.24096386,2.5562,,,54,0,54,0,1,,,,,,,,
,,"[""circle"",""green"",""hori"",""left"",[150,0],[106,106]]",circle,green,hori,left,"[150,0]","[106,106]",left,1,,,,,,001,2025-03-17_13h04.38.538,SL_sali_41,2021.2.3,Win32,60.24096386,1.1327,,,55,0,55,0,1,,,,,,,,
,,"[""circle"",""green"",""hori"",""left"",[150,0],[106,106]]",circle,green,hori,left,"[150,0]","[106,106]",left,1,,,,,,001,2025-03-17_13h04.38.538,SL_sali_41,2021.2.3,Win32,60.24096386,0.7524,,,56,0,56,0,1,,,,,,,,
,,"[""circle"",""green"",""hori"",""left"",[106,106],[-150,0]]",circle,green,hori,left,"[106,106]","[-150,0]",left,1,,,,,,001,2025-03-17_13h04.38.538,SL_sali_41,2021.2.3,Win32,60.24096386,0.7496,,,57,0,57,0,1,,,,,,,,
,,"[""circle"",""no_dis"",""vert"",""up"",[99999,99999],[0,150]]",circle,no_dis,vert,up,"[99999,99999]","[0,150]",left,0,,,,,,001,2025-03-17_13h04.38.538,SL_sali_41,2021.2.3,Win32,60.24096386,0.7001,,,58,0,58,0,1,,,,,,,,
,,"[""diamond"",""no_dis"",""hori"",""left"",[99999,99999],[106,106]]",diamond,no_dis,hori,left,"[99999,99999]","[106,106]",up,0,,,,,,001,2025-03-17_13h04.38.538,SL_sali_41,2021.2.3,Win32,60.24096386,1.466,,,59,0,59,0,1,,,,,,,,
