﻿key_resp.keys,key_resp.rt,trial_para,tar_shape,dis_color_condi,tar_line,cor_resp,dis_loc,tar_loc,resp.keys,resp.corr,trials.thisRepN,trials.thisTrialN,trials.thisN,trials.thisIndex,trials.ran,participant,date,expName,psychopyVersion,OS,frameRate,resp.rt,key_resp_2.keys,key_resp_2.rt,trials_2.thisRepN,trials_2.thisTrialN,trials_2.thisN,trials_2.thisIndex,trials_2.ran,block_num,key_resp_3.keys,key_resp_3.rt,trials_3.thisRepN,trials_3.thisTrialN,trials_3.thisN,trials_3.thisIndex,trials_3.ran
space,27.7379,"[""circle"",""green"",""vert"",""up"",[-106,-106],[0,-150]]",circle,green,vert,up,"[-106,-106]","[0,-150]",,0,0,0,0,0,1,001,2025-03-17_15h16.34.692,SL_sali_41,2021.2.3,Win32,29.94011976,,,,,,,,,,,,,,,,
,,"[""diamond"",""green"",""hori"",""left"",[106,106],[0,150]]",diamond,green,hori,left,"[106,106]","[0,150]",,0,1,0,1,0,1,001,2025-03-17_15h16.34.692,SL_sali_41,2021.2.3,Win32,29.94011976,,,,,,,,,,,,,,,,
,,"[""circle"",""no_dis"",""hori"",""left"",[99999,99999],[0,150]]",circle,no_dis,hori,left,"[99999,99999]","[0,150]",up,0,2,0,2,0,1,001,2025-03-17_15h16.34.692,SL_sali_41,2021.2.3,Win32,29.94011976,2.6611,,,,,,,,,,,,,,,
,,"[""circle"",""no_dis"",""vert"",""up"",[99999,99999],[-150,0]]",circle,no_dis,vert,up,"[99999,99999]","[-150,0]",up,1,3,0,3,0,1,001,2025-03-17_15h16.34.692,SL_sali_41,2021.2.3,Win32,29.94011976,2.7836,,,,,,,,,,,,,,,
,,"[""diamond"",""green"",""hori"",""left"",[0,150],[-150,0]]",diamond,green,hori,left,"[0,150]","[-150,0]",,0,4,0,4,0,1,001,2025-03-17_15h16.34.692,SL_sali_41,2021.2.3,Win32,29.94011976,,,,,,,,,,,,,,,,
,,"[""diamond"",""green"",""vert"",""up"",[-106,106],[-150,0]]",diamond,green,vert,up,"[-106,106]","[-150,0]",,0,5,0,5,0,1,001,2025-03-17_15h16.34.692,SL_sali_41,2021.2.3,Win32,29.94011976,,,,,,,,,,,,,,,,
,,"[""diamond"",""red"",""hori"",""left"",[106,-106],[106,106]]",diamond,red,hori,left,"[106,-106]","[106,106]",,0,6,0,6,0,1,001,2025-03-17_15h16.34.692,SL_sali_41,2021.2.3,Win32,29.94011976,,,,,,,,,,,,,,,,
,,"[""diamond"",""no_dis"",""vert"",""up"",[99999,99999],[0,150]]",diamond,no_dis,vert,up,"[99999,99999]","[0,150]",up,1,7,0,7,0,1,001,2025-03-17_15h16.34.692,SL_sali_41,2021.2.3,Win32,29.94011976,2.689,,,,,,,,,,,,,,,
,,"[""diamond"",""no_dis"",""hori"",""left"",[99999,99999],[-106,-106]]",diamond,no_dis,hori,left,"[99999,99999]","[-106,-106]",left,1,8,0,8,0,1,001,2025-03-17_15h16.34.692,SL_sali_41,2021.2.3,Win32,29.94011976,2.1934,,,,,,,,,,,,,,,
,,"[""diamond"",""green"",""vert"",""up"",[150,0],[106,106]]",diamond,green,vert,up,"[150,0]","[106,106]",,0,9,0,9,0,1,001,2025-03-17_15h16.34.692,SL_sali_41,2021.2.3,Win32,29.94011976,,,,,,,,,,,,,,,,
,,"[""circle"",""green"",""vert"",""up"",[-106,-106],[0,-150]]",circle,green,vert,up,"[-106,-106]","[0,-150]",up,1,,,,,,001,2025-03-17_15h16.34.692,SL_sali_41,2021.2.3,Win32,29.94011976,1.6279,space,2.4508,0,0,0,0,1,,,,,,,,
,,"[""diamond"",""green"",""hori"",""left"",[106,106],[0,150]]",diamond,green,hori,left,"[106,106]","[0,150]",left,1,,,,,,001,2025-03-17_15h16.34.692,SL_sali_41,2021.2.3,Win32,29.94011976,1.8424,,,1,0,1,0,1,,,,,,,,
,,"[""circle"",""no_dis"",""hori"",""left"",[99999,99999],[0,150]]",circle,no_dis,hori,left,"[99999,99999]","[0,150]",left,1,,,,,,001,2025-03-17_15h16.34.692,SL_sali_41,2021.2.3,Win32,29.94011976,2.6872,,,2,0,2,0,1,,,,,,,,
,,"[""circle"",""no_dis"",""vert"",""up"",[99999,99999],[-150,0]]",circle,no_dis,vert,up,"[99999,99999]","[-150,0]",up,1,,,,,,001,2025-03-17_15h16.34.692,SL_sali_41,2021.2.3,Win32,29.94011976,1.9355,,,3,0,3,0,1,,,,,,,,
,,"[""diamond"",""green"",""hori"",""left"",[0,150],[-150,0]]",diamond,green,hori,left,"[0,150]","[-150,0]",left,1,,,,,,001,2025-03-17_15h16.34.692,SL_sali_41,2021.2.3,Win32,29.94011976,1.9167,,,4,0,4,0,1,,,,,,,,
,,"[""diamond"",""green"",""vert"",""up"",[-106,106],[-150,0]]",diamond,green,vert,up,"[-106,106]","[-150,0]",up,1,,,,,,001,2025-03-17_15h16.34.692,SL_sali_41,2021.2.3,Win32,29.94011976,1.6893,,,5,0,5,0,1,,,,,,,,
,,"[""diamond"",""red"",""hori"",""left"",[106,-106],[106,106]]",diamond,red,hori,left,"[106,-106]","[106,106]",left,1,,,,,,001,2025-03-17_15h16.34.692,SL_sali_41,2021.2.3,Win32,29.94011976,2.6833,,,6,0,6,0,1,,,,,,,,
,,"[""diamond"",""no_dis"",""vert"",""up"",[99999,99999],[0,150]]",diamond,no_dis,vert,up,"[99999,99999]","[0,150]",up,1,,,,,,001,2025-03-17_15h16.34.692,SL_sali_41,2021.2.3,Win32,29.94011976,2.2929,,,7,0,7,0,1,,,,,,,,
,,"[""diamond"",""no_dis"",""hori"",""left"",[99999,99999],[-106,-106]]",diamond,no_dis,hori,left,"[99999,99999]","[-106,-106]",left,1,,,,,,001,2025-03-17_15h16.34.692,SL_sali_41,2021.2.3,Win32,29.94011976,1.7922,,,8,0,8,0,1,,,,,,,,
,,"[""diamond"",""green"",""vert"",""up"",[150,0],[106,106]]",diamond,green,vert,up,"[150,0]","[106,106]",up,1,,,,,,001,2025-03-17_15h16.34.692,SL_sali_41,2021.2.3,Win32,29.94011976,2.1525,,,9,0,9,0,1,,,,,,,,
,,"[""circle"",""red"",""hori"",""left"",[106,106],[-106,-106]]",circle,red,hori,left,"[106,106]","[-106,-106]",left,1,,,,,,001,2025-03-17_15h16.34.692,SL_sali_41,2021.2.3,Win32,29.94011976,1.582,,,10,0,10,0,1,,,,,,,,
,,"[""circle"",""red"",""vert"",""up"",[-106,-106],[106,106]]",circle,red,vert,up,"[-106,-106]","[106,106]",up,1,,,,,,001,2025-03-17_15h16.34.692,SL_sali_41,2021.2.3,Win32,29.94011976,1.5494,,,11,0,11,0,1,,,,,,,,
,,"[""diamond"",""red"",""hori"",""left"",[0,150],[-106,106]]",diamond,red,hori,left,"[0,150]","[-106,106]",left,1,,,,,,001,2025-03-17_15h16.34.692,SL_sali_41,2021.2.3,Win32,29.94011976,2.208,,,12,0,12,0,1,,,,,,,,
,,"[""diamond"",""no_dis"",""vert"",""up"",[99999,99999],[0,-150]]",diamond,no_dis,vert,up,"[99999,99999]","[0,-150]",up,1,,,,,,001,2025-03-17_15h16.34.692,SL_sali_41,2021.2.3,Win32,29.94011976,1.4998,,,13,0,13,0,1,,,,,,,,
,,"[""diamond"",""no_dis"",""hori"",""left"",[99999,99999],[-106,106]]",diamond,no_dis,hori,left,"[99999,99999]","[-106,106]",left,1,,,,,,001,2025-03-17_15h16.34.692,SL_sali_41,2021.2.3,Win32,29.94011976,1.3076,,,14,0,14,0,1,,,,,,,,
,,"[""diamond"",""no_dis"",""hori"",""left"",[99999,99999],[106,-106]]",diamond,no_dis,hori,left,"[99999,99999]","[106,-106]",left,1,,,,,,001,2025-03-17_15h16.34.692,SL_sali_41,2021.2.3,Win32,29.94011976,1.6141,,,15,0,15,0,1,,,,,,,,
,,"[""circle"",""no_dis"",""vert"",""up"",[99999,99999],[-106,106]]",circle,no_dis,vert,up,"[99999,99999]","[-106,106]",up,1,,,,,,001,2025-03-17_15h16.34.692,SL_sali_41,2021.2.3,Win32,29.94011976,2.0889,,,16,0,16,0,1,,,,,,,,
,,"[""circle"",""no_dis"",""hori"",""left"",[99999,99999],[0,150]]",circle,no_dis,hori,left,"[99999,99999]","[0,150]",left,1,,,,,,001,2025-03-17_15h16.34.692,SL_sali_41,2021.2.3,Win32,29.94011976,2.127,,,17,0,17,0,1,,,,,,,,
,,"[""diamond"",""no_dis"",""hori"",""left"",[99999,99999],[0,-150]]",diamond,no_dis,hori,left,"[99999,99999]","[0,-150]",left,1,,,,,,001,2025-03-17_15h16.34.692,SL_sali_41,2021.2.3,Win32,29.94011976,2.4574,,,18,0,18,0,1,,,,,,,,
,,"[""diamond"",""green"",""vert"",""up"",[106,106],[0,150]]",diamond,green,vert,up,"[106,106]","[0,150]",up,1,,,,,,001,2025-03-17_15h16.34.692,SL_sali_41,2021.2.3,Win32,29.94011976,2.2127,,,19,0,19,0,1,,,,,,,,
,,"[""circle"",""green"",""hori"",""left"",[106,106],[-150,0]]",circle,green,hori,left,"[106,106]","[-150,0]",left,1,,,,,,001,2025-03-17_15h16.34.692,SL_sali_41,2021.2.3,Win32,29.94011976,1.899,,,20,0,20,0,1,,,,,,,,
,,"[""diamond"",""red"",""vert"",""up"",[-106,-106],[-106,106]]",diamond,red,vert,up,"[-106,-106]","[-106,106]",,0,,,,,,001,2025-03-17_15h16.34.692,SL_sali_41,2021.2.3,Win32,29.94011976,,,,21,0,21,0,1,,,,,,,,
,,"[""diamond"",""no_dis"",""hori"",""left"",[99999,99999],[106,106]]",diamond,no_dis,hori,left,"[99999,99999]","[106,106]",left,1,,,,,,001,2025-03-17_15h16.34.692,SL_sali_41,2021.2.3,Win32,29.94011976,1.6056,,,22,0,22,0,1,,,,,,,,
,,"[""diamond"",""no_dis"",""hori"",""left"",[99999,99999],[106,-106]]",diamond,no_dis,hori,left,"[99999,99999]","[106,-106]",up,0,,,,,,001,2025-03-17_15h16.34.692,SL_sali_41,2021.2.3,Win32,29.94011976,1.6958,,,23,0,23,0,1,,,,,,,,
,,"[""diamond"",""no_dis"",""vert"",""up"",[99999,99999],[106,106]]",diamond,no_dis,vert,up,"[99999,99999]","[106,106]",up,1,,,,,,001,2025-03-17_15h16.34.692,SL_sali_41,2021.2.3,Win32,29.94011976,1.8701,,,24,0,24,0,1,,,,,,,,
,,"[""diamond"",""red"",""vert"",""up"",[106,106],[-106,-106]]",diamond,red,vert,up,"[106,106]","[-106,-106]",up,1,,,,,,001,2025-03-17_15h16.34.692,SL_sali_41,2021.2.3,Win32,29.94011976,2.695,,,25,0,25,0,1,,,,,,,,
,,"[""diamond"",""no_dis"",""hori"",""left"",[99999,99999],[150,0]]",diamond,no_dis,hori,left,"[99999,99999]","[150,0]",up,0,,,,,,001,2025-03-17_15h16.34.692,SL_sali_41,2021.2.3,Win32,29.94011976,1.819,,,26,0,26,0,1,,,,,,,,
,,"[""circle"",""green"",""vert"",""up"",[106,-106],[106,106]]",circle,green,vert,up,"[106,-106]","[106,106]",left,0,,,,,,001,2025-03-17_15h16.34.692,SL_sali_41,2021.2.3,Win32,29.94011976,2.1714,,,27,0,27,0,1,,,,,,,,
,,"[""diamond"",""red"",""hori"",""left"",[-106,106],[150,0]]",diamond,red,hori,left,"[-106,106]","[150,0]",left,1,,,,,,001,2025-03-17_15h16.34.692,SL_sali_41,2021.2.3,Win32,29.94011976,2.3904,,,28,0,28,0,1,,,,,,,,
,,"[""circle"",""red"",""hori"",""left"",[-106,106],[0,150]]",circle,red,hori,left,"[-106,106]","[0,150]",left,1,,,,,,001,2025-03-17_15h16.34.692,SL_sali_41,2021.2.3,Win32,29.94011976,2.1218,,,29,0,29,0,1,,,,,,,,
,,"[""diamond"",""red"",""vert"",""up"",[106,106],[-150,0]]",diamond,red,vert,up,"[106,106]","[-150,0]",left,0,,,,,,001,2025-03-17_15h16.34.692,SL_sali_41,2021.2.3,Win32,29.94011976,2.3284,,,30,0,30,0,1,,,,,,,,
,,"[""circle"",""red"",""vert"",""up"",[-106,-106],[0,150]]",circle,red,vert,up,"[-106,-106]","[0,150]",up,1,,,,,,001,2025-03-17_15h16.34.692,SL_sali_41,2021.2.3,Win32,29.94011976,1.7049,,,31,0,31,0,1,,,,,,,,
,,"[""diamond"",""green"",""hori"",""left"",[106,106],[-106,106]]",diamond,green,hori,left,"[106,106]","[-106,106]",left,1,,,,,,001,2025-03-17_15h16.34.692,SL_sali_41,2021.2.3,Win32,29.94011976,1.7811,,,32,0,32,0,1,,,,,,,,
,,"[""circle"",""red"",""hori"",""left"",[-106,-106],[-150,0]]",circle,red,hori,left,"[-106,-106]","[-150,0]",up,0,,,,,,001,2025-03-17_15h16.34.692,SL_sali_41,2021.2.3,Win32,29.94011976,2.3475,,,33,0,33,0,1,,,,,,,,
,,"[""circle"",""green"",""hori"",""left"",[-150,0],[150,0]]",circle,green,hori,left,"[-150,0]","[150,0]",up,0,,,,,,001,2025-03-17_15h16.34.692,SL_sali_41,2021.2.3,Win32,29.94011976,1.9973,,,34,0,34,0,1,,,,,,,,
,,"[""circle"",""no_dis"",""vert"",""up"",[99999,99999],[106,-106]]",circle,no_dis,vert,up,"[99999,99999]","[106,-106]",left,0,,,,,,001,2025-03-17_15h16.34.692,SL_sali_41,2021.2.3,Win32,29.94011976,1.6976,,,35,0,35,0,1,,,,,,,,
,,"[""diamond"",""no_dis"",""hori"",""left"",[99999,99999],[-106,-106]]",diamond,no_dis,hori,left,"[99999,99999]","[-106,-106]",left,1,,,,,,001,2025-03-17_15h16.34.692,SL_sali_41,2021.2.3,Win32,29.94011976,2.2452,,,36,0,36,0,1,,,,,,,,
,,"[""circle"",""no_dis"",""hori"",""left"",[99999,99999],[-106,106]]",circle,no_dis,hori,left,"[99999,99999]","[-106,106]",,0,,,,,,001,2025-03-17_15h16.34.692,SL_sali_41,2021.2.3,Win32,29.94011976,,,,37,0,37,0,1,,,,,,,,
,,"[""circle"",""no_dis"",""vert"",""up"",[99999,99999],[150,0]]",circle,no_dis,vert,up,"[99999,99999]","[150,0]",left,0,,,,,,001,2025-03-17_15h16.34.692,SL_sali_41,2021.2.3,Win32,29.94011976,2.334,,,38,0,38,0,1,,,,,,,,
,,"[""diamond"",""green"",""hori"",""left"",[106,106],[150,0]]",diamond,green,hori,left,"[106,106]","[150,0]",up,0,,,,,,001,2025-03-17_15h16.34.692,SL_sali_41,2021.2.3,Win32,29.94011976,1.9778,,,39,0,39,0,1,,,,,,,,
,,"[""circle"",""no_dis"",""vert"",""up"",[99999,99999],[150,0]]",circle,no_dis,vert,up,"[99999,99999]","[150,0]",left,0,,,,,,001,2025-03-17_15h16.34.692,SL_sali_41,2021.2.3,Win32,29.94011976,1.731,,,40,0,40,0,1,,,,,,,,
,,"[""circle"",""red"",""hori"",""left"",[106,-106],[0,-150]]",circle,red,hori,left,"[106,-106]","[0,-150]",left,1,,,,,,001,2025-03-17_15h16.34.692,SL_sali_41,2021.2.3,Win32,29.94011976,2.1367,,,41,0,41,0,1,,,,,,,,
,,"[""diamond"",""green"",""hori"",""left"",[106,-106],[0,150]]",diamond,green,hori,left,"[106,-106]","[0,150]",,0,,,,,,001,2025-03-17_15h16.34.692,SL_sali_41,2021.2.3,Win32,29.94011976,,,,42,0,42,0,1,,,,,,,,
,,"[""diamond"",""red"",""vert"",""up"",[106,106],[0,150]]",diamond,red,vert,up,"[106,106]","[0,150]",up,1,,,,,,001,2025-03-17_15h16.34.692,SL_sali_41,2021.2.3,Win32,29.94011976,2.1395,,,43,0,43,0,1,,,,,,,,
,,"[""circle"",""green"",""vert"",""up"",[106,106],[0,-150]]",circle,green,vert,up,"[106,106]","[0,-150]",up,1,,,,,,001,2025-03-17_15h16.34.692,SL_sali_41,2021.2.3,Win32,29.94011976,2.6033,,,44,0,44,0,1,,,,,,,,
,,"[""diamond"",""green"",""hori"",""left"",[106,106],[0,-150]]",diamond,green,hori,left,"[106,106]","[0,-150]",left,1,,,,,,001,2025-03-17_15h16.34.692,SL_sali_41,2021.2.3,Win32,29.94011976,2.2824,,,45,0,45,0,1,,,,,,,,
,,"[""circle"",""green"",""hori"",""left"",[150,0],[-150,0]]",circle,green,hori,left,"[150,0]","[-150,0]",left,1,,,,,,001,2025-03-17_15h16.34.692,SL_sali_41,2021.2.3,Win32,29.94011976,1.923,,,46,0,46,0,1,,,,,,,,
,,"[""circle"",""red"",""hori"",""left"",[106,106],[-150,0]]",circle,red,hori,left,"[106,106]","[-150,0]",left,1,,,,,,001,2025-03-17_15h16.34.692,SL_sali_41,2021.2.3,Win32,29.94011976,1.9961,,,47,0,47,0,1,,,,,,,,
,,"[""diamond"",""no_dis"",""vert"",""up"",[99999,99999],[-106,-106]]",diamond,no_dis,vert,up,"[99999,99999]","[-106,-106]",up,1,,,,,,001,2025-03-17_15h16.34.692,SL_sali_41,2021.2.3,Win32,29.94011976,2.0385,,,48,0,48,0,1,,,,,,,,
,,"[""diamond"",""green"",""hori"",""left"",[-150,0],[106,-106]]",diamond,green,hori,left,"[-150,0]","[106,-106]",left,1,,,,,,001,2025-03-17_15h16.34.692,SL_sali_41,2021.2.3,Win32,29.94011976,2.5686,,,49,0,49,0,1,,,,,,,,
,,"[""circle"",""green"",""vert"",""up"",[-106,-106],[0,150]]",circle,green,vert,up,"[-106,-106]","[0,150]",up,1,,,,,,001,2025-03-17_15h16.34.692,SL_sali_41,2021.2.3,Win32,29.94011976,2.9198,,,50,0,50,0,1,,,,,,,,
,,"[""circle"",""red"",""vert"",""up"",[106,106],[-150,0]]",circle,red,vert,up,"[106,106]","[-150,0]",up,1,,,,,,001,2025-03-17_15h16.34.692,SL_sali_41,2021.2.3,Win32,29.94011976,2.2222,,,51,0,51,0,1,,,,,,,,
,,"[""circle"",""red"",""vert"",""up"",[106,106],[0,150]]",circle,red,vert,up,"[106,106]","[0,150]",up,1,,,,,,001,2025-03-17_15h16.34.692,SL_sali_41,2021.2.3,Win32,29.94011976,2.5048,,,52,0,52,0,1,,,,,,,,
,,"[""circle"",""no_dis"",""hori"",""left"",[99999,99999],[0,-150]]",circle,no_dis,hori,left,"[99999,99999]","[0,-150]",left,1,,,,,,001,2025-03-17_15h16.34.692,SL_sali_41,2021.2.3,Win32,29.94011976,2.2196,,,53,0,53,0,1,,,,,,,,
,,"[""diamond"",""green"",""vert"",""up"",[-106,-106],[106,-106]]",diamond,green,vert,up,"[-106,-106]","[106,-106]",up,1,,,,,,001,2025-03-17_15h16.34.692,SL_sali_41,2021.2.3,Win32,29.94011976,2.426,,,54,0,54,0,1,,,,,,,,
,,"[""diamond"",""no_dis"",""vert"",""up"",[99999,99999],[-150,0]]",diamond,no_dis,vert,up,"[99999,99999]","[-150,0]",up,1,,,,,,001,2025-03-17_15h16.34.692,SL_sali_41,2021.2.3,Win32,29.94011976,2.1896,,,55,0,55,0,1,,,,,,,,
,,"[""diamond"",""green"",""hori"",""left"",[150,0],[-150,0]]",diamond,green,hori,left,"[150,0]","[-150,0]",left,1,,,,,,001,2025-03-17_15h16.34.692,SL_sali_41,2021.2.3,Win32,29.94011976,2.6787,,,56,0,56,0,1,,,,,,,,
,,"[""circle"",""red"",""vert"",""up"",[106,106],[0,-150]]",circle,red,vert,up,"[106,106]","[0,-150]",up,1,,,,,,001,2025-03-17_15h16.34.692,SL_sali_41,2021.2.3,Win32,29.94011976,2.5448,,,57,0,57,0,1,,,,,,,,
,,"[""circle"",""red"",""vert"",""up"",[106,106],[0,150]]",circle,red,vert,up,"[106,106]","[0,150]",up,1,,,,,,001,2025-03-17_15h16.34.692,SL_sali_41,2021.2.3,Win32,29.94011976,2.2327,,,58,0,58,0,1,,,,,,,,
,,"[""circle"",""green"",""hori"",""left"",[0,-150],[106,106]]",circle,green,hori,left,"[0,-150]","[106,106]",left,1,,,,,,001,2025-03-17_15h16.34.692,SL_sali_41,2021.2.3,Win32,29.94011976,2.557,,,59,0,59,0,1,,,,,,,,
,,"[""circle"",""red"",""vert"",""up"",[106,-106],[0,-150]]",circle,red,vert,up,"[106,-106]","[0,-150]",up,1,,,,,,001,2025-03-17_15h16.34.692,SL_sali_41,2021.2.3,Win32,29.94011976,2.2297,,,60,0,60,0,1,,,,,,,,
,,"[""diamond"",""red"",""hori"",""left"",[150,0],[0,150]]",diamond,red,hori,left,"[150,0]","[0,150]",left,1,,,,,,001,2025-03-17_15h16.34.692,SL_sali_41,2021.2.3,Win32,29.94011976,2.6595,,,61,0,61,0,1,,,,,,,,
,,"[""circle"",""no_dis"",""hori"",""left"",[99999,99999],[150,0]]",circle,no_dis,hori,left,"[99999,99999]","[150,0]",left,1,,,,,,001,2025-03-17_15h16.34.692,SL_sali_41,2021.2.3,Win32,29.94011976,2.3051,,,62,0,62,0,1,,,,,,,,
,,"[""circle"",""no_dis"",""vert"",""up"",[99999,99999],[-106,-106]]",circle,no_dis,vert,up,"[99999,99999]","[-106,-106]",up,1,,,,,,001,2025-03-17_15h16.34.692,SL_sali_41,2021.2.3,Win32,29.94011976,1.653,,,63,0,63,0,1,,,,,,,,
,,"[""diamond"",""no_dis"",""hori"",""left"",[99999,99999],[106,-106]]",diamond,no_dis,hori,left,"[99999,99999]","[106,-106]",left,1,,,,,,001,2025-03-17_15h16.34.692,SL_sali_41,2021.2.3,Win32,29.94011976,1.5797,,,64,0,64,0,1,,,,,,,,
,,"[""circle"",""green"",""vert"",""up"",[0,150],[106,106]]",circle,green,vert,up,"[0,150]","[106,106]",left,0,,,,,,001,2025-03-17_15h16.34.692,SL_sali_41,2021.2.3,Win32,29.94011976,2.5427,,,65,0,65,0,1,,,,,,,,
,,"[""diamond"",""green"",""hori"",""left"",[-150,0],[106,-106]]",diamond,green,hori,left,"[-150,0]","[106,-106]",left,1,,,,,,001,2025-03-17_15h16.34.692,SL_sali_41,2021.2.3,Win32,29.94011976,2.7785,,,66,0,66,0,1,,,,,,,,
,,"[""diamond"",""red"",""vert"",""up"",[106,106],[-106,-106]]",diamond,red,vert,up,"[106,106]","[-106,-106]",up,1,,,,,,001,2025-03-17_15h16.34.692,SL_sali_41,2021.2.3,Win32,29.94011976,1.62,,,67,0,67,0,1,,,,,,,,
,,"[""diamond"",""red"",""hori"",""left"",[-150,0],[-106,-106]]",diamond,red,hori,left,"[-150,0]","[-106,-106]",left,1,,,,,,001,2025-03-17_15h16.34.692,SL_sali_41,2021.2.3,Win32,29.94011976,2.3727,,,68,0,68,0,1,,,,,,,,
,,"[""diamond"",""red"",""hori"",""left"",[-106,106],[0,150]]",diamond,red,hori,left,"[-106,106]","[0,150]",left,1,,,,,,001,2025-03-17_15h16.34.692,SL_sali_41,2021.2.3,Win32,29.94011976,2.8245,,,69,0,69,0,1,,,,,,,,
,,"[""circle"",""green"",""hori"",""left"",[0,-150],[106,-106]]",circle,green,hori,left,"[0,-150]","[106,-106]",,0,,,,,,001,2025-03-17_15h16.34.692,SL_sali_41,2021.2.3,Win32,29.94011976,,,,70,0,70,0,1,,,,,,,,
,,"[""diamond"",""green"",""vert"",""up"",[106,106],[0,-150]]",diamond,green,vert,up,"[106,106]","[0,-150]",up,1,,,,,,001,2025-03-17_15h16.34.692,SL_sali_41,2021.2.3,Win32,29.94011976,2.0271,,,71,0,71,0,1,,,,,,,,
,,"[""diamond"",""red"",""vert"",""up"",[150,0],[106,106]]",diamond,red,vert,up,"[150,0]","[106,106]",up,1,,,,,,001,2025-03-17_15h16.34.692,SL_sali_41,2021.2.3,Win32,29.94011976,2.5073,,,72,0,72,0,1,,,,,,,,
,,"[""diamond"",""red"",""vert"",""up"",[-106,106],[0,150]]",diamond,red,vert,up,"[-106,106]","[0,150]",up,1,,,,,,001,2025-03-17_15h16.34.692,SL_sali_41,2021.2.3,Win32,29.94011976,1.7034,,,73,0,73,0,1,,,,,,,,
,,"[""circle"",""green"",""hori"",""left"",[0,-150],[106,-106]]",circle,green,hori,left,"[0,-150]","[106,-106]",left,1,,,,,,001,2025-03-17_15h16.34.692,SL_sali_41,2021.2.3,Win32,29.94011976,2.1211,,,74,0,74,0,1,,,,,,,,
,,"[""diamond"",""green"",""vert"",""up"",[0,150],[-106,-106]]",diamond,green,vert,up,"[0,150]","[-106,-106]",up,1,,,,,,001,2025-03-17_15h16.34.692,SL_sali_41,2021.2.3,Win32,29.94011976,2.2897,,,75,0,75,0,1,,,,,,,,
,,"[""diamond"",""red"",""hori"",""left"",[150,0],[0,-150]]",diamond,red,hori,left,"[150,0]","[0,-150]",left,1,,,,,,001,2025-03-17_15h16.34.692,SL_sali_41,2021.2.3,Win32,29.94011976,1.8488,,,76,0,76,0,1,,,,,,,,
,,"[""circle"",""green"",""hori"",""left"",[106,106],[150,0]]",circle,green,hori,left,"[106,106]","[150,0]",left,1,,,,,,001,2025-03-17_15h16.34.692,SL_sali_41,2021.2.3,Win32,29.94011976,1.7918,,,77,0,77,0,1,,,,,,,,
,,"[""diamond"",""red"",""hori"",""left"",[0,-150],[150,0]]",diamond,red,hori,left,"[0,-150]","[150,0]",left,1,,,,,,001,2025-03-17_15h16.34.692,SL_sali_41,2021.2.3,Win32,29.94011976,2.0611,,,78,0,78,0,1,,,,,,,,
,,"[""circle"",""red"",""hori"",""left"",[106,106],[0,150]]",circle,red,hori,left,"[106,106]","[0,150]",,0,,,,,,001,2025-03-17_15h16.34.692,SL_sali_41,2021.2.3,Win32,29.94011976,,,,79,0,79,0,1,,,,,,,,
,,"[""diamond"",""red"",""hori"",""left"",[106,-106],[0,-150]]",diamond,red,hori,left,"[106,-106]","[0,-150]",left,1,,,,,,001,2025-03-17_15h16.34.692,SL_sali_41,2021.2.3,Win32,29.94011976,2.1934,,,80,0,80,0,1,,,,,,,,
,,"[""diamond"",""no_dis"",""vert"",""up"",[99999,99999],[106,-106]]",diamond,no_dis,vert,up,"[99999,99999]","[106,-106]",,0,,,,,,001,2025-03-17_15h16.34.692,SL_sali_41,2021.2.3,Win32,29.94011976,,,,81,0,81,0,1,,,,,,,,
,,"[""diamond"",""green"",""hori"",""left"",[106,106],[106,-106]]",diamond,green,hori,left,"[106,106]","[106,-106]",left,1,,,,,,001,2025-03-17_15h16.34.692,SL_sali_41,2021.2.3,Win32,29.94011976,1.8265,,,82,0,82,0,1,,,,,,,,
,,"[""circle"",""green"",""vert"",""up"",[106,-106],[150,0]]",circle,green,vert,up,"[106,-106]","[150,0]",up,1,,,,,,001,2025-03-17_15h16.34.692,SL_sali_41,2021.2.3,Win32,29.94011976,1.9297,,,83,0,83,0,1,,,,,,,,
,,"[""circle"",""no_dis"",""vert"",""up"",[99999,99999],[0,150]]",circle,no_dis,vert,up,"[99999,99999]","[0,150]",up,1,,,,,,001,2025-03-17_15h16.34.692,SL_sali_41,2021.2.3,Win32,29.94011976,1.6022,,,84,0,84,0,1,,,,,,,,
,,"[""circle"",""red"",""vert"",""up"",[-106,106],[0,-150]]",circle,red,vert,up,"[-106,106]","[0,-150]",up,1,,,,,,001,2025-03-17_15h16.34.692,SL_sali_41,2021.2.3,Win32,29.94011976,1.7039,,,85,0,85,0,1,,,,,,,,
,,"[""circle"",""red"",""vert"",""up"",[106,106],[150,0]]",circle,red,vert,up,"[106,106]","[150,0]",up,1,,,,,,001,2025-03-17_15h16.34.692,SL_sali_41,2021.2.3,Win32,29.94011976,1.3196,,,86,0,86,0,1,,,,,,,,
,,"[""circle"",""red"",""hori"",""left"",[-150,0],[0,150]]",circle,red,hori,left,"[-150,0]","[0,150]",left,1,,,,,,001,2025-03-17_15h16.34.692,SL_sali_41,2021.2.3,Win32,29.94011976,1.5289,,,87,0,87,0,1,,,,,,,,
,,"[""circle"",""no_dis"",""hori"",""left"",[99999,99999],[-150,0]]",circle,no_dis,hori,left,"[99999,99999]","[-150,0]",up,0,,,,,,001,2025-03-17_15h16.34.692,SL_sali_41,2021.2.3,Win32,29.94011976,2.4715,,,88,0,88,0,1,,,,,,,,
,,"[""diamond"",""no_dis"",""vert"",""up"",[99999,99999],[-106,106]]",diamond,no_dis,vert,up,"[99999,99999]","[-106,106]",,0,,,,,,001,2025-03-17_15h16.34.692,SL_sali_41,2021.2.3,Win32,29.94011976,,,,89,0,89,0,1,,,,,,,,
,,"[""diamond"",""green"",""vert"",""up"",[0,-150],[-106,-106]]",diamond,green,vert,up,"[0,-150]","[-106,-106]",left,0,,,,,,001,2025-03-17_15h16.34.692,SL_sali_41,2021.2.3,Win32,29.94011976,2.5299,,,90,0,90,0,1,,,,,,,,
,,"[""circle"",""green"",""hori"",""left"",[106,-106],[0,-150]]",circle,green,hori,left,"[106,-106]","[0,-150]",left,1,,,,,,001,2025-03-17_15h16.34.692,SL_sali_41,2021.2.3,Win32,29.94011976,2.3402,,,91,0,91,0,1,,,,,,,,
,,"[""diamond"",""red"",""vert"",""up"",[150,0],[0,150]]",diamond,red,vert,up,"[150,0]","[0,150]",up,1,,,,,,001,2025-03-17_15h16.34.692,SL_sali_41,2021.2.3,Win32,29.94011976,1.8114,,,92,0,92,0,1,,,,,,,,
,,"[""diamond"",""green"",""hori"",""left"",[-106,106],[0,150]]",diamond,green,hori,left,"[-106,106]","[0,150]",left,1,,,,,,001,2025-03-17_15h16.34.692,SL_sali_41,2021.2.3,Win32,29.94011976,1.6754,,,93,0,93,0,1,,,,,,,,
,,"[""circle"",""red"",""hori"",""left"",[150,0],[0,150]]",circle,red,hori,left,"[150,0]","[0,150]",left,1,,,,,,001,2025-03-17_15h16.34.692,SL_sali_41,2021.2.3,Win32,29.94011976,2.0319,,,94,0,94,0,1,,,,,,,,
,,"[""diamond"",""red"",""hori"",""left"",[106,106],[0,150]]",diamond,red,hori,left,"[106,106]","[0,150]",left,1,,,,,,001,2025-03-17_15h16.34.692,SL_sali_41,2021.2.3,Win32,29.94011976,1.4071,,,95,0,95,0,1,,,,,,,,
,,"[""circle"",""green"",""hori"",""left"",[0,150],[106,106]]",circle,green,hori,left,"[0,150]","[106,106]",left,1,,,,,,001,2025-03-17_15h16.34.692,SL_sali_41,2021.2.3,Win32,29.94011976,2.2508,,,96,0,96,0,1,,,,,,,,
,,"[""circle"",""green"",""vert"",""up"",[0,150],[106,106]]",circle,green,vert,up,"[0,150]","[106,106]",up,1,,,,,,001,2025-03-17_15h16.34.692,SL_sali_41,2021.2.3,Win32,29.94011976,1.5861,,,97,0,97,0,1,,,,,,,,
,,"[""diamond"",""green"",""vert"",""up"",[106,106],[-106,106]]",diamond,green,vert,up,"[106,106]","[-106,106]",up,1,,,,,,001,2025-03-17_15h16.34.692,SL_sali_41,2021.2.3,Win32,29.94011976,1.9108,,,98,0,98,0,1,,,,,,,,
,,"[""diamond"",""no_dis"",""vert"",""up"",[99999,99999],[150,0]]",diamond,no_dis,vert,up,"[99999,99999]","[150,0]",up,1,,,,,,001,2025-03-17_15h16.34.692,SL_sali_41,2021.2.3,Win32,29.94011976,1.5854,,,99,0,99,0,1,,,,,,,,
,,"[""circle"",""no_dis"",""hori"",""left"",[99999,99999],[106,106]]",circle,no_dis,hori,left,"[99999,99999]","[106,106]",left,1,,,,,,001,2025-03-17_15h16.34.692,SL_sali_41,2021.2.3,Win32,29.94011976,2.7576,,,100,0,100,0,1,,,,,,,,
,,"[""circle"",""green"",""vert"",""up"",[106,106],[0,150]]",circle,green,vert,up,"[106,106]","[0,150]",up,1,,,,,,001,2025-03-17_15h16.34.692,SL_sali_41,2021.2.3,Win32,29.94011976,2.0915,,,101,0,101,0,1,,,,,,,,
,,"[""circle"",""green"",""hori"",""left"",[0,-150],[-106,106]]",circle,green,hori,left,"[0,-150]","[-106,106]",up,0,,,,,,001,2025-03-17_15h16.34.692,SL_sali_41,2021.2.3,Win32,29.94011976,2.0526,,,102,0,102,0,1,,,,,,,,
,,"[""circle"",""green"",""vert"",""up"",[0,150],[106,-106]]",circle,green,vert,up,"[0,150]","[106,-106]",up,1,,,,,,001,2025-03-17_15h16.34.692,SL_sali_41,2021.2.3,Win32,29.94011976,1.6252,,,103,0,103,0,1,,,,,,,,
,,"[""diamond"",""red"",""hori"",""left"",[0,-150],[-106,-106]]",diamond,red,hori,left,"[0,-150]","[-106,-106]",left,1,,,,,,001,2025-03-17_15h16.34.692,SL_sali_41,2021.2.3,Win32,29.94011976,2.213,,,104,0,104,0,1,,,,,,,,
,,"[""diamond"",""green"",""vert"",""up"",[106,106],[150,0]]",diamond,green,vert,up,"[106,106]","[150,0]",up,1,,,,,,001,2025-03-17_15h16.34.692,SL_sali_41,2021.2.3,Win32,29.94011976,2.002,,,105,0,105,0,1,,,,,,,,
,,"[""circle"",""red"",""hori"",""left"",[106,106],[106,-106]]",circle,red,hori,left,"[106,106]","[106,-106]",left,1,,,,,,001,2025-03-17_15h16.34.692,SL_sali_41,2021.2.3,Win32,29.94011976,2.102,,,106,0,106,0,1,,,,,,,,
,,"[""circle"",""green"",""vert"",""up"",[-106,106],[0,150]]",circle,green,vert,up,"[-106,106]","[0,150]",up,1,,,,,,001,2025-03-17_15h16.34.692,SL_sali_41,2021.2.3,Win32,29.94011976,2.0928,,,107,0,107,0,1,,,,,,,,
,,"[""diamond"",""red"",""vert"",""up"",[106,106],[150,0]]",diamond,red,vert,up,"[106,106]","[150,0]",up,1,,,,,,001,2025-03-17_15h16.34.692,SL_sali_41,2021.2.3,Win32,29.94011976,1.5628,,,108,0,108,0,1,,,,,,,,
,,"[""circle"",""no_dis"",""hori"",""left"",[99999,99999],[-106,-106]]",circle,no_dis,hori,left,"[99999,99999]","[-106,-106]",up,0,,,,,,001,2025-03-17_15h16.34.692,SL_sali_41,2021.2.3,Win32,29.94011976,2.3164,,,109,0,109,0,1,,,,,,,,
,,"[""diamond"",""red"",""vert"",""up"",[106,106],[0,150]]",diamond,red,vert,up,"[106,106]","[0,150]",up,1,,,,,,001,2025-03-17_15h16.34.692,SL_sali_41,2021.2.3,Win32,29.94011976,2.3927,,,110,0,110,0,1,,,,,,,,
,,"[""diamond"",""no_dis"",""vert"",""up"",[99999,99999],[-150,0]]",diamond,no_dis,vert,up,"[99999,99999]","[-150,0]",up,1,,,,,,001,2025-03-17_15h16.34.692,SL_sali_41,2021.2.3,Win32,29.94011976,1.4467,,,111,0,111,0,1,,,,,,,,
,,"[""circle"",""no_dis"",""vert"",""up"",[99999,99999],[106,106]]",circle,no_dis,vert,up,"[99999,99999]","[106,106]",up,1,,,,,,001,2025-03-17_15h16.34.692,SL_sali_41,2021.2.3,Win32,29.94011976,1.7335,,,112,0,112,0,1,,,,,,,,
,,"[""circle"",""green"",""hori"",""left"",[-150,0],[0,150]]",circle,green,hori,left,"[-150,0]","[0,150]",left,1,,,,,,001,2025-03-17_15h16.34.692,SL_sali_41,2021.2.3,Win32,29.94011976,2.5013,,,113,0,113,0,1,,,,,,,,
,,"[""circle"",""red"",""hori"",""left"",[-150,0],[106,-106]]",circle,red,hori,left,"[-150,0]","[106,-106]",left,1,,,,,,001,2025-03-17_15h16.34.692,SL_sali_41,2021.2.3,Win32,29.94011976,2.362,,,114,0,114,0,1,,,,,,,,
,,"[""circle"",""no_dis"",""hori"",""left"",[99999,99999],[0,-150]]",circle,no_dis,hori,left,"[99999,99999]","[0,-150]",left,1,,,,,,001,2025-03-17_15h16.34.692,SL_sali_41,2021.2.3,Win32,29.94011976,2.1364,,,115,0,115,0,1,,,,,,,,
,,"[""diamond"",""no_dis"",""hori"",""left"",[99999,99999],[0,-150]]",diamond,no_dis,hori,left,"[99999,99999]","[0,-150]",left,1,,,,,,001,2025-03-17_15h16.34.692,SL_sali_41,2021.2.3,Win32,29.94011976,1.9504,,,116,0,116,0,1,,,,,,,,
,,"[""circle"",""red"",""hori"",""left"",[106,106],[-106,106]]",circle,red,hori,left,"[106,106]","[-106,106]",up,0,,,,,,001,2025-03-17_15h16.34.692,SL_sali_41,2021.2.3,Win32,29.94011976,2.2613,,,117,0,117,0,1,,,,,,,,
,,"[""diamond"",""green"",""vert"",""up"",[0,150],[-106,-106]]",diamond,green,vert,up,"[0,150]","[-106,-106]",up,1,,,,,,001,2025-03-17_15h16.34.692,SL_sali_41,2021.2.3,Win32,29.94011976,1.3947,,,118,0,118,0,1,,,,,,,,
,,"[""circle"",""no_dis"",""vert"",""up"",[99999,99999],[0,150]]",circle,no_dis,vert,up,"[99999,99999]","[0,150]",up,1,,,,,,001,2025-03-17_15h16.34.692,SL_sali_41,2021.2.3,Win32,29.94011976,2.4147,,,119,0,119,0,1,,,,,,,,
,,"[""circle"",""no_dis"",""vert"",""up"",[99999,99999],[106,106]]",circle,no_dis,vert,up,"[99999,99999]","[106,106]",left,0,,,,,,001,2025-03-17_15h16.34.692,SL_sali_41,2021.2.3,Win32,29.94011976,2.4879,,,120,0,120,0,1,,,,,,,,
,,"[""diamond"",""green"",""vert"",""up"",[106,106],[-106,106]]",diamond,green,vert,up,"[106,106]","[-106,106]",up,1,,,,,,001,2025-03-17_15h16.34.692,SL_sali_41,2021.2.3,Win32,29.94011976,1.476,,,121,0,121,0,1,,,,,,,,
,,"[""circle"",""red"",""vert"",""up"",[106,106],[-150,0]]",circle,red,vert,up,"[106,106]","[-150,0]",up,1,,,,,,001,2025-03-17_15h16.34.692,SL_sali_41,2021.2.3,Win32,29.94011976,1.9202,,,122,0,122,0,1,,,,,,,,
,,"[""diamond"",""no_dis"",""vert"",""up"",[99999,99999],[-150,0]]",diamond,no_dis,vert,up,"[99999,99999]","[-150,0]",up,1,,,,,,001,2025-03-17_15h16.34.692,SL_sali_41,2021.2.3,Win32,29.94011976,1.8424,,,123,0,123,0,1,,,,,,,,
,,"[""circle"",""green"",""vert"",""up"",[0,-150],[106,-106]]",circle,green,vert,up,"[0,-150]","[106,-106]",,0,,,,,,001,2025-03-17_15h16.34.692,SL_sali_41,2021.2.3,Win32,29.94011976,,,,124,0,124,0,1,,,,,,,,
,,"[""circle"",""red"",""vert"",""up"",[-106,-106],[-106,106]]",circle,red,vert,up,"[-106,-106]","[-106,106]",up,1,,,,,,001,2025-03-17_15h16.34.692,SL_sali_41,2021.2.3,Win32,29.94011976,1.5391,,,125,0,125,0,1,,,,,,,,
,,"[""diamond"",""red"",""vert"",""up"",[-150,0],[-106,-106]]",diamond,red,vert,up,"[-150,0]","[-106,-106]",up,1,,,,,,001,2025-03-17_15h16.34.692,SL_sali_41,2021.2.3,Win32,29.94011976,2.6202,,,126,0,126,0,1,,,,,,,,
,,"[""circle"",""no_dis"",""hori"",""left"",[99999,99999],[-106,106]]",circle,no_dis,hori,left,"[99999,99999]","[-106,106]",left,1,,,,,,001,2025-03-17_15h16.34.692,SL_sali_41,2021.2.3,Win32,29.94011976,2.1507,,,127,0,127,0,1,,,,,,,,
,,,,,,,,,,,,,,,,001,2025-03-17_15h16.34.692,SL_sali_41,2021.2.3,Win32,29.94011976,,,,,,,,,1,space,136.2389,0,0,0,0,1
,,"[""diamond"",""no_dis"",""vert"",""up"",[99999,99999],[-150,0]]",diamond,no_dis,vert,up,"[99999,99999]","[-150,0]",up,1,,,,,,001,2025-03-17_15h16.34.692,SL_sali_41,2021.2.3,Win32,29.94011976,2.1478,,,0,0,0,0,1,,,,,,,,
,,"[""circle"",""green"",""hori"",""left"",[-150,0],[0,150]]",circle,green,hori,left,"[-150,0]","[0,150]",left,1,,,,,,001,2025-03-17_15h16.34.692,SL_sali_41,2021.2.3,Win32,29.94011976,1.6461,,,1,0,1,0,1,,,,,,,,
,,"[""diamond"",""green"",""vert"",""up"",[106,106],[-106,106]]",diamond,green,vert,up,"[106,106]","[-106,106]",up,1,,,,,,001,2025-03-17_15h16.34.692,SL_sali_41,2021.2.3,Win32,29.94011976,1.6189,,,2,0,2,0,1,,,,,,,,
,,"[""circle"",""green"",""vert"",""up"",[-106,106],[0,150]]",circle,green,vert,up,"[-106,106]","[0,150]",up,1,,,,,,001,2025-03-17_15h16.34.692,SL_sali_41,2021.2.3,Win32,29.94011976,2.3792,,,3,0,3,0,1,,,,,,,,
,,"[""diamond"",""green"",""vert"",""up"",[0,150],[-106,-106]]",diamond,green,vert,up,"[0,150]","[-106,-106]",up,1,,,,,,001,2025-03-17_15h16.34.692,SL_sali_41,2021.2.3,Win32,29.94011976,1.9679,,,4,0,4,0,1,,,,,,,,
,,"[""circle"",""no_dis"",""vert"",""up"",[99999,99999],[-106,106]]",circle,no_dis,vert,up,"[99999,99999]","[-106,106]",up,1,,,,,,001,2025-03-17_15h16.34.692,SL_sali_41,2021.2.3,Win32,29.94011976,1.9878,,,5,0,5,0,1,,,,,,,,
,,"[""diamond"",""green"",""hori"",""left"",[0,150],[-150,0]]",diamond,green,hori,left,"[0,150]","[-150,0]",left,1,,,,,,001,2025-03-17_15h16.34.692,SL_sali_41,2021.2.3,Win32,29.94011976,1.4905,,,6,0,6,0,1,,,,,,,,
,,"[""diamond"",""green"",""hori"",""left"",[106,106],[-106,106]]",diamond,green,hori,left,"[106,106]","[-106,106]",left,1,,,,,,001,2025-03-17_15h16.34.692,SL_sali_41,2021.2.3,Win32,29.94011976,1.6876,,,7,0,7,0,1,,,,,,,,
,,"[""circle"",""no_dis"",""vert"",""up"",[99999,99999],[0,150]]",circle,no_dis,vert,up,"[99999,99999]","[0,150]",up,1,,,,,,001,2025-03-17_15h16.34.692,SL_sali_41,2021.2.3,Win32,29.94011976,2.031,,,8,0,8,0,1,,,,,,,,
,,"[""circle"",""green"",""hori"",""left"",[106,106],[-150,0]]",circle,green,hori,left,"[106,106]","[-150,0]",left,1,,,,,,001,2025-03-17_15h16.34.692,SL_sali_41,2021.2.3,Win32,29.94011976,1.6184,,,9,0,9,0,1,,,,,,,,
,,"[""circle"",""no_dis"",""vert"",""up"",[99999,99999],[106,-106]]",circle,no_dis,vert,up,"[99999,99999]","[106,-106]",up,1,,,,,,001,2025-03-17_15h16.34.692,SL_sali_41,2021.2.3,Win32,29.94011976,1.2524,,,10,0,10,0,1,,,,,,,,
,,"[""circle"",""green"",""hori"",""left"",[106,-106],[0,-150]]",circle,green,hori,left,"[106,-106]","[0,-150]",left,1,,,,,,001,2025-03-17_15h16.34.692,SL_sali_41,2021.2.3,Win32,29.94011976,1.3871,,,11,0,11,0,1,,,,,,,,
,,"[""circle"",""green"",""vert"",""up"",[106,-106],[150,0]]",circle,green,vert,up,"[106,-106]","[150,0]",up,1,,,,,,001,2025-03-17_15h16.34.692,SL_sali_41,2021.2.3,Win32,29.94011976,1.5097,,,12,0,12,0,1,,,,,,,,
,,"[""circle"",""red"",""vert"",""up"",[-106,-106],[0,150]]",circle,red,vert,up,"[-106,-106]","[0,150]",up,1,,,,,,001,2025-03-17_15h16.34.692,SL_sali_41,2021.2.3,Win32,29.94011976,1.3925,,,13,0,13,0,1,,,,,,,,
,,"[""diamond"",""green"",""hori"",""left"",[-106,106],[0,150]]",diamond,green,hori,left,"[-106,106]","[0,150]",left,1,,,,,,001,2025-03-17_15h16.34.692,SL_sali_41,2021.2.3,Win32,29.94011976,2.4291,,,14,0,14,0,1,,,,,,,,
,,"[""circle"",""red"",""hori"",""left"",[-150,0],[0,150]]",circle,red,hori,left,"[-150,0]","[0,150]",left,1,,,,,,001,2025-03-17_15h16.34.692,SL_sali_41,2021.2.3,Win32,29.94011976,1.648,,,15,0,15,0,1,,,,,,,,
,,"[""circle"",""green"",""hori"",""left"",[0,-150],[106,-106]]",circle,green,hori,left,"[0,-150]","[106,-106]",left,1,,,,,,001,2025-03-17_15h16.34.692,SL_sali_41,2021.2.3,Win32,29.94011976,1.4527,,,16,0,16,0,1,,,,,,,,
,,"[""diamond"",""green"",""hori"",""left"",[-150,0],[106,-106]]",diamond,green,hori,left,"[-150,0]","[106,-106]",left,1,,,,,,001,2025-03-17_15h16.34.692,SL_sali_41,2021.2.3,Win32,29.94011976,1.6844,,,17,0,17,0,1,,,,,,,,
,,"[""circle"",""red"",""hori"",""left"",[150,0],[0,150]]",circle,red,hori,left,"[150,0]","[0,150]",left,1,,,,,,001,2025-03-17_15h16.34.692,SL_sali_41,2021.2.3,Win32,29.94011976,2.3863,,,18,0,18,0,1,,,,,,,,
,,"[""diamond"",""red"",""hori"",""left"",[106,-106],[106,106]]",diamond,red,hori,left,"[106,-106]","[106,106]",,0,,,,,,001,2025-03-17_15h16.34.692,SL_sali_41,2021.2.3,Win32,29.94011976,,,,19,0,19,0,1,,,,,,,,
,,"[""diamond"",""green"",""vert"",""up"",[-106,106],[-150,0]]",diamond,green,vert,up,"[-106,106]","[-150,0]",up,1,,,,,,001,2025-03-17_15h16.34.692,SL_sali_41,2021.2.3,Win32,29.94011976,1.5429,,,20,0,20,0,1,,,,,,,,
,,"[""diamond"",""no_dis"",""hori"",""left"",[99999,99999],[0,-150]]",diamond,no_dis,hori,left,"[99999,99999]","[0,-150]",left,1,,,,,,001,2025-03-17_15h16.34.692,SL_sali_41,2021.2.3,Win32,29.94011976,1.3957,,,21,0,21,0,1,,,,,,,,
,,"[""diamond"",""red"",""hori"",""left"",[-150,0],[-106,-106]]",diamond,red,hori,left,"[-150,0]","[-106,-106]",left,1,,,,,,001,2025-03-17_15h16.34.692,SL_sali_41,2021.2.3,Win32,29.94011976,2.4035,,,22,0,22,0,1,,,,,,,,
,,"[""circle"",""no_dis"",""hori"",""left"",[99999,99999],[0,-150]]",circle,no_dis,hori,left,"[99999,99999]","[0,-150]",left,1,,,,,,001,2025-03-17_15h16.34.692,SL_sali_41,2021.2.3,Win32,29.94011976,1.649,,,23,0,23,0,1,,,,,,,,
,,"[""diamond"",""red"",""hori"",""left"",[106,106],[0,150]]",diamond,red,hori,left,"[106,106]","[0,150]",left,1,,,,,,001,2025-03-17_15h16.34.692,SL_sali_41,2021.2.3,Win32,29.94011976,2.5233,,,24,0,24,0,1,,,,,,,,
,,"[""diamond"",""no_dis"",""vert"",""up"",[99999,99999],[0,150]]",diamond,no_dis,vert,up,"[99999,99999]","[0,150]",up,1,,,,,,001,2025-03-17_15h16.34.692,SL_sali_41,2021.2.3,Win32,29.94011976,1.5753,,,25,0,25,0,1,,,,,,,,
,,"[""diamond"",""red"",""hori"",""left"",[-106,106],[0,150]]",diamond,red,hori,left,"[-106,106]","[0,150]",left,1,,,,,,001,2025-03-17_15h16.34.692,SL_sali_41,2021.2.3,Win32,29.94011976,1.9684,,,26,0,26,0,1,,,,,,,,
,,"[""diamond"",""no_dis"",""vert"",""up"",[99999,99999],[-150,0]]",diamond,no_dis,vert,up,"[99999,99999]","[-150,0]",up,1,,,,,,001,2025-03-17_15h16.34.692,SL_sali_41,2021.2.3,Win32,29.94011976,1.2698,,,27,0,27,0,1,,,,,,,,
,,"[""diamond"",""no_dis"",""vert"",""up"",[99999,99999],[-150,0]]",diamond,no_dis,vert,up,"[99999,99999]","[-150,0]",up,1,,,,,,001,2025-03-17_15h16.34.692,SL_sali_41,2021.2.3,Win32,29.94011976,1.149,,,28,0,28,0,1,,,,,,,,
,,"[""diamond"",""no_dis"",""vert"",""up"",[99999,99999],[106,-106]]",diamond,no_dis,vert,up,"[99999,99999]","[106,-106]",up,1,,,,,,001,2025-03-17_15h16.34.692,SL_sali_41,2021.2.3,Win32,29.94011976,1.3769,,,29,0,29,0,1,,,,,,,,
,,"[""circle"",""green"",""vert"",""up"",[106,106],[0,150]]",circle,green,vert,up,"[106,106]","[0,150]",up,1,,,,,,001,2025-03-17_15h16.34.692,SL_sali_41,2021.2.3,Win32,29.94011976,1.7511,,,30,0,30,0,1,,,,,,,,
,,"[""diamond"",""green"",""vert"",""up"",[106,106],[0,150]]",diamond,green,vert,up,"[106,106]","[0,150]",up,1,,,,,,001,2025-03-17_15h16.34.692,SL_sali_41,2021.2.3,Win32,29.94011976,1.9026,,,31,0,31,0,1,,,,,,,,
,,"[""diamond"",""no_dis"",""hori"",""left"",[99999,99999],[-106,-106]]",diamond,no_dis,hori,left,"[99999,99999]","[-106,-106]",left,1,,,,,,001,2025-03-17_15h16.34.692,SL_sali_41,2021.2.3,Win32,29.94011976,1.2438,,,32,0,32,0,1,,,,,,,,
,,"[""circle"",""red"",""hori"",""left"",[106,106],[106,-106]]",circle,red,hori,left,"[106,106]","[106,-106]",left,1,,,,,,001,2025-03-17_15h16.34.692,SL_sali_41,2021.2.3,Win32,29.94011976,1.4265,,,33,0,33,0,1,,,,,,,,
,,"[""circle"",""red"",""hori"",""left"",[106,106],[-106,106]]",circle,red,hori,left,"[106,106]","[-106,106]",left,1,,,,,,001,2025-03-17_15h16.34.692,SL_sali_41,2021.2.3,Win32,29.94011976,1.4791,,,34,0,34,0,1,,,,,,,,
,,"[""circle"",""red"",""hori"",""left"",[-106,-106],[-150,0]]",circle,red,hori,left,"[-106,-106]","[-150,0]",left,1,,,,,,001,2025-03-17_15h16.34.692,SL_sali_41,2021.2.3,Win32,29.94011976,1.8706,,,35,0,35,0,1,,,,,,,,
,,"[""circle"",""green"",""hori"",""left"",[0,150],[106,106]]",circle,green,hori,left,"[0,150]","[106,106]",left,1,,,,,,001,2025-03-17_15h16.34.692,SL_sali_41,2021.2.3,Win32,29.94011976,2.0666,,,36,0,36,0,1,,,,,,,,
,,"[""diamond"",""red"",""vert"",""up"",[106,106],[-106,-106]]",diamond,red,vert,up,"[106,106]","[-106,-106]",up,1,,,,,,001,2025-03-17_15h16.34.692,SL_sali_41,2021.2.3,Win32,29.94011976,2.4726,,,37,0,37,0,1,,,,,,,,
,,"[""diamond"",""no_dis"",""vert"",""up"",[99999,99999],[150,0]]",diamond,no_dis,vert,up,"[99999,99999]","[150,0]",up,1,,,,,,001,2025-03-17_15h16.34.692,SL_sali_41,2021.2.3,Win32,29.94011976,2.0252,,,38,0,38,0,1,,,,,,,,
,,"[""diamond"",""green"",""vert"",""up"",[0,150],[-106,-106]]",diamond,green,vert,up,"[0,150]","[-106,-106]",up,1,,,,,,001,2025-03-17_15h16.34.692,SL_sali_41,2021.2.3,Win32,29.94011976,1.4299,,,39,0,39,0,1,,,,,,,,
,,"[""diamond"",""no_dis"",""vert"",""up"",[99999,99999],[0,-150]]",diamond,no_dis,vert,up,"[99999,99999]","[0,-150]",up,1,,,,,,001,2025-03-17_15h16.34.692,SL_sali_41,2021.2.3,Win32,29.94011976,1.5117,,,40,0,40,0,1,,,,,,,,
,,"[""diamond"",""red"",""hori"",""left"",[106,-106],[0,-150]]",diamond,red,hori,left,"[106,-106]","[0,-150]",left,1,,,,,,001,2025-03-17_15h16.34.692,SL_sali_41,2021.2.3,Win32,29.94011976,1.4785,,,41,0,41,0,1,,,,,,,,
,,"[""diamond"",""green"",""hori"",""left"",[106,106],[0,150]]",diamond,green,hori,left,"[106,106]","[0,150]",up,0,,,,,,001,2025-03-17_15h16.34.692,SL_sali_41,2021.2.3,Win32,29.94011976,1.6109,,,42,0,42,0,1,,,,,,,,
,,"[""diamond"",""green"",""vert"",""up"",[-106,-106],[106,-106]]",diamond,green,vert,up,"[-106,-106]","[106,-106]",up,1,,,,,,001,2025-03-17_15h16.34.692,SL_sali_41,2021.2.3,Win32,29.94011976,1.7246,,,43,0,43,0,1,,,,,,,,
,,"[""diamond"",""green"",""vert"",""up"",[106,106],[-106,106]]",diamond,green,vert,up,"[106,106]","[-106,106]",up,1,,,,,,001,2025-03-17_15h16.34.692,SL_sali_41,2021.2.3,Win32,29.94011976,2.4302,,,44,0,44,0,1,,,,,,,,
,,"[""circle"",""red"",""vert"",""up"",[-106,-106],[-106,106]]",circle,red,vert,up,"[-106,-106]","[-106,106]",up,1,,,,,,001,2025-03-17_15h16.34.692,SL_sali_41,2021.2.3,Win32,29.94011976,2.088,,,45,0,45,0,1,,,,,,,,
,,"[""circle"",""no_dis"",""vert"",""up"",[99999,99999],[-106,-106]]",circle,no_dis,vert,up,"[99999,99999]","[-106,-106]",up,1,,,,,,001,2025-03-17_15h16.34.692,SL_sali_41,2021.2.3,Win32,29.94011976,1.624,,,46,0,46,0,1,,,,,,,,
,,"[""circle"",""green"",""vert"",""up"",[0,-150],[106,-106]]",circle,green,vert,up,"[0,-150]","[106,-106]",up,1,,,,,,001,2025-03-17_15h16.34.692,SL_sali_41,2021.2.3,Win32,29.94011976,1.7173,,,47,0,47,0,1,,,,,,,,
,,"[""diamond"",""red"",""vert"",""up"",[106,106],[150,0]]",diamond,red,vert,up,"[106,106]","[150,0]",up,1,,,,,,001,2025-03-17_15h16.34.692,SL_sali_41,2021.2.3,Win32,29.94011976,1.5416,,,48,0,48,0,1,,,,,,,,
,,"[""circle"",""green"",""hori"",""left"",[150,0],[-150,0]]",circle,green,hori,left,"[150,0]","[-150,0]",left,1,,,,,,001,2025-03-17_15h16.34.692,SL_sali_41,2021.2.3,Win32,29.94011976,1.0964,,,49,0,49,0,1,,,,,,,,
,,"[""diamond"",""red"",""hori"",""left"",[0,-150],[-106,-106]]",diamond,red,hori,left,"[0,-150]","[-106,-106]",,0,,,,,,001,2025-03-17_15h16.34.692,SL_sali_41,2021.2.3,Win32,29.94011976,,,,50,0,50,0,1,,,,,,,,
,,"[""circle"",""green"",""hori"",""left"",[0,-150],[106,-106]]",circle,green,hori,left,"[0,-150]","[106,-106]",left,1,,,,,,001,2025-03-17_15h16.34.692,SL_sali_41,2021.2.3,Win32,29.94011976,1.6721,,,51,0,51,0,1,,,,,,,,
,,"[""circle"",""no_dis"",""hori"",""left"",[99999,99999],[0,150]]",circle,no_dis,hori,left,"[99999,99999]","[0,150]",left,1,,,,,,001,2025-03-17_15h16.34.692,SL_sali_41,2021.2.3,Win32,29.94011976,1.9672,,,52,0,52,0,1,,,,,,,,
,,"[""circle"",""no_dis"",""vert"",""up"",[99999,99999],[150,0]]",circle,no_dis,vert,up,"[99999,99999]","[150,0]",up,1,,,,,,001,2025-03-17_15h16.34.692,SL_sali_41,2021.2.3,Win32,29.94011976,1.3241,,,53,0,53,0,1,,,,,,,,
,,"[""diamond"",""red"",""vert"",""up"",[150,0],[106,106]]",diamond,red,vert,up,"[150,0]","[106,106]",up,1,,,,,,001,2025-03-17_15h16.34.692,SL_sali_41,2021.2.3,Win32,29.94011976,2.643,,,54,0,54,0,1,,,,,,,,
,,"[""circle"",""no_dis"",""hori"",""left"",[99999,99999],[0,-150]]",circle,no_dis,hori,left,"[99999,99999]","[0,-150]",left,1,,,,,,001,2025-03-17_15h16.34.692,SL_sali_41,2021.2.3,Win32,29.94011976,1.3091,,,55,0,55,0,1,,,,,,,,
,,"[""circle"",""red"",""vert"",""up"",[-106,-106],[106,106]]",circle,red,vert,up,"[-106,-106]","[106,106]",up,1,,,,,,001,2025-03-17_15h16.34.692,SL_sali_41,2021.2.3,Win32,29.94011976,1.9557,,,56,0,56,0,1,,,,,,,,
,,"[""circle"",""green"",""vert"",""up"",[106,-106],[106,106]]",circle,green,vert,up,"[106,-106]","[106,106]",,0,,,,,,001,2025-03-17_15h16.34.692,SL_sali_41,2021.2.3,Win32,29.94011976,,,,57,0,57,0,1,,,,,,,,
,,"[""diamond"",""red"",""vert"",""up"",[-150,0],[-106,-106]]",diamond,red,vert,up,"[-150,0]","[-106,-106]",left,0,,,,,,001,2025-03-17_15h16.34.692,SL_sali_41,2021.2.3,Win32,29.94011976,1.5547,,,58,0,58,0,1,,,,,,,,
,,"[""circle"",""green"",""hori"",""left"",[0,-150],[106,106]]",circle,green,hori,left,"[0,-150]","[106,106]",left,1,,,,,,001,2025-03-17_15h16.34.692,SL_sali_41,2021.2.3,Win32,29.94011976,2.0689,,,59,0,59,0,1,,,,,,,,
,,"[""diamond"",""no_dis"",""hori"",""left"",[99999,99999],[0,-150]]",diamond,no_dis,hori,left,"[99999,99999]","[0,-150]",left,1,,,,,,001,2025-03-17_15h16.34.692,SL_sali_41,2021.2.3,Win32,29.94011976,1.8904,,,60,0,60,0,1,,,,,,,,
,,"[""diamond"",""red"",""hori"",""left"",[-106,106],[150,0]]",diamond,red,hori,left,"[-106,106]","[150,0]",left,1,,,,,,001,2025-03-17_15h16.34.692,SL_sali_41,2021.2.3,Win32,29.94011976,1.7589,,,61,0,61,0,1,,,,,,,,
,,"[""diamond"",""red"",""vert"",""up"",[106,106],[-150,0]]",diamond,red,vert,up,"[106,106]","[-150,0]",up,1,,,,,,001,2025-03-17_15h16.34.692,SL_sali_41,2021.2.3,Win32,29.94011976,2.233,,,62,0,62,0,1,,,,,,,,
,,"[""circle"",""red"",""hori"",""left"",[106,106],[0,150]]",circle,red,hori,left,"[106,106]","[0,150]",left,1,,,,,,001,2025-03-17_15h16.34.692,SL_sali_41,2021.2.3,Win32,29.94011976,1.6675,,,63,0,63,0,1,,,,,,,,
,,"[""diamond"",""no_dis"",""vert"",""up"",[99999,99999],[106,106]]",diamond,no_dis,vert,up,"[99999,99999]","[106,106]",up,1,,,,,,001,2025-03-17_15h16.34.692,SL_sali_41,2021.2.3,Win32,29.94011976,1.4293,,,64,0,64,0,1,,,,,,,,
,,"[""diamond"",""no_dis"",""vert"",""up"",[99999,99999],[-106,-106]]",diamond,no_dis,vert,up,"[99999,99999]","[-106,-106]",up,1,,,,,,001,2025-03-17_15h16.34.692,SL_sali_41,2021.2.3,Win32,29.94011976,1.8343,,,65,0,65,0,1,,,,,,,,
,,"[""diamond"",""no_dis"",""hori"",""left"",[99999,99999],[106,-106]]",diamond,no_dis,hori,left,"[99999,99999]","[106,-106]",left,1,,,,,,001,2025-03-17_15h16.34.692,SL_sali_41,2021.2.3,Win32,29.94011976,1.0626,,,66,0,66,0,1,,,,,,,,
,,"[""circle"",""red"",""vert"",""up"",[106,106],[150,0]]",circle,red,vert,up,"[106,106]","[150,0]",up,1,,,,,,001,2025-03-17_15h16.34.692,SL_sali_41,2021.2.3,Win32,29.94011976,1.681,,,67,0,67,0,1,,,,,,,,
,,"[""circle"",""green"",""hori"",""left"",[106,106],[150,0]]",circle,green,hori,left,"[106,106]","[150,0]",left,1,,,,,,001,2025-03-17_15h16.34.692,SL_sali_41,2021.2.3,Win32,29.94011976,1.6113,,,68,0,68,0,1,,,,,,,,
,,"[""circle"",""no_dis"",""vert"",""up"",[99999,99999],[150,0]]",circle,no_dis,vert,up,"[99999,99999]","[150,0]",up,1,,,,,,001,2025-03-17_15h16.34.692,SL_sali_41,2021.2.3,Win32,29.94011976,1.1619,,,69,0,69,0,1,,,,,,,,
,,"[""diamond"",""red"",""vert"",""up"",[-106,-106],[-106,106]]",diamond,red,vert,up,"[-106,-106]","[-106,106]",up,1,,,,,,001,2025-03-17_15h16.34.692,SL_sali_41,2021.2.3,Win32,29.94011976,2.5868,,,70,0,70,0,1,,,,,,,,
,,"[""circle"",""red"",""vert"",""up"",[-106,106],[0,-150]]",circle,red,vert,up,"[-106,106]","[0,-150]",up,1,,,,,,001,2025-03-17_15h16.34.692,SL_sali_41,2021.2.3,Win32,29.94011976,1.4463,,,71,0,71,0,1,,,,,,,,
,,"[""circle"",""green"",""hori"",""left"",[-150,0],[150,0]]",circle,green,hori,left,"[-150,0]","[150,0]",left,1,,,,,,001,2025-03-17_15h16.34.692,SL_sali_41,2021.2.3,Win32,29.94011976,1.1655,,,72,0,72,0,1,,,,,,,,
,,"[""diamond"",""red"",""vert"",""up"",[106,106],[-106,-106]]",diamond,red,vert,up,"[106,106]","[-106,-106]",up,1,,,,,,001,2025-03-17_15h16.34.692,SL_sali_41,2021.2.3,Win32,29.94011976,1.6398,,,73,0,73,0,1,,,,,,,,
,,"[""circle"",""green"",""vert"",""up"",[106,106],[0,-150]]",circle,green,vert,up,"[106,106]","[0,-150]",up,1,,,,,,001,2025-03-17_15h16.34.692,SL_sali_41,2021.2.3,Win32,29.94011976,1.5457,,,74,0,74,0,1,,,,,,,,
,,"[""diamond"",""green"",""vert"",""up"",[106,106],[0,-150]]",diamond,green,vert,up,"[106,106]","[0,-150]",up,1,,,,,,001,2025-03-17_15h16.34.692,SL_sali_41,2021.2.3,Win32,29.94011976,1.5069,,,75,0,75,0,1,,,,,,,,
,,"[""circle"",""red"",""vert"",""up"",[106,106],[0,-150]]",circle,red,vert,up,"[106,106]","[0,-150]",up,1,,,,,,001,2025-03-17_15h16.34.692,SL_sali_41,2021.2.3,Win32,29.94011976,1.2967,,,76,0,76,0,1,,,,,,,,
,,"[""circle"",""red"",""hori"",""left"",[106,106],[-106,-106]]",circle,red,hori,left,"[106,106]","[-106,-106]",left,1,,,,,,001,2025-03-17_15h16.34.692,SL_sali_41,2021.2.3,Win32,29.94011976,0.9185,,,77,0,77,0,1,,,,,,,,
,,"[""circle"",""red"",""hori"",""left"",[-150,0],[106,-106]]",circle,red,hori,left,"[-150,0]","[106,-106]",left,1,,,,,,001,2025-03-17_15h16.34.692,SL_sali_41,2021.2.3,Win32,29.94011976,1.634,,,78,0,78,0,1,,,,,,,,
,,"[""circle"",""green"",""vert"",""up"",[-106,-106],[0,150]]",circle,green,vert,up,"[-106,-106]","[0,150]",up,1,,,,,,001,2025-03-17_15h16.34.692,SL_sali_41,2021.2.3,Win32,29.94011976,1.7725,,,79,0,79,0,1,,,,,,,,
,,"[""diamond"",""green"",""hori"",""left"",[106,-106],[0,150]]",diamond,green,hori,left,"[106,-106]","[0,150]",left,1,,,,,,001,2025-03-17_15h16.34.692,SL_sali_41,2021.2.3,Win32,29.94011976,2.5214,,,80,0,80,0,1,,,,,,,,
,,"[""circle"",""red"",""vert"",""up"",[106,106],[-150,0]]",circle,red,vert,up,"[106,106]","[-150,0]",up,1,,,,,,001,2025-03-17_15h16.34.692,SL_sali_41,2021.2.3,Win32,29.94011976,1.1294,,,81,0,81,0,1,,,,,,,,
,,"[""diamond"",""green"",""vert"",""up"",[150,0],[106,106]]",diamond,green,vert,up,"[150,0]","[106,106]",up,1,,,,,,001,2025-03-17_15h16.34.692,SL_sali_41,2021.2.3,Win32,29.94011976,1.8378,,,82,0,82,0,1,,,,,,,,
,,"[""diamond"",""no_dis"",""hori"",""left"",[99999,99999],[106,-106]]",diamond,no_dis,hori,left,"[99999,99999]","[106,-106]",left,1,,,,,,001,2025-03-17_15h16.34.692,SL_sali_41,2021.2.3,Win32,29.94011976,0.9984,,,83,0,83,0,1,,,,,,,,
,,"[""circle"",""no_dis"",""vert"",""up"",[99999,99999],[0,150]]",circle,no_dis,vert,up,"[99999,99999]","[0,150]",up,1,,,,,,001,2025-03-17_15h16.34.692,SL_sali_41,2021.2.3,Win32,29.94011976,1.559,,,84,0,84,0,1,,,,,,,,
,,"[""circle"",""no_dis"",""hori"",""left"",[99999,99999],[0,150]]",circle,no_dis,hori,left,"[99999,99999]","[0,150]",left,1,,,,,,001,2025-03-17_15h16.34.692,SL_sali_41,2021.2.3,Win32,29.94011976,1.8863,,,85,0,85,0,1,,,,,,,,
,,"[""diamond"",""red"",""vert"",""up"",[-106,106],[0,150]]",diamond,red,vert,up,"[-106,106]","[0,150]",left,0,,,,,,001,2025-03-17_15h16.34.692,SL_sali_41,2021.2.3,Win32,29.94011976,1.9297,,,86,0,86,0,1,,,,,,,,
,,"[""diamond"",""green"",""hori"",""left"",[106,106],[0,-150]]",diamond,green,hori,left,"[106,106]","[0,-150]",left,1,,,,,,001,2025-03-17_15h16.34.692,SL_sali_41,2021.2.3,Win32,29.94011976,1.2864,,,87,0,87,0,1,,,,,,,,
,,"[""diamond"",""red"",""vert"",""up"",[106,106],[0,150]]",diamond,red,vert,up,"[106,106]","[0,150]",up,1,,,,,,001,2025-03-17_15h16.34.692,SL_sali_41,2021.2.3,Win32,29.94011976,2.0118,,,88,0,88,0,1,,,,,,,,
,,"[""circle"",""red"",""vert"",""up"",[106,106],[0,150]]",circle,red,vert,up,"[106,106]","[0,150]",up,1,,,,,,001,2025-03-17_15h16.34.692,SL_sali_41,2021.2.3,Win32,29.94011976,2.2502,,,89,0,89,0,1,,,,,,,,
,,"[""diamond"",""no_dis"",""hori"",""left"",[99999,99999],[106,106]]",diamond,no_dis,hori,left,"[99999,99999]","[106,106]",left,1,,,,,,001,2025-03-17_15h16.34.692,SL_sali_41,2021.2.3,Win32,29.94011976,1.7624,,,90,0,90,0,1,,,,,,,,
,,"[""diamond"",""no_dis"",""vert"",""up"",[99999,99999],[-106,106]]",diamond,no_dis,vert,up,"[99999,99999]","[-106,106]",up,1,,,,,,001,2025-03-17_15h16.34.692,SL_sali_41,2021.2.3,Win32,29.94011976,1.3112,,,91,0,91,0,1,,,,,,,,
,,"[""diamond"",""green"",""vert"",""up"",[0,-150],[-106,-106]]",diamond,green,vert,up,"[0,-150]","[-106,-106]",up,1,,,,,,001,2025-03-17_15h16.34.692,SL_sali_41,2021.2.3,Win32,29.94011976,2.5671,,,92,0,92,0,1,,,,,,,,
,,"[""circle"",""no_dis"",""vert"",""up"",[99999,99999],[-150,0]]",circle,no_dis,vert,up,"[99999,99999]","[-150,0]",up,1,,,,,,001,2025-03-17_15h16.34.692,SL_sali_41,2021.2.3,Win32,29.94011976,1.4799,,,93,0,93,0,1,,,,,,,,
,,"[""circle"",""red"",""vert"",""up"",[106,106],[-150,0]]",circle,red,vert,up,"[106,106]","[-150,0]",up,1,,,,,,001,2025-03-17_15h16.34.692,SL_sali_41,2021.2.3,Win32,29.94011976,1.5883,,,94,0,94,0,1,,,,,,,,
,,"[""diamond"",""green"",""vert"",""up"",[106,106],[150,0]]",diamond,green,vert,up,"[106,106]","[150,0]",up,1,,,,,,001,2025-03-17_15h16.34.692,SL_sali_41,2021.2.3,Win32,29.94011976,2.059,,,95,0,95,0,1,,,,,,,,
,,"[""circle"",""no_dis"",""hori"",""left"",[99999,99999],[-106,106]]",circle,no_dis,hori,left,"[99999,99999]","[-106,106]",left,1,,,,,,001,2025-03-17_15h16.34.692,SL_sali_41,2021.2.3,Win32,29.94011976,1.4851,,,96,0,96,0,1,,,,,,,,
,,"[""diamond"",""no_dis"",""hori"",""left"",[99999,99999],[106,-106]]",diamond,no_dis,hori,left,"[99999,99999]","[106,-106]",left,1,,,,,,001,2025-03-17_15h16.34.692,SL_sali_41,2021.2.3,Win32,29.94011976,1.6724,,,97,0,97,0,1,,,,,,,,
,,"[""diamond"",""red"",""hori"",""left"",[150,0],[0,-150]]",diamond,red,hori,left,"[150,0]","[0,-150]",left,1,,,,,,001,2025-03-17_15h16.34.692,SL_sali_41,2021.2.3,Win32,29.94011976,2.1011,,,98,0,98,0,1,,,,,,,,
,,"[""diamond"",""green"",""hori"",""left"",[106,106],[106,-106]]",diamond,green,hori,left,"[106,106]","[106,-106]",left,1,,,,,,001,2025-03-17_15h16.34.692,SL_sali_41,2021.2.3,Win32,29.94011976,1.9378,,,99,0,99,0,1,,,,,,,,
,,"[""diamond"",""no_dis"",""hori"",""left"",[99999,99999],[-106,106]]",diamond,no_dis,hori,left,"[99999,99999]","[-106,106]",left,1,,,,,,001,2025-03-17_15h16.34.692,SL_sali_41,2021.2.3,Win32,29.94011976,1.4148,,,100,0,100,0,1,,,,,,,,
,,"[""circle"",""no_dis"",""vert"",""up"",[99999,99999],[106,106]]",circle,no_dis,vert,up,"[99999,99999]","[106,106]",up,1,,,,,,001,2025-03-17_15h16.34.692,SL_sali_41,2021.2.3,Win32,29.94011976,1.486,,,101,0,101,0,1,,,,,,,,
,,"[""circle"",""green"",""vert"",""up"",[0,150],[106,106]]",circle,green,vert,up,"[0,150]","[106,106]",up,1,,,,,,001,2025-03-17_15h16.34.692,SL_sali_41,2021.2.3,Win32,29.94011976,2.5355,,,102,0,102,0,1,,,,,,,,
,,"[""circle"",""no_dis"",""hori"",""left"",[99999,99999],[150,0]]",circle,no_dis,hori,left,"[99999,99999]","[150,0]",left,1,,,,,,001,2025-03-17_15h16.34.692,SL_sali_41,2021.2.3,Win32,29.94011976,1.7178,,,103,0,103,0,1,,,,,,,,
,,"[""diamond"",""green"",""hori"",""left"",[-150,0],[106,-106]]",diamond,green,hori,left,"[-150,0]","[106,-106]",left,1,,,,,,001,2025-03-17_15h16.34.692,SL_sali_41,2021.2.3,Win32,29.94011976,2.3107,,,104,0,104,0,1,,,,,,,,
,,"[""circle"",""green"",""hori"",""left"",[0,-150],[-106,106]]",circle,green,hori,left,"[0,-150]","[-106,106]",left,1,,,,,,001,2025-03-17_15h16.34.692,SL_sali_41,2021.2.3,Win32,29.94011976,2.4174,,,105,0,105,0,1,,,,,,,,
,,"[""circle"",""no_dis"",""hori"",""left"",[99999,99999],[-106,-106]]",circle,no_dis,hori,left,"[99999,99999]","[-106,-106]",left,1,,,,,,001,2025-03-17_15h16.34.692,SL_sali_41,2021.2.3,Win32,29.94011976,1.6261,,,106,0,106,0,1,,,,,,,,
,,"[""diamond"",""no_dis"",""hori"",""left"",[99999,99999],[150,0]]",diamond,no_dis,hori,left,"[99999,99999]","[150,0]",left,1,,,,,,001,2025-03-17_15h16.34.692,SL_sali_41,2021.2.3,Win32,29.94011976,2.0587,,,107,0,107,0,1,,,,,,,,
,,"[""circle"",""no_dis"",""vert"",""up"",[99999,99999],[106,106]]",circle,no_dis,vert,up,"[99999,99999]","[106,106]",up,1,,,,,,001,2025-03-17_15h16.34.692,SL_sali_41,2021.2.3,Win32,29.94011976,2.3471,,,108,0,108,0,1,,,,,,,,
,,"[""circle"",""no_dis"",""hori"",""left"",[99999,99999],[-106,106]]",circle,no_dis,hori,left,"[99999,99999]","[-106,106]",left,1,,,,,,001,2025-03-17_15h16.34.692,SL_sali_41,2021.2.3,Win32,29.94011976,1.1927,,,109,0,109,0,1,,,,,,,,
,,"[""circle"",""red"",""vert"",""up"",[106,-106],[0,-150]]",circle,red,vert,up,"[106,-106]","[0,-150]",up,1,,,,,,001,2025-03-17_15h16.34.692,SL_sali_41,2021.2.3,Win32,29.94011976,1.8748,,,110,0,110,0,1,,,,,,,,
,,"[""circle"",""red"",""hori"",""left"",[106,-106],[0,-150]]",circle,red,hori,left,"[106,-106]","[0,-150]",left,1,,,,,,001,2025-03-17_15h16.34.692,SL_sali_41,2021.2.3,Win32,29.94011976,1.4083,,,111,0,111,0,1,,,,,,,,
,,"[""circle"",""red"",""vert"",""up"",[106,106],[0,150]]",circle,red,vert,up,"[106,106]","[0,150]",up,1,,,,,,001,2025-03-17_15h16.34.692,SL_sali_41,2021.2.3,Win32,29.94011976,1.2979,,,112,0,112,0,1,,,,,,,,
,,"[""diamond"",""red"",""vert"",""up"",[106,106],[0,150]]",diamond,red,vert,up,"[106,106]","[0,150]",up,1,,,,,,001,2025-03-17_15h16.34.692,SL_sali_41,2021.2.3,Win32,29.94011976,2.8353,,,113,0,113,0,1,,,,,,,,
,,"[""diamond"",""green"",""hori"",""left"",[150,0],[-150,0]]",diamond,green,hori,left,"[150,0]","[-150,0]",left,1,,,,,,001,2025-03-17_15h16.34.692,SL_sali_41,2021.2.3,Win32,29.94011976,1.2775,,,114,0,114,0,1,,,,,,,,
,,"[""diamond"",""red"",""hori"",""left"",[0,150],[-106,106]]",diamond,red,hori,left,"[0,150]","[-106,106]",left,1,,,,,,001,2025-03-17_15h16.34.692,SL_sali_41,2021.2.3,Win32,29.94011976,2.1458,,,115,0,115,0,1,,,,,,,,
,,"[""circle"",""green"",""vert"",""up"",[0,150],[106,-106]]",circle,green,vert,up,"[0,150]","[106,-106]",up,1,,,,,,001,2025-03-17_15h16.34.692,SL_sali_41,2021.2.3,Win32,29.94011976,1.4341,,,116,0,116,0,1,,,,,,,,
,,"[""diamond"",""red"",""hori"",""left"",[150,0],[0,150]]",diamond,red,hori,left,"[150,0]","[0,150]",left,1,,,,,,001,2025-03-17_15h16.34.692,SL_sali_41,2021.2.3,Win32,29.94011976,1.4676,,,117,0,117,0,1,,,,,,,,
,,"[""diamond"",""red"",""hori"",""left"",[0,-150],[150,0]]",diamond,red,hori,left,"[0,-150]","[150,0]",left,1,,,,,,001,2025-03-17_15h16.34.692,SL_sali_41,2021.2.3,Win32,29.94011976,1.5688,,,118,0,118,0,1,,,,,,,,
,,"[""circle"",""no_dis"",""hori"",""left"",[99999,99999],[106,106]]",circle,no_dis,hori,left,"[99999,99999]","[106,106]",left,1,,,,,,001,2025-03-17_15h16.34.692,SL_sali_41,2021.2.3,Win32,29.94011976,2.6193,,,119,0,119,0,1,,,,,,,,
,,"[""diamond"",""no_dis"",""hori"",""left"",[99999,99999],[-106,-106]]",diamond,no_dis,hori,left,"[99999,99999]","[-106,-106]",left,1,,,,,,001,2025-03-17_15h16.34.692,SL_sali_41,2021.2.3,Win32,29.94011976,1.4514,,,120,0,120,0,1,,,,,,,,
,,"[""circle"",""green"",""vert"",""up"",[0,150],[106,106]]",circle,green,vert,up,"[0,150]","[106,106]",up,1,,,,,,001,2025-03-17_15h16.34.692,SL_sali_41,2021.2.3,Win32,29.94011976,1.5829,,,121,0,121,0,1,,,,,,,,
,,"[""circle"",""red"",""hori"",""left"",[106,106],[-150,0]]",circle,red,hori,left,"[106,106]","[-150,0]",left,1,,,,,,001,2025-03-17_15h16.34.692,SL_sali_41,2021.2.3,Win32,29.94011976,1.0332,,,122,0,122,0,1,,,,,,,,
,,"[""circle"",""green"",""vert"",""up"",[-106,-106],[0,-150]]",circle,green,vert,up,"[-106,-106]","[0,-150]",up,1,,,,,,001,2025-03-17_15h16.34.692,SL_sali_41,2021.2.3,Win32,29.94011976,1.243,,,123,0,123,0,1,,,,,,,,
,,"[""circle"",""red"",""hori"",""left"",[-106,106],[0,150]]",circle,red,hori,left,"[-106,106]","[0,150]",left,1,,,,,,001,2025-03-17_15h16.34.692,SL_sali_41,2021.2.3,Win32,29.94011976,1.5542,,,124,0,124,0,1,,,,,,,,
,,"[""diamond"",""green"",""hori"",""left"",[106,106],[150,0]]",diamond,green,hori,left,"[106,106]","[150,0]",left,1,,,,,,001,2025-03-17_15h16.34.692,SL_sali_41,2021.2.3,Win32,29.94011976,2.1043,,,125,0,125,0,1,,,,,,,,
,,"[""diamond"",""red"",""vert"",""up"",[150,0],[0,150]]",diamond,red,vert,up,"[150,0]","[0,150]",up,1,,,,,,001,2025-03-17_15h16.34.692,SL_sali_41,2021.2.3,Win32,29.94011976,1.6104,,,126,0,126,0,1,,,,,,,,
,,"[""circle"",""no_dis"",""hori"",""left"",[99999,99999],[-150,0]]",circle,no_dis,hori,left,"[99999,99999]","[-150,0]",left,1,,,,,,001,2025-03-17_15h16.34.692,SL_sali_41,2021.2.3,Win32,29.94011976,1.2197,,,127,0,127,0,1,,,,,,,,
,,,,,,,,,,,,,,,,001,2025-03-17_15h16.34.692,SL_sali_41,2021.2.3,Win32,29.94011976,,,,,,,,,2,space,271.0481,1,0,1,0,1
,,"[""diamond"",""no_dis"",""hori"",""left"",[99999,99999],[0,-150]]",diamond,no_dis,hori,left,"[99999,99999]","[0,-150]",left,1,,,,,,001,2025-03-17_15h16.34.692,SL_sali_41,2021.2.3,Win32,29.94011976,1.5227,,,0,0,0,0,1,,,,,,,,
,,"[""diamond"",""green"",""hori"",""left"",[106,106],[106,-106]]",diamond,green,hori,left,"[106,106]","[106,-106]",left,1,,,,,,001,2025-03-17_15h16.34.692,SL_sali_41,2021.2.3,Win32,29.94011976,1.6693,,,1,0,1,0,1,,,,,,,,
,,"[""diamond"",""green"",""vert"",""up"",[-106,-106],[106,-106]]",diamond,green,vert,up,"[-106,-106]","[106,-106]",up,1,,,,,,001,2025-03-17_15h16.34.692,SL_sali_41,2021.2.3,Win32,29.94011976,1.0354,,,2,0,2,0,1,,,,,,,,
,,"[""diamond"",""green"",""vert"",""up"",[0,150],[-106,-106]]",diamond,green,vert,up,"[0,150]","[-106,-106]",up,1,,,,,,001,2025-03-17_15h16.34.692,SL_sali_41,2021.2.3,Win32,29.94011976,1.4275,,,3,0,3,0,1,,,,,,,,
,,"[""circle"",""green"",""vert"",""up"",[0,150],[106,106]]",circle,green,vert,up,"[0,150]","[106,106]",up,1,,,,,,001,2025-03-17_15h16.34.692,SL_sali_41,2021.2.3,Win32,29.94011976,1.8734,,,4,0,4,0,1,,,,,,,,
,,"[""circle"",""green"",""hori"",""left"",[0,-150],[106,-106]]",circle,green,hori,left,"[0,-150]","[106,-106]",left,1,,,,,,001,2025-03-17_15h16.34.692,SL_sali_41,2021.2.3,Win32,29.94011976,0.8838,,,5,0,5,0,1,,,,,,,,
,,"[""circle"",""green"",""vert"",""up"",[0,150],[106,106]]",circle,green,vert,up,"[0,150]","[106,106]",up,1,,,,,,001,2025-03-17_15h16.34.692,SL_sali_41,2021.2.3,Win32,29.94011976,1.5231,,,6,0,6,0,1,,,,,,,,
,,"[""diamond"",""green"",""vert"",""up"",[0,150],[-106,-106]]",diamond,green,vert,up,"[0,150]","[-106,-106]",up,1,,,,,,001,2025-03-17_15h16.34.692,SL_sali_41,2021.2.3,Win32,29.94011976,1.5735,,,7,0,7,0,1,,,,,,,,
,,"[""diamond"",""no_dis"",""hori"",""left"",[99999,99999],[106,-106]]",diamond,no_dis,hori,left,"[99999,99999]","[106,-106]",left,1,,,,,,001,2025-03-17_15h16.34.692,SL_sali_41,2021.2.3,Win32,29.94011976,0.8136,,,8,0,8,0,1,,,,,,,,
,,"[""diamond"",""no_dis"",""hori"",""left"",[99999,99999],[-106,-106]]",diamond,no_dis,hori,left,"[99999,99999]","[-106,-106]",left,1,,,,,,001,2025-03-17_15h16.34.692,SL_sali_41,2021.2.3,Win32,29.94011976,1.7897,,,9,0,9,0,1,,,,,,,,
,,"[""diamond"",""green"",""vert"",""up"",[0,-150],[-106,-106]]",diamond,green,vert,up,"[0,-150]","[-106,-106]",up,1,,,,,,001,2025-03-17_15h16.34.692,SL_sali_41,2021.2.3,Win32,29.94011976,1.9943,,,10,0,10,0,1,,,,,,,,
,,"[""circle"",""green"",""vert"",""up"",[-106,106],[0,150]]",circle,green,vert,up,"[-106,106]","[0,150]",up,1,,,,,,001,2025-03-17_15h16.34.692,SL_sali_41,2021.2.3,Win32,29.94011976,1.489,,,11,0,11,0,1,,,,,,,,
,,"[""circle"",""no_dis"",""hori"",""left"",[99999,99999],[0,-150]]",circle,no_dis,hori,left,"[99999,99999]","[0,-150]",left,1,,,,,,001,2025-03-17_15h16.34.692,SL_sali_41,2021.2.3,Win32,29.94011976,0.8896,,,12,0,12,0,1,,,,,,,,
,,"[""diamond"",""green"",""hori"",""left"",[-106,106],[0,150]]",diamond,green,hori,left,"[-106,106]","[0,150]",,0,,,,,,001,2025-03-17_15h16.34.692,SL_sali_41,2021.2.3,Win32,29.94011976,,,,13,0,13,0,1,,,,,,,,
,,"[""diamond"",""red"",""vert"",""up"",[106,106],[150,0]]",diamond,red,vert,up,"[106,106]","[150,0]",up,1,,,,,,001,2025-03-17_15h16.34.692,SL_sali_41,2021.2.3,Win32,29.94011976,1.5138,,,14,0,14,0,1,,,,,,,,
,,"[""circle"",""green"",""vert"",""up"",[106,-106],[150,0]]",circle,green,vert,up,"[106,-106]","[150,0]",up,1,,,,,,001,2025-03-17_15h16.34.692,SL_sali_41,2021.2.3,Win32,29.94011976,2.5536,,,15,0,15,0,1,,,,,,,,
,,"[""diamond"",""red"",""vert"",""up"",[150,0],[0,150]]",diamond,red,vert,up,"[150,0]","[0,150]",up,1,,,,,,001,2025-03-17_15h16.34.692,SL_sali_41,2021.2.3,Win32,29.94011976,1.356,,,16,0,16,0,1,,,,,,,,
,,"[""diamond"",""no_dis"",""vert"",""up"",[99999,99999],[-150,0]]",diamond,no_dis,vert,up,"[99999,99999]","[-150,0]",up,1,,,,,,001,2025-03-17_15h16.34.692,SL_sali_41,2021.2.3,Win32,29.94011976,1.5408,,,17,0,17,0,1,,,,,,,,
,,"[""circle"",""red"",""vert"",""up"",[106,106],[-150,0]]",circle,red,vert,up,"[106,106]","[-150,0]",up,1,,,,,,001,2025-03-17_15h16.34.692,SL_sali_41,2021.2.3,Win32,29.94011976,1.2338,,,18,0,18,0,1,,,,,,,,
,,"[""diamond"",""green"",""vert"",""up"",[106,106],[150,0]]",diamond,green,vert,up,"[106,106]","[150,0]",up,1,,,,,,001,2025-03-17_15h16.34.692,SL_sali_41,2021.2.3,Win32,29.94011976,1.4979,,,19,0,19,0,1,,,,,,,,
,,"[""diamond"",""red"",""hori"",""left"",[0,150],[-106,106]]",diamond,red,hori,left,"[0,150]","[-106,106]",left,1,,,,,,001,2025-03-17_15h16.34.692,SL_sali_41,2021.2.3,Win32,29.94011976,1.6885,,,20,0,20,0,1,,,,,,,,
,,"[""diamond"",""red"",""vert"",""up"",[150,0],[106,106]]",diamond,red,vert,up,"[150,0]","[106,106]",up,1,,,,,,001,2025-03-17_15h16.34.692,SL_sali_41,2021.2.3,Win32,29.94011976,1.2557,,,21,0,21,0,1,,,,,,,,
,,"[""circle"",""no_dis"",""vert"",""up"",[99999,99999],[106,106]]",circle,no_dis,vert,up,"[99999,99999]","[106,106]",left,0,,,,,,001,2025-03-17_15h16.34.692,SL_sali_41,2021.2.3,Win32,29.94011976,1.8001,,,22,0,22,0,1,,,,,,,,
,,"[""circle"",""no_dis"",""vert"",""up"",[99999,99999],[-106,-106]]",circle,no_dis,vert,up,"[99999,99999]","[-106,-106]",up,1,,,,,,001,2025-03-17_15h16.34.692,SL_sali_41,2021.2.3,Win32,29.94011976,1.1029,,,23,0,23,0,1,,,,,,,,
,,"[""diamond"",""red"",""hori"",""left"",[106,106],[0,150]]",diamond,red,hori,left,"[106,106]","[0,150]",left,1,,,,,,001,2025-03-17_15h16.34.692,SL_sali_41,2021.2.3,Win32,29.94011976,1.2796,,,24,0,24,0,1,,,,,,,,
,,"[""diamond"",""red"",""hori"",""left"",[0,-150],[-106,-106]]",diamond,red,hori,left,"[0,-150]","[-106,-106]",left,1,,,,,,001,2025-03-17_15h16.34.692,SL_sali_41,2021.2.3,Win32,29.94011976,1.5747,,,25,0,25,0,1,,,,,,,,
,,"[""circle"",""red"",""hori"",""left"",[106,106],[106,-106]]",circle,red,hori,left,"[106,106]","[106,-106]",left,1,,,,,,001,2025-03-17_15h16.34.692,SL_sali_41,2021.2.3,Win32,29.94011976,1.6501,,,26,0,26,0,1,,,,,,,,
,,"[""circle"",""green"",""hori"",""left"",[0,-150],[106,-106]]",circle,green,hori,left,"[0,-150]","[106,-106]",left,1,,,,,,001,2025-03-17_15h16.34.692,SL_sali_41,2021.2.3,Win32,29.94011976,2.7218,,,27,0,27,0,1,,,,,,,,
,,"[""diamond"",""green"",""vert"",""up"",[106,106],[-106,106]]",diamond,green,vert,up,"[106,106]","[-106,106]",up,1,,,,,,001,2025-03-17_15h16.34.692,SL_sali_41,2021.2.3,Win32,29.94011976,2.7117,,,28,0,28,0,1,,,,,,,,
,,"[""circle"",""green"",""vert"",""up"",[106,-106],[106,106]]",circle,green,vert,up,"[106,-106]","[106,106]",up,1,,,,,,001,2025-03-17_15h16.34.692,SL_sali_41,2021.2.3,Win32,29.94011976,2.8246,,,29,0,29,0,1,,,,,,,,
,,"[""diamond"",""no_dis"",""vert"",""up"",[99999,99999],[-150,0]]",diamond,no_dis,vert,up,"[99999,99999]","[-150,0]",up,1,,,,,,001,2025-03-17_15h16.34.692,SL_sali_41,2021.2.3,Win32,29.94011976,1.1794,,,30,0,30,0,1,,,,,,,,
,,"[""circle"",""green"",""vert"",""up"",[0,-150],[106,-106]]",circle,green,vert,up,"[0,-150]","[106,-106]",up,1,,,,,,001,2025-03-17_15h16.34.692,SL_sali_41,2021.2.3,Win32,29.94011976,1.6147,,,31,0,31,0,1,,,,,,,,
,,"[""circle"",""no_dis"",""hori"",""left"",[99999,99999],[0,150]]",circle,no_dis,hori,left,"[99999,99999]","[0,150]",left,1,,,,,,001,2025-03-17_15h16.34.692,SL_sali_41,2021.2.3,Win32,29.94011976,1.6559,,,32,0,32,0,1,,,,,,,,
,,"[""circle"",""red"",""vert"",""up"",[-106,-106],[106,106]]",circle,red,vert,up,"[-106,-106]","[106,106]",up,1,,,,,,001,2025-03-17_15h16.34.692,SL_sali_41,2021.2.3,Win32,29.94011976,1.5236,,,33,0,33,0,1,,,,,,,,
,,"[""circle"",""no_dis"",""hori"",""left"",[99999,99999],[106,106]]",circle,no_dis,hori,left,"[99999,99999]","[106,106]",left,1,,,,,,001,2025-03-17_15h16.34.692,SL_sali_41,2021.2.3,Win32,29.94011976,1.8921,,,34,0,34,0,1,,,,,,,,
,,"[""circle"",""green"",""vert"",""up"",[106,106],[0,-150]]",circle,green,vert,up,"[106,106]","[0,-150]",up,1,,,,,,001,2025-03-17_15h16.34.692,SL_sali_41,2021.2.3,Win32,29.94011976,1.172,,,35,0,35,0,1,,,,,,,,
,,"[""diamond"",""green"",""hori"",""left"",[106,106],[-106,106]]",diamond,green,hori,left,"[106,106]","[-106,106]",left,1,,,,,,001,2025-03-17_15h16.34.692,SL_sali_41,2021.2.3,Win32,29.94011976,1.514,,,36,0,36,0,1,,,,,,,,
,,"[""circle"",""red"",""vert"",""up"",[106,106],[0,-150]]",circle,red,vert,up,"[106,106]","[0,-150]",up,1,,,,,,001,2025-03-17_15h16.34.692,SL_sali_41,2021.2.3,Win32,29.94011976,1.8691,,,37,0,37,0,1,,,,,,,,
,,"[""diamond"",""red"",""vert"",""up"",[106,106],[-150,0]]",diamond,red,vert,up,"[106,106]","[-150,0]",up,1,,,,,,001,2025-03-17_15h16.34.692,SL_sali_41,2021.2.3,Win32,29.94011976,1.0728,,,38,0,38,0,1,,,,,,,,
,,"[""circle"",""green"",""hori"",""left"",[150,0],[-150,0]]",circle,green,hori,left,"[150,0]","[-150,0]",left,1,,,,,,001,2025-03-17_15h16.34.692,SL_sali_41,2021.2.3,Win32,29.94011976,1.7106,,,39,0,39,0,1,,,,,,,,
,,"[""diamond"",""red"",""hori"",""left"",[150,0],[0,150]]",diamond,red,hori,left,"[150,0]","[0,150]",left,1,,,,,,001,2025-03-17_15h16.34.692,SL_sali_41,2021.2.3,Win32,29.94011976,1.7459,,,40,0,40,0,1,,,,,,,,
,,"[""circle"",""red"",""hori"",""left"",[106,106],[0,150]]",circle,red,hori,left,"[106,106]","[0,150]",left,1,,,,,,001,2025-03-17_15h16.34.692,SL_sali_41,2021.2.3,Win32,29.94011976,1.8948,,,41,0,41,0,1,,,,,,,,
,,"[""diamond"",""no_dis"",""vert"",""up"",[99999,99999],[-150,0]]",diamond,no_dis,vert,up,"[99999,99999]","[-150,0]",up,1,,,,,,001,2025-03-17_15h16.34.692,SL_sali_41,2021.2.3,Win32,29.94011976,1.4835,,,42,0,42,0,1,,,,,,,,
,,"[""circle"",""no_dis"",""hori"",""left"",[99999,99999],[-106,106]]",circle,no_dis,hori,left,"[99999,99999]","[-106,106]",left,1,,,,,,001,2025-03-17_15h16.34.692,SL_sali_41,2021.2.3,Win32,29.94011976,1.5226,,,43,0,43,0,1,,,,,,,,
,,"[""circle"",""green"",""hori"",""left"",[106,106],[-150,0]]",circle,green,hori,left,"[106,106]","[-150,0]",left,1,,,,,,001,2025-03-17_15h16.34.692,SL_sali_41,2021.2.3,Win32,29.94011976,1.5673,,,44,0,44,0,1,,,,,,,,
,,"[""diamond"",""no_dis"",""hori"",""left"",[99999,99999],[106,-106]]",diamond,no_dis,hori,left,"[99999,99999]","[106,-106]",left,1,,,,,,001,2025-03-17_15h16.34.692,SL_sali_41,2021.2.3,Win32,29.94011976,1.342,,,45,0,45,0,1,,,,,,,,
,,"[""circle"",""red"",""hori"",""left"",[150,0],[0,150]]",circle,red,hori,left,"[150,0]","[0,150]",left,1,,,,,,001,2025-03-17_15h16.34.692,SL_sali_41,2021.2.3,Win32,29.94011976,1.2993,,,46,0,46,0,1,,,,,,,,
,,"[""circle"",""red"",""vert"",""up"",[106,106],[150,0]]",circle,red,vert,up,"[106,106]","[150,0]",up,1,,,,,,001,2025-03-17_15h16.34.692,SL_sali_41,2021.2.3,Win32,29.94011976,1.5243,,,47,0,47,0,1,,,,,,,,
,,"[""circle"",""red"",""hori"",""left"",[106,-106],[0,-150]]",circle,red,hori,left,"[106,-106]","[0,-150]",left,1,,,,,,001,2025-03-17_15h16.34.692,SL_sali_41,2021.2.3,Win32,29.94011976,2.0655,,,48,0,48,0,1,,,,,,,,
,,"[""diamond"",""green"",""hori"",""left"",[106,-106],[0,150]]",diamond,green,hori,left,"[106,-106]","[0,150]",left,1,,,,,,001,2025-03-17_15h16.34.692,SL_sali_41,2021.2.3,Win32,29.94011976,1.6886,,,49,0,49,0,1,,,,,,,,
,,"[""diamond"",""green"",""vert"",""up"",[150,0],[106,106]]",diamond,green,vert,up,"[150,0]","[106,106]",up,1,,,,,,001,2025-03-17_15h16.34.692,SL_sali_41,2021.2.3,Win32,29.94011976,1.0724,,,50,0,50,0,1,,,,,,,,
,,"[""circle"",""green"",""vert"",""up"",[106,106],[0,150]]",circle,green,vert,up,"[106,106]","[0,150]",up,1,,,,,,001,2025-03-17_15h16.34.692,SL_sali_41,2021.2.3,Win32,29.94011976,2.5632,,,51,0,51,0,1,,,,,,,,
,,"[""diamond"",""no_dis"",""vert"",""up"",[99999,99999],[-106,106]]",diamond,no_dis,vert,up,"[99999,99999]","[-106,106]",up,1,,,,,,001,2025-03-17_15h16.34.692,SL_sali_41,2021.2.3,Win32,29.94011976,1.5931,,,52,0,52,0,1,,,,,,,,
,,"[""diamond"",""no_dis"",""hori"",""left"",[99999,99999],[-106,-106]]",diamond,no_dis,hori,left,"[99999,99999]","[-106,-106]",left,1,,,,,,001,2025-03-17_15h16.34.692,SL_sali_41,2021.2.3,Win32,29.94011976,1.4147,,,53,0,53,0,1,,,,,,,,
,,"[""circle"",""green"",""hori"",""left"",[0,150],[106,106]]",circle,green,hori,left,"[0,150]","[106,106]",left,1,,,,,,001,2025-03-17_15h16.34.692,SL_sali_41,2021.2.3,Win32,29.94011976,1.9608,,,54,0,54,0,1,,,,,,,,
,,"[""circle"",""red"",""hori"",""left"",[106,106],[-106,-106]]",circle,red,hori,left,"[106,106]","[-106,-106]",left,1,,,,,,001,2025-03-17_15h16.34.692,SL_sali_41,2021.2.3,Win32,29.94011976,1.0092,,,55,0,55,0,1,,,,,,,,
,,"[""diamond"",""green"",""vert"",""up"",[106,106],[-106,106]]",diamond,green,vert,up,"[106,106]","[-106,106]",up,1,,,,,,001,2025-03-17_15h16.34.692,SL_sali_41,2021.2.3,Win32,29.94011976,2.1387,,,56,0,56,0,1,,,,,,,,
,,"[""circle"",""no_dis"",""hori"",""left"",[99999,99999],[0,150]]",circle,no_dis,hori,left,"[99999,99999]","[0,150]",left,1,,,,,,001,2025-03-17_15h16.34.692,SL_sali_41,2021.2.3,Win32,29.94011976,1.1025,,,57,0,57,0,1,,,,,,,,
,,"[""diamond"",""red"",""hori"",""left"",[106,-106],[0,-150]]",diamond,red,hori,left,"[106,-106]","[0,-150]",left,1,,,,,,001,2025-03-17_15h16.34.692,SL_sali_41,2021.2.3,Win32,29.94011976,1.3386,,,58,0,58,0,1,,,,,,,,
,,"[""diamond"",""green"",""hori"",""left"",[150,0],[-150,0]]",diamond,green,hori,left,"[150,0]","[-150,0]",left,1,,,,,,001,2025-03-17_15h16.34.692,SL_sali_41,2021.2.3,Win32,29.94011976,1.2525,,,59,0,59,0,1,,,,,,,,
,,"[""diamond"",""green"",""hori"",""left"",[-150,0],[106,-106]]",diamond,green,hori,left,"[-150,0]","[106,-106]",left,1,,,,,,001,2025-03-17_15h16.34.692,SL_sali_41,2021.2.3,Win32,29.94011976,1.1495,,,60,0,60,0,1,,,,,,,,
,,"[""circle"",""red"",""vert"",""up"",[-106,-106],[-106,106]]",circle,red,vert,up,"[-106,-106]","[-106,106]",up,1,,,,,,001,2025-03-17_15h16.34.692,SL_sali_41,2021.2.3,Win32,29.94011976,1.5506,,,61,0,61,0,1,,,,,,,,
,,"[""circle"",""red"",""vert"",""up"",[-106,106],[0,-150]]",circle,red,vert,up,"[-106,106]","[0,-150]",up,1,,,,,,001,2025-03-17_15h16.34.692,SL_sali_41,2021.2.3,Win32,29.94011976,1.3409,,,62,0,62,0,1,,,,,,,,
,,"[""circle"",""green"",""vert"",""up"",[0,150],[106,-106]]",circle,green,vert,up,"[0,150]","[106,-106]",up,1,,,,,,001,2025-03-17_15h16.34.692,SL_sali_41,2021.2.3,Win32,29.94011976,1.1265,,,63,0,63,0,1,,,,,,,,
,,"[""diamond"",""red"",""vert"",""up"",[106,106],[0,150]]",diamond,red,vert,up,"[106,106]","[0,150]",left,0,,,,,,001,2025-03-17_15h16.34.692,SL_sali_41,2021.2.3,Win32,29.94011976,1.5596,,,64,0,64,0,1,,,,,,,,
,,"[""circle"",""red"",""vert"",""up"",[106,106],[0,150]]",circle,red,vert,up,"[106,106]","[0,150]",up,1,,,,,,001,2025-03-17_15h16.34.692,SL_sali_41,2021.2.3,Win32,29.94011976,1.8513,,,65,0,65,0,1,,,,,,,,
,,"[""diamond"",""red"",""hori"",""left"",[-150,0],[-106,-106]]",diamond,red,hori,left,"[-150,0]","[-106,-106]",up,0,,,,,,001,2025-03-17_15h16.34.692,SL_sali_41,2021.2.3,Win32,29.94011976,2.3921,,,66,0,66,0,1,,,,,,,,
,,"[""circle"",""no_dis"",""vert"",""up"",[99999,99999],[106,106]]",circle,no_dis,vert,up,"[99999,99999]","[106,106]",up,1,,,,,,001,2025-03-17_15h16.34.692,SL_sali_41,2021.2.3,Win32,29.94011976,1.56,,,67,0,67,0,1,,,,,,,,
,,"[""diamond"",""green"",""vert"",""up"",[106,106],[0,-150]]",diamond,green,vert,up,"[106,106]","[0,-150]",up,1,,,,,,001,2025-03-17_15h16.34.692,SL_sali_41,2021.2.3,Win32,29.94011976,1.3085,,,68,0,68,0,1,,,,,,,,
,,"[""diamond"",""red"",""vert"",""up"",[106,106],[0,150]]",diamond,red,vert,up,"[106,106]","[0,150]",up,1,,,,,,001,2025-03-17_15h16.34.692,SL_sali_41,2021.2.3,Win32,29.94011976,1.606,,,69,0,69,0,1,,,,,,,,
,,"[""diamond"",""red"",""hori"",""left"",[150,0],[0,-150]]",diamond,red,hori,left,"[150,0]","[0,-150]",left,1,,,,,,001,2025-03-17_15h16.34.692,SL_sali_41,2021.2.3,Win32,29.94011976,1.1631,,,70,0,70,0,1,,,,,,,,
,,"[""circle"",""green"",""hori"",""left"",[106,-106],[0,-150]]",circle,green,hori,left,"[106,-106]","[0,-150]",left,1,,,,,,001,2025-03-17_15h16.34.692,SL_sali_41,2021.2.3,Win32,29.94011976,1.5149,,,71,0,71,0,1,,,,,,,,
,,"[""diamond"",""green"",""hori"",""left"",[0,150],[-150,0]]",diamond,green,hori,left,"[0,150]","[-150,0]",left,1,,,,,,001,2025-03-17_15h16.34.692,SL_sali_41,2021.2.3,Win32,29.94011976,2.0795,,,72,0,72,0,1,,,,,,,,
,,"[""diamond"",""no_dis"",""vert"",""up"",[99999,99999],[150,0]]",diamond,no_dis,vert,up,"[99999,99999]","[150,0]",up,1,,,,,,001,2025-03-17_15h16.34.692,SL_sali_41,2021.2.3,Win32,29.94011976,1.1731,,,73,0,73,0,1,,,,,,,,
,,"[""circle"",""red"",""hori"",""left"",[-150,0],[0,150]]",circle,red,hori,left,"[-150,0]","[0,150]",left,1,,,,,,001,2025-03-17_15h16.34.692,SL_sali_41,2021.2.3,Win32,29.94011976,1.8273,,,74,0,74,0,1,,,,,,,,
,,"[""diamond"",""red"",""vert"",""up"",[106,106],[-106,-106]]",diamond,red,vert,up,"[106,106]","[-106,-106]",up,1,,,,,,001,2025-03-17_15h16.34.692,SL_sali_41,2021.2.3,Win32,29.94011976,1.3383,,,75,0,75,0,1,,,,,,,,
,,"[""circle"",""green"",""vert"",""up"",[-106,-106],[0,-150]]",circle,green,vert,up,"[-106,-106]","[0,-150]",up,1,,,,,,001,2025-03-17_15h16.34.692,SL_sali_41,2021.2.3,Win32,29.94011976,2.3358,,,76,0,76,0,1,,,,,,,,
,,"[""circle"",""red"",""vert"",""up"",[106,-106],[0,-150]]",circle,red,vert,up,"[106,-106]","[0,-150]",up,1,,,,,,001,2025-03-17_15h16.34.692,SL_sali_41,2021.2.3,Win32,29.94011976,2.3809,,,77,0,77,0,1,,,,,,,,
,,"[""diamond"",""no_dis"",""vert"",""up"",[99999,99999],[0,150]]",diamond,no_dis,vert,up,"[99999,99999]","[0,150]",up,1,,,,,,001,2025-03-17_15h16.34.692,SL_sali_41,2021.2.3,Win32,29.94011976,1.0743,,,78,0,78,0,1,,,,,,,,
,,"[""circle"",""red"",""hori"",""left"",[-106,-106],[-150,0]]",circle,red,hori,left,"[-106,-106]","[-150,0]",left,1,,,,,,001,2025-03-17_15h16.34.692,SL_sali_41,2021.2.3,Win32,29.94011976,1.2219,,,79,0,79,0,1,,,,,,,,
,,"[""diamond"",""red"",""hori"",""left"",[0,-150],[150,0]]",diamond,red,hori,left,"[0,-150]","[150,0]",left,1,,,,,,001,2025-03-17_15h16.34.692,SL_sali_41,2021.2.3,Win32,29.94011976,1.1806,,,80,0,80,0,1,,,,,,,,
,,"[""circle"",""red"",""hori"",""left"",[-150,0],[106,-106]]",circle,red,hori,left,"[-150,0]","[106,-106]",left,1,,,,,,001,2025-03-17_15h16.34.692,SL_sali_41,2021.2.3,Win32,29.94011976,1.1153,,,81,0,81,0,1,,,,,,,,
,,"[""diamond"",""red"",""vert"",""up"",[-150,0],[-106,-106]]",diamond,red,vert,up,"[-150,0]","[-106,-106]",up,1,,,,,,001,2025-03-17_15h16.34.692,SL_sali_41,2021.2.3,Win32,29.94011976,1.0399,,,82,0,82,0,1,,,,,,,,
,,"[""circle"",""no_dis"",""vert"",""up"",[99999,99999],[0,150]]",circle,no_dis,vert,up,"[99999,99999]","[0,150]",up,1,,,,,,001,2025-03-17_15h16.34.692,SL_sali_41,2021.2.3,Win32,29.94011976,1.867,,,83,0,83,0,1,,,,,,,,
,,"[""diamond"",""red"",""hori"",""left"",[-106,106],[150,0]]",diamond,red,hori,left,"[-106,106]","[150,0]",left,1,,,,,,001,2025-03-17_15h16.34.692,SL_sali_41,2021.2.3,Win32,29.94011976,0.9929,,,84,0,84,0,1,,,,,,,,
,,"[""circle"",""green"",""hori"",""left"",[0,-150],[-106,106]]",circle,green,hori,left,"[0,-150]","[-106,106]",left,1,,,,,,001,2025-03-17_15h16.34.692,SL_sali_41,2021.2.3,Win32,29.94011976,2.0349,,,85,0,85,0,1,,,,,,,,
,,"[""circle"",""red"",""vert"",""up"",[106,106],[0,150]]",circle,red,vert,up,"[106,106]","[0,150]",up,1,,,,,,001,2025-03-17_15h16.34.692,SL_sali_41,2021.2.3,Win32,29.94011976,1.3975,,,86,0,86,0,1,,,,,,,,
,,"[""circle"",""no_dis"",""hori"",""left"",[99999,99999],[0,-150]]",circle,no_dis,hori,left,"[99999,99999]","[0,-150]",left,1,,,,,,001,2025-03-17_15h16.34.692,SL_sali_41,2021.2.3,Win32,29.94011976,1.0352,,,87,0,87,0,1,,,,,,,,
,,"[""diamond"",""red"",""vert"",""up"",[-106,-106],[-106,106]]",diamond,red,vert,up,"[-106,-106]","[-106,106]",up,1,,,,,,001,2025-03-17_15h16.34.692,SL_sali_41,2021.2.3,Win32,29.94011976,1.9925,,,88,0,88,0,1,,,,,,,,
,,"[""diamond"",""red"",""vert"",""up"",[-106,106],[0,150]]",diamond,red,vert,up,"[-106,106]","[0,150]",up,1,,,,,,001,2025-03-17_15h16.34.692,SL_sali_41,2021.2.3,Win32,29.94011976,1.6817,,,89,0,89,0,1,,,,,,,,
,,"[""circle"",""no_dis"",""hori"",""left"",[99999,99999],[150,0]]",circle,no_dis,hori,left,"[99999,99999]","[150,0]",left,1,,,,,,001,2025-03-17_15h16.34.692,SL_sali_41,2021.2.3,Win32,29.94011976,1.7896,,,90,0,90,0,1,,,,,,,,
,,"[""diamond"",""no_dis"",""vert"",""up"",[99999,99999],[0,-150]]",diamond,no_dis,vert,up,"[99999,99999]","[0,-150]",up,1,,,,,,001,2025-03-17_15h16.34.692,SL_sali_41,2021.2.3,Win32,29.94011976,1.0494,,,91,0,91,0,1,,,,,,,,
,,"[""circle"",""red"",""hori"",""left"",[106,106],[-150,0]]",circle,red,hori,left,"[106,106]","[-150,0]",left,1,,,,,,001,2025-03-17_15h16.34.692,SL_sali_41,2021.2.3,Win32,29.94011976,1.8549,,,92,0,92,0,1,,,,,,,,
,,"[""diamond"",""no_dis"",""vert"",""up"",[99999,99999],[106,106]]",diamond,no_dis,vert,up,"[99999,99999]","[106,106]",up,1,,,,,,001,2025-03-17_15h16.34.692,SL_sali_41,2021.2.3,Win32,29.94011976,1.6116,,,93,0,93,0,1,,,,,,,,
,,"[""circle"",""no_dis"",""hori"",""left"",[99999,99999],[-106,106]]",circle,no_dis,hori,left,"[99999,99999]","[-106,106]",left,1,,,,,,001,2025-03-17_15h16.34.692,SL_sali_41,2021.2.3,Win32,29.94011976,1.0183,,,94,0,94,0,1,,,,,,,,
,,"[""diamond"",""green"",""hori"",""left"",[106,106],[150,0]]",diamond,green,hori,left,"[106,106]","[150,0]",left,1,,,,,,001,2025-03-17_15h16.34.692,SL_sali_41,2021.2.3,Win32,29.94011976,1.2874,,,95,0,95,0,1,,,,,,,,
,,"[""circle"",""no_dis"",""hori"",""left"",[99999,99999],[-106,-106]]",circle,no_dis,hori,left,"[99999,99999]","[-106,-106]",left,1,,,,,,001,2025-03-17_15h16.34.692,SL_sali_41,2021.2.3,Win32,29.94011976,1.6521,,,96,0,96,0,1,,,,,,,,
,,"[""circle"",""green"",""hori"",""left"",[-150,0],[150,0]]",circle,green,hori,left,"[-150,0]","[150,0]",left,1,,,,,,001,2025-03-17_15h16.34.692,SL_sali_41,2021.2.3,Win32,29.94011976,1.2669,,,97,0,97,0,1,,,,,,,,
,,"[""circle"",""red"",""vert"",""up"",[106,106],[-150,0]]",circle,red,vert,up,"[106,106]","[-150,0]",up,1,,,,,,001,2025-03-17_15h16.34.692,SL_sali_41,2021.2.3,Win32,29.94011976,2.4449,,,98,0,98,0,1,,,,,,,,
,,"[""diamond"",""no_dis"",""vert"",""up"",[99999,99999],[106,-106]]",diamond,no_dis,vert,up,"[99999,99999]","[106,-106]",up,1,,,,,,001,2025-03-17_15h16.34.692,SL_sali_41,2021.2.3,Win32,29.94011976,1.2036,,,99,0,99,0,1,,,,,,,,
,,"[""diamond"",""no_dis"",""vert"",""up"",[99999,99999],[-106,-106]]",diamond,no_dis,vert,up,"[99999,99999]","[-106,-106]",up,1,,,,,,001,2025-03-17_15h16.34.692,SL_sali_41,2021.2.3,Win32,29.94011976,2.2613,,,100,0,100,0,1,,,,,,,,
,,"[""circle"",""no_dis"",""vert"",""up"",[99999,99999],[150,0]]",circle,no_dis,vert,up,"[99999,99999]","[150,0]",up,1,,,,,,001,2025-03-17_15h16.34.692,SL_sali_41,2021.2.3,Win32,29.94011976,2.2207,,,101,0,101,0,1,,,,,,,,
,,"[""diamond"",""green"",""hori"",""left"",[106,106],[0,150]]",diamond,green,hori,left,"[106,106]","[0,150]",left,1,,,,,,001,2025-03-17_15h16.34.692,SL_sali_41,2021.2.3,Win32,29.94011976,1.1943,,,102,0,102,0,1,,,,,,,,
,,"[""diamond"",""no_dis"",""hori"",""left"",[99999,99999],[0,-150]]",diamond,no_dis,hori,left,"[99999,99999]","[0,-150]",left,1,,,,,,001,2025-03-17_15h16.34.692,SL_sali_41,2021.2.3,Win32,29.94011976,1.2256,,,103,0,103,0,1,,,,,,,,
,,"[""circle"",""green"",""hori"",""left"",[0,-150],[106,106]]",circle,green,hori,left,"[0,-150]","[106,106]",left,1,,,,,,001,2025-03-17_15h16.34.692,SL_sali_41,2021.2.3,Win32,29.94011976,1.2672,,,104,0,104,0,1,,,,,,,,
,,"[""diamond"",""green"",""vert"",""up"",[106,106],[0,150]]",diamond,green,vert,up,"[106,106]","[0,150]",up,1,,,,,,001,2025-03-17_15h16.34.692,SL_sali_41,2021.2.3,Win32,29.94011976,1.1088,,,105,0,105,0,1,,,,,,,,
,,"[""diamond"",""green"",""hori"",""left"",[-150,0],[106,-106]]",diamond,green,hori,left,"[-150,0]","[106,-106]",left,1,,,,,,001,2025-03-17_15h16.34.692,SL_sali_41,2021.2.3,Win32,29.94011976,0.9962,,,106,0,106,0,1,,,,,,,,
,,"[""circle"",""no_dis"",""vert"",""up"",[99999,99999],[-150,0]]",circle,no_dis,vert,up,"[99999,99999]","[-150,0]",up,1,,,,,,001,2025-03-17_15h16.34.692,SL_sali_41,2021.2.3,Win32,29.94011976,1.2309,,,107,0,107,0,1,,,,,,,,
,,"[""diamond"",""no_dis"",""hori"",""left"",[99999,99999],[106,-106]]",diamond,no_dis,hori,left,"[99999,99999]","[106,-106]",left,1,,,,,,001,2025-03-17_15h16.34.692,SL_sali_41,2021.2.3,Win32,29.94011976,0.712,,,108,0,108,0,1,,,,,,,,
,,"[""circle"",""no_dis"",""vert"",""up"",[99999,99999],[106,-106]]",circle,no_dis,vert,up,"[99999,99999]","[106,-106]",up,1,,,,,,001,2025-03-17_15h16.34.692,SL_sali_41,2021.2.3,Win32,29.94011976,1.152,,,109,0,109,0,1,,,,,,,,
,,"[""circle"",""red"",""hori"",""left"",[106,106],[-106,106]]",circle,red,hori,left,"[106,106]","[-106,106]",left,1,,,,,,001,2025-03-17_15h16.34.692,SL_sali_41,2021.2.3,Win32,29.94011976,2.4905,,,110,0,110,0,1,,,,,,,,
,,"[""diamond"",""red"",""vert"",""up"",[106,106],[-106,-106]]",diamond,red,vert,up,"[106,106]","[-106,-106]",up,1,,,,,,001,2025-03-17_15h16.34.692,SL_sali_41,2021.2.3,Win32,29.94011976,0.8806,,,111,0,111,0,1,,,,,,,,
,,"[""diamond"",""red"",""hori"",""left"",[-106,106],[0,150]]",diamond,red,hori,left,"[-106,106]","[0,150]",left,1,,,,,,001,2025-03-17_15h16.34.692,SL_sali_41,2021.2.3,Win32,29.94011976,2.054,,,112,0,112,0,1,,,,,,,,
,,"[""diamond"",""no_dis"",""hori"",""left"",[99999,99999],[106,106]]",diamond,no_dis,hori,left,"[99999,99999]","[106,106]",left,1,,,,,,001,2025-03-17_15h16.34.692,SL_sali_41,2021.2.3,Win32,29.94011976,0.9384,,,113,0,113,0,1,,,,,,,,
,,"[""diamond"",""green"",""hori"",""left"",[106,106],[0,-150]]",diamond,green,hori,left,"[106,106]","[0,-150]",left,1,,,,,,001,2025-03-17_15h16.34.692,SL_sali_41,2021.2.3,Win32,29.94011976,0.9991,,,114,0,114,0,1,,,,,,,,
,,"[""circle"",""red"",""hori"",""left"",[-106,106],[0,150]]",circle,red,hori,left,"[-106,106]","[0,150]",left,1,,,,,,001,2025-03-17_15h16.34.692,SL_sali_41,2021.2.3,Win32,29.94011976,2.1182,,,115,0,115,0,1,,,,,,,,
,,"[""circle"",""green"",""hori"",""left"",[106,106],[150,0]]",circle,green,hori,left,"[106,106]","[150,0]",left,1,,,,,,001,2025-03-17_15h16.34.692,SL_sali_41,2021.2.3,Win32,29.94011976,2.8273,,,116,0,116,0,1,,,,,,,,
,,"[""circle"",""no_dis"",""vert"",""up"",[99999,99999],[150,0]]",circle,no_dis,vert,up,"[99999,99999]","[150,0]",up,1,,,,,,001,2025-03-17_15h16.34.692,SL_sali_41,2021.2.3,Win32,29.94011976,2.2865,,,117,0,117,0,1,,,,,,,,
,,"[""circle"",""green"",""hori"",""left"",[-150,0],[0,150]]",circle,green,hori,left,"[-150,0]","[0,150]",left,1,,,,,,001,2025-03-17_15h16.34.692,SL_sali_41,2021.2.3,Win32,29.94011976,1.557,,,118,0,118,0,1,,,,,,,,
,,"[""circle"",""no_dis"",""vert"",""up"",[99999,99999],[0,150]]",circle,no_dis,vert,up,"[99999,99999]","[0,150]",up,1,,,,,,001,2025-03-17_15h16.34.692,SL_sali_41,2021.2.3,Win32,29.94011976,2.0569,,,119,0,119,0,1,,,,,,,,
,,"[""circle"",""no_dis"",""hori"",""left"",[99999,99999],[-150,0]]",circle,no_dis,hori,left,"[99999,99999]","[-150,0]",left,1,,,,,,001,2025-03-17_15h16.34.692,SL_sali_41,2021.2.3,Win32,29.94011976,0.9018,,,120,0,120,0,1,,,,,,,,
,,"[""diamond"",""red"",""hori"",""left"",[106,-106],[106,106]]",diamond,red,hori,left,"[106,-106]","[106,106]",left,1,,,,,,001,2025-03-17_15h16.34.692,SL_sali_41,2021.2.3,Win32,29.94011976,2.0168,,,121,0,121,0,1,,,,,,,,
,,"[""circle"",""red"",""vert"",""up"",[-106,-106],[0,150]]",circle,red,vert,up,"[-106,-106]","[0,150]",up,1,,,,,,001,2025-03-17_15h16.34.692,SL_sali_41,2021.2.3,Win32,29.94011976,1.7779,,,122,0,122,0,1,,,,,,,,
,,"[""circle"",""no_dis"",""vert"",""up"",[99999,99999],[-106,106]]",circle,no_dis,vert,up,"[99999,99999]","[-106,106]",up,1,,,,,,001,2025-03-17_15h16.34.692,SL_sali_41,2021.2.3,Win32,29.94011976,1.0308,,,123,0,123,0,1,,,,,,,,
,,"[""diamond"",""no_dis"",""hori"",""left"",[99999,99999],[-106,106]]",diamond,no_dis,hori,left,"[99999,99999]","[-106,106]",left,1,,,,,,001,2025-03-17_15h16.34.692,SL_sali_41,2021.2.3,Win32,29.94011976,0.8492,,,124,0,124,0,1,,,,,,,,
,,"[""diamond"",""green"",""vert"",""up"",[-106,106],[-150,0]]",diamond,green,vert,up,"[-106,106]","[-150,0]",up,1,,,,,,001,2025-03-17_15h16.34.692,SL_sali_41,2021.2.3,Win32,29.94011976,1.272,,,125,0,125,0,1,,,,,,,,
,,"[""diamond"",""no_dis"",""hori"",""left"",[99999,99999],[150,0]]",diamond,no_dis,hori,left,"[99999,99999]","[150,0]",left,1,,,,,,001,2025-03-17_15h16.34.692,SL_sali_41,2021.2.3,Win32,29.94011976,0.8744,,,126,0,126,0,1,,,,,,,,
,,"[""circle"",""green"",""vert"",""up"",[-106,-106],[0,150]]",circle,green,vert,up,"[-106,-106]","[0,150]",up,1,,,,,,001,2025-03-17_15h16.34.692,SL_sali_41,2021.2.3,Win32,29.94011976,1.3764,,,127,0,127,0,1,,,,,,,,
,,,,,,,,,,,,,,,,001,2025-03-17_15h16.34.692,SL_sali_41,2021.2.3,Win32,29.94011976,,,,,,,,,3,space,277.8479,2,0,2,0,1
,,"[""diamond"",""no_dis"",""hori"",""left"",[99999,99999],[-106,-106]]",diamond,no_dis,hori,left,"[99999,99999]","[-106,-106]",left,1,,,,,,001,2025-03-17_15h16.34.692,SL_sali_41,2021.2.3,Win32,29.94011976,1.7061,,,0,0,0,0,1,,,,,,,,
,,"[""circle"",""green"",""hori"",""left"",[-150,0],[0,150]]",circle,green,hori,left,"[-150,0]","[0,150]",left,1,,,,,,001,2025-03-17_15h16.34.692,SL_sali_41,2021.2.3,Win32,29.94011976,1.5687,,,1,0,1,0,1,,,,,,,,
,,"[""circle"",""red"",""vert"",""up"",[-106,-106],[0,150]]",circle,red,vert,up,"[-106,-106]","[0,150]",up,1,,,,,,001,2025-03-17_15h16.34.692,SL_sali_41,2021.2.3,Win32,29.94011976,1.1308,,,2,0,2,0,1,,,,,,,,
,,"[""diamond"",""green"",""vert"",""up"",[106,106],[0,-150]]",diamond,green,vert,up,"[106,106]","[0,-150]",up,1,,,,,,001,2025-03-17_15h16.34.692,SL_sali_41,2021.2.3,Win32,29.94011976,1.8161,,,3,0,3,0,1,,,,,,,,
,,"[""circle"",""green"",""vert"",""up"",[0,150],[106,106]]",circle,green,vert,up,"[0,150]","[106,106]",up,1,,,,,,001,2025-03-17_15h16.34.692,SL_sali_41,2021.2.3,Win32,29.94011976,1.4943,,,4,0,4,0,1,,,,,,,,
,,"[""diamond"",""green"",""hori"",""left"",[106,106],[106,-106]]",diamond,green,hori,left,"[106,106]","[106,-106]",left,1,,,,,,001,2025-03-17_15h16.34.692,SL_sali_41,2021.2.3,Win32,29.94011976,1.656,,,5,0,5,0,1,,,,,,,,
,,"[""diamond"",""green"",""vert"",""up"",[0,-150],[-106,-106]]",diamond,green,vert,up,"[0,-150]","[-106,-106]",up,1,,,,,,001,2025-03-17_15h16.34.692,SL_sali_41,2021.2.3,Win32,29.94011976,1.1835,,,6,0,6,0,1,,,,,,,,
,,"[""diamond"",""red"",""vert"",""up"",[-150,0],[-106,-106]]",diamond,red,vert,up,"[-150,0]","[-106,-106]",left,0,,,,,,001,2025-03-17_15h16.34.692,SL_sali_41,2021.2.3,Win32,29.94011976,1.1122,,,7,0,7,0,1,,,,,,,,
,,"[""circle"",""red"",""hori"",""left"",[106,106],[-150,0]]",circle,red,hori,left,"[106,106]","[-150,0]",left,1,,,,,,001,2025-03-17_15h16.34.692,SL_sali_41,2021.2.3,Win32,29.94011976,1.4331,,,8,0,8,0,1,,,,,,,,
,,"[""diamond"",""red"",""vert"",""up"",[106,106],[0,150]]",diamond,red,vert,up,"[106,106]","[0,150]",up,1,,,,,,001,2025-03-17_15h16.34.692,SL_sali_41,2021.2.3,Win32,29.94011976,1.9133,,,9,0,9,0,1,,,,,,,,
,,"[""circle"",""no_dis"",""vert"",""up"",[99999,99999],[-150,0]]",circle,no_dis,vert,up,"[99999,99999]","[-150,0]",up,1,,,,,,001,2025-03-17_15h16.34.692,SL_sali_41,2021.2.3,Win32,29.94011976,1.3625,,,10,0,10,0,1,,,,,,,,
,,"[""circle"",""green"",""vert"",""up"",[0,-150],[106,-106]]",circle,green,vert,up,"[0,-150]","[106,-106]",up,1,,,,,,001,2025-03-17_15h16.34.692,SL_sali_41,2021.2.3,Win32,29.94011976,1.9071,,,11,0,11,0,1,,,,,,,,
,,"[""circle"",""green"",""vert"",""up"",[106,-106],[150,0]]",circle,green,vert,up,"[106,-106]","[150,0]",up,1,,,,,,001,2025-03-17_15h16.34.692,SL_sali_41,2021.2.3,Win32,29.94011976,1.2371,,,12,0,12,0,1,,,,,,,,
,,"[""diamond"",""red"",""vert"",""up"",[-106,-106],[-106,106]]",diamond,red,vert,up,"[-106,-106]","[-106,106]",up,1,,,,,,001,2025-03-17_15h16.34.692,SL_sali_41,2021.2.3,Win32,29.94011976,1.6631,,,13,0,13,0,1,,,,,,,,
,,"[""circle"",""green"",""vert"",""up"",[106,106],[0,150]]",circle,green,vert,up,"[106,106]","[0,150]",up,1,,,,,,001,2025-03-17_15h16.34.692,SL_sali_41,2021.2.3,Win32,29.94011976,1.9336,,,14,0,14,0,1,,,,,,,,
,,"[""circle"",""red"",""hori"",""left"",[-106,106],[0,150]]",circle,red,hori,left,"[-106,106]","[0,150]",left,1,,,,,,001,2025-03-17_15h16.34.692,SL_sali_41,2021.2.3,Win32,29.94011976,1.2892,,,15,0,15,0,1,,,,,,,,
,,"[""diamond"",""no_dis"",""hori"",""left"",[99999,99999],[0,-150]]",diamond,no_dis,hori,left,"[99999,99999]","[0,-150]",left,1,,,,,,001,2025-03-17_15h16.34.692,SL_sali_41,2021.2.3,Win32,29.94011976,2.353,,,16,0,16,0,1,,,,,,,,
,,"[""circle"",""no_dis"",""hori"",""left"",[99999,99999],[-150,0]]",circle,no_dis,hori,left,"[99999,99999]","[-150,0]",left,1,,,,,,001,2025-03-17_15h16.34.692,SL_sali_41,2021.2.3,Win32,29.94011976,1.5363,,,17,0,17,0,1,,,,,,,,
,,"[""diamond"",""red"",""hori"",""left"",[106,106],[0,150]]",diamond,red,hori,left,"[106,106]","[0,150]",left,1,,,,,,001,2025-03-17_15h16.34.692,SL_sali_41,2021.2.3,Win32,29.94011976,1.5168,,,18,0,18,0,1,,,,,,,,
,,"[""circle"",""no_dis"",""vert"",""up"",[99999,99999],[150,0]]",circle,no_dis,vert,up,"[99999,99999]","[150,0]",up,1,,,,,,001,2025-03-17_15h16.34.692,SL_sali_41,2021.2.3,Win32,29.94011976,1.097,,,19,0,19,0,1,,,,,,,,
,,"[""circle"",""green"",""vert"",""up"",[0,150],[106,-106]]",circle,green,vert,up,"[0,150]","[106,-106]",up,1,,,,,,001,2025-03-17_15h16.34.692,SL_sali_41,2021.2.3,Win32,29.94011976,1.6298,,,20,0,20,0,1,,,,,,,,
,,"[""circle"",""red"",""vert"",""up"",[106,106],[0,150]]",circle,red,vert,up,"[106,106]","[0,150]",up,1,,,,,,001,2025-03-17_15h16.34.692,SL_sali_41,2021.2.3,Win32,29.94011976,1.3012,,,21,0,21,0,1,,,,,,,,
,,"[""diamond"",""no_dis"",""vert"",""up"",[99999,99999],[150,0]]",diamond,no_dis,vert,up,"[99999,99999]","[150,0]",up,1,,,,,,001,2025-03-17_15h16.34.692,SL_sali_41,2021.2.3,Win32,29.94011976,1.4673,,,22,0,22,0,1,,,,,,,,
,,"[""circle"",""red"",""vert"",""up"",[-106,-106],[-106,106]]",circle,red,vert,up,"[-106,-106]","[-106,106]",up,1,,,,,,001,2025-03-17_15h16.34.692,SL_sali_41,2021.2.3,Win32,29.94011976,1.7672,,,23,0,23,0,1,,,,,,,,
,,"[""diamond"",""red"",""vert"",""up"",[106,106],[0,150]]",diamond,red,vert,up,"[106,106]","[0,150]",up,1,,,,,,001,2025-03-17_15h16.34.692,SL_sali_41,2021.2.3,Win32,29.94011976,1.1896,,,24,0,24,0,1,,,,,,,,
,,"[""diamond"",""red"",""hori"",""left"",[-106,106],[150,0]]",diamond,red,hori,left,"[-106,106]","[150,0]",left,1,,,,,,001,2025-03-17_15h16.34.692,SL_sali_41,2021.2.3,Win32,29.94011976,1.1364,,,25,0,25,0,1,,,,,,,,
,,"[""circle"",""no_dis"",""hori"",""left"",[99999,99999],[-106,106]]",circle,no_dis,hori,left,"[99999,99999]","[-106,106]",left,1,,,,,,001,2025-03-17_15h16.34.692,SL_sali_41,2021.2.3,Win32,29.94011976,1.6937,,,26,0,26,0,1,,,,,,,,
,,"[""diamond"",""no_dis"",""hori"",""left"",[99999,99999],[106,-106]]",diamond,no_dis,hori,left,"[99999,99999]","[106,-106]",left,1,,,,,,001,2025-03-17_15h16.34.692,SL_sali_41,2021.2.3,Win32,29.94011976,1.0945,,,27,0,27,0,1,,,,,,,,
,,"[""circle"",""no_dis"",""vert"",""up"",[99999,99999],[106,-106]]",circle,no_dis,vert,up,"[99999,99999]","[106,-106]",up,1,,,,,,001,2025-03-17_15h16.34.692,SL_sali_41,2021.2.3,Win32,29.94011976,0.7097,,,28,0,28,0,1,,,,,,,,
,,"[""diamond"",""green"",""hori"",""left"",[106,106],[0,150]]",diamond,green,hori,left,"[106,106]","[0,150]",left,1,,,,,,001,2025-03-17_15h16.34.692,SL_sali_41,2021.2.3,Win32,29.94011976,1.3922,,,29,0,29,0,1,,,,,,,,
,,"[""diamond"",""green"",""vert"",""up"",[0,150],[-106,-106]]",diamond,green,vert,up,"[0,150]","[-106,-106]",up,1,,,,,,001,2025-03-17_15h16.34.692,SL_sali_41,2021.2.3,Win32,29.94011976,1.0377,,,30,0,30,0,1,,,,,,,,
,,"[""diamond"",""no_dis"",""vert"",""up"",[99999,99999],[106,-106]]",diamond,no_dis,vert,up,"[99999,99999]","[106,-106]",up,1,,,,,,001,2025-03-17_15h16.34.692,SL_sali_41,2021.2.3,Win32,29.94011976,1.278,,,31,0,31,0,1,,,,,,,,
,,"[""circle"",""green"",""vert"",""up"",[106,-106],[106,106]]",circle,green,vert,up,"[106,-106]","[106,106]",up,1,,,,,,001,2025-03-17_15h16.34.692,SL_sali_41,2021.2.3,Win32,29.94011976,1.4057,,,32,0,32,0,1,,,,,,,,
,,"[""circle"",""no_dis"",""vert"",""up"",[99999,99999],[106,106]]",circle,no_dis,vert,up,"[99999,99999]","[106,106]",up,1,,,,,,001,2025-03-17_15h16.34.692,SL_sali_41,2021.2.3,Win32,29.94011976,1.5442,,,33,0,33,0,1,,,,,,,,
,,"[""diamond"",""no_dis"",""hori"",""left"",[99999,99999],[150,0]]",diamond,no_dis,hori,left,"[99999,99999]","[150,0]",left,1,,,,,,001,2025-03-17_15h16.34.692,SL_sali_41,2021.2.3,Win32,29.94011976,1.007,,,34,0,34,0,1,,,,,,,,
,,"[""diamond"",""no_dis"",""vert"",""up"",[99999,99999],[0,150]]",diamond,no_dis,vert,up,"[99999,99999]","[0,150]",up,1,,,,,,001,2025-03-17_15h16.34.692,SL_sali_41,2021.2.3,Win32,29.94011976,1.2435,,,35,0,35,0,1,,,,,,,,
,,"[""circle"",""no_dis"",""hori"",""left"",[99999,99999],[0,-150]]",circle,no_dis,hori,left,"[99999,99999]","[0,-150]",left,1,,,,,,001,2025-03-17_15h16.34.692,SL_sali_41,2021.2.3,Win32,29.94011976,0.7959,,,36,0,36,0,1,,,,,,,,
,,"[""circle"",""red"",""hori"",""left"",[-150,0],[106,-106]]",circle,red,hori,left,"[-150,0]","[106,-106]",left,1,,,,,,001,2025-03-17_15h16.34.692,SL_sali_41,2021.2.3,Win32,29.94011976,0.9569,,,37,0,37,0,1,,,,,,,,
,,"[""circle"",""green"",""hori"",""left"",[0,-150],[106,-106]]",circle,green,hori,left,"[0,-150]","[106,-106]",left,1,,,,,,001,2025-03-17_15h16.34.692,SL_sali_41,2021.2.3,Win32,29.94011976,1.6894,,,38,0,38,0,1,,,,,,,,
,,"[""diamond"",""red"",""hori"",""left"",[150,0],[0,-150]]",diamond,red,hori,left,"[150,0]","[0,-150]",left,1,,,,,,001,2025-03-17_15h16.34.692,SL_sali_41,2021.2.3,Win32,29.94011976,1.4749,,,39,0,39,0,1,,,,,,,,
,,"[""circle"",""no_dis"",""vert"",""up"",[99999,99999],[150,0]]",circle,no_dis,vert,up,"[99999,99999]","[150,0]",up,1,,,,,,001,2025-03-17_15h16.34.692,SL_sali_41,2021.2.3,Win32,29.94011976,1.296,,,40,0,40,0,1,,,,,,,,
,,"[""circle"",""green"",""hori"",""left"",[0,-150],[106,-106]]",circle,green,hori,left,"[0,-150]","[106,-106]",left,1,,,,,,001,2025-03-17_15h16.34.692,SL_sali_41,2021.2.3,Win32,29.94011976,1.6049,,,41,0,41,0,1,,,,,,,,
,,"[""diamond"",""green"",""vert"",""up"",[0,150],[-106,-106]]",diamond,green,vert,up,"[0,150]","[-106,-106]",up,1,,,,,,001,2025-03-17_15h16.34.692,SL_sali_41,2021.2.3,Win32,29.94011976,2.5817,,,42,0,42,0,1,,,,,,,,
,,"[""circle"",""no_dis"",""hori"",""left"",[99999,99999],[0,-150]]",circle,no_dis,hori,left,"[99999,99999]","[0,-150]",left,1,,,,,,001,2025-03-17_15h16.34.692,SL_sali_41,2021.2.3,Win32,29.94011976,2.0637,,,43,0,43,0,1,,,,,,,,
,,"[""diamond"",""red"",""vert"",""up"",[150,0],[0,150]]",diamond,red,vert,up,"[150,0]","[0,150]",up,1,,,,,,001,2025-03-17_15h16.34.692,SL_sali_41,2021.2.3,Win32,29.94011976,1.9967,,,44,0,44,0,1,,,,,,,,
,,"[""circle"",""no_dis"",""vert"",""up"",[99999,99999],[-106,-106]]",circle,no_dis,vert,up,"[99999,99999]","[-106,-106]",up,1,,,,,,001,2025-03-17_15h16.34.692,SL_sali_41,2021.2.3,Win32,29.94011976,2.5054,,,45,0,45,0,1,,,,,,,,
,,"[""diamond"",""red"",""hori"",""left"",[106,-106],[106,106]]",diamond,red,hori,left,"[106,-106]","[106,106]",left,1,,,,,,001,2025-03-17_15h16.34.692,SL_sali_41,2021.2.3,Win32,29.94011976,1.7415,,,46,0,46,0,1,,,,,,,,
,,"[""circle"",""green"",""hori"",""left"",[106,106],[-150,0]]",circle,green,hori,left,"[106,106]","[-150,0]",left,1,,,,,,001,2025-03-17_15h16.34.692,SL_sali_41,2021.2.3,Win32,29.94011976,2.0805,,,47,0,47,0,1,,,,,,,,
,,"[""diamond"",""no_dis"",""hori"",""left"",[99999,99999],[0,-150]]",diamond,no_dis,hori,left,"[99999,99999]","[0,-150]",left,1,,,,,,001,2025-03-17_15h16.34.692,SL_sali_41,2021.2.3,Win32,29.94011976,2.1565,,,48,0,48,0,1,,,,,,,,
,,"[""diamond"",""no_dis"",""vert"",""up"",[99999,99999],[-106,-106]]",diamond,no_dis,vert,up,"[99999,99999]","[-106,-106]",up,1,,,,,,001,2025-03-17_15h16.34.692,SL_sali_41,2021.2.3,Win32,29.94011976,0.812,,,49,0,49,0,1,,,,,,,,
,,"[""diamond"",""red"",""hori"",""left"",[0,150],[-106,106]]",diamond,red,hori,left,"[0,150]","[-106,106]",left,1,,,,,,001,2025-03-17_15h16.34.692,SL_sali_41,2021.2.3,Win32,29.94011976,1.165,,,50,0,50,0,1,,,,,,,,
,,"[""circle"",""red"",""hori"",""left"",[106,106],[-106,106]]",circle,red,hori,left,"[106,106]","[-106,106]",left,1,,,,,,001,2025-03-17_15h16.34.692,SL_sali_41,2021.2.3,Win32,29.94011976,2.0259,,,51,0,51,0,1,,,,,,,,
,,"[""circle"",""green"",""vert"",""up"",[-106,106],[0,150]]",circle,green,vert,up,"[-106,106]","[0,150]",,0,,,,,,001,2025-03-17_15h16.34.692,SL_sali_41,2021.2.3,Win32,29.94011976,,,,52,0,52,0,1,,,,,,,,
,,"[""circle"",""red"",""vert"",""up"",[106,106],[-150,0]]",circle,red,vert,up,"[106,106]","[-150,0]",up,1,,,,,,001,2025-03-17_15h16.34.692,SL_sali_41,2021.2.3,Win32,29.94011976,1.584,,,53,0,53,0,1,,,,,,,,
,,"[""diamond"",""no_dis"",""vert"",""up"",[99999,99999],[-106,106]]",diamond,no_dis,vert,up,"[99999,99999]","[-106,106]",up,1,,,,,,001,2025-03-17_15h16.34.692,SL_sali_41,2021.2.3,Win32,29.94011976,1.8407,,,54,0,54,0,1,,,,,,,,
,,"[""circle"",""green"",""hori"",""left"",[0,-150],[-106,106]]",circle,green,hori,left,"[0,-150]","[-106,106]",up,0,,,,,,001,2025-03-17_15h16.34.692,SL_sali_41,2021.2.3,Win32,29.94011976,2.4769,,,55,0,55,0,1,,,,,,,,
,,"[""diamond"",""green"",""hori"",""left"",[106,106],[150,0]]",diamond,green,hori,left,"[106,106]","[150,0]",left,1,,,,,,001,2025-03-17_15h16.34.692,SL_sali_41,2021.2.3,Win32,29.94011976,1.4719,,,56,0,56,0,1,,,,,,,,
,,"[""diamond"",""green"",""vert"",""up"",[106,106],[-106,106]]",diamond,green,vert,up,"[106,106]","[-106,106]",up,1,,,,,,001,2025-03-17_15h16.34.692,SL_sali_41,2021.2.3,Win32,29.94011976,0.9497,,,57,0,57,0,1,,,,,,,,
,,"[""circle"",""no_dis"",""hori"",""left"",[99999,99999],[0,150]]",circle,no_dis,hori,left,"[99999,99999]","[0,150]",left,1,,,,,,001,2025-03-17_15h16.34.692,SL_sali_41,2021.2.3,Win32,29.94011976,1.599,,,58,0,58,0,1,,,,,,,,
,,"[""diamond"",""no_dis"",""hori"",""left"",[99999,99999],[-106,106]]",diamond,no_dis,hori,left,"[99999,99999]","[-106,106]",left,1,,,,,,001,2025-03-17_15h16.34.692,SL_sali_41,2021.2.3,Win32,29.94011976,1.5099,,,59,0,59,0,1,,,,,,,,
,,"[""diamond"",""no_dis"",""hori"",""left"",[99999,99999],[106,106]]",diamond,no_dis,hori,left,"[99999,99999]","[106,106]",left,1,,,,,,001,2025-03-17_15h16.34.692,SL_sali_41,2021.2.3,Win32,29.94011976,1.2048,,,60,0,60,0,1,,,,,,,,
