﻿key_resp.keys,key_resp.rt,trial_para,tar_shape,dis_color_condi,tar_line,cor_resp,dis_loc,tar_loc,resp.keys,resp.corr,trials.thisRepN,trials.thisTrialN,trials.thisN,trials.thisIndex,trials.ran,participant,date,expName,psychopyVersion,OS,frameRate,resp.rt,key_resp_2.keys,key_resp_2.rt,trials_2.thisRepN,trials_2.thisTrialN,trials_2.thisN,trials_2.thisIndex,trials_2.ran,block_num,key_resp_3.keys,key_resp_3.rt,trials_3.thisRepN,trials_3.thisTrialN,trials_3.thisN,trials_3.thisIndex,trials_3.ran
space,49.7251,"[""diamond"",""no_dis"",""hori"",""left"",[99999,99999],[-106,106]]",diamond,no_dis,hori,left,"[99999,99999]","[-106,106]",,0,0,0,0,0,1,001,2025-03-10_19h11.57.944,SL_sali_41,2021.2.3,Win32,59.88023952,,,,,,,,,,,,,,,,
,,"[""diamond"",""no_dis"",""hori"",""left"",[99999,99999],[150,0]]",diamond,no_dis,hori,left,"[99999,99999]","[150,0]",left,1,1,0,1,0,1,001,2025-03-10_19h11.57.944,SL_sali_41,2021.2.3,Win32,59.88023952,2.9623,,,,,,,,,,,,,,,
,,"[""circle"",""red"",""hori"",""left"",[150,0],[106,-106]]",circle,red,hori,left,"[150,0]","[106,-106]",left,1,2,0,2,0,1,001,2025-03-10_19h11.57.944,SL_sali_41,2021.2.3,Win32,59.88023952,2.511,,,,,,,,,,,,,,,
,,"[""diamond"",""red"",""vert"",""up"",[-106,106],[106,106]]",diamond,red,vert,up,"[-106,106]","[106,106]",up,1,3,0,3,0,1,001,2025-03-10_19h11.57.944,SL_sali_41,2021.2.3,Win32,59.88023952,2.314,,,,,,,,,,,,,,,
,,"[""circle"",""green"",""hori"",""left"",[-150,0],[106,106]]",circle,green,hori,left,"[-150,0]","[106,106]",left,1,4,0,4,0,1,001,2025-03-10_19h11.57.944,SL_sali_41,2021.2.3,Win32,59.88023952,2.042,,,,,,,,,,,,,,,
,,"[""diamond"",""no_dis"",""hori"",""left"",[99999,99999],[-106,-106]]",diamond,no_dis,hori,left,"[99999,99999]","[-106,-106]",left,1,5,0,5,0,1,001,2025-03-10_19h11.57.944,SL_sali_41,2021.2.3,Win32,59.88023952,1.1383,,,,,,,,,,,,,,,
,,"[""diamond"",""no_dis"",""hori"",""left"",[99999,99999],[106,106]]",diamond,no_dis,hori,left,"[99999,99999]","[106,106]",left,1,6,0,6,0,1,001,2025-03-10_19h11.57.944,SL_sali_41,2021.2.3,Win32,59.88023952,1.1065,,,,,,,,,,,,,,,
,,"[""circle"",""no_dis"",""vert"",""up"",[99999,99999],[-106,106]]",circle,no_dis,vert,up,"[99999,99999]","[-106,106]",up,1,7,0,7,0,1,001,2025-03-10_19h11.57.944,SL_sali_41,2021.2.3,Win32,59.88023952,1.0227,,,,,,,,,,,,,,,
,,"[""circle"",""no_dis"",""hori"",""left"",[99999,99999],[150,0]]",circle,no_dis,hori,left,"[99999,99999]","[150,0]",left,1,8,0,8,0,1,001,2025-03-10_19h11.57.944,SL_sali_41,2021.2.3,Win32,59.88023952,1.0076,,,,,,,,,,,,,,,
,,"[""circle"",""green"",""vert"",""up"",[0,-150],[-106,106]]",circle,green,vert,up,"[0,-150]","[-106,106]",up,1,9,0,9,0,1,001,2025-03-10_19h11.57.944,SL_sali_41,2021.2.3,Win32,59.88023952,1.1895,,,,,,,,,,,,,,,
,,"[""diamond"",""no_dis"",""hori"",""left"",[99999,99999],[-106,106]]",diamond,no_dis,hori,left,"[99999,99999]","[-106,106]",left,1,,,,,,001,2025-03-10_19h11.57.944,SL_sali_41,2021.2.3,Win32,59.88023952,1.3515,space,6.38,0,0,0,0,1,,,,,,,,
,,"[""diamond"",""no_dis"",""hori"",""left"",[99999,99999],[150,0]]",diamond,no_dis,hori,left,"[99999,99999]","[150,0]",left,1,,,,,,001,2025-03-10_19h11.57.944,SL_sali_41,2021.2.3,Win32,59.88023952,1.1821,,,1,0,1,0,1,,,,,,,,
,,"[""circle"",""red"",""hori"",""left"",[150,0],[106,-106]]",circle,red,hori,left,"[150,0]","[106,-106]",left,1,,,,,,001,2025-03-10_19h11.57.944,SL_sali_41,2021.2.3,Win32,59.88023952,1.7518,,,2,0,2,0,1,,,,,,,,
,,"[""diamond"",""red"",""vert"",""up"",[-106,106],[106,106]]",diamond,red,vert,up,"[-106,106]","[106,106]",left,0,,,,,,001,2025-03-10_19h11.57.944,SL_sali_41,2021.2.3,Win32,59.88023952,1.7251,,,3,0,3,0,1,,,,,,,,
,,"[""circle"",""green"",""hori"",""left"",[-150,0],[106,106]]",circle,green,hori,left,"[-150,0]","[106,106]",left,1,,,,,,001,2025-03-10_19h11.57.944,SL_sali_41,2021.2.3,Win32,59.88023952,1.4728,,,4,0,4,0,1,,,,,,,,
,,"[""diamond"",""no_dis"",""hori"",""left"",[99999,99999],[-106,-106]]",diamond,no_dis,hori,left,"[99999,99999]","[-106,-106]",left,1,,,,,,001,2025-03-10_19h11.57.944,SL_sali_41,2021.2.3,Win32,59.88023952,1.4189,,,5,0,5,0,1,,,,,,,,
,,"[""diamond"",""no_dis"",""hori"",""left"",[99999,99999],[106,106]]",diamond,no_dis,hori,left,"[99999,99999]","[106,106]",left,1,,,,,,001,2025-03-10_19h11.57.944,SL_sali_41,2021.2.3,Win32,59.88023952,0.9915,,,6,0,6,0,1,,,,,,,,
,,"[""circle"",""no_dis"",""vert"",""up"",[99999,99999],[-106,106]]",circle,no_dis,vert,up,"[99999,99999]","[-106,106]",up,1,,,,,,001,2025-03-10_19h11.57.944,SL_sali_41,2021.2.3,Win32,59.88023952,1.3992,,,7,0,7,0,1,,,,,,,,
,,"[""circle"",""no_dis"",""hori"",""left"",[99999,99999],[150,0]]",circle,no_dis,hori,left,"[99999,99999]","[150,0]",left,1,,,,,,001,2025-03-10_19h11.57.944,SL_sali_41,2021.2.3,Win32,59.88023952,0.7482,,,8,0,8,0,1,,,,,,,,
,,"[""circle"",""green"",""vert"",""up"",[0,-150],[-106,106]]",circle,green,vert,up,"[0,-150]","[-106,106]",up,1,,,,,,001,2025-03-10_19h11.57.944,SL_sali_41,2021.2.3,Win32,59.88023952,0.9534,,,9,0,9,0,1,,,,,,,,
,,"[""diamond"",""red"",""vert"",""up"",[-106,-106],[150,0]]",diamond,red,vert,up,"[-106,-106]","[150,0]",up,1,,,,,,001,2025-03-10_19h11.57.944,SL_sali_41,2021.2.3,Win32,59.88023952,1.3569,,,10,0,10,0,1,,,,,,,,
,,"[""diamond"",""green"",""vert"",""up"",[106,106],[150,0]]",diamond,green,vert,up,"[106,106]","[150,0]",up,1,,,,,,001,2025-03-10_19h11.57.944,SL_sali_41,2021.2.3,Win32,59.88023952,1.3573,,,11,0,11,0,1,,,,,,,,
,,"[""diamond"",""no_dis"",""vert"",""up"",[99999,99999],[0,-150]]",diamond,no_dis,vert,up,"[99999,99999]","[0,-150]",up,1,,,,,,001,2025-03-10_19h11.57.944,SL_sali_41,2021.2.3,Win32,59.88023952,1.1484,,,12,0,12,0,1,,,,,,,,
,,"[""diamond"",""red"",""vert"",""up"",[150,0],[0,-150]]",diamond,red,vert,up,"[150,0]","[0,-150]",up,1,,,,,,001,2025-03-10_19h11.57.944,SL_sali_41,2021.2.3,Win32,59.88023952,1.0581,,,13,0,13,0,1,,,,,,,,
,,"[""diamond"",""red"",""hori"",""left"",[-106,-106],[0,-150]]",diamond,red,hori,left,"[-106,-106]","[0,-150]",left,1,,,,,,001,2025-03-10_19h11.57.944,SL_sali_41,2021.2.3,Win32,59.88023952,1.5526,,,14,0,14,0,1,,,,,,,,
,,"[""circle"",""no_dis"",""hori"",""left"",[99999,99999],[0,-150]]",circle,no_dis,hori,left,"[99999,99999]","[0,-150]",left,1,,,,,,001,2025-03-10_19h11.57.944,SL_sali_41,2021.2.3,Win32,59.88023952,1.0134,,,15,0,15,0,1,,,,,,,,
,,"[""circle"",""no_dis"",""hori"",""left"",[99999,99999],[106,106]]",circle,no_dis,hori,left,"[99999,99999]","[106,106]",left,1,,,,,,001,2025-03-10_19h11.57.944,SL_sali_41,2021.2.3,Win32,59.88023952,0.7551,,,16,0,16,0,1,,,,,,,,
,,"[""circle"",""red"",""hori"",""left"",[106,-106],[150,0]]",circle,red,hori,left,"[106,-106]","[150,0]",left,1,,,,,,001,2025-03-10_19h11.57.944,SL_sali_41,2021.2.3,Win32,59.88023952,0.8786,,,17,0,17,0,1,,,,,,,,
,,"[""diamond"",""green"",""vert"",""up"",[0,150],[106,106]]",diamond,green,vert,up,"[0,150]","[106,106]",up,1,,,,,,001,2025-03-10_19h11.57.944,SL_sali_41,2021.2.3,Win32,59.88023952,1.0135,,,18,0,18,0,1,,,,,,,,
,,"[""circle"",""green"",""vert"",""up"",[106,-106],[106,106]]",circle,green,vert,up,"[106,-106]","[106,106]",up,1,,,,,,001,2025-03-10_19h11.57.944,SL_sali_41,2021.2.3,Win32,59.88023952,0.9561,,,19,0,19,0,1,,,,,,,,
,,"[""circle"",""no_dis"",""vert"",""up"",[99999,99999],[0,150]]",circle,no_dis,vert,up,"[99999,99999]","[0,150]",up,1,,,,,,001,2025-03-10_19h11.57.944,SL_sali_41,2021.2.3,Win32,59.88023952,0.6898,,,20,0,20,0,1,,,,,,,,
,,"[""diamond"",""green"",""hori"",""left"",[-106,106],[0,150]]",diamond,green,hori,left,"[-106,106]","[0,150]",up,0,,,,,,001,2025-03-10_19h11.57.944,SL_sali_41,2021.2.3,Win32,59.88023952,0.972,,,21,0,21,0,1,,,,,,,,
,,"[""diamond"",""green"",""hori"",""left"",[0,150],[-150,0]]",diamond,green,hori,left,"[0,150]","[-150,0]",left,1,,,,,,001,2025-03-10_19h11.57.944,SL_sali_41,2021.2.3,Win32,59.88023952,1.3925,,,22,0,22,0,1,,,,,,,,
,,"[""diamond"",""green"",""hori"",""left"",[106,-106],[150,0]]",diamond,green,hori,left,"[106,-106]","[150,0]",left,1,,,,,,001,2025-03-10_19h11.57.944,SL_sali_41,2021.2.3,Win32,59.88023952,1.0986,,,23,0,23,0,1,,,,,,,,
,,"[""circle"",""red"",""vert"",""up"",[150,0],[-106,-106]]",circle,red,vert,up,"[150,0]","[-106,-106]",up,1,,,,,,001,2025-03-10_19h11.57.944,SL_sali_41,2021.2.3,Win32,59.88023952,0.9566,,,24,0,24,0,1,,,,,,,,
,,"[""diamond"",""red"",""hori"",""left"",[150,0],[0,150]]",diamond,red,hori,left,"[150,0]","[0,150]",left,1,,,,,,001,2025-03-10_19h11.57.944,SL_sali_41,2021.2.3,Win32,59.88023952,1.0757,,,25,0,25,0,1,,,,,,,,
,,"[""circle"",""green"",""hori"",""left"",[0,-150],[-106,-106]]",circle,green,hori,left,"[0,-150]","[-106,-106]",left,1,,,,,,001,2025-03-10_19h11.57.944,SL_sali_41,2021.2.3,Win32,59.88023952,1.6549,,,26,0,26,0,1,,,,,,,,
,,"[""circle"",""no_dis"",""vert"",""up"",[99999,99999],[0,-150]]",circle,no_dis,vert,up,"[99999,99999]","[0,-150]",up,1,,,,,,001,2025-03-10_19h11.57.944,SL_sali_41,2021.2.3,Win32,59.88023952,0.8502,,,27,0,27,0,1,,,,,,,,
,,"[""diamond"",""green"",""vert"",""up"",[-150,0],[-106,-106]]",diamond,green,vert,up,"[-150,0]","[-106,-106]",up,1,,,,,,001,2025-03-10_19h11.57.944,SL_sali_41,2021.2.3,Win32,59.88023952,1.0299,,,28,0,28,0,1,,,,,,,,
,,"[""circle"",""green"",""vert"",""up"",[-150,0],[106,-106]]",circle,green,vert,up,"[-150,0]","[106,-106]",up,1,,,,,,001,2025-03-10_19h11.57.944,SL_sali_41,2021.2.3,Win32,59.88023952,0.8845,,,29,0,29,0,1,,,,,,,,
,,"[""circle"",""green"",""vert"",""up"",[0,-150],[106,106]]",circle,green,vert,up,"[0,-150]","[106,106]",up,1,,,,,,001,2025-03-10_19h11.57.944,SL_sali_41,2021.2.3,Win32,59.88023952,1.5484,,,30,0,30,0,1,,,,,,,,
,,"[""diamond"",""no_dis"",""vert"",""up"",[99999,99999],[-150,0]]",diamond,no_dis,vert,up,"[99999,99999]","[-150,0]",up,1,,,,,,001,2025-03-10_19h11.57.944,SL_sali_41,2021.2.3,Win32,59.88023952,1.2187,,,31,0,31,0,1,,,,,,,,
,,"[""circle"",""green"",""hori"",""left"",[150,0],[-150,0]]",circle,green,hori,left,"[150,0]","[-150,0]",left,1,,,,,,001,2025-03-10_19h11.57.944,SL_sali_41,2021.2.3,Win32,59.88023952,1.3657,,,32,0,32,0,1,,,,,,,,
,,"[""circle"",""red"",""hori"",""left"",[150,0],[0,150]]",circle,red,hori,left,"[150,0]","[0,150]",left,1,,,,,,001,2025-03-10_19h11.57.944,SL_sali_41,2021.2.3,Win32,59.88023952,0.8568,,,33,0,33,0,1,,,,,,,,
,,"[""circle"",""green"",""vert"",""up"",[0,150],[106,106]]",circle,green,vert,up,"[0,150]","[106,106]",up,1,,,,,,001,2025-03-10_19h11.57.944,SL_sali_41,2021.2.3,Win32,59.88023952,0.8381,,,34,0,34,0,1,,,,,,,,
,,"[""circle"",""green"",""hori"",""left"",[150,0],[-106,106]]",circle,green,hori,left,"[150,0]","[-106,106]",left,1,,,,,,001,2025-03-10_19h11.57.944,SL_sali_41,2021.2.3,Win32,59.88023952,0.8897,,,35,0,35,0,1,,,,,,,,
,,"[""circle"",""no_dis"",""hori"",""left"",[99999,99999],[106,106]]",circle,no_dis,hori,left,"[99999,99999]","[106,106]",left,1,,,,,,001,2025-03-10_19h11.57.944,SL_sali_41,2021.2.3,Win32,59.88023952,0.7256,,,36,0,36,0,1,,,,,,,,
,,"[""diamond"",""green"",""hori"",""left"",[106,-106],[106,106]]",diamond,green,hori,left,"[106,-106]","[106,106]",left,1,,,,,,001,2025-03-10_19h11.57.944,SL_sali_41,2021.2.3,Win32,59.88023952,0.8977,,,37,0,37,0,1,,,,,,,,
,,"[""circle"",""no_dis"",""hori"",""left"",[99999,99999],[106,-106]]",circle,no_dis,hori,left,"[99999,99999]","[106,-106]",left,1,,,,,,001,2025-03-10_19h11.57.944,SL_sali_41,2021.2.3,Win32,59.88023952,1.1672,,,38,0,38,0,1,,,,,,,,
,,"[""circle"",""red"",""hori"",""left"",[106,106],[0,-150]]",circle,red,hori,left,"[106,106]","[0,-150]",left,1,,,,,,001,2025-03-10_19h11.57.944,SL_sali_41,2021.2.3,Win32,59.88023952,1.0854,,,39,0,39,0,1,,,,,,,,
,,"[""diamond"",""red"",""hori"",""left"",[-150,0],[0,150]]",diamond,red,hori,left,"[-150,0]","[0,150]",left,1,,,,,,001,2025-03-10_19h11.57.944,SL_sali_41,2021.2.3,Win32,59.88023952,0.6005,,,40,0,40,0,1,,,,,,,,
,,"[""diamond"",""green"",""hori"",""left"",[150,0],[-106,-106]]",diamond,green,hori,left,"[150,0]","[-106,-106]",left,1,,,,,,001,2025-03-10_19h11.57.944,SL_sali_41,2021.2.3,Win32,59.88023952,1.8658,,,41,0,41,0,1,,,,,,,,
,,"[""circle"",""green"",""vert"",""up"",[-106,-106],[0,150]]",circle,green,vert,up,"[-106,-106]","[0,150]",up,1,,,,,,001,2025-03-10_19h11.57.944,SL_sali_41,2021.2.3,Win32,59.88023952,0.99,,,42,0,42,0,1,,,,,,,,
,,"[""diamond"",""green"",""vert"",""up"",[150,0],[0,150]]",diamond,green,vert,up,"[150,0]","[0,150]",up,1,,,,,,001,2025-03-10_19h11.57.944,SL_sali_41,2021.2.3,Win32,59.88023952,0.8557,,,43,0,43,0,1,,,,,,,,
,,"[""circle"",""green"",""hori"",""left"",[106,106],[0,-150]]",circle,green,hori,left,"[106,106]","[0,-150]",left,1,,,,,,001,2025-03-10_19h11.57.944,SL_sali_41,2021.2.3,Win32,59.88023952,0.9946,,,44,0,44,0,1,,,,,,,,
,,"[""diamond"",""no_dis"",""hori"",""left"",[99999,99999],[-150,0]]",diamond,no_dis,hori,left,"[99999,99999]","[-150,0]",left,1,,,,,,001,2025-03-10_19h11.57.944,SL_sali_41,2021.2.3,Win32,59.88023952,0.7698,,,45,0,45,0,1,,,,,,,,
,,"[""diamond"",""no_dis"",""hori"",""left"",[99999,99999],[0,-150]]",diamond,no_dis,hori,left,"[99999,99999]","[0,-150]",left,1,,,,,,001,2025-03-10_19h11.57.944,SL_sali_41,2021.2.3,Win32,59.88023952,0.8802,,,46,0,46,0,1,,,,,,,,
,,"[""circle"",""no_dis"",""hori"",""left"",[99999,99999],[0,150]]",circle,no_dis,hori,left,"[99999,99999]","[0,150]",left,1,,,,,,001,2025-03-10_19h11.57.944,SL_sali_41,2021.2.3,Win32,59.88023952,1.6185,,,47,0,47,0,1,,,,,,,,
,,"[""diamond"",""red"",""vert"",""up"",[-150,0],[150,0]]",diamond,red,vert,up,"[-150,0]","[150,0]",up,1,,,,,,001,2025-03-10_19h11.57.944,SL_sali_41,2021.2.3,Win32,59.88023952,1.0799,,,48,0,48,0,1,,,,,,,,
,,"[""diamond"",""no_dis"",""vert"",""up"",[99999,99999],[0,-150]]",diamond,no_dis,vert,up,"[99999,99999]","[0,-150]",up,1,,,,,,001,2025-03-10_19h11.57.944,SL_sali_41,2021.2.3,Win32,59.88023952,0.9096,,,49,0,49,0,1,,,,,,,,
,,"[""diamond"",""green"",""hori"",""left"",[150,0],[106,106]]",diamond,green,hori,left,"[150,0]","[106,106]",left,1,,,,,,001,2025-03-10_19h11.57.944,SL_sali_41,2021.2.3,Win32,59.88023952,1.409,,,50,0,50,0,1,,,,,,,,
,,"[""diamond"",""red"",""vert"",""up"",[150,0],[106,-106]]",diamond,red,vert,up,"[150,0]","[106,-106]",up,1,,,,,,001,2025-03-10_19h11.57.944,SL_sali_41,2021.2.3,Win32,59.88023952,1.0126,,,51,0,51,0,1,,,,,,,,
,,"[""circle"",""green"",""vert"",""up"",[0,-150],[-150,0]]",circle,green,vert,up,"[0,-150]","[-150,0]",up,1,,,,,,001,2025-03-10_19h11.57.944,SL_sali_41,2021.2.3,Win32,59.88023952,1.5971,,,52,0,52,0,1,,,,,,,,
,,"[""diamond"",""no_dis"",""vert"",""up"",[99999,99999],[-150,0]]",diamond,no_dis,vert,up,"[99999,99999]","[-150,0]",up,1,,,,,,001,2025-03-10_19h11.57.944,SL_sali_41,2021.2.3,Win32,59.88023952,1.1435,,,53,0,53,0,1,,,,,,,,
,,"[""diamond"",""green"",""vert"",""up"",[150,0],[106,-106]]",diamond,green,vert,up,"[150,0]","[106,-106]",up,1,,,,,,001,2025-03-10_19h11.57.944,SL_sali_41,2021.2.3,Win32,59.88023952,1.51,,,54,0,54,0,1,,,,,,,,
,,"[""circle"",""no_dis"",""vert"",""up"",[99999,99999],[106,106]]",circle,no_dis,vert,up,"[99999,99999]","[106,106]",up,1,,,,,,001,2025-03-10_19h11.57.944,SL_sali_41,2021.2.3,Win32,59.88023952,1.273,,,55,0,55,0,1,,,,,,,,
,,"[""diamond"",""red"",""vert"",""up"",[0,-150],[-106,-106]]",diamond,red,vert,up,"[0,-150]","[-106,-106]",up,1,,,,,,001,2025-03-10_19h11.57.944,SL_sali_41,2021.2.3,Win32,59.88023952,1.322,,,56,0,56,0,1,,,,,,,,
,,"[""circle"",""red"",""vert"",""up"",[-106,106],[-150,0]]",circle,red,vert,up,"[-106,106]","[-150,0]",up,1,,,,,,001,2025-03-10_19h11.57.944,SL_sali_41,2021.2.3,Win32,59.88023952,1.8699,,,57,0,57,0,1,,,,,,,,
,,"[""circle"",""no_dis"",""vert"",""up"",[99999,99999],[-106,-106]]",circle,no_dis,vert,up,"[99999,99999]","[-106,-106]",up,1,,,,,,001,2025-03-10_19h11.57.944,SL_sali_41,2021.2.3,Win32,59.88023952,0.8352,,,58,0,58,0,1,,,,,,,,
,,"[""circle"",""green"",""hori"",""left"",[150,0],[106,-106]]",circle,green,hori,left,"[150,0]","[106,-106]",left,1,,,,,,001,2025-03-10_19h11.57.944,SL_sali_41,2021.2.3,Win32,59.88023952,1.0588,,,59,0,59,0,1,,,,,,,,
,,"[""circle"",""red"",""vert"",""up"",[150,0],[106,106]]",circle,red,vert,up,"[150,0]","[106,106]",up,1,,,,,,001,2025-03-10_19h11.57.944,SL_sali_41,2021.2.3,Win32,59.88023952,0.9745,,,60,0,60,0,1,,,,,,,,
,,"[""diamond"",""no_dis"",""vert"",""up"",[99999,99999],[0,150]]",diamond,no_dis,vert,up,"[99999,99999]","[0,150]",up,1,,,,,,001,2025-03-10_19h11.57.944,SL_sali_41,2021.2.3,Win32,59.88023952,1.5379,,,61,0,61,0,1,,,,,,,,
,,"[""diamond"",""red"",""hori"",""left"",[-106,-106],[0,150]]",diamond,red,hori,left,"[-106,-106]","[0,150]",left,1,,,,,,001,2025-03-10_19h11.57.944,SL_sali_41,2021.2.3,Win32,59.88023952,0.9154,,,62,0,62,0,1,,,,,,,,
,,"[""circle"",""green"",""vert"",""up"",[150,0],[106,-106]]",circle,green,vert,up,"[150,0]","[106,-106]",up,1,,,,,,001,2025-03-10_19h11.57.944,SL_sali_41,2021.2.3,Win32,59.88023952,0.8847,,,63,0,63,0,1,,,,,,,,
,,"[""diamond"",""red"",""vert"",""up"",[-106,-106],[150,0]]",diamond,red,vert,up,"[-106,-106]","[150,0]",up,1,,,,,,001,2025-03-10_19h11.57.944,SL_sali_41,2021.2.3,Win32,59.88023952,1.4164,,,64,0,64,0,1,,,,,,,,
,,"[""diamond"",""red"",""hori"",""left"",[0,-150],[-150,0]]",diamond,red,hori,left,"[0,-150]","[-150,0]",left,1,,,,,,001,2025-03-10_19h11.57.944,SL_sali_41,2021.2.3,Win32,59.88023952,1.198,,,65,0,65,0,1,,,,,,,,
,,"[""circle"",""green"",""vert"",""up"",[150,0],[-106,106]]",circle,green,vert,up,"[150,0]","[-106,106]",up,1,,,,,,001,2025-03-10_19h11.57.944,SL_sali_41,2021.2.3,Win32,59.88023952,1.0312,,,66,0,66,0,1,,,,,,,,
,,"[""diamond"",""no_dis"",""hori"",""left"",[99999,99999],[106,106]]",diamond,no_dis,hori,left,"[99999,99999]","[106,106]",left,1,,,,,,001,2025-03-10_19h11.57.944,SL_sali_41,2021.2.3,Win32,59.88023952,1.2059,,,67,0,67,0,1,,,,,,,,
,,"[""diamond"",""no_dis"",""vert"",""up"",[99999,99999],[150,0]]",diamond,no_dis,vert,up,"[99999,99999]","[150,0]",up,1,,,,,,001,2025-03-10_19h11.57.944,SL_sali_41,2021.2.3,Win32,59.88023952,0.8526,,,68,0,68,0,1,,,,,,,,
,,"[""diamond"",""red"",""vert"",""up"",[150,0],[-106,-106]]",diamond,red,vert,up,"[150,0]","[-106,-106]",up,1,,,,,,001,2025-03-10_19h11.57.944,SL_sali_41,2021.2.3,Win32,59.88023952,0.8018,,,69,0,69,0,1,,,,,,,,
,,"[""diamond"",""no_dis"",""hori"",""left"",[99999,99999],[-106,-106]]",diamond,no_dis,hori,left,"[99999,99999]","[-106,-106]",left,1,,,,,,001,2025-03-10_19h11.57.944,SL_sali_41,2021.2.3,Win32,59.88023952,0.916,,,70,0,70,0,1,,,,,,,,
,,"[""diamond"",""no_dis"",""vert"",""up"",[99999,99999],[0,150]]",diamond,no_dis,vert,up,"[99999,99999]","[0,150]",up,1,,,,,,001,2025-03-10_19h11.57.944,SL_sali_41,2021.2.3,Win32,59.88023952,0.6866,,,71,0,71,0,1,,,,,,,,
,,"[""diamond"",""red"",""hori"",""left"",[150,0],[0,150]]",diamond,red,hori,left,"[150,0]","[0,150]",left,1,,,,,,001,2025-03-10_19h11.57.944,SL_sali_41,2021.2.3,Win32,59.88023952,1.0067,,,72,0,72,0,1,,,,,,,,
,,"[""diamond"",""green"",""vert"",""up"",[106,106],[150,0]]",diamond,green,vert,up,"[106,106]","[150,0]",up,1,,,,,,001,2025-03-10_19h11.57.944,SL_sali_41,2021.2.3,Win32,59.88023952,1.0036,,,73,0,73,0,1,,,,,,,,
,,"[""diamond"",""red"",""hori"",""left"",[-106,-106],[0,150]]",diamond,red,hori,left,"[-106,-106]","[0,150]",left,1,,,,,,001,2025-03-10_19h11.57.944,SL_sali_41,2021.2.3,Win32,59.88023952,0.8155,,,74,0,74,0,1,,,,,,,,
,,"[""diamond"",""green"",""hori"",""left"",[-150,0],[0,-150]]",diamond,green,hori,left,"[-150,0]","[0,-150]",left,1,,,,,,001,2025-03-10_19h11.57.944,SL_sali_41,2021.2.3,Win32,59.88023952,1.4993,,,75,0,75,0,1,,,,,,,,
,,"[""circle"",""no_dis"",""vert"",""up"",[99999,99999],[-106,106]]",circle,no_dis,vert,up,"[99999,99999]","[-106,106]",up,1,,,,,,001,2025-03-10_19h11.57.944,SL_sali_41,2021.2.3,Win32,59.88023952,1.1099,,,76,0,76,0,1,,,,,,,,
,,"[""circle"",""red"",""vert"",""up"",[-106,-106],[0,-150]]",circle,red,vert,up,"[-106,-106]","[0,-150]",up,1,,,,,,001,2025-03-10_19h11.57.944,SL_sali_41,2021.2.3,Win32,59.88023952,1.0824,,,77,0,77,0,1,,,,,,,,
,,"[""diamond"",""red"",""vert"",""up"",[106,106],[150,0]]",diamond,red,vert,up,"[106,106]","[150,0]",up,1,,,,,,001,2025-03-10_19h11.57.944,SL_sali_41,2021.2.3,Win32,59.88023952,0.982,,,78,0,78,0,1,,,,,,,,
,,"[""diamond"",""green"",""vert"",""up"",[150,0],[0,-150]]",diamond,green,vert,up,"[150,0]","[0,-150]",up,1,,,,,,001,2025-03-10_19h11.57.944,SL_sali_41,2021.2.3,Win32,59.88023952,0.9193,,,79,0,79,0,1,,,,,,,,
,,"[""diamond"",""no_dis"",""vert"",""up"",[99999,99999],[106,-106]]",diamond,no_dis,vert,up,"[99999,99999]","[106,-106]",up,1,,,,,,001,2025-03-10_19h11.57.944,SL_sali_41,2021.2.3,Win32,59.88023952,0.752,,,80,0,80,0,1,,,,,,,,
,,"[""diamond"",""red"",""vert"",""up"",[-106,-106],[0,150]]",diamond,red,vert,up,"[-106,-106]","[0,150]",up,1,,,,,,001,2025-03-10_19h11.57.944,SL_sali_41,2021.2.3,Win32,59.88023952,0.8645,,,81,0,81,0,1,,,,,,,,
,,"[""circle"",""green"",""hori"",""left"",[150,0],[-150,0]]",circle,green,hori,left,"[150,0]","[-150,0]",left,1,,,,,,001,2025-03-10_19h11.57.944,SL_sali_41,2021.2.3,Win32,59.88023952,1.1323,,,82,0,82,0,1,,,,,,,,
,,"[""diamond"",""green"",""hori"",""left"",[-106,106],[-106,-106]]",diamond,green,hori,left,"[-106,106]","[-106,-106]",left,1,,,,,,001,2025-03-10_19h11.57.944,SL_sali_41,2021.2.3,Win32,59.88023952,1.8509,,,83,0,83,0,1,,,,,,,,
,,"[""circle"",""green"",""hori"",""left"",[106,106],[-106,-106]]",circle,green,hori,left,"[106,106]","[-106,-106]",left,1,,,,,,001,2025-03-10_19h11.57.944,SL_sali_41,2021.2.3,Win32,59.88023952,1.1722,,,84,0,84,0,1,,,,,,,,
,,"[""circle"",""green"",""hori"",""left"",[106,-106],[150,0]]",circle,green,hori,left,"[106,-106]","[150,0]",left,1,,,,,,001,2025-03-10_19h11.57.944,SL_sali_41,2021.2.3,Win32,59.88023952,0.9507,,,85,0,85,0,1,,,,,,,,
,,"[""circle"",""red"",""hori"",""left"",[106,-106],[-150,0]]",circle,red,hori,left,"[106,-106]","[-150,0]",left,1,,,,,,001,2025-03-10_19h11.57.944,SL_sali_41,2021.2.3,Win32,59.88023952,1.227,,,86,0,86,0,1,,,,,,,,
,,"[""circle"",""no_dis"",""vert"",""up"",[99999,99999],[106,-106]]",circle,no_dis,vert,up,"[99999,99999]","[106,-106]",up,1,,,,,,001,2025-03-10_19h11.57.944,SL_sali_41,2021.2.3,Win32,59.88023952,0.8607,,,87,0,87,0,1,,,,,,,,
,,"[""circle"",""red"",""hori"",""left"",[0,150],[106,-106]]",circle,red,hori,left,"[0,150]","[106,-106]",left,1,,,,,,001,2025-03-10_19h11.57.944,SL_sali_41,2021.2.3,Win32,59.88023952,1.7822,,,88,0,88,0,1,,,,,,,,
,,"[""circle"",""no_dis"",""hori"",""left"",[99999,99999],[-150,0]]",circle,no_dis,hori,left,"[99999,99999]","[-150,0]",left,1,,,,,,001,2025-03-10_19h11.57.944,SL_sali_41,2021.2.3,Win32,59.88023952,0.7434,,,89,0,89,0,1,,,,,,,,
,,"[""diamond"",""green"",""vert"",""up"",[-106,106],[0,150]]",diamond,green,vert,up,"[-106,106]","[0,150]",up,1,,,,,,001,2025-03-10_19h11.57.944,SL_sali_41,2021.2.3,Win32,59.88023952,1.0152,,,90,0,90,0,1,,,,,,,,
,,"[""circle"",""green"",""hori"",""left"",[150,0],[-106,-106]]",circle,green,hori,left,"[150,0]","[-106,-106]",left,1,,,,,,001,2025-03-10_19h11.57.944,SL_sali_41,2021.2.3,Win32,59.88023952,1.0854,,,91,0,91,0,1,,,,,,,,
,,"[""circle"",""red"",""hori"",""left"",[150,0],[106,106]]",circle,red,hori,left,"[150,0]","[106,106]",left,1,,,,,,001,2025-03-10_19h11.57.944,SL_sali_41,2021.2.3,Win32,59.88023952,1.5489,,,92,0,92,0,1,,,,,,,,
,,"[""circle"",""no_dis"",""hori"",""left"",[99999,99999],[-106,106]]",circle,no_dis,hori,left,"[99999,99999]","[-106,106]",left,1,,,,,,001,2025-03-10_19h11.57.944,SL_sali_41,2021.2.3,Win32,59.88023952,0.9718,,,93,0,93,0,1,,,,,,,,
,,"[""circle"",""green"",""vert"",""up"",[150,0],[-106,-106]]",circle,green,vert,up,"[150,0]","[-106,-106]",up,1,,,,,,001,2025-03-10_19h11.57.944,SL_sali_41,2021.2.3,Win32,59.88023952,0.9588,,,94,0,94,0,1,,,,,,,,
,,"[""diamond"",""red"",""hori"",""left"",[150,0],[-150,0]]",diamond,red,hori,left,"[150,0]","[-150,0]",left,1,,,,,,001,2025-03-10_19h11.57.944,SL_sali_41,2021.2.3,Win32,59.88023952,1.1041,,,95,0,95,0,1,,,,,,,,
,,"[""diamond"",""green"",""vert"",""up"",[0,150],[106,-106]]",diamond,green,vert,up,"[0,150]","[106,-106]",up,1,,,,,,001,2025-03-10_19h11.57.944,SL_sali_41,2021.2.3,Win32,59.88023952,1.0105,,,96,0,96,0,1,,,,,,,,
,,"[""circle"",""no_dis"",""hori"",""left"",[99999,99999],[106,-106]]",circle,no_dis,hori,left,"[99999,99999]","[106,-106]",left,1,,,,,,001,2025-03-10_19h11.57.944,SL_sali_41,2021.2.3,Win32,59.88023952,0.6315,,,97,0,97,0,1,,,,,,,,
,,"[""circle"",""red"",""vert"",""up"",[-150,0],[0,150]]",circle,red,vert,up,"[-150,0]","[0,150]",up,1,,,,,,001,2025-03-10_19h11.57.944,SL_sali_41,2021.2.3,Win32,59.88023952,0.8484,,,98,0,98,0,1,,,,,,,,
,,"[""diamond"",""green"",""hori"",""left"",[150,0],[-106,106]]",diamond,green,hori,left,"[150,0]","[-106,106]",left,1,,,,,,001,2025-03-10_19h11.57.944,SL_sali_41,2021.2.3,Win32,59.88023952,1.6474,,,99,0,99,0,1,,,,,,,,
,,"[""circle"",""red"",""vert"",""up"",[150,0],[-106,106]]",circle,red,vert,up,"[150,0]","[-106,106]",up,1,,,,,,001,2025-03-10_19h11.57.944,SL_sali_41,2021.2.3,Win32,59.88023952,1.5225,,,100,0,100,0,1,,,,,,,,
,,"[""circle"",""red"",""hori"",""left"",[-106,106],[0,150]]",circle,red,hori,left,"[-106,106]","[0,150]",up,0,,,,,,001,2025-03-10_19h11.57.944,SL_sali_41,2021.2.3,Win32,59.88023952,1.5408,,,101,0,101,0,1,,,,,,,,
,,"[""circle"",""no_dis"",""vert"",""up"",[99999,99999],[-106,-106]]",circle,no_dis,vert,up,"[99999,99999]","[-106,-106]",up,1,,,,,,001,2025-03-10_19h11.57.944,SL_sali_41,2021.2.3,Win32,59.88023952,1.2175,,,102,0,102,0,1,,,,,,,,
,,"[""circle"",""red"",""vert"",""up"",[106,106],[106,-106]]",circle,red,vert,up,"[106,106]","[106,-106]",up,1,,,,,,001,2025-03-10_19h11.57.944,SL_sali_41,2021.2.3,Win32,59.88023952,1.5462,,,103,0,103,0,1,,,,,,,,
,,"[""circle"",""green"",""vert"",""up"",[106,-106],[-106,-106]]",circle,green,vert,up,"[106,-106]","[-106,-106]",up,1,,,,,,001,2025-03-10_19h11.57.944,SL_sali_41,2021.2.3,Win32,59.88023952,1.1099,,,104,0,104,0,1,,,,,,,,
,,"[""diamond"",""red"",""hori"",""left"",[-150,0],[0,150]]",diamond,red,hori,left,"[-150,0]","[0,150]",left,1,,,,,,001,2025-03-10_19h11.57.944,SL_sali_41,2021.2.3,Win32,59.88023952,1.2479,,,105,0,105,0,1,,,,,,,,
,,"[""diamond"",""no_dis"",""hori"",""left"",[99999,99999],[-106,-106]]",diamond,no_dis,hori,left,"[99999,99999]","[-106,-106]",left,1,,,,,,001,2025-03-10_19h11.57.944,SL_sali_41,2021.2.3,Win32,59.88023952,0.9078,,,106,0,106,0,1,,,,,,,,
,,"[""diamond"",""red"",""hori"",""left"",[150,0],[-106,-106]]",diamond,red,hori,left,"[150,0]","[-106,-106]",left,1,,,,,,001,2025-03-10_19h11.57.944,SL_sali_41,2021.2.3,Win32,59.88023952,1.7495,,,107,0,107,0,1,,,,,,,,
,,"[""diamond"",""no_dis"",""hori"",""left"",[99999,99999],[150,0]]",diamond,no_dis,hori,left,"[99999,99999]","[150,0]",left,1,,,,,,001,2025-03-10_19h11.57.944,SL_sali_41,2021.2.3,Win32,59.88023952,0.8986,,,108,0,108,0,1,,,,,,,,
,,"[""diamond"",""green"",""hori"",""left"",[0,-150],[150,0]]",diamond,green,hori,left,"[0,-150]","[150,0]",left,1,,,,,,001,2025-03-10_19h11.57.944,SL_sali_41,2021.2.3,Win32,59.88023952,1.0423,,,109,0,109,0,1,,,,,,,,
,,"[""circle"",""red"",""hori"",""left"",[-106,106],[-150,0]]",circle,red,hori,left,"[-106,106]","[-150,0]",left,1,,,,,,001,2025-03-10_19h11.57.944,SL_sali_41,2021.2.3,Win32,59.88023952,1.3512,,,110,0,110,0,1,,,,,,,,
,,"[""circle"",""red"",""vert"",""up"",[0,-150],[-106,-106]]",circle,red,vert,up,"[0,-150]","[-106,-106]",up,1,,,,,,001,2025-03-10_19h11.57.944,SL_sali_41,2021.2.3,Win32,59.88023952,1.9191,,,111,0,111,0,1,,,,,,,,
,,"[""circle"",""red"",""hori"",""left"",[150,0],[-150,0]]",circle,red,hori,left,"[150,0]","[-150,0]",left,1,,,,,,001,2025-03-10_19h11.57.944,SL_sali_41,2021.2.3,Win32,59.88023952,0.7568,,,112,0,112,0,1,,,,,,,,
,,"[""circle"",""no_dis"",""vert"",""up"",[99999,99999],[-106,106]]",circle,no_dis,vert,up,"[99999,99999]","[-106,106]",up,1,,,,,,001,2025-03-10_19h11.57.944,SL_sali_41,2021.2.3,Win32,59.88023952,1.0648,,,113,0,113,0,1,,,,,,,,
,,"[""circle"",""green"",""hori"",""left"",[-106,106],[106,106]]",circle,green,hori,left,"[-106,106]","[106,106]",left,1,,,,,,001,2025-03-10_19h11.57.944,SL_sali_41,2021.2.3,Win32,59.88023952,1.0455,,,114,0,114,0,1,,,,,,,,
,,"[""circle"",""red"",""vert"",""up"",[106,-106],[-150,0]]",circle,red,vert,up,"[106,-106]","[-150,0]",up,1,,,,,,001,2025-03-10_19h11.57.944,SL_sali_41,2021.2.3,Win32,59.88023952,0.8636,,,115,0,115,0,1,,,,,,,,
,,"[""diamond"",""no_dis"",""vert"",""up"",[99999,99999],[-150,0]]",diamond,no_dis,vert,up,"[99999,99999]","[-150,0]",up,1,,,,,,001,2025-03-10_19h11.57.944,SL_sali_41,2021.2.3,Win32,59.88023952,0.7195,,,116,0,116,0,1,,,,,,,,
,,"[""diamond"",""red"",""hori"",""left"",[106,106],[-150,0]]",diamond,red,hori,left,"[106,106]","[-150,0]",left,1,,,,,,001,2025-03-10_19h11.57.944,SL_sali_41,2021.2.3,Win32,59.88023952,1.2938,,,117,0,117,0,1,,,,,,,,
,,"[""circle"",""red"",""hori"",""left"",[150,0],[106,-106]]",circle,red,hori,left,"[150,0]","[106,-106]",left,1,,,,,,001,2025-03-10_19h11.57.944,SL_sali_41,2021.2.3,Win32,59.88023952,1.3078,,,118,0,118,0,1,,,,,,,,
,,"[""circle"",""no_dis"",""hori"",""left"",[99999,99999],[150,0]]",circle,no_dis,hori,left,"[99999,99999]","[150,0]",left,1,,,,,,001,2025-03-10_19h11.57.944,SL_sali_41,2021.2.3,Win32,59.88023952,0.6659,,,119,0,119,0,1,,,,,,,,
,,"[""circle"",""red"",""vert"",""up"",[0,150],[-106,106]]",circle,red,vert,up,"[0,150]","[-106,106]",up,1,,,,,,001,2025-03-10_19h11.57.944,SL_sali_41,2021.2.3,Win32,59.88023952,0.8764,,,120,0,120,0,1,,,,,,,,
,,"[""diamond"",""green"",""vert"",""up"",[0,150],[0,-150]]",diamond,green,vert,up,"[0,150]","[0,-150]",up,1,,,,,,001,2025-03-10_19h11.57.944,SL_sali_41,2021.2.3,Win32,59.88023952,1.1395,,,121,0,121,0,1,,,,,,,,
,,"[""diamond"",""green"",""vert"",""up"",[150,0],[106,-106]]",diamond,green,vert,up,"[150,0]","[106,-106]",up,1,,,,,,001,2025-03-10_19h11.57.944,SL_sali_41,2021.2.3,Win32,59.88023952,1.4567,,,122,0,122,0,1,,,,,,,,
,,"[""diamond"",""green"",""hori"",""left"",[150,0],[-106,-106]]",diamond,green,hori,left,"[150,0]","[-106,-106]",left,1,,,,,,001,2025-03-10_19h11.57.944,SL_sali_41,2021.2.3,Win32,59.88023952,1.2308,,,123,0,123,0,1,,,,,,,,
,,"[""diamond"",""no_dis"",""vert"",""up"",[99999,99999],[0,150]]",diamond,no_dis,vert,up,"[99999,99999]","[0,150]",up,1,,,,,,001,2025-03-10_19h11.57.944,SL_sali_41,2021.2.3,Win32,59.88023952,0.96,,,124,0,124,0,1,,,,,,,,
,,"[""circle"",""red"",""vert"",""up"",[0,150],[-106,-106]]",circle,red,vert,up,"[0,150]","[-106,-106]",up,1,,,,,,001,2025-03-10_19h11.57.944,SL_sali_41,2021.2.3,Win32,59.88023952,1.0215,,,125,0,125,0,1,,,,,,,,
,,"[""diamond"",""red"",""vert"",""up"",[150,0],[-150,0]]",diamond,red,vert,up,"[150,0]","[-150,0]",up,1,,,,,,001,2025-03-10_19h11.57.944,SL_sali_41,2021.2.3,Win32,59.88023952,0.894,,,126,0,126,0,1,,,,,,,,
,,"[""circle"",""no_dis"",""vert"",""up"",[99999,99999],[106,-106]]",circle,no_dis,vert,up,"[99999,99999]","[106,-106]",up,1,,,,,,001,2025-03-10_19h11.57.944,SL_sali_41,2021.2.3,Win32,59.88023952,1.1385,,,127,0,127,0,1,,,,,,,,
,,,,,,,,,,,,,,,,001,2025-03-10_19h11.57.944,SL_sali_41,2021.2.3,Win32,59.88023952,,,,,,,,,1,space,116.6498,0,0,0,0,1
,,"[""circle"",""red"",""hori"",""left"",[150,0],[106,-106]]",circle,red,hori,left,"[150,0]","[106,-106]",left,1,,,,,,001,2025-03-10_19h11.57.944,SL_sali_41,2021.2.3,Win32,59.88023952,1.7445,,,0,0,0,0,1,,,,,,,,
,,"[""diamond"",""red"",""vert"",""up"",[150,0],[-150,0]]",diamond,red,vert,up,"[150,0]","[-150,0]",up,1,,,,,,001,2025-03-10_19h11.57.944,SL_sali_41,2021.2.3,Win32,59.88023952,0.7316,,,1,0,1,0,1,,,,,,,,
,,"[""circle"",""no_dis"",""vert"",""up"",[99999,99999],[106,-106]]",circle,no_dis,vert,up,"[99999,99999]","[106,-106]",up,1,,,,,,001,2025-03-10_19h11.57.944,SL_sali_41,2021.2.3,Win32,59.88023952,0.6513,,,2,0,2,0,1,,,,,,,,
,,"[""diamond"",""no_dis"",""vert"",""up"",[99999,99999],[0,150]]",diamond,no_dis,vert,up,"[99999,99999]","[0,150]",up,1,,,,,,001,2025-03-10_19h11.57.944,SL_sali_41,2021.2.3,Win32,59.88023952,1.0433,,,3,0,3,0,1,,,,,,,,
,,"[""diamond"",""no_dis"",""hori"",""left"",[99999,99999],[106,106]]",diamond,no_dis,hori,left,"[99999,99999]","[106,106]",left,1,,,,,,001,2025-03-10_19h11.57.944,SL_sali_41,2021.2.3,Win32,59.88023952,0.7992,,,4,0,4,0,1,,,,,,,,
,,"[""circle"",""green"",""hori"",""left"",[0,-150],[-106,-106]]",circle,green,hori,left,"[0,-150]","[-106,-106]",left,1,,,,,,001,2025-03-10_19h11.57.944,SL_sali_41,2021.2.3,Win32,59.88023952,0.8667,,,5,0,5,0,1,,,,,,,,
,,"[""circle"",""no_dis"",""hori"",""left"",[99999,99999],[106,-106]]",circle,no_dis,hori,left,"[99999,99999]","[106,-106]",left,1,,,,,,001,2025-03-10_19h11.57.944,SL_sali_41,2021.2.3,Win32,59.88023952,0.6301,,,6,0,6,0,1,,,,,,,,
,,"[""diamond"",""green"",""vert"",""up"",[150,0],[0,-150]]",diamond,green,vert,up,"[150,0]","[0,-150]",up,1,,,,,,001,2025-03-10_19h11.57.944,SL_sali_41,2021.2.3,Win32,59.88023952,0.8525,,,7,0,7,0,1,,,,,,,,
,,"[""circle"",""red"",""hori"",""left"",[106,-106],[-150,0]]",circle,red,hori,left,"[106,-106]","[-150,0]",left,1,,,,,,001,2025-03-10_19h11.57.944,SL_sali_41,2021.2.3,Win32,59.88023952,0.8421,,,8,0,8,0,1,,,,,,,,
,,"[""diamond"",""green"",""hori"",""left"",[150,0],[106,106]]",diamond,green,hori,left,"[150,0]","[106,106]",left,1,,,,,,001,2025-03-10_19h11.57.944,SL_sali_41,2021.2.3,Win32,59.88023952,0.9835,,,9,0,9,0,1,,,,,,,,
,,"[""circle"",""no_dis"",""hori"",""left"",[99999,99999],[106,106]]",circle,no_dis,hori,left,"[99999,99999]","[106,106]",up,0,,,,,,001,2025-03-10_19h11.57.944,SL_sali_41,2021.2.3,Win32,59.88023952,0.8157,,,10,0,10,0,1,,,,,,,,
,,"[""circle"",""red"",""vert"",""up"",[106,106],[106,-106]]",circle,red,vert,up,"[106,106]","[106,-106]",up,1,,,,,,001,2025-03-10_19h11.57.944,SL_sali_41,2021.2.3,Win32,59.88023952,0.9713,,,11,0,11,0,1,,,,,,,,
,,"[""diamond"",""no_dis"",""vert"",""up"",[99999,99999],[0,-150]]",diamond,no_dis,vert,up,"[99999,99999]","[0,-150]",up,1,,,,,,001,2025-03-10_19h11.57.944,SL_sali_41,2021.2.3,Win32,59.88023952,0.8244,,,12,0,12,0,1,,,,,,,,
,,"[""circle"",""no_dis"",""hori"",""left"",[99999,99999],[-150,0]]",circle,no_dis,hori,left,"[99999,99999]","[-150,0]",left,1,,,,,,001,2025-03-10_19h11.57.944,SL_sali_41,2021.2.3,Win32,59.88023952,0.8048,,,13,0,13,0,1,,,,,,,,
,,"[""diamond"",""green"",""hori"",""left"",[150,0],[-106,-106]]",diamond,green,hori,left,"[150,0]","[-106,-106]",left,1,,,,,,001,2025-03-10_19h11.57.944,SL_sali_41,2021.2.3,Win32,59.88023952,1.1344,,,14,0,14,0,1,,,,,,,,
,,"[""diamond"",""red"",""hori"",""left"",[-150,0],[0,150]]",diamond,red,hori,left,"[-150,0]","[0,150]",left,1,,,,,,001,2025-03-10_19h11.57.944,SL_sali_41,2021.2.3,Win32,59.88023952,1.2474,,,15,0,15,0,1,,,,,,,,
,,"[""diamond"",""no_dis"",""hori"",""left"",[99999,99999],[0,-150]]",diamond,no_dis,hori,left,"[99999,99999]","[0,-150]",up,0,,,,,,001,2025-03-10_19h11.57.944,SL_sali_41,2021.2.3,Win32,59.88023952,1.2007,,,16,0,16,0,1,,,,,,,,
,,"[""circle"",""green"",""vert"",""up"",[0,150],[106,106]]",circle,green,vert,up,"[0,150]","[106,106]",up,1,,,,,,001,2025-03-10_19h11.57.944,SL_sali_41,2021.2.3,Win32,59.88023952,2.1905,,,17,0,17,0,1,,,,,,,,
,,"[""diamond"",""no_dis"",""hori"",""left"",[99999,99999],[-106,-106]]",diamond,no_dis,hori,left,"[99999,99999]","[-106,-106]",left,1,,,,,,001,2025-03-10_19h11.57.944,SL_sali_41,2021.2.3,Win32,59.88023952,0.9484,,,18,0,18,0,1,,,,,,,,
,,"[""diamond"",""no_dis"",""vert"",""up"",[99999,99999],[-150,0]]",diamond,no_dis,vert,up,"[99999,99999]","[-150,0]",up,1,,,,,,001,2025-03-10_19h11.57.944,SL_sali_41,2021.2.3,Win32,59.88023952,1.1986,,,19,0,19,0,1,,,,,,,,
,,"[""diamond"",""red"",""vert"",""up"",[-106,106],[106,106]]",diamond,red,vert,up,"[-106,106]","[106,106]",up,1,,,,,,001,2025-03-10_19h11.57.944,SL_sali_41,2021.2.3,Win32,59.88023952,1.2176,,,20,0,20,0,1,,,,,,,,
,,"[""circle"",""green"",""hori"",""left"",[150,0],[-150,0]]",circle,green,hori,left,"[150,0]","[-150,0]",left,1,,,,,,001,2025-03-10_19h11.57.944,SL_sali_41,2021.2.3,Win32,59.88023952,1.0213,,,21,0,21,0,1,,,,,,,,
,,"[""circle"",""green"",""vert"",""up"",[0,-150],[-106,106]]",circle,green,vert,up,"[0,-150]","[-106,106]",up,1,,,,,,001,2025-03-10_19h11.57.944,SL_sali_41,2021.2.3,Win32,59.88023952,2.1081,,,22,0,22,0,1,,,,,,,,
,,"[""circle"",""no_dis"",""vert"",""up"",[99999,99999],[-106,-106]]",circle,no_dis,vert,up,"[99999,99999]","[-106,-106]",up,1,,,,,,001,2025-03-10_19h11.57.944,SL_sali_41,2021.2.3,Win32,59.88023952,0.8313,,,23,0,23,0,1,,,,,,,,
,,"[""diamond"",""green"",""hori"",""left"",[150,0],[-106,106]]",diamond,green,hori,left,"[150,0]","[-106,106]",left,1,,,,,,001,2025-03-10_19h11.57.944,SL_sali_41,2021.2.3,Win32,59.88023952,1.1209,,,24,0,24,0,1,,,,,,,,
,,"[""circle"",""no_dis"",""vert"",""up"",[99999,99999],[106,-106]]",circle,no_dis,vert,up,"[99999,99999]","[106,-106]",up,1,,,,,,001,2025-03-10_19h11.57.944,SL_sali_41,2021.2.3,Win32,59.88023952,0.8396,,,25,0,25,0,1,,,,,,,,
,,"[""circle"",""red"",""vert"",""up"",[150,0],[106,106]]",circle,red,vert,up,"[150,0]","[106,106]",up,1,,,,,,001,2025-03-10_19h11.57.944,SL_sali_41,2021.2.3,Win32,59.88023952,0.7688,,,26,0,26,0,1,,,,,,,,
,,"[""diamond"",""no_dis"",""hori"",""left"",[99999,99999],[-106,106]]",diamond,no_dis,hori,left,"[99999,99999]","[-106,106]",left,1,,,,,,001,2025-03-10_19h11.57.944,SL_sali_41,2021.2.3,Win32,59.88023952,0.6813,,,27,0,27,0,1,,,,,,,,
,,"[""diamond"",""green"",""vert"",""up"",[106,106],[150,0]]",diamond,green,vert,up,"[106,106]","[150,0]",up,1,,,,,,001,2025-03-10_19h11.57.944,SL_sali_41,2021.2.3,Win32,59.88023952,0.8496,,,28,0,28,0,1,,,,,,,,
,,"[""diamond"",""green"",""hori"",""left"",[106,-106],[150,0]]",diamond,green,hori,left,"[106,-106]","[150,0]",left,1,,,,,,001,2025-03-10_19h11.57.944,SL_sali_41,2021.2.3,Win32,59.88023952,1.2813,,,29,0,29,0,1,,,,,,,,
,,"[""diamond"",""green"",""hori"",""left"",[106,-106],[106,106]]",diamond,green,hori,left,"[106,-106]","[106,106]",left,1,,,,,,001,2025-03-10_19h11.57.944,SL_sali_41,2021.2.3,Win32,59.88023952,0.7748,,,30,0,30,0,1,,,,,,,,
,,"[""circle"",""no_dis"",""vert"",""up"",[99999,99999],[0,150]]",circle,no_dis,vert,up,"[99999,99999]","[0,150]",up,1,,,,,,001,2025-03-10_19h11.57.944,SL_sali_41,2021.2.3,Win32,59.88023952,0.5058,,,31,0,31,0,1,,,,,,,,
,,"[""circle"",""no_dis"",""hori"",""left"",[99999,99999],[106,106]]",circle,no_dis,hori,left,"[99999,99999]","[106,106]",left,1,,,,,,001,2025-03-10_19h11.57.944,SL_sali_41,2021.2.3,Win32,59.88023952,0.6651,,,32,0,32,0,1,,,,,,,,
,,"[""diamond"",""red"",""vert"",""up"",[-106,-106],[0,150]]",diamond,red,vert,up,"[-106,-106]","[0,150]",up,1,,,,,,001,2025-03-10_19h11.57.944,SL_sali_41,2021.2.3,Win32,59.88023952,0.9908,,,33,0,33,0,1,,,,,,,,
,,"[""diamond"",""green"",""vert"",""up"",[150,0],[106,-106]]",diamond,green,vert,up,"[150,0]","[106,-106]",up,1,,,,,,001,2025-03-10_19h11.57.944,SL_sali_41,2021.2.3,Win32,59.88023952,1.121,,,34,0,34,0,1,,,,,,,,
,,"[""circle"",""green"",""hori"",""left"",[150,0],[-150,0]]",circle,green,hori,left,"[150,0]","[-150,0]",left,1,,,,,,001,2025-03-10_19h11.57.944,SL_sali_41,2021.2.3,Win32,59.88023952,1.2371,,,35,0,35,0,1,,,,,,,,
,,"[""diamond"",""green"",""vert"",""up"",[0,150],[0,-150]]",diamond,green,vert,up,"[0,150]","[0,-150]",up,1,,,,,,001,2025-03-10_19h11.57.944,SL_sali_41,2021.2.3,Win32,59.88023952,0.9682,,,36,0,36,0,1,,,,,,,,
,,"[""circle"",""green"",""hori"",""left"",[-106,106],[106,106]]",circle,green,hori,left,"[-106,106]","[106,106]",left,1,,,,,,001,2025-03-10_19h11.57.944,SL_sali_41,2021.2.3,Win32,59.88023952,0.8034,,,37,0,37,0,1,,,,,,,,
,,"[""circle"",""red"",""vert"",""up"",[-106,106],[-150,0]]",circle,red,vert,up,"[-106,106]","[-150,0]",up,1,,,,,,001,2025-03-10_19h11.57.944,SL_sali_41,2021.2.3,Win32,59.88023952,0.9891,,,38,0,38,0,1,,,,,,,,
,,"[""circle"",""red"",""vert"",""up"",[0,150],[-106,-106]]",circle,red,vert,up,"[0,150]","[-106,-106]",up,1,,,,,,001,2025-03-10_19h11.57.944,SL_sali_41,2021.2.3,Win32,59.88023952,0.8566,,,39,0,39,0,1,,,,,,,,
,,"[""circle"",""red"",""hori"",""left"",[106,-106],[150,0]]",circle,red,hori,left,"[106,-106]","[150,0]",left,1,,,,,,001,2025-03-10_19h11.57.944,SL_sali_41,2021.2.3,Win32,59.88023952,0.7277,,,40,0,40,0,1,,,,,,,,
,,"[""circle"",""red"",""hori"",""left"",[106,106],[0,-150]]",circle,red,hori,left,"[106,106]","[0,-150]",left,1,,,,,,001,2025-03-10_19h11.57.944,SL_sali_41,2021.2.3,Win32,59.88023952,0.8792,,,41,0,41,0,1,,,,,,,,
,,"[""diamond"",""no_dis"",""hori"",""left"",[99999,99999],[150,0]]",diamond,no_dis,hori,left,"[99999,99999]","[150,0]",up,0,,,,,,001,2025-03-10_19h11.57.944,SL_sali_41,2021.2.3,Win32,59.88023952,0.5212,,,42,0,42,0,1,,,,,,,,
,,"[""circle"",""green"",""hori"",""left"",[150,0],[106,-106]]",circle,green,hori,left,"[150,0]","[106,-106]",left,1,,,,,,001,2025-03-10_19h11.57.944,SL_sali_41,2021.2.3,Win32,59.88023952,1.2234,,,43,0,43,0,1,,,,,,,,
,,"[""diamond"",""green"",""vert"",""up"",[-106,106],[0,150]]",diamond,green,vert,up,"[-106,106]","[0,150]",up,1,,,,,,001,2025-03-10_19h11.57.944,SL_sali_41,2021.2.3,Win32,59.88023952,1.0154,,,44,0,44,0,1,,,,,,,,
,,"[""circle"",""green"",""vert"",""up"",[150,0],[-106,106]]",circle,green,vert,up,"[150,0]","[-106,106]",up,1,,,,,,001,2025-03-10_19h11.57.944,SL_sali_41,2021.2.3,Win32,59.88023952,1.233,,,45,0,45,0,1,,,,,,,,
,,"[""circle"",""green"",""hori"",""left"",[106,-106],[150,0]]",circle,green,hori,left,"[106,-106]","[150,0]",left,1,,,,,,001,2025-03-10_19h11.57.944,SL_sali_41,2021.2.3,Win32,59.88023952,0.8259,,,46,0,46,0,1,,,,,,,,
,,"[""circle"",""green"",""vert"",""up"",[0,-150],[106,106]]",circle,green,vert,up,"[0,-150]","[106,106]",up,1,,,,,,001,2025-03-10_19h11.57.944,SL_sali_41,2021.2.3,Win32,59.88023952,0.6253,,,47,0,47,0,1,,,,,,,,
,,"[""diamond"",""green"",""vert"",""up"",[-150,0],[-106,-106]]",diamond,green,vert,up,"[-150,0]","[-106,-106]",up,1,,,,,,001,2025-03-10_19h11.57.944,SL_sali_41,2021.2.3,Win32,59.88023952,1.4478,,,48,0,48,0,1,,,,,,,,
,,"[""diamond"",""red"",""hori"",""left"",[-106,-106],[0,150]]",diamond,red,hori,left,"[-106,-106]","[0,150]",left,1,,,,,,001,2025-03-10_19h11.57.944,SL_sali_41,2021.2.3,Win32,59.88023952,1.1371,,,49,0,49,0,1,,,,,,,,
,,"[""diamond"",""red"",""hori"",""left"",[106,106],[-150,0]]",diamond,red,hori,left,"[106,106]","[-150,0]",left,1,,,,,,001,2025-03-10_19h11.57.944,SL_sali_41,2021.2.3,Win32,59.88023952,0.8244,,,50,0,50,0,1,,,,,,,,
,,"[""diamond"",""red"",""hori"",""left"",[150,0],[0,150]]",diamond,red,hori,left,"[150,0]","[0,150]",left,1,,,,,,001,2025-03-10_19h11.57.944,SL_sali_41,2021.2.3,Win32,59.88023952,0.8156,,,51,0,51,0,1,,,,,,,,
,,"[""circle"",""red"",""vert"",""up"",[-106,-106],[0,-150]]",circle,red,vert,up,"[-106,-106]","[0,-150]",up,1,,,,,,001,2025-03-10_19h11.57.944,SL_sali_41,2021.2.3,Win32,59.88023952,1.0173,,,52,0,52,0,1,,,,,,,,
,,"[""diamond"",""no_dis"",""hori"",""left"",[99999,99999],[-106,-106]]",diamond,no_dis,hori,left,"[99999,99999]","[-106,-106]",left,1,,,,,,001,2025-03-10_19h11.57.944,SL_sali_41,2021.2.3,Win32,59.88023952,0.688,,,53,0,53,0,1,,,,,,,,
,,"[""diamond"",""red"",""vert"",""up"",[-150,0],[150,0]]",diamond,red,vert,up,"[-150,0]","[150,0]",up,1,,,,,,001,2025-03-10_19h11.57.944,SL_sali_41,2021.2.3,Win32,59.88023952,0.6657,,,54,0,54,0,1,,,,,,,,
,,"[""diamond"",""no_dis"",""hori"",""left"",[99999,99999],[-106,-106]]",diamond,no_dis,hori,left,"[99999,99999]","[-106,-106]",up,0,,,,,,001,2025-03-10_19h11.57.944,SL_sali_41,2021.2.3,Win32,59.88023952,0.6536,,,55,0,55,0,1,,,,,,,,
,,"[""diamond"",""no_dis"",""vert"",""up"",[99999,99999],[-150,0]]",diamond,no_dis,vert,up,"[99999,99999]","[-150,0]",up,1,,,,,,001,2025-03-10_19h11.57.944,SL_sali_41,2021.2.3,Win32,59.88023952,1.2653,,,56,0,56,0,1,,,,,,,,
,,"[""circle"",""green"",""hori"",""left"",[150,0],[-106,106]]",circle,green,hori,left,"[150,0]","[-106,106]",left,1,,,,,,001,2025-03-10_19h11.57.944,SL_sali_41,2021.2.3,Win32,59.88023952,0.7744,,,57,0,57,0,1,,,,,,,,
,,"[""circle"",""no_dis"",""hori"",""left"",[99999,99999],[-106,106]]",circle,no_dis,hori,left,"[99999,99999]","[-106,106]",left,1,,,,,,001,2025-03-10_19h11.57.944,SL_sali_41,2021.2.3,Win32,59.88023952,0.6486,,,58,0,58,0,1,,,,,,,,
,,"[""circle"",""green"",""hori"",""left"",[106,106],[0,-150]]",circle,green,hori,left,"[106,106]","[0,-150]",left,1,,,,,,001,2025-03-10_19h11.57.944,SL_sali_41,2021.2.3,Win32,59.88023952,0.8832,,,59,0,59,0,1,,,,,,,,
,,"[""circle"",""green"",""vert"",""up"",[150,0],[-106,-106]]",circle,green,vert,up,"[150,0]","[-106,-106]",up,1,,,,,,001,2025-03-10_19h11.57.944,SL_sali_41,2021.2.3,Win32,59.88023952,0.7084,,,60,0,60,0,1,,,,,,,,
,,"[""diamond"",""green"",""hori"",""left"",[-150,0],[0,-150]]",diamond,green,hori,left,"[-150,0]","[0,-150]",left,1,,,,,,001,2025-03-10_19h11.57.944,SL_sali_41,2021.2.3,Win32,59.88023952,1.1494,,,61,0,61,0,1,,,,,,,,
,,"[""diamond"",""no_dis"",""hori"",""left"",[99999,99999],[-150,0]]",diamond,no_dis,hori,left,"[99999,99999]","[-150,0]",left,1,,,,,,001,2025-03-10_19h11.57.944,SL_sali_41,2021.2.3,Win32,59.88023952,0.966,,,62,0,62,0,1,,,,,,,,
,,"[""circle"",""red"",""hori"",""left"",[-106,106],[-150,0]]",circle,red,hori,left,"[-106,106]","[-150,0]",left,1,,,,,,001,2025-03-10_19h11.57.944,SL_sali_41,2021.2.3,Win32,59.88023952,0.9604,,,63,0,63,0,1,,,,,,,,
,,"[""diamond"",""red"",""vert"",""up"",[0,-150],[-106,-106]]",diamond,red,vert,up,"[0,-150]","[-106,-106]",up,1,,,,,,001,2025-03-10_19h11.57.944,SL_sali_41,2021.2.3,Win32,59.88023952,0.8081,,,64,0,64,0,1,,,,,,,,
,,"[""diamond"",""red"",""hori"",""left"",[150,0],[-150,0]]",diamond,red,hori,left,"[150,0]","[-150,0]",left,1,,,,,,001,2025-03-10_19h11.57.944,SL_sali_41,2021.2.3,Win32,59.88023952,0.6707,,,65,0,65,0,1,,,,,,,,
,,"[""diamond"",""green"",""hori"",""left"",[0,-150],[150,0]]",diamond,green,hori,left,"[0,-150]","[150,0]",left,1,,,,,,001,2025-03-10_19h11.57.944,SL_sali_41,2021.2.3,Win32,59.88023952,1.054,,,66,0,66,0,1,,,,,,,,
,,"[""diamond"",""red"",""vert"",""up"",[150,0],[0,-150]]",diamond,red,vert,up,"[150,0]","[0,-150]",up,1,,,,,,001,2025-03-10_19h11.57.944,SL_sali_41,2021.2.3,Win32,59.88023952,0.9413,,,67,0,67,0,1,,,,,,,,
,,"[""circle"",""red"",""vert"",""up"",[0,150],[-106,106]]",circle,red,vert,up,"[0,150]","[-106,106]",up,1,,,,,,001,2025-03-10_19h11.57.944,SL_sali_41,2021.2.3,Win32,59.88023952,1.6314,,,68,0,68,0,1,,,,,,,,
,,"[""circle"",""red"",""vert"",""up"",[0,-150],[-106,-106]]",circle,red,vert,up,"[0,-150]","[-106,-106]",up,1,,,,,,001,2025-03-10_19h11.57.944,SL_sali_41,2021.2.3,Win32,59.88023952,0.8215,,,69,0,69,0,1,,,,,,,,
,,"[""diamond"",""no_dis"",""vert"",""up"",[99999,99999],[-150,0]]",diamond,no_dis,vert,up,"[99999,99999]","[-150,0]",up,1,,,,,,001,2025-03-10_19h11.57.944,SL_sali_41,2021.2.3,Win32,59.88023952,0.8482,,,70,0,70,0,1,,,,,,,,
,,"[""diamond"",""red"",""hori"",""left"",[-150,0],[0,150]]",diamond,red,hori,left,"[-150,0]","[0,150]",left,1,,,,,,001,2025-03-10_19h11.57.944,SL_sali_41,2021.2.3,Win32,59.88023952,0.8485,,,71,0,71,0,1,,,,,,,,
,,"[""circle"",""no_dis"",""hori"",""left"",[99999,99999],[0,150]]",circle,no_dis,hori,left,"[99999,99999]","[0,150]",up,0,,,,,,001,2025-03-10_19h11.57.944,SL_sali_41,2021.2.3,Win32,59.88023952,0.8205,,,72,0,72,0,1,,,,,,,,
,,"[""diamond"",""red"",""hori"",""left"",[-106,-106],[0,150]]",diamond,red,hori,left,"[-106,-106]","[0,150]",left,1,,,,,,001,2025-03-10_19h11.57.944,SL_sali_41,2021.2.3,Win32,59.88023952,0.6306,,,73,0,73,0,1,,,,,,,,
,,"[""circle"",""green"",""vert"",""up"",[106,-106],[106,106]]",circle,green,vert,up,"[106,-106]","[106,106]",up,1,,,,,,001,2025-03-10_19h11.57.944,SL_sali_41,2021.2.3,Win32,59.88023952,1.4391,,,74,0,74,0,1,,,,,,,,
,,"[""circle"",""red"",""hori"",""left"",[150,0],[106,-106]]",circle,red,hori,left,"[150,0]","[106,-106]",left,1,,,,,,001,2025-03-10_19h11.57.944,SL_sali_41,2021.2.3,Win32,59.88023952,1.1192,,,75,0,75,0,1,,,,,,,,
,,"[""circle"",""red"",""vert"",""up"",[106,-106],[-150,0]]",circle,red,vert,up,"[106,-106]","[-150,0]",up,1,,,,,,001,2025-03-10_19h11.57.944,SL_sali_41,2021.2.3,Win32,59.88023952,0.8424,,,76,0,76,0,1,,,,,,,,
,,"[""circle"",""no_dis"",""hori"",""left"",[99999,99999],[150,0]]",circle,no_dis,hori,left,"[99999,99999]","[150,0]",left,1,,,,,,001,2025-03-10_19h11.57.944,SL_sali_41,2021.2.3,Win32,59.88023952,0.6095,,,77,0,77,0,1,,,,,,,,
,,"[""diamond"",""green"",""vert"",""up"",[0,150],[106,-106]]",diamond,green,vert,up,"[0,150]","[106,-106]",up,1,,,,,,001,2025-03-10_19h11.57.944,SL_sali_41,2021.2.3,Win32,59.88023952,1.1894,,,78,0,78,0,1,,,,,,,,
,,"[""circle"",""red"",""hori"",""left"",[150,0],[-150,0]]",circle,red,hori,left,"[150,0]","[-150,0]",left,1,,,,,,001,2025-03-10_19h11.57.944,SL_sali_41,2021.2.3,Win32,59.88023952,0.709,,,79,0,79,0,1,,,,,,,,
,,"[""circle"",""red"",""vert"",""up"",[150,0],[-106,-106]]",circle,red,vert,up,"[150,0]","[-106,-106]",up,1,,,,,,001,2025-03-10_19h11.57.944,SL_sali_41,2021.2.3,Win32,59.88023952,0.9158,,,80,0,80,0,1,,,,,,,,
,,"[""diamond"",""red"",""vert"",""up"",[-106,-106],[150,0]]",diamond,red,vert,up,"[-106,-106]","[150,0]",up,1,,,,,,001,2025-03-10_19h11.57.944,SL_sali_41,2021.2.3,Win32,59.88023952,1.0701,,,81,0,81,0,1,,,,,,,,
,,"[""diamond"",""red"",""hori"",""left"",[0,-150],[-150,0]]",diamond,red,hori,left,"[0,-150]","[-150,0]",left,1,,,,,,001,2025-03-10_19h11.57.944,SL_sali_41,2021.2.3,Win32,59.88023952,0.8981,,,82,0,82,0,1,,,,,,,,
,,"[""diamond"",""red"",""hori"",""left"",[150,0],[-106,-106]]",diamond,red,hori,left,"[150,0]","[-106,-106]",left,1,,,,,,001,2025-03-10_19h11.57.944,SL_sali_41,2021.2.3,Win32,59.88023952,0.7078,,,83,0,83,0,1,,,,,,,,
,,"[""diamond"",""no_dis"",""vert"",""up"",[99999,99999],[150,0]]",diamond,no_dis,vert,up,"[99999,99999]","[150,0]",up,1,,,,,,001,2025-03-10_19h11.57.944,SL_sali_41,2021.2.3,Win32,59.88023952,0.9224,,,84,0,84,0,1,,,,,,,,
,,"[""diamond"",""green"",""hori"",""left"",[-106,106],[0,150]]",diamond,green,hori,left,"[-106,106]","[0,150]",left,1,,,,,,001,2025-03-10_19h11.57.944,SL_sali_41,2021.2.3,Win32,59.88023952,2.1835,,,85,0,85,0,1,,,,,,,,
,,"[""circle"",""no_dis"",""vert"",""up"",[99999,99999],[-106,106]]",circle,no_dis,vert,up,"[99999,99999]","[-106,106]",up,1,,,,,,001,2025-03-10_19h11.57.944,SL_sali_41,2021.2.3,Win32,59.88023952,1.836,,,86,0,86,0,1,,,,,,,,
,,"[""diamond"",""red"",""hori"",""left"",[150,0],[0,150]]",diamond,red,hori,left,"[150,0]","[0,150]",left,1,,,,,,001,2025-03-10_19h11.57.944,SL_sali_41,2021.2.3,Win32,59.88023952,1.106,,,87,0,87,0,1,,,,,,,,
,,"[""diamond"",""no_dis"",""vert"",""up"",[99999,99999],[0,150]]",diamond,no_dis,vert,up,"[99999,99999]","[0,150]",up,1,,,,,,001,2025-03-10_19h11.57.944,SL_sali_41,2021.2.3,Win32,59.88023952,0.7864,,,88,0,88,0,1,,,,,,,,
,,"[""diamond"",""green"",""vert"",""up"",[150,0],[106,-106]]",diamond,green,vert,up,"[150,0]","[106,-106]",up,1,,,,,,001,2025-03-10_19h11.57.944,SL_sali_41,2021.2.3,Win32,59.88023952,1.0869,,,89,0,89,0,1,,,,,,,,
,,"[""diamond"",""green"",""vert"",""up"",[106,106],[150,0]]",diamond,green,vert,up,"[106,106]","[150,0]",up,1,,,,,,001,2025-03-10_19h11.57.944,SL_sali_41,2021.2.3,Win32,59.88023952,0.8197,,,90,0,90,0,1,,,,,,,,
,,"[""circle"",""no_dis"",""vert"",""up"",[99999,99999],[-106,106]]",circle,no_dis,vert,up,"[99999,99999]","[-106,106]",up,1,,,,,,001,2025-03-10_19h11.57.944,SL_sali_41,2021.2.3,Win32,59.88023952,1.068,,,91,0,91,0,1,,,,,,,,
,,"[""diamond"",""green"",""hori"",""left"",[150,0],[-106,-106]]",diamond,green,hori,left,"[150,0]","[-106,-106]",left,1,,,,,,001,2025-03-10_19h11.57.944,SL_sali_41,2021.2.3,Win32,59.88023952,0.8984,,,92,0,92,0,1,,,,,,,,
,,"[""circle"",""green"",""vert"",""up"",[150,0],[106,-106]]",circle,green,vert,up,"[150,0]","[106,-106]",up,1,,,,,,001,2025-03-10_19h11.57.944,SL_sali_41,2021.2.3,Win32,59.88023952,1.2181,,,93,0,93,0,1,,,,,,,,
,,"[""circle"",""red"",""hori"",""left"",[150,0],[0,150]]",circle,red,hori,left,"[150,0]","[0,150]",left,1,,,,,,001,2025-03-10_19h11.57.944,SL_sali_41,2021.2.3,Win32,59.88023952,1.0332,,,94,0,94,0,1,,,,,,,,
,,"[""circle"",""no_dis"",""vert"",""up"",[99999,99999],[0,-150]]",circle,no_dis,vert,up,"[99999,99999]","[0,-150]",up,1,,,,,,001,2025-03-10_19h11.57.944,SL_sali_41,2021.2.3,Win32,59.88023952,0.6763,,,95,0,95,0,1,,,,,,,,
,,"[""circle"",""red"",""vert"",""up"",[-150,0],[0,150]]",circle,red,vert,up,"[-150,0]","[0,150]",up,1,,,,,,001,2025-03-10_19h11.57.944,SL_sali_41,2021.2.3,Win32,59.88023952,0.6483,,,96,0,96,0,1,,,,,,,,
,,"[""circle"",""green"",""vert"",""up"",[0,-150],[-150,0]]",circle,green,vert,up,"[0,-150]","[-150,0]",up,1,,,,,,001,2025-03-10_19h11.57.944,SL_sali_41,2021.2.3,Win32,59.88023952,0.9023,,,97,0,97,0,1,,,,,,,,
,,"[""circle"",""green"",""hori"",""left"",[150,0],[-106,-106]]",circle,green,hori,left,"[150,0]","[-106,-106]",left,1,,,,,,001,2025-03-10_19h11.57.944,SL_sali_41,2021.2.3,Win32,59.88023952,0.606,,,98,0,98,0,1,,,,,,,,
,,"[""diamond"",""red"",""hori"",""left"",[-106,-106],[0,-150]]",diamond,red,hori,left,"[-106,-106]","[0,-150]",left,1,,,,,,001,2025-03-10_19h11.57.944,SL_sali_41,2021.2.3,Win32,59.88023952,2.0553,,,99,0,99,0,1,,,,,,,,
,,"[""circle"",""no_dis"",""vert"",""up"",[99999,99999],[-106,-106]]",circle,no_dis,vert,up,"[99999,99999]","[-106,-106]",up,1,,,,,,001,2025-03-10_19h11.57.944,SL_sali_41,2021.2.3,Win32,59.88023952,1.8557,,,100,0,100,0,1,,,,,,,,
,,"[""circle"",""no_dis"",""vert"",""up"",[99999,99999],[106,106]]",circle,no_dis,vert,up,"[99999,99999]","[106,106]",up,1,,,,,,001,2025-03-10_19h11.57.944,SL_sali_41,2021.2.3,Win32,59.88023952,0.8492,,,101,0,101,0,1,,,,,,,,
,,"[""circle"",""no_dis"",""hori"",""left"",[99999,99999],[106,-106]]",circle,no_dis,hori,left,"[99999,99999]","[106,-106]",left,1,,,,,,001,2025-03-10_19h11.57.944,SL_sali_41,2021.2.3,Win32,59.88023952,0.6903,,,102,0,102,0,1,,,,,,,,
,,"[""circle"",""red"",""hori"",""left"",[150,0],[106,106]]",circle,red,hori,left,"[150,0]","[106,106]",left,1,,,,,,001,2025-03-10_19h11.57.944,SL_sali_41,2021.2.3,Win32,59.88023952,0.7182,,,103,0,103,0,1,,,,,,,,
,,"[""diamond"",""green"",""vert"",""up"",[0,150],[106,106]]",diamond,green,vert,up,"[0,150]","[106,106]",up,1,,,,,,001,2025-03-10_19h11.57.944,SL_sali_41,2021.2.3,Win32,59.88023952,1.0095,,,104,0,104,0,1,,,,,,,,
,,"[""circle"",""green"",""vert"",""up"",[-106,-106],[0,150]]",circle,green,vert,up,"[-106,-106]","[0,150]",up,1,,,,,,001,2025-03-10_19h11.57.944,SL_sali_41,2021.2.3,Win32,59.88023952,0.6251,,,105,0,105,0,1,,,,,,,,
,,"[""diamond"",""green"",""hori"",""left"",[-106,106],[-106,-106]]",diamond,green,hori,left,"[-106,106]","[-106,-106]",left,1,,,,,,001,2025-03-10_19h11.57.944,SL_sali_41,2021.2.3,Win32,59.88023952,0.7436,,,106,0,106,0,1,,,,,,,,
,,"[""circle"",""no_dis"",""hori"",""left"",[99999,99999],[150,0]]",circle,no_dis,hori,left,"[99999,99999]","[150,0]",left,1,,,,,,001,2025-03-10_19h11.57.944,SL_sali_41,2021.2.3,Win32,59.88023952,0.6838,,,107,0,107,0,1,,,,,,,,
,,"[""diamond"",""no_dis"",""hori"",""left"",[99999,99999],[150,0]]",diamond,no_dis,hori,left,"[99999,99999]","[150,0]",left,1,,,,,,001,2025-03-10_19h11.57.944,SL_sali_41,2021.2.3,Win32,59.88023952,0.9235,,,108,0,108,0,1,,,,,,,,
,,"[""circle"",""green"",""vert"",""up"",[-150,0],[106,-106]]",circle,green,vert,up,"[-150,0]","[106,-106]",up,1,,,,,,001,2025-03-10_19h11.57.944,SL_sali_41,2021.2.3,Win32,59.88023952,0.6641,,,109,0,109,0,1,,,,,,,,
,,"[""circle"",""no_dis"",""hori"",""left"",[99999,99999],[0,-150]]",circle,no_dis,hori,left,"[99999,99999]","[0,-150]",left,1,,,,,,001,2025-03-10_19h11.57.944,SL_sali_41,2021.2.3,Win32,59.88023952,0.7787,,,110,0,110,0,1,,,,,,,,
,,"[""diamond"",""red"",""vert"",""up"",[150,0],[106,-106]]",diamond,red,vert,up,"[150,0]","[106,-106]",up,1,,,,,,001,2025-03-10_19h11.57.944,SL_sali_41,2021.2.3,Win32,59.88023952,0.8645,,,111,0,111,0,1,,,,,,,,
,,"[""circle"",""green"",""hori"",""left"",[106,106],[-106,-106]]",circle,green,hori,left,"[106,106]","[-106,-106]",left,1,,,,,,001,2025-03-10_19h11.57.944,SL_sali_41,2021.2.3,Win32,59.88023952,1.1345,,,112,0,112,0,1,,,,,,,,
,,"[""circle"",""red"",""hori"",""left"",[-106,106],[0,150]]",circle,red,hori,left,"[-106,106]","[0,150]",left,1,,,,,,001,2025-03-10_19h11.57.944,SL_sali_41,2021.2.3,Win32,59.88023952,1.0003,,,113,0,113,0,1,,,,,,,,
,,"[""diamond"",""green"",""vert"",""up"",[150,0],[0,150]]",diamond,green,vert,up,"[150,0]","[0,150]",up,1,,,,,,001,2025-03-10_19h11.57.944,SL_sali_41,2021.2.3,Win32,59.88023952,0.6891,,,114,0,114,0,1,,,,,,,,
,,"[""diamond"",""no_dis"",""vert"",""up"",[99999,99999],[106,-106]]",diamond,no_dis,vert,up,"[99999,99999]","[106,-106]",left,0,,,,,,001,2025-03-10_19h11.57.944,SL_sali_41,2021.2.3,Win32,59.88023952,0.6874,,,115,0,115,0,1,,,,,,,,
,,"[""circle"",""green"",""hori"",""left"",[-150,0],[106,106]]",circle,green,hori,left,"[-150,0]","[106,106]",left,1,,,,,,001,2025-03-10_19h11.57.944,SL_sali_41,2021.2.3,Win32,59.88023952,0.8939,,,116,0,116,0,1,,,,,,,,
,,"[""diamond"",""red"",""vert"",""up"",[106,106],[150,0]]",diamond,red,vert,up,"[106,106]","[150,0]",up,1,,,,,,001,2025-03-10_19h11.57.944,SL_sali_41,2021.2.3,Win32,59.88023952,1.4312,,,117,0,117,0,1,,,,,,,,
,,"[""diamond"",""no_dis"",""hori"",""left"",[99999,99999],[106,106]]",diamond,no_dis,hori,left,"[99999,99999]","[106,106]",left,1,,,,,,001,2025-03-10_19h11.57.944,SL_sali_41,2021.2.3,Win32,59.88023952,1.2982,,,118,0,118,0,1,,,,,,,,
,,"[""diamond"",""no_dis"",""vert"",""up"",[99999,99999],[0,-150]]",diamond,no_dis,vert,up,"[99999,99999]","[0,-150]",up,1,,,,,,001,2025-03-10_19h11.57.944,SL_sali_41,2021.2.3,Win32,59.88023952,0.8223,,,119,0,119,0,1,,,,,,,,
,,"[""diamond"",""no_dis"",""vert"",""up"",[99999,99999],[0,150]]",diamond,no_dis,vert,up,"[99999,99999]","[0,150]",up,1,,,,,,001,2025-03-10_19h11.57.944,SL_sali_41,2021.2.3,Win32,59.88023952,0.8309,,,120,0,120,0,1,,,,,,,,
,,"[""diamond"",""red"",""vert"",""up"",[-106,-106],[150,0]]",diamond,red,vert,up,"[-106,-106]","[150,0]",up,1,,,,,,001,2025-03-10_19h11.57.944,SL_sali_41,2021.2.3,Win32,59.88023952,0.7809,,,121,0,121,0,1,,,,,,,,
,,"[""diamond"",""green"",""hori"",""left"",[0,150],[-150,0]]",diamond,green,hori,left,"[0,150]","[-150,0]",left,1,,,,,,001,2025-03-10_19h11.57.944,SL_sali_41,2021.2.3,Win32,59.88023952,0.9525,,,122,0,122,0,1,,,,,,,,
,,"[""diamond"",""red"",""vert"",""up"",[150,0],[-106,-106]]",diamond,red,vert,up,"[150,0]","[-106,-106]",up,1,,,,,,001,2025-03-10_19h11.57.944,SL_sali_41,2021.2.3,Win32,59.88023952,0.6832,,,123,0,123,0,1,,,,,,,,
,,"[""circle"",""red"",""hori"",""left"",[0,150],[106,-106]]",circle,red,hori,left,"[0,150]","[106,-106]",up,0,,,,,,001,2025-03-10_19h11.57.944,SL_sali_41,2021.2.3,Win32,59.88023952,0.5546,,,124,0,124,0,1,,,,,,,,
,,"[""circle"",""red"",""vert"",""up"",[150,0],[-106,106]]",circle,red,vert,up,"[150,0]","[-106,106]",up,1,,,,,,001,2025-03-10_19h11.57.944,SL_sali_41,2021.2.3,Win32,59.88023952,1.2002,,,125,0,125,0,1,,,,,,,,
,,"[""circle"",""green"",""vert"",""up"",[106,-106],[-106,-106]]",circle,green,vert,up,"[106,-106]","[-106,-106]",up,1,,,,,,001,2025-03-10_19h11.57.944,SL_sali_41,2021.2.3,Win32,59.88023952,0.9611,,,126,0,126,0,1,,,,,,,,
,,"[""circle"",""no_dis"",""vert"",""up"",[99999,99999],[-106,106]]",circle,no_dis,vert,up,"[99999,99999]","[-106,106]",up,1,,,,,,001,2025-03-10_19h11.57.944,SL_sali_41,2021.2.3,Win32,59.88023952,1.6905,,,127,0,127,0,1,,,,,,,,
,,,,,,,,,,,,,,,,001,2025-03-10_19h11.57.944,SL_sali_41,2021.2.3,Win32,59.88023952,,,,,,,,,2,space,3.0842,1,0,1,0,1
,,"[""diamond"",""red"",""hori"",""left"",[106,106],[-150,0]]",diamond,red,hori,left,"[106,106]","[-150,0]",left,1,,,,,,001,2025-03-10_19h11.57.944,SL_sali_41,2021.2.3,Win32,59.88023952,1.0812,,,0,0,0,0,1,,,,,,,,
,,"[""circle"",""green"",""vert"",""up"",[150,0],[-106,-106]]",circle,green,vert,up,"[150,0]","[-106,-106]",up,1,,,,,,001,2025-03-10_19h11.57.944,SL_sali_41,2021.2.3,Win32,59.88023952,0.7899,,,1,0,1,0,1,,,,,,,,
,,"[""circle"",""green"",""vert"",""up"",[-106,-106],[0,150]]",circle,green,vert,up,"[-106,-106]","[0,150]",left,0,,,,,,001,2025-03-10_19h11.57.944,SL_sali_41,2021.2.3,Win32,59.88023952,1.0419,,,2,0,2,0,1,,,,,,,,
,,"[""circle"",""red"",""vert"",""up"",[-106,-106],[0,-150]]",circle,red,vert,up,"[-106,-106]","[0,-150]",up,1,,,,,,001,2025-03-10_19h11.57.944,SL_sali_41,2021.2.3,Win32,59.88023952,1.4275,,,3,0,3,0,1,,,,,,,,
,,"[""circle"",""green"",""hori"",""left"",[150,0],[-106,-106]]",circle,green,hori,left,"[150,0]","[-106,-106]",left,1,,,,,,001,2025-03-10_19h11.57.944,SL_sali_41,2021.2.3,Win32,59.88023952,0.885,,,4,0,4,0,1,,,,,,,,
,,"[""circle"",""red"",""vert"",""up"",[-106,106],[-150,0]]",circle,red,vert,up,"[-106,106]","[-150,0]",up,1,,,,,,001,2025-03-10_19h11.57.944,SL_sali_41,2021.2.3,Win32,59.88023952,1.0225,,,5,0,5,0,1,,,,,,,,
,,"[""diamond"",""green"",""vert"",""up"",[106,106],[150,0]]",diamond,green,vert,up,"[106,106]","[150,0]",up,1,,,,,,001,2025-03-10_19h11.57.944,SL_sali_41,2021.2.3,Win32,59.88023952,0.9629,,,6,0,6,0,1,,,,,,,,
,,"[""circle"",""red"",""vert"",""up"",[150,0],[-106,106]]",circle,red,vert,up,"[150,0]","[-106,106]",up,1,,,,,,001,2025-03-10_19h11.57.944,SL_sali_41,2021.2.3,Win32,59.88023952,0.7668,,,7,0,7,0,1,,,,,,,,
,,"[""circle"",""red"",""vert"",""up"",[150,0],[-106,-106]]",circle,red,vert,up,"[150,0]","[-106,-106]",up,1,,,,,,001,2025-03-10_19h11.57.944,SL_sali_41,2021.2.3,Win32,59.88023952,0.6156,,,8,0,8,0,1,,,,,,,,
,,"[""circle"",""green"",""vert"",""up"",[0,-150],[106,106]]",circle,green,vert,up,"[0,-150]","[106,106]",up,1,,,,,,001,2025-03-10_19h11.57.944,SL_sali_41,2021.2.3,Win32,59.88023952,0.615,,,9,0,9,0,1,,,,,,,,
,,"[""circle"",""no_dis"",""vert"",""up"",[99999,99999],[-106,106]]",circle,no_dis,vert,up,"[99999,99999]","[-106,106]",up,1,,,,,,001,2025-03-10_19h11.57.944,SL_sali_41,2021.2.3,Win32,59.88023952,0.5555,,,10,0,10,0,1,,,,,,,,
,,"[""circle"",""green"",""hori"",""left"",[150,0],[106,-106]]",circle,green,hori,left,"[150,0]","[106,-106]",left,1,,,,,,001,2025-03-10_19h11.57.944,SL_sali_41,2021.2.3,Win32,59.88023952,0.9061,,,11,0,11,0,1,,,,,,,,
,,"[""circle"",""green"",""vert"",""up"",[150,0],[-106,106]]",circle,green,vert,up,"[150,0]","[-106,106]",up,1,,,,,,001,2025-03-10_19h11.57.944,SL_sali_41,2021.2.3,Win32,59.88023952,0.6107,,,12,0,12,0,1,,,,,,,,
,,"[""circle"",""green"",""hori"",""left"",[150,0],[-150,0]]",circle,green,hori,left,"[150,0]","[-150,0]",left,1,,,,,,001,2025-03-10_19h11.57.944,SL_sali_41,2021.2.3,Win32,59.88023952,0.5652,,,13,0,13,0,1,,,,,,,,
,,"[""diamond"",""green"",""hori"",""left"",[0,150],[-150,0]]",diamond,green,hori,left,"[0,150]","[-150,0]",up,0,,,,,,001,2025-03-10_19h11.57.944,SL_sali_41,2021.2.3,Win32,59.88023952,0.5718,,,14,0,14,0,1,,,,,,,,
,,"[""diamond"",""no_dis"",""vert"",""up"",[99999,99999],[0,150]]",diamond,no_dis,vert,up,"[99999,99999]","[0,150]",up,1,,,,,,001,2025-03-10_19h11.57.944,SL_sali_41,2021.2.3,Win32,59.88023952,0.9933,,,15,0,15,0,1,,,,,,,,
,,"[""circle"",""no_dis"",""hori"",""left"",[99999,99999],[-150,0]]",circle,no_dis,hori,left,"[99999,99999]","[-150,0]",left,1,,,,,,001,2025-03-10_19h11.57.944,SL_sali_41,2021.2.3,Win32,59.88023952,0.6663,,,16,0,16,0,1,,,,,,,,
,,"[""circle"",""green"",""vert"",""up"",[-150,0],[106,-106]]",circle,green,vert,up,"[-150,0]","[106,-106]",up,1,,,,,,001,2025-03-10_19h11.57.944,SL_sali_41,2021.2.3,Win32,59.88023952,0.6824,,,17,0,17,0,1,,,,,,,,
,,"[""diamond"",""no_dis"",""vert"",""up"",[99999,99999],[0,150]]",diamond,no_dis,vert,up,"[99999,99999]","[0,150]",up,1,,,,,,001,2025-03-10_19h11.57.944,SL_sali_41,2021.2.3,Win32,59.88023952,0.9335,,,18,0,18,0,1,,,,,,,,
,,"[""diamond"",""red"",""hori"",""left"",[150,0],[-150,0]]",diamond,red,hori,left,"[150,0]","[-150,0]",left,1,,,,,,001,2025-03-10_19h11.57.944,SL_sali_41,2021.2.3,Win32,59.88023952,1.1536,,,19,0,19,0,1,,,,,,,,
,,"[""circle"",""red"",""vert"",""up"",[-150,0],[0,150]]",circle,red,vert,up,"[-150,0]","[0,150]",up,1,,,,,,001,2025-03-10_19h11.57.944,SL_sali_41,2021.2.3,Win32,59.88023952,0.8283,,,20,0,20,0,1,,,,,,,,
,,"[""circle"",""red"",""vert"",""up"",[0,150],[-106,-106]]",circle,red,vert,up,"[0,150]","[-106,-106]",up,1,,,,,,001,2025-03-10_19h11.57.944,SL_sali_41,2021.2.3,Win32,59.88023952,0.9486,,,21,0,21,0,1,,,,,,,,
,,"[""circle"",""red"",""vert"",""up"",[150,0],[106,106]]",circle,red,vert,up,"[150,0]","[106,106]",up,1,,,,,,001,2025-03-10_19h11.57.944,SL_sali_41,2021.2.3,Win32,59.88023952,1.0051,,,22,0,22,0,1,,,,,,,,
,,"[""circle"",""red"",""hori"",""left"",[150,0],[106,106]]",circle,red,hori,left,"[150,0]","[106,106]",up,0,,,,,,001,2025-03-10_19h11.57.944,SL_sali_41,2021.2.3,Win32,59.88023952,0.6492,,,23,0,23,0,1,,,,,,,,
,,"[""diamond"",""red"",""vert"",""up"",[106,106],[150,0]]",diamond,red,vert,up,"[106,106]","[150,0]",up,1,,,,,,001,2025-03-10_19h11.57.944,SL_sali_41,2021.2.3,Win32,59.88023952,1.2642,,,24,0,24,0,1,,,,,,,,
,,"[""circle"",""green"",""vert"",""up"",[0,150],[106,106]]",circle,green,vert,up,"[0,150]","[106,106]",up,1,,,,,,001,2025-03-10_19h11.57.944,SL_sali_41,2021.2.3,Win32,59.88023952,1.4116,,,25,0,25,0,1,,,,,,,,
,,"[""circle"",""red"",""hori"",""left"",[150,0],[0,150]]",circle,red,hori,left,"[150,0]","[0,150]",left,1,,,,,,001,2025-03-10_19h11.57.944,SL_sali_41,2021.2.3,Win32,59.88023952,0.768,,,26,0,26,0,1,,,,,,,,
,,"[""diamond"",""no_dis"",""hori"",""left"",[99999,99999],[-106,-106]]",diamond,no_dis,hori,left,"[99999,99999]","[-106,-106]",left,1,,,,,,001,2025-03-10_19h11.57.944,SL_sali_41,2021.2.3,Win32,59.88023952,1.1036,,,27,0,27,0,1,,,,,,,,
,,"[""circle"",""red"",""hori"",""left"",[-106,106],[-150,0]]",circle,red,hori,left,"[-106,106]","[-150,0]",left,1,,,,,,001,2025-03-10_19h11.57.944,SL_sali_41,2021.2.3,Win32,59.88023952,0.9661,,,28,0,28,0,1,,,,,,,,
,,"[""diamond"",""green"",""hori"",""left"",[-150,0],[0,-150]]",diamond,green,hori,left,"[-150,0]","[0,-150]",up,0,,,,,,001,2025-03-10_19h11.57.944,SL_sali_41,2021.2.3,Win32,59.88023952,1.1862,,,29,0,29,0,1,,,,,,,,
,,"[""diamond"",""no_dis"",""vert"",""up"",[99999,99999],[0,-150]]",diamond,no_dis,vert,up,"[99999,99999]","[0,-150]",up,1,,,,,,001,2025-03-10_19h11.57.944,SL_sali_41,2021.2.3,Win32,59.88023952,0.8583,,,30,0,30,0,1,,,,,,,,
,,"[""circle"",""no_dis"",""vert"",""up"",[99999,99999],[106,-106]]",circle,no_dis,vert,up,"[99999,99999]","[106,-106]",up,1,,,,,,001,2025-03-10_19h11.57.944,SL_sali_41,2021.2.3,Win32,59.88023952,1.8336,,,31,0,31,0,1,,,,,,,,
,,"[""diamond"",""no_dis"",""hori"",""left"",[99999,99999],[0,-150]]",diamond,no_dis,hori,left,"[99999,99999]","[0,-150]",left,1,,,,,,001,2025-03-10_19h11.57.944,SL_sali_41,2021.2.3,Win32,59.88023952,0.9039,,,32,0,32,0,1,,,,,,,,
,,"[""diamond"",""red"",""hori"",""left"",[-106,-106],[0,150]]",diamond,red,hori,left,"[-106,-106]","[0,150]",left,1,,,,,,001,2025-03-10_19h11.57.944,SL_sali_41,2021.2.3,Win32,59.88023952,1.1565,,,33,0,33,0,1,,,,,,,,
,,"[""circle"",""no_dis"",""hori"",""left"",[99999,99999],[0,150]]",circle,no_dis,hori,left,"[99999,99999]","[0,150]",left,1,,,,,,001,2025-03-10_19h11.57.944,SL_sali_41,2021.2.3,Win32,59.88023952,0.9113,,,34,0,34,0,1,,,,,,,,
,,"[""diamond"",""no_dis"",""vert"",""up"",[99999,99999],[106,-106]]",diamond,no_dis,vert,up,"[99999,99999]","[106,-106]",up,1,,,,,,001,2025-03-10_19h11.57.944,SL_sali_41,2021.2.3,Win32,59.88023952,0.9752,,,35,0,35,0,1,,,,,,,,
,,"[""circle"",""green"",""vert"",""up"",[0,-150],[-106,106]]",circle,green,vert,up,"[0,-150]","[-106,106]",up,1,,,,,,001,2025-03-10_19h11.57.944,SL_sali_41,2021.2.3,Win32,59.88023952,0.9503,,,36,0,36,0,1,,,,,,,,
,,"[""circle"",""red"",""hori"",""left"",[0,150],[106,-106]]",circle,red,hori,left,"[0,150]","[106,-106]",left,1,,,,,,001,2025-03-10_19h11.57.944,SL_sali_41,2021.2.3,Win32,59.88023952,0.9021,,,37,0,37,0,1,,,,,,,,
,,"[""diamond"",""no_dis"",""hori"",""left"",[99999,99999],[-106,-106]]",diamond,no_dis,hori,left,"[99999,99999]","[-106,-106]",left,1,,,,,,001,2025-03-10_19h11.57.944,SL_sali_41,2021.2.3,Win32,59.88023952,1.058,,,38,0,38,0,1,,,,,,,,
,,"[""diamond"",""no_dis"",""hori"",""left"",[99999,99999],[106,106]]",diamond,no_dis,hori,left,"[99999,99999]","[106,106]",left,1,,,,,,001,2025-03-10_19h11.57.944,SL_sali_41,2021.2.3,Win32,59.88023952,0.7128,,,39,0,39,0,1,,,,,,,,
,,"[""circle"",""green"",""hori"",""left"",[0,-150],[-106,-106]]",circle,green,hori,left,"[0,-150]","[-106,-106]",left,1,,,,,,001,2025-03-10_19h11.57.944,SL_sali_41,2021.2.3,Win32,59.88023952,1.5708,,,40,0,40,0,1,,,,,,,,
,,"[""diamond"",""red"",""hori"",""left"",[150,0],[-106,-106]]",diamond,red,hori,left,"[150,0]","[-106,-106]",left,1,,,,,,001,2025-03-10_19h11.57.944,SL_sali_41,2021.2.3,Win32,59.88023952,1.6337,,,41,0,41,0,1,,,,,,,,
,,"[""diamond"",""red"",""hori"",""left"",[0,-150],[-150,0]]",diamond,red,hori,left,"[0,-150]","[-150,0]",left,1,,,,,,001,2025-03-10_19h11.57.944,SL_sali_41,2021.2.3,Win32,59.88023952,0.8753,,,42,0,42,0,1,,,,,,,,
,,"[""circle"",""red"",""hori"",""left"",[150,0],[-150,0]]",circle,red,hori,left,"[150,0]","[-150,0]",up,0,,,,,,001,2025-03-10_19h11.57.944,SL_sali_41,2021.2.3,Win32,59.88023952,1.1539,,,43,0,43,0,1,,,,,,,,
,,"[""diamond"",""red"",""vert"",""up"",[-106,-106],[150,0]]",diamond,red,vert,up,"[-106,-106]","[150,0]",up,1,,,,,,001,2025-03-10_19h11.57.944,SL_sali_41,2021.2.3,Win32,59.88023952,1.1688,,,44,0,44,0,1,,,,,,,,
,,"[""diamond"",""red"",""vert"",""up"",[-106,-106],[0,150]]",diamond,red,vert,up,"[-106,-106]","[0,150]",up,1,,,,,,001,2025-03-10_19h11.57.944,SL_sali_41,2021.2.3,Win32,59.88023952,0.8491,,,45,0,45,0,1,,,,,,,,
,,"[""diamond"",""green"",""hori"",""left"",[-106,106],[-106,-106]]",diamond,green,hori,left,"[-106,106]","[-106,-106]",left,1,,,,,,001,2025-03-10_19h11.57.944,SL_sali_41,2021.2.3,Win32,59.88023952,1.1754,,,46,0,46,0,1,,,,,,,,
,,"[""circle"",""green"",""vert"",""up"",[106,-106],[-106,-106]]",circle,green,vert,up,"[106,-106]","[-106,-106]",up,1,,,,,,001,2025-03-10_19h11.57.944,SL_sali_41,2021.2.3,Win32,59.88023952,1.3089,,,47,0,47,0,1,,,,,,,,
,,"[""diamond"",""green"",""hori"",""left"",[106,-106],[106,106]]",diamond,green,hori,left,"[106,-106]","[106,106]",left,1,,,,,,001,2025-03-10_19h11.57.944,SL_sali_41,2021.2.3,Win32,59.88023952,1.3192,,,48,0,48,0,1,,,,,,,,
,,"[""circle"",""green"",""hori"",""left"",[106,106],[0,-150]]",circle,green,hori,left,"[106,106]","[0,-150]",up,0,,,,,,001,2025-03-10_19h11.57.944,SL_sali_41,2021.2.3,Win32,59.88023952,1.5021,,,49,0,49,0,1,,,,,,,,
,,"[""circle"",""no_dis"",""hori"",""left"",[99999,99999],[106,-106]]",circle,no_dis,hori,left,"[99999,99999]","[106,-106]",left,1,,,,,,001,2025-03-10_19h11.57.944,SL_sali_41,2021.2.3,Win32,59.88023952,0.7163,,,50,0,50,0,1,,,,,,,,
,,"[""circle"",""green"",""hori"",""left"",[106,106],[-106,-106]]",circle,green,hori,left,"[106,106]","[-106,-106]",left,1,,,,,,001,2025-03-10_19h11.57.944,SL_sali_41,2021.2.3,Win32,59.88023952,0.6591,,,51,0,51,0,1,,,,,,,,
,,"[""circle"",""red"",""vert"",""up"",[106,106],[106,-106]]",circle,red,vert,up,"[106,106]","[106,-106]",up,1,,,,,,001,2025-03-10_19h11.57.944,SL_sali_41,2021.2.3,Win32,59.88023952,0.8396,,,52,0,52,0,1,,,,,,,,
,,"[""diamond"",""green"",""hori"",""left"",[150,0],[-106,-106]]",diamond,green,hori,left,"[150,0]","[-106,-106]",left,1,,,,,,001,2025-03-10_19h11.57.944,SL_sali_41,2021.2.3,Win32,59.88023952,0.6493,,,53,0,53,0,1,,,,,,,,
,,"[""diamond"",""green"",""hori"",""left"",[0,-150],[150,0]]",diamond,green,hori,left,"[0,-150]","[150,0]",left,1,,,,,,001,2025-03-10_19h11.57.944,SL_sali_41,2021.2.3,Win32,59.88023952,0.8061,,,54,0,54,0,1,,,,,,,,
,,"[""diamond"",""red"",""vert"",""up"",[150,0],[106,-106]]",diamond,red,vert,up,"[150,0]","[106,-106]",up,1,,,,,,001,2025-03-10_19h11.57.944,SL_sali_41,2021.2.3,Win32,59.88023952,0.8648,,,55,0,55,0,1,,,,,,,,
,,"[""circle"",""red"",""hori"",""left"",[106,-106],[150,0]]",circle,red,hori,left,"[106,-106]","[150,0]",left,1,,,,,,001,2025-03-10_19h11.57.944,SL_sali_41,2021.2.3,Win32,59.88023952,1.3849,,,56,0,56,0,1,,,,,,,,
,,"[""circle"",""red"",""hori"",""left"",[150,0],[106,-106]]",circle,red,hori,left,"[150,0]","[106,-106]",left,1,,,,,,001,2025-03-10_19h11.57.944,SL_sali_41,2021.2.3,Win32,59.88023952,1.0232,,,57,0,57,0,1,,,,,,,,
,,"[""circle"",""green"",""vert"",""up"",[0,-150],[-150,0]]",circle,green,vert,up,"[0,-150]","[-150,0]",up,1,,,,,,001,2025-03-10_19h11.57.944,SL_sali_41,2021.2.3,Win32,59.88023952,0.7927,,,58,0,58,0,1,,,,,,,,
,,"[""diamond"",""no_dis"",""hori"",""left"",[99999,99999],[106,106]]",diamond,no_dis,hori,left,"[99999,99999]","[106,106]",up,0,,,,,,001,2025-03-10_19h11.57.944,SL_sali_41,2021.2.3,Win32,59.88023952,0.6307,,,59,0,59,0,1,,,,,,,,
,,"[""diamond"",""green"",""vert"",""up"",[-150,0],[-106,-106]]",diamond,green,vert,up,"[-150,0]","[-106,-106]",up,1,,,,,,001,2025-03-10_19h11.57.944,SL_sali_41,2021.2.3,Win32,59.88023952,1.2146,,,60,0,60,0,1,,,,,,,,
,,"[""circle"",""no_dis"",""vert"",""up"",[99999,99999],[-106,-106]]",circle,no_dis,vert,up,"[99999,99999]","[-106,-106]",up,1,,,,,,001,2025-03-10_19h11.57.944,SL_sali_41,2021.2.3,Win32,59.88023952,1.1663,,,61,0,61,0,1,,,,,,,,
,,"[""diamond"",""red"",""vert"",""up"",[-106,-106],[150,0]]",diamond,red,vert,up,"[-106,-106]","[150,0]",up,1,,,,,,001,2025-03-10_19h11.57.944,SL_sali_41,2021.2.3,Win32,59.88023952,1.0416,,,62,0,62,0,1,,,,,,,,
,,"[""circle"",""green"",""hori"",""left"",[-106,106],[106,106]]",circle,green,hori,left,"[-106,106]","[106,106]",left,1,,,,,,001,2025-03-10_19h11.57.944,SL_sali_41,2021.2.3,Win32,59.88023952,0.6996,,,63,0,63,0,1,,,,,,,,
,,"[""diamond"",""red"",""vert"",""up"",[150,0],[-150,0]]",diamond,red,vert,up,"[150,0]","[-150,0]",up,1,,,,,,001,2025-03-10_19h11.57.944,SL_sali_41,2021.2.3,Win32,59.88023952,0.99,,,64,0,64,0,1,,,,,,,,
,,"[""diamond"",""green"",""hori"",""left"",[150,0],[-106,106]]",diamond,green,hori,left,"[150,0]","[-106,106]",left,1,,,,,,001,2025-03-10_19h11.57.944,SL_sali_41,2021.2.3,Win32,59.88023952,0.8406,,,65,0,65,0,1,,,,,,,,
,,"[""diamond"",""green"",""vert"",""up"",[-106,106],[0,150]]",diamond,green,vert,up,"[-106,106]","[0,150]",up,1,,,,,,001,2025-03-10_19h11.57.944,SL_sali_41,2021.2.3,Win32,59.88023952,1.1153,,,66,0,66,0,1,,,,,,,,
,,"[""diamond"",""green"",""vert"",""up"",[150,0],[0,-150]]",diamond,green,vert,up,"[150,0]","[0,-150]",up,1,,,,,,001,2025-03-10_19h11.57.944,SL_sali_41,2021.2.3,Win32,59.88023952,0.821,,,67,0,67,0,1,,,,,,,,
,,"[""circle"",""red"",""hori"",""left"",[106,106],[0,-150]]",circle,red,hori,left,"[106,106]","[0,-150]",left,1,,,,,,001,2025-03-10_19h11.57.944,SL_sali_41,2021.2.3,Win32,59.88023952,0.8724,,,68,0,68,0,1,,,,,,,,
,,"[""circle"",""no_dis"",""hori"",""left"",[99999,99999],[106,106]]",circle,no_dis,hori,left,"[99999,99999]","[106,106]",left,1,,,,,,001,2025-03-10_19h11.57.944,SL_sali_41,2021.2.3,Win32,59.88023952,1.1603,,,69,0,69,0,1,,,,,,,,
,,"[""diamond"",""no_dis"",""hori"",""left"",[99999,99999],[150,0]]",diamond,no_dis,hori,left,"[99999,99999]","[150,0]",left,1,,,,,,001,2025-03-10_19h11.57.944,SL_sali_41,2021.2.3,Win32,59.88023952,0.9027,,,70,0,70,0,1,,,,,,,,
,,"[""circle"",""red"",""vert"",""up"",[106,-106],[-150,0]]",circle,red,vert,up,"[106,-106]","[-150,0]",up,1,,,,,,001,2025-03-10_19h11.57.944,SL_sali_41,2021.2.3,Win32,59.88023952,1.4664,,,71,0,71,0,1,,,,,,,,
,,"[""diamond"",""red"",""vert"",""up"",[0,-150],[-106,-106]]",diamond,red,vert,up,"[0,-150]","[-106,-106]",up,1,,,,,,001,2025-03-10_19h11.57.944,SL_sali_41,2021.2.3,Win32,59.88023952,1.0032,,,72,0,72,0,1,,,,,,,,
,,"[""circle"",""green"",""vert"",""up"",[150,0],[106,-106]]",circle,green,vert,up,"[150,0]","[106,-106]",up,1,,,,,,001,2025-03-10_19h11.57.944,SL_sali_41,2021.2.3,Win32,59.88023952,1.2675,,,73,0,73,0,1,,,,,,,,
,,"[""circle"",""red"",""hori"",""left"",[150,0],[106,-106]]",circle,red,hori,left,"[150,0]","[106,-106]",left,1,,,,,,001,2025-03-10_19h11.57.944,SL_sali_41,2021.2.3,Win32,59.88023952,0.6917,,,74,0,74,0,1,,,,,,,,
,,"[""diamond"",""red"",""hori"",""left"",[150,0],[0,150]]",diamond,red,hori,left,"[150,0]","[0,150]",left,1,,,,,,001,2025-03-10_19h11.57.944,SL_sali_41,2021.2.3,Win32,59.88023952,1.1491,,,75,0,75,0,1,,,,,,,,
,,"[""circle"",""green"",""hori"",""left"",[150,0],[-106,106]]",circle,green,hori,left,"[150,0]","[-106,106]",left,1,,,,,,001,2025-03-10_19h11.57.944,SL_sali_41,2021.2.3,Win32,59.88023952,0.7749,,,76,0,76,0,1,,,,,,,,
,,"[""diamond"",""no_dis"",""vert"",""up"",[99999,99999],[0,-150]]",diamond,no_dis,vert,up,"[99999,99999]","[0,-150]",up,1,,,,,,001,2025-03-10_19h11.57.944,SL_sali_41,2021.2.3,Win32,59.88023952,0.8929,,,77,0,77,0,1,,,,,,,,
,,"[""diamond"",""green"",""vert"",""up"",[0,150],[106,-106]]",diamond,green,vert,up,"[0,150]","[106,-106]",up,1,,,,,,001,2025-03-10_19h11.57.944,SL_sali_41,2021.2.3,Win32,59.88023952,2.2929,,,78,0,78,0,1,,,,,,,,
,,"[""diamond"",""green"",""hori"",""left"",[150,0],[106,106]]",diamond,green,hori,left,"[150,0]","[106,106]",left,1,,,,,,001,2025-03-10_19h11.57.944,SL_sali_41,2021.2.3,Win32,59.88023952,1.3081,,,79,0,79,0,1,,,,,,,,
,,"[""circle"",""red"",""vert"",""up"",[0,-150],[-106,-106]]",circle,red,vert,up,"[0,-150]","[-106,-106]",up,1,,,,,,001,2025-03-10_19h11.57.944,SL_sali_41,2021.2.3,Win32,59.88023952,1.0942,,,80,0,80,0,1,,,,,,,,
,,"[""diamond"",""green"",""vert"",""up"",[150,0],[106,-106]]",diamond,green,vert,up,"[150,0]","[106,-106]",up,1,,,,,,001,2025-03-10_19h11.57.944,SL_sali_41,2021.2.3,Win32,59.88023952,0.8766,,,81,0,81,0,1,,,,,,,,
,,"[""circle"",""green"",""vert"",""up"",[106,-106],[106,106]]",circle,green,vert,up,"[106,-106]","[106,106]",up,1,,,,,,001,2025-03-10_19h11.57.944,SL_sali_41,2021.2.3,Win32,59.88023952,1.6338,,,82,0,82,0,1,,,,,,,,
,,"[""diamond"",""green"",""vert"",""up"",[0,150],[106,106]]",diamond,green,vert,up,"[0,150]","[106,106]",up,1,,,,,,001,2025-03-10_19h11.57.944,SL_sali_41,2021.2.3,Win32,59.88023952,1.5989,,,83,0,83,0,1,,,,,,,,
,,"[""circle"",""no_dis"",""vert"",""up"",[99999,99999],[106,-106]]",circle,no_dis,vert,up,"[99999,99999]","[106,-106]",up,1,,,,,,001,2025-03-10_19h11.57.944,SL_sali_41,2021.2.3,Win32,59.88023952,0.7927,,,84,0,84,0,1,,,,,,,,
,,"[""circle"",""no_dis"",""hori"",""left"",[99999,99999],[0,-150]]",circle,no_dis,hori,left,"[99999,99999]","[0,-150]",left,1,,,,,,001,2025-03-10_19h11.57.944,SL_sali_41,2021.2.3,Win32,59.88023952,0.9617,,,85,0,85,0,1,,,,,,,,
,,"[""diamond"",""red"",""vert"",""up"",[-150,0],[150,0]]",diamond,red,vert,up,"[-150,0]","[150,0]",up,1,,,,,,001,2025-03-10_19h11.57.944,SL_sali_41,2021.2.3,Win32,59.88023952,0.7823,,,86,0,86,0,1,,,,,,,,
,,"[""diamond"",""green"",""hori"",""left"",[-106,106],[0,150]]",diamond,green,hori,left,"[-106,106]","[0,150]",left,1,,,,,,001,2025-03-10_19h11.57.944,SL_sali_41,2021.2.3,Win32,59.88023952,1.0982,,,87,0,87,0,1,,,,,,,,
,,"[""circle"",""green"",""hori"",""left"",[106,-106],[150,0]]",circle,green,hori,left,"[106,-106]","[150,0]",left,1,,,,,,001,2025-03-10_19h11.57.944,SL_sali_41,2021.2.3,Win32,59.88023952,0.9187,,,88,0,88,0,1,,,,,,,,
,,"[""circle"",""no_dis"",""hori"",""left"",[99999,99999],[106,106]]",circle,no_dis,hori,left,"[99999,99999]","[106,106]",left,1,,,,,,001,2025-03-10_19h11.57.944,SL_sali_41,2021.2.3,Win32,59.88023952,0.6429,,,89,0,89,0,1,,,,,,,,
,,"[""diamond"",""green"",""vert"",""up"",[106,106],[150,0]]",diamond,green,vert,up,"[106,106]","[150,0]",up,1,,,,,,001,2025-03-10_19h11.57.944,SL_sali_41,2021.2.3,Win32,59.88023952,0.7035,,,90,0,90,0,1,,,,,,,,
,,"[""diamond"",""red"",""hori"",""left"",[150,0],[0,150]]",diamond,red,hori,left,"[150,0]","[0,150]",left,1,,,,,,001,2025-03-10_19h11.57.944,SL_sali_41,2021.2.3,Win32,59.88023952,0.7303,,,91,0,91,0,1,,,,,,,,
,,"[""diamond"",""green"",""vert"",""up"",[150,0],[106,-106]]",diamond,green,vert,up,"[150,0]","[106,-106]",left,0,,,,,,001,2025-03-10_19h11.57.944,SL_sali_41,2021.2.3,Win32,59.88023952,0.7161,,,92,0,92,0,1,,,,,,,,
,,"[""diamond"",""red"",""hori"",""left"",[-150,0],[0,150]]",diamond,red,hori,left,"[-150,0]","[0,150]",left,1,,,,,,001,2025-03-10_19h11.57.944,SL_sali_41,2021.2.3,Win32,59.88023952,0.8363,,,93,0,93,0,1,,,,,,,,
,,"[""circle"",""no_dis"",""hori"",""left"",[99999,99999],[-106,106]]",circle,no_dis,hori,left,"[99999,99999]","[-106,106]",left,1,,,,,,001,2025-03-10_19h11.57.944,SL_sali_41,2021.2.3,Win32,59.88023952,0.6984,,,94,0,94,0,1,,,,,,,,
,,"[""diamond"",""no_dis"",""hori"",""left"",[99999,99999],[150,0]]",diamond,no_dis,hori,left,"[99999,99999]","[150,0]",left,1,,,,,,001,2025-03-10_19h11.57.944,SL_sali_41,2021.2.3,Win32,59.88023952,0.7734,,,95,0,95,0,1,,,,,,,,
,,"[""diamond"",""no_dis"",""hori"",""left"",[99999,99999],[-106,106]]",diamond,no_dis,hori,left,"[99999,99999]","[-106,106]",left,1,,,,,,001,2025-03-10_19h11.57.944,SL_sali_41,2021.2.3,Win32,59.88023952,1.1861,,,96,0,96,0,1,,,,,,,,
,,"[""diamond"",""green"",""hori"",""left"",[150,0],[-106,-106]]",diamond,green,hori,left,"[150,0]","[-106,-106]",up,0,,,,,,001,2025-03-10_19h11.57.944,SL_sali_41,2021.2.3,Win32,59.88023952,0.671,,,97,0,97,0,1,,,,,,,,
,,"[""circle"",""no_dis"",""vert"",""up"",[99999,99999],[0,150]]",circle,no_dis,vert,up,"[99999,99999]","[0,150]",up,1,,,,,,001,2025-03-10_19h11.57.944,SL_sali_41,2021.2.3,Win32,59.88023952,1.4157,,,98,0,98,0,1,,,,,,,,
,,"[""diamond"",""no_dis"",""vert"",""up"",[99999,99999],[150,0]]",diamond,no_dis,vert,up,"[99999,99999]","[150,0]",up,1,,,,,,001,2025-03-10_19h11.57.944,SL_sali_41,2021.2.3,Win32,59.88023952,0.9597,,,99,0,99,0,1,,,,,,,,
,,"[""diamond"",""no_dis"",""vert"",""up"",[99999,99999],[-150,0]]",diamond,no_dis,vert,up,"[99999,99999]","[-150,0]",up,1,,,,,,001,2025-03-10_19h11.57.944,SL_sali_41,2021.2.3,Win32,59.88023952,0.9693,,,100,0,100,0,1,,,,,,,,
,,"[""diamond"",""green"",""hori"",""left"",[106,-106],[150,0]]",diamond,green,hori,left,"[106,-106]","[150,0]",left,1,,,,,,001,2025-03-10_19h11.57.944,SL_sali_41,2021.2.3,Win32,59.88023952,0.8134,,,101,0,101,0,1,,,,,,,,
,,"[""circle"",""red"",""vert"",""up"",[0,150],[-106,106]]",circle,red,vert,up,"[0,150]","[-106,106]",up,1,,,,,,001,2025-03-10_19h11.57.944,SL_sali_41,2021.2.3,Win32,59.88023952,1.577,,,102,0,102,0,1,,,,,,,,
,,"[""circle"",""no_dis"",""hori"",""left"",[99999,99999],[150,0]]",circle,no_dis,hori,left,"[99999,99999]","[150,0]",left,1,,,,,,001,2025-03-10_19h11.57.944,SL_sali_41,2021.2.3,Win32,59.88023952,0.9599,,,103,0,103,0,1,,,,,,,,
,,"[""circle"",""no_dis"",""vert"",""up"",[99999,99999],[-106,-106]]",circle,no_dis,vert,up,"[99999,99999]","[-106,-106]",up,1,,,,,,001,2025-03-10_19h11.57.944,SL_sali_41,2021.2.3,Win32,59.88023952,0.799,,,104,0,104,0,1,,,,,,,,
,,"[""circle"",""red"",""hori"",""left"",[-106,106],[0,150]]",circle,red,hori,left,"[-106,106]","[0,150]",left,1,,,,,,001,2025-03-10_19h11.57.944,SL_sali_41,2021.2.3,Win32,59.88023952,0.8273,,,105,0,105,0,1,,,,,,,,
,,"[""circle"",""no_dis"",""hori"",""left"",[99999,99999],[106,-106]]",circle,no_dis,hori,left,"[99999,99999]","[106,-106]",left,1,,,,,,001,2025-03-10_19h11.57.944,SL_sali_41,2021.2.3,Win32,59.88023952,0.6837,,,106,0,106,0,1,,,,,,,,
,,"[""diamond"",""green"",""vert"",""up"",[150,0],[0,150]]",diamond,green,vert,up,"[150,0]","[0,150]",up,1,,,,,,001,2025-03-10_19h11.57.944,SL_sali_41,2021.2.3,Win32,59.88023952,1.0938,,,107,0,107,0,1,,,,,,,,
,,"[""diamond"",""no_dis"",""vert"",""up"",[99999,99999],[-150,0]]",diamond,no_dis,vert,up,"[99999,99999]","[-150,0]",up,1,,,,,,001,2025-03-10_19h11.57.944,SL_sali_41,2021.2.3,Win32,59.88023952,0.6595,,,108,0,108,0,1,,,,,,,,
,,"[""circle"",""green"",""hori"",""left"",[-150,0],[106,106]]",circle,green,hori,left,"[-150,0]","[106,106]",left,1,,,,,,001,2025-03-10_19h11.57.944,SL_sali_41,2021.2.3,Win32,59.88023952,0.8313,,,109,0,109,0,1,,,,,,,,
,,"[""circle"",""green"",""hori"",""left"",[150,0],[-150,0]]",circle,green,hori,left,"[150,0]","[-150,0]",left,1,,,,,,001,2025-03-10_19h11.57.944,SL_sali_41,2021.2.3,Win32,59.88023952,0.6747,,,110,0,110,0,1,,,,,,,,
,,"[""diamond"",""no_dis"",""vert"",""up"",[99999,99999],[0,150]]",diamond,no_dis,vert,up,"[99999,99999]","[0,150]",up,1,,,,,,001,2025-03-10_19h11.57.944,SL_sali_41,2021.2.3,Win32,59.88023952,0.8909,,,111,0,111,0,1,,,,,,,,
,,"[""diamond"",""red"",""vert"",""up"",[-106,106],[106,106]]",diamond,red,vert,up,"[-106,106]","[106,106]",up,1,,,,,,001,2025-03-10_19h11.57.944,SL_sali_41,2021.2.3,Win32,59.88023952,0.8308,,,112,0,112,0,1,,,,,,,,
,,"[""circle"",""no_dis"",""vert"",""up"",[99999,99999],[106,106]]",circle,no_dis,vert,up,"[99999,99999]","[106,106]",up,1,,,,,,001,2025-03-10_19h11.57.944,SL_sali_41,2021.2.3,Win32,59.88023952,1.2159,,,113,0,113,0,1,,,,,,,,
,,"[""diamond"",""red"",""vert"",""up"",[150,0],[0,-150]]",diamond,red,vert,up,"[150,0]","[0,-150]",left,0,,,,,,001,2025-03-10_19h11.57.944,SL_sali_41,2021.2.3,Win32,59.88023952,0.9317,,,114,0,114,0,1,,,,,,,,
,,"[""circle"",""no_dis"",""vert"",""up"",[99999,99999],[-106,106]]",circle,no_dis,vert,up,"[99999,99999]","[-106,106]",up,1,,,,,,001,2025-03-10_19h11.57.944,SL_sali_41,2021.2.3,Win32,59.88023952,0.7161,,,115,0,115,0,1,,,,,,,,
,,"[""diamond"",""green"",""vert"",""up"",[0,150],[0,-150]]",diamond,green,vert,up,"[0,150]","[0,-150]",up,1,,,,,,001,2025-03-10_19h11.57.944,SL_sali_41,2021.2.3,Win32,59.88023952,0.9228,,,116,0,116,0,1,,,,,,,,
,,"[""diamond"",""no_dis"",""hori"",""left"",[99999,99999],[-106,-106]]",diamond,no_dis,hori,left,"[99999,99999]","[-106,-106]",left,1,,,,,,001,2025-03-10_19h11.57.944,SL_sali_41,2021.2.3,Win32,59.88023952,0.9828,,,117,0,117,0,1,,,,,,,,
,,"[""diamond"",""no_dis"",""hori"",""left"",[99999,99999],[-150,0]]",diamond,no_dis,hori,left,"[99999,99999]","[-150,0]",left,1,,,,,,001,2025-03-10_19h11.57.944,SL_sali_41,2021.2.3,Win32,59.88023952,0.771,,,118,0,118,0,1,,,,,,,,
,,"[""circle"",""red"",""hori"",""left"",[106,-106],[-150,0]]",circle,red,hori,left,"[106,-106]","[-150,0]",left,1,,,,,,001,2025-03-10_19h11.57.944,SL_sali_41,2021.2.3,Win32,59.88023952,1.0161,,,119,0,119,0,1,,,,,,,,
,,"[""circle"",""no_dis"",""hori"",""left"",[99999,99999],[150,0]]",circle,no_dis,hori,left,"[99999,99999]","[150,0]",left,1,,,,,,001,2025-03-10_19h11.57.944,SL_sali_41,2021.2.3,Win32,59.88023952,0.7002,,,120,0,120,0,1,,,,,,,,
,,"[""diamond"",""no_dis"",""vert"",""up"",[99999,99999],[-150,0]]",diamond,no_dis,vert,up,"[99999,99999]","[-150,0]",up,1,,,,,,001,2025-03-10_19h11.57.944,SL_sali_41,2021.2.3,Win32,59.88023952,1.2516,,,121,0,121,0,1,,,,,,,,
,,"[""circle"",""no_dis"",""vert"",""up"",[99999,99999],[-106,106]]",circle,no_dis,vert,up,"[99999,99999]","[-106,106]",up,1,,,,,,001,2025-03-10_19h11.57.944,SL_sali_41,2021.2.3,Win32,59.88023952,0.7056,,,122,0,122,0,1,,,,,,,,
,,"[""diamond"",""red"",""vert"",""up"",[150,0],[-106,-106]]",diamond,red,vert,up,"[150,0]","[-106,-106]",up,1,,,,,,001,2025-03-10_19h11.57.944,SL_sali_41,2021.2.3,Win32,59.88023952,1.0507,,,123,0,123,0,1,,,,,,,,
,,"[""diamond"",""red"",""hori"",""left"",[-150,0],[0,150]]",diamond,red,hori,left,"[-150,0]","[0,150]",left,1,,,,,,001,2025-03-10_19h11.57.944,SL_sali_41,2021.2.3,Win32,59.88023952,0.8483,,,124,0,124,0,1,,,,,,,,
,,"[""diamond"",""red"",""hori"",""left"",[-106,-106],[0,-150]]",diamond,red,hori,left,"[-106,-106]","[0,-150]",left,1,,,,,,001,2025-03-10_19h11.57.944,SL_sali_41,2021.2.3,Win32,59.88023952,0.8979,,,125,0,125,0,1,,,,,,,,
,,"[""diamond"",""red"",""hori"",""left"",[-106,-106],[0,150]]",diamond,red,hori,left,"[-106,-106]","[0,150]",left,1,,,,,,001,2025-03-10_19h11.57.944,SL_sali_41,2021.2.3,Win32,59.88023952,0.7211,,,126,0,126,0,1,,,,,,,,
,,"[""circle"",""no_dis"",""vert"",""up"",[99999,99999],[0,-150]]",circle,no_dis,vert,up,"[99999,99999]","[0,-150]",up,1,,,,,,001,2025-03-10_19h11.57.944,SL_sali_41,2021.2.3,Win32,59.88023952,1.0775,,,127,0,127,0,1,,,,,,,,
,,,,,,,,,,,,,,,,001,2025-03-10_19h11.57.944,SL_sali_41,2021.2.3,Win32,59.88023952,,,,,,,,,3,space,2.3733,2,0,2,0,1
,,"[""circle"",""red"",""vert"",""up"",[106,106],[106,-106]]",circle,red,vert,up,"[106,106]","[106,-106]",up,1,,,,,,001,2025-03-10_19h11.57.944,SL_sali_41,2021.2.3,Win32,59.88023952,1.4852,,,0,0,0,0,1,,,,,,,,
,,"[""diamond"",""red"",""hori"",""left"",[150,0],[0,150]]",diamond,red,hori,left,"[150,0]","[0,150]",left,1,,,,,,001,2025-03-10_19h11.57.944,SL_sali_41,2021.2.3,Win32,59.88023952,0.8592,,,1,0,1,0,1,,,,,,,,
,,"[""diamond"",""no_dis"",""hori"",""left"",[99999,99999],[150,0]]",diamond,no_dis,hori,left,"[99999,99999]","[150,0]",left,1,,,,,,001,2025-03-10_19h11.57.944,SL_sali_41,2021.2.3,Win32,59.88023952,0.6735,,,2,0,2,0,1,,,,,,,,
,,"[""diamond"",""green"",""vert"",""up"",[0,150],[0,-150]]",diamond,green,vert,up,"[0,150]","[0,-150]",up,1,,,,,,001,2025-03-10_19h11.57.944,SL_sali_41,2021.2.3,Win32,59.88023952,0.6644,,,3,0,3,0,1,,,,,,,,
,,"[""diamond"",""red"",""hori"",""left"",[-106,-106],[0,150]]",diamond,red,hori,left,"[-106,-106]","[0,150]",left,1,,,,,,001,2025-03-10_19h11.57.944,SL_sali_41,2021.2.3,Win32,59.88023952,1.1402,,,4,0,4,0,1,,,,,,,,
,,"[""diamond"",""red"",""hori"",""left"",[-106,-106],[0,150]]",diamond,red,hori,left,"[-106,-106]","[0,150]",left,1,,,,,,001,2025-03-10_19h11.57.944,SL_sali_41,2021.2.3,Win32,59.88023952,0.622,,,5,0,5,0,1,,,,,,,,
,,"[""diamond"",""no_dis"",""hori"",""left"",[99999,99999],[-106,-106]]",diamond,no_dis,hori,left,"[99999,99999]","[-106,-106]",left,1,,,,,,001,2025-03-10_19h11.57.944,SL_sali_41,2021.2.3,Win32,59.88023952,0.9212,,,6,0,6,0,1,,,,,,,,
,,"[""diamond"",""red"",""vert"",""up"",[150,0],[-150,0]]",diamond,red,vert,up,"[150,0]","[-150,0]",up,1,,,,,,001,2025-03-10_19h11.57.944,SL_sali_41,2021.2.3,Win32,59.88023952,0.7645,,,7,0,7,0,1,,,,,,,,
,,"[""diamond"",""no_dis"",""hori"",""left"",[99999,99999],[-106,-106]]",diamond,no_dis,hori,left,"[99999,99999]","[-106,-106]",left,1,,,,,,001,2025-03-10_19h11.57.944,SL_sali_41,2021.2.3,Win32,59.88023952,0.9152,,,8,0,8,0,1,,,,,,,,
,,"[""diamond"",""red"",""hori"",""left"",[150,0],[0,150]]",diamond,red,hori,left,"[150,0]","[0,150]",left,1,,,,,,001,2025-03-10_19h11.57.944,SL_sali_41,2021.2.3,Win32,59.88023952,0.902,,,9,0,9,0,1,,,,,,,,
,,"[""circle"",""red"",""vert"",""up"",[150,0],[106,106]]",circle,red,vert,up,"[150,0]","[106,106]",left,0,,,,,,001,2025-03-10_19h11.57.944,SL_sali_41,2021.2.3,Win32,59.88023952,0.6363,,,10,0,10,0,1,,,,,,,,
,,"[""diamond"",""no_dis"",""hori"",""left"",[99999,99999],[-150,0]]",diamond,no_dis,hori,left,"[99999,99999]","[-150,0]",left,1,,,,,,001,2025-03-10_19h11.57.944,SL_sali_41,2021.2.3,Win32,59.88023952,0.9254,,,11,0,11,0,1,,,,,,,,
,,"[""circle"",""red"",""vert"",""up"",[150,0],[-106,106]]",circle,red,vert,up,"[150,0]","[-106,106]",up,1,,,,,,001,2025-03-10_19h11.57.944,SL_sali_41,2021.2.3,Win32,59.88023952,0.6556,,,12,0,12,0,1,,,,,,,,
,,"[""diamond"",""red"",""hori"",""left"",[106,106],[-150,0]]",diamond,red,hori,left,"[106,106]","[-150,0]",left,1,,,,,,001,2025-03-10_19h11.57.944,SL_sali_41,2021.2.3,Win32,59.88023952,0.7541,,,13,0,13,0,1,,,,,,,,
,,"[""circle"",""green"",""hori"",""left"",[-106,106],[106,106]]",circle,green,hori,left,"[-106,106]","[106,106]",left,1,,,,,,001,2025-03-10_19h11.57.944,SL_sali_41,2021.2.3,Win32,59.88023952,1.0341,,,14,0,14,0,1,,,,,,,,
,,"[""circle"",""no_dis"",""vert"",""up"",[99999,99999],[0,150]]",circle,no_dis,vert,up,"[99999,99999]","[0,150]",up,1,,,,,,001,2025-03-10_19h11.57.944,SL_sali_41,2021.2.3,Win32,59.88023952,0.85,,,15,0,15,0,1,,,,,,,,
,,"[""diamond"",""green"",""vert"",""up"",[150,0],[106,-106]]",diamond,green,vert,up,"[150,0]","[106,-106]",up,1,,,,,,001,2025-03-10_19h11.57.944,SL_sali_41,2021.2.3,Win32,59.88023952,1.5437,,,16,0,16,0,1,,,,,,,,
,,"[""circle"",""green"",""vert"",""up"",[106,-106],[106,106]]",circle,green,vert,up,"[106,-106]","[106,106]",up,1,,,,,,001,2025-03-10_19h11.57.944,SL_sali_41,2021.2.3,Win32,59.88023952,0.8538,,,17,0,17,0,1,,,,,,,,
,,"[""diamond"",""no_dis"",""vert"",""up"",[99999,99999],[0,150]]",diamond,no_dis,vert,up,"[99999,99999]","[0,150]",up,1,,,,,,001,2025-03-10_19h11.57.944,SL_sali_41,2021.2.3,Win32,59.88023952,0.6386,,,18,0,18,0,1,,,,,,,,
,,"[""circle"",""red"",""vert"",""up"",[0,150],[-106,-106]]",circle,red,vert,up,"[0,150]","[-106,-106]",up,1,,,,,,001,2025-03-10_19h11.57.944,SL_sali_41,2021.2.3,Win32,59.88023952,1.0091,,,19,0,19,0,1,,,,,,,,
,,"[""diamond"",""green"",""hori"",""left"",[0,150],[-150,0]]",diamond,green,hori,left,"[0,150]","[-150,0]",left,1,,,,,,001,2025-03-10_19h11.57.944,SL_sali_41,2021.2.3,Win32,59.88023952,0.8564,,,20,0,20,0,1,,,,,,,,
,,"[""diamond"",""red"",""vert"",""up"",[-106,-106],[150,0]]",diamond,red,vert,up,"[-106,-106]","[150,0]",up,1,,,,,,001,2025-03-10_19h11.57.944,SL_sali_41,2021.2.3,Win32,59.88023952,0.9033,,,21,0,21,0,1,,,,,,,,
,,"[""circle"",""red"",""vert"",""up"",[-106,-106],[0,-150]]",circle,red,vert,up,"[-106,-106]","[0,-150]",up,1,,,,,,001,2025-03-10_19h11.57.944,SL_sali_41,2021.2.3,Win32,59.88023952,1.0018,,,22,0,22,0,1,,,,,,,,
,,"[""circle"",""red"",""vert"",""up"",[0,150],[-106,106]]",circle,red,vert,up,"[0,150]","[-106,106]",up,1,,,,,,001,2025-03-10_19h11.57.944,SL_sali_41,2021.2.3,Win32,59.88023952,0.907,,,23,0,23,0,1,,,,,,,,
,,"[""diamond"",""red"",""vert"",""up"",[150,0],[-106,-106]]",diamond,red,vert,up,"[150,0]","[-106,-106]",up,1,,,,,,001,2025-03-10_19h11.57.944,SL_sali_41,2021.2.3,Win32,59.88023952,0.8744,,,24,0,24,0,1,,,,,,,,
,,"[""circle"",""no_dis"",""vert"",""up"",[99999,99999],[106,-106]]",circle,no_dis,vert,up,"[99999,99999]","[106,-106]",up,1,,,,,,001,2025-03-10_19h11.57.944,SL_sali_41,2021.2.3,Win32,59.88023952,0.741,,,25,0,25,0,1,,,,,,,,
,,"[""diamond"",""green"",""vert"",""up"",[106,106],[150,0]]",diamond,green,vert,up,"[106,106]","[150,0]",up,1,,,,,,001,2025-03-10_19h11.57.944,SL_sali_41,2021.2.3,Win32,59.88023952,0.9528,,,26,0,26,0,1,,,,,,,,
,,"[""diamond"",""no_dis"",""vert"",""up"",[99999,99999],[0,-150]]",diamond,no_dis,vert,up,"[99999,99999]","[0,-150]",up,1,,,,,,001,2025-03-10_19h11.57.944,SL_sali_41,2021.2.3,Win32,59.88023952,0.6986,,,27,0,27,0,1,,,,,,,,
,,"[""diamond"",""green"",""vert"",""up"",[0,150],[106,106]]",diamond,green,vert,up,"[0,150]","[106,106]",up,1,,,,,,001,2025-03-10_19h11.57.944,SL_sali_41,2021.2.3,Win32,59.88023952,1.5169,,,28,0,28,0,1,,,,,,,,
,,"[""diamond"",""red"",""hori"",""left"",[0,-150],[-150,0]]",diamond,red,hori,left,"[0,-150]","[-150,0]",left,1,,,,,,001,2025-03-10_19h11.57.944,SL_sali_41,2021.2.3,Win32,59.88023952,1.0406,,,29,0,29,0,1,,,,,,,,
,,"[""circle"",""green"",""vert"",""up"",[-106,-106],[0,150]]",circle,green,vert,up,"[-106,-106]","[0,150]",up,1,,,,,,001,2025-03-10_19h11.57.944,SL_sali_41,2021.2.3,Win32,59.88023952,0.9233,,,30,0,30,0,1,,,,,,,,
,,"[""circle"",""green"",""hori"",""left"",[0,-150],[-106,-106]]",circle,green,hori,left,"[0,-150]","[-106,-106]",left,1,,,,,,001,2025-03-10_19h11.57.944,SL_sali_41,2021.2.3,Win32,59.88023952,0.6439,,,31,0,31,0,1,,,,,,,,
,,"[""circle"",""red"",""hori"",""left"",[106,-106],[-150,0]]",circle,red,hori,left,"[106,-106]","[-150,0]",left,1,,,,,,001,2025-03-10_19h11.57.944,SL_sali_41,2021.2.3,Win32,59.88023952,0.6405,,,32,0,32,0,1,,,,,,,,
,,"[""circle"",""no_dis"",""vert"",""up"",[99999,99999],[-106,106]]",circle,no_dis,vert,up,"[99999,99999]","[-106,106]",up,1,,,,,,001,2025-03-10_19h11.57.944,SL_sali_41,2021.2.3,Win32,59.88023952,0.825,,,33,0,33,0,1,,,,,,,,
,,"[""diamond"",""green"",""hori"",""left"",[-106,106],[-106,-106]]",diamond,green,hori,left,"[-106,106]","[-106,-106]",left,1,,,,,,001,2025-03-10_19h11.57.944,SL_sali_41,2021.2.3,Win32,59.88023952,0.9063,,,34,0,34,0,1,,,,,,,,
,,"[""circle"",""green"",""hori"",""left"",[150,0],[-150,0]]",circle,green,hori,left,"[150,0]","[-150,0]",left,1,,,,,,001,2025-03-10_19h11.57.944,SL_sali_41,2021.2.3,Win32,59.88023952,0.5603,,,35,0,35,0,1,,,,,,,,
,,"[""diamond"",""red"",""vert"",""up"",[-150,0],[150,0]]",diamond,red,vert,up,"[-150,0]","[150,0]",up,1,,,,,,001,2025-03-10_19h11.57.944,SL_sali_41,2021.2.3,Win32,59.88023952,0.8307,,,36,0,36,0,1,,,,,,,,
,,"[""diamond"",""green"",""hori"",""left"",[150,0],[-106,106]]",diamond,green,hori,left,"[150,0]","[-106,106]",left,1,,,,,,001,2025-03-10_19h11.57.944,SL_sali_41,2021.2.3,Win32,59.88023952,0.9046,,,37,0,37,0,1,,,,,,,,
,,"[""circle"",""no_dis"",""hori"",""left"",[99999,99999],[106,-106]]",circle,no_dis,hori,left,"[99999,99999]","[106,-106]",left,1,,,,,,001,2025-03-10_19h11.57.944,SL_sali_41,2021.2.3,Win32,59.88023952,1.1696,,,38,0,38,0,1,,,,,,,,
,,"[""diamond"",""red"",""vert"",""up"",[150,0],[0,-150]]",diamond,red,vert,up,"[150,0]","[0,-150]",up,1,,,,,,001,2025-03-10_19h11.57.944,SL_sali_41,2021.2.3,Win32,59.88023952,1.0427,,,39,0,39,0,1,,,,,,,,
,,"[""diamond"",""green"",""vert"",""up"",[-150,0],[-106,-106]]",diamond,green,vert,up,"[-150,0]","[-106,-106]",up,1,,,,,,001,2025-03-10_19h11.57.944,SL_sali_41,2021.2.3,Win32,59.88023952,0.9673,,,40,0,40,0,1,,,,,,,,
,,"[""diamond"",""green"",""vert"",""up"",[150,0],[106,-106]]",diamond,green,vert,up,"[150,0]","[106,-106]",up,1,,,,,,001,2025-03-10_19h11.57.944,SL_sali_41,2021.2.3,Win32,59.88023952,0.8663,,,41,0,41,0,1,,,,,,,,
,,"[""diamond"",""no_dis"",""vert"",""up"",[99999,99999],[-150,0]]",diamond,no_dis,vert,up,"[99999,99999]","[-150,0]",up,1,,,,,,001,2025-03-10_19h11.57.944,SL_sali_41,2021.2.3,Win32,59.88023952,0.8104,,,42,0,42,0,1,,,,,,,,
,,"[""circle"",""green"",""vert"",""up"",[150,0],[-106,106]]",circle,green,vert,up,"[150,0]","[-106,106]",up,1,,,,,,001,2025-03-10_19h11.57.944,SL_sali_41,2021.2.3,Win32,59.88023952,1.0602,,,43,0,43,0,1,,,,,,,,
,,"[""circle"",""no_dis"",""hori"",""left"",[99999,99999],[-106,106]]",circle,no_dis,hori,left,"[99999,99999]","[-106,106]",left,1,,,,,,001,2025-03-10_19h11.57.944,SL_sali_41,2021.2.3,Win32,59.88023952,1.1083,,,44,0,44,0,1,,,,,,,,
,,"[""diamond"",""red"",""vert"",""up"",[-106,-106],[0,150]]",diamond,red,vert,up,"[-106,-106]","[0,150]",up,1,,,,,,001,2025-03-10_19h11.57.944,SL_sali_41,2021.2.3,Win32,59.88023952,0.8653,,,45,0,45,0,1,,,,,,,,
,,"[""circle"",""green"",""vert"",""up"",[0,-150],[-106,106]]",circle,green,vert,up,"[0,-150]","[-106,106]",up,1,,,,,,001,2025-03-10_19h11.57.944,SL_sali_41,2021.2.3,Win32,59.88023952,0.8671,,,46,0,46,0,1,,,,,,,,
,,"[""circle"",""no_dis"",""vert"",""up"",[99999,99999],[106,-106]]",circle,no_dis,vert,up,"[99999,99999]","[106,-106]",up,1,,,,,,001,2025-03-10_19h11.57.944,SL_sali_41,2021.2.3,Win32,59.88023952,0.9178,,,47,0,47,0,1,,,,,,,,
,,"[""diamond"",""red"",""hori"",""left"",[150,0],[-150,0]]",diamond,red,hori,left,"[150,0]","[-150,0]",up,0,,,,,,001,2025-03-10_19h11.57.944,SL_sali_41,2021.2.3,Win32,59.88023952,0.7163,,,48,0,48,0,1,,,,,,,,
,,"[""circle"",""red"",""hori"",""left"",[-106,106],[-150,0]]",circle,red,hori,left,"[-106,106]","[-150,0]",left,1,,,,,,001,2025-03-10_19h11.57.944,SL_sali_41,2021.2.3,Win32,59.88023952,0.9689,,,49,0,49,0,1,,,,,,,,
,,"[""circle"",""green"",""hori"",""left"",[106,-106],[150,0]]",circle,green,hori,left,"[106,-106]","[150,0]",left,1,,,,,,001,2025-03-10_19h11.57.944,SL_sali_41,2021.2.3,Win32,59.88023952,0.6246,,,50,0,50,0,1,,,,,,,,
,,"[""diamond"",""no_dis"",""vert"",""up"",[99999,99999],[-150,0]]",diamond,no_dis,vert,up,"[99999,99999]","[-150,0]",up,1,,,,,,001,2025-03-10_19h11.57.944,SL_sali_41,2021.2.3,Win32,59.88023952,0.8149,,,51,0,51,0,1,,,,,,,,
,,"[""circle"",""red"",""hori"",""left"",[150,0],[106,106]]",circle,red,hori,left,"[150,0]","[106,106]",left,1,,,,,,001,2025-03-10_19h11.57.944,SL_sali_41,2021.2.3,Win32,59.88023952,1.1561,,,52,0,52,0,1,,,,,,,,
,,"[""circle"",""no_dis"",""hori"",""left"",[99999,99999],[0,150]]",circle,no_dis,hori,left,"[99999,99999]","[0,150]",left,1,,,,,,001,2025-03-10_19h11.57.944,SL_sali_41,2021.2.3,Win32,59.88023952,0.6245,,,53,0,53,0,1,,,,,,,,
,,"[""circle"",""green"",""hori"",""left"",[150,0],[-150,0]]",circle,green,hori,left,"[150,0]","[-150,0]",left,1,,,,,,001,2025-03-10_19h11.57.944,SL_sali_41,2021.2.3,Win32,59.88023952,0.7588,,,54,0,54,0,1,,,,,,,,
,,"[""circle"",""red"",""vert"",""up"",[106,-106],[-150,0]]",circle,red,vert,up,"[106,-106]","[-150,0]",left,0,,,,,,001,2025-03-10_19h11.57.944,SL_sali_41,2021.2.3,Win32,59.88023952,0.5598,,,55,0,55,0,1,,,,,,,,
,,"[""circle"",""red"",""hori"",""left"",[150,0],[106,-106]]",circle,red,hori,left,"[150,0]","[106,-106]",left,1,,,,,,001,2025-03-10_19h11.57.944,SL_sali_41,2021.2.3,Win32,59.88023952,0.9289,,,56,0,56,0,1,,,,,,,,
,,"[""diamond"",""green"",""vert"",""up"",[0,150],[106,-106]]",diamond,green,vert,up,"[0,150]","[106,-106]",up,1,,,,,,001,2025-03-10_19h11.57.944,SL_sali_41,2021.2.3,Win32,59.88023952,0.9209,,,57,0,57,0,1,,,,,,,,
,,"[""circle"",""no_dis"",""vert"",""up"",[99999,99999],[-106,106]]",circle,no_dis,vert,up,"[99999,99999]","[-106,106]",up,1,,,,,,001,2025-03-10_19h11.57.944,SL_sali_41,2021.2.3,Win32,59.88023952,0.786,,,58,0,58,0,1,,,,,,,,
,,"[""circle"",""green"",""vert"",""up"",[0,-150],[106,106]]",circle,green,vert,up,"[0,-150]","[106,106]",up,1,,,,,,001,2025-03-10_19h11.57.944,SL_sali_41,2021.2.3,Win32,59.88023952,0.6835,,,59,0,59,0,1,,,,,,,,
,,"[""circle"",""green"",""hori"",""left"",[106,106],[-106,-106]]",circle,green,hori,left,"[106,106]","[-106,-106]",left,1,,,,,,001,2025-03-10_19h11.57.944,SL_sali_41,2021.2.3,Win32,59.88023952,0.6849,,,60,0,60,0,1,,,,,,,,
,,"[""circle"",""green"",""hori"",""left"",[150,0],[-106,106]]",circle,green,hori,left,"[150,0]","[-106,106]",left,1,,,,,,001,2025-03-10_19h11.57.944,SL_sali_41,2021.2.3,Win32,59.88023952,0.6896,,,61,0,61,0,1,,,,,,,,
