﻿key_resp.keys,key_resp.rt,trial_para,tar_shape,dis_color_condi,tar_line,cor_resp,dis_loc,tar_loc,resp.keys,resp.corr,trials.thisRepN,trials.thisTrialN,trials.thisN,trials.thisIndex,trials.ran,participant,date,expName,psychopyVersion,OS,frameRate,resp.rt,key_resp_2.keys,key_resp_2.rt,trials_2.thisRepN,trials_2.thisTrialN,trials_2.thisN,trials_2.thisIndex,trials_2.ran,block_num,key_resp_3.keys,key_resp_3.rt,trials_3.thisRepN,trials_3.thisTrialN,trials_3.thisN,trials_3.thisIndex,trials_3.ran
space,17.8289,"[""diamond"",""no_dis"",""hori"",""left"",[99999,99999],[-106,-106]]",diamond,no_dis,hori,left,"[99999,99999]","[-106,-106]",,0,0,0,0,0,1,001,2025-03-11_18h43.31.040,SL_sali_41,2021.2.3,Win32,59.17159763,,,,,,,,,,,,,,,,
,,"[""circle"",""no_dis"",""vert"",""up"",[99999,99999],[106,-106]]",circle,no_dis,vert,up,"[99999,99999]","[106,-106]",up,1,1,0,1,0,1,001,2025-03-11_18h43.31.040,SL_sali_41,2021.2.3,Win32,59.17159763,0.9244,,,,,,,,,,,,,,,
,,"[""circle"",""red"",""hori"",""left"",[0,-150],[150,0]]",circle,red,hori,left,"[0,-150]","[150,0]",left,1,2,0,2,0,1,001,2025-03-11_18h43.31.040,SL_sali_41,2021.2.3,Win32,59.17159763,1.1804,,,,,,,,,,,,,,,
,,"[""diamond"",""no_dis"",""vert"",""up"",[99999,99999],[0,150]]",diamond,no_dis,vert,up,"[99999,99999]","[0,150]",up,1,3,0,3,0,1,001,2025-03-11_18h43.31.040,SL_sali_41,2021.2.3,Win32,59.17159763,0.9264,,,,,,,,,,,,,,,
,,"[""circle"",""green"",""hori"",""left"",[-106,-106],[-150,0]]",circle,green,hori,left,"[-106,-106]","[-150,0]",left,1,4,0,4,0,1,001,2025-03-11_18h43.31.040,SL_sali_41,2021.2.3,Win32,59.17159763,1.6632,,,,,,,,,,,,,,,
,,"[""diamond"",""no_dis"",""vert"",""up"",[99999,99999],[0,-150]]",diamond,no_dis,vert,up,"[99999,99999]","[0,-150]",up,1,5,0,5,0,1,001,2025-03-11_18h43.31.040,SL_sali_41,2021.2.3,Win32,59.17159763,2.0056,,,,,,,,,,,,,,,
,,"[""diamond"",""red"",""vert"",""up"",[150,0],[106,-106]]",diamond,red,vert,up,"[150,0]","[106,-106]",left,0,6,0,6,0,1,001,2025-03-11_18h43.31.040,SL_sali_41,2021.2.3,Win32,59.17159763,1.7773,,,,,,,,,,,,,,,
,,"[""diamond"",""red"",""hori"",""left"",[0,-150],[106,106]]",diamond,red,hori,left,"[0,-150]","[106,106]",left,1,7,0,7,0,1,001,2025-03-11_18h43.31.040,SL_sali_41,2021.2.3,Win32,59.17159763,1.2883,,,,,,,,,,,,,,,
,,"[""diamond"",""red"",""vert"",""up"",[150,0],[106,-106]]",diamond,red,vert,up,"[150,0]","[106,-106]",left,0,8,0,8,0,1,001,2025-03-11_18h43.31.040,SL_sali_41,2021.2.3,Win32,59.17159763,1.6328,,,,,,,,,,,,,,,
,,"[""circle"",""red"",""vert"",""up"",[-150,0],[-106,106]]",circle,red,vert,up,"[-150,0]","[-106,106]",up,1,9,0,9,0,1,001,2025-03-11_18h43.31.040,SL_sali_41,2021.2.3,Win32,59.17159763,1.0971,,,,,,,,,,,,,,,
,,"[""diamond"",""no_dis"",""hori"",""left"",[99999,99999],[-106,-106]]",diamond,no_dis,hori,left,"[99999,99999]","[-106,-106]",left,1,,,,,,001,2025-03-11_18h43.31.040,SL_sali_41,2021.2.3,Win32,59.17159763,1.67,space,79.0762,0,0,0,0,1,,,,,,,,
,,"[""circle"",""no_dis"",""vert"",""up"",[99999,99999],[106,-106]]",circle,no_dis,vert,up,"[99999,99999]","[106,-106]",up,1,,,,,,001,2025-03-11_18h43.31.040,SL_sali_41,2021.2.3,Win32,59.17159763,0.6706,,,1,0,1,0,1,,,,,,,,
,,"[""circle"",""red"",""hori"",""left"",[0,-150],[150,0]]",circle,red,hori,left,"[0,-150]","[150,0]",left,1,,,,,,001,2025-03-11_18h43.31.040,SL_sali_41,2021.2.3,Win32,59.17159763,1.1279,,,2,0,2,0,1,,,,,,,,
,,"[""diamond"",""no_dis"",""vert"",""up"",[99999,99999],[0,150]]",diamond,no_dis,vert,up,"[99999,99999]","[0,150]",up,1,,,,,,001,2025-03-11_18h43.31.040,SL_sali_41,2021.2.3,Win32,59.17159763,0.8023,,,3,0,3,0,1,,,,,,,,
,,"[""circle"",""green"",""hori"",""left"",[-106,-106],[-150,0]]",circle,green,hori,left,"[-106,-106]","[-150,0]",left,1,,,,,,001,2025-03-11_18h43.31.040,SL_sali_41,2021.2.3,Win32,59.17159763,0.861,,,4,0,4,0,1,,,,,,,,
,,"[""diamond"",""no_dis"",""vert"",""up"",[99999,99999],[0,-150]]",diamond,no_dis,vert,up,"[99999,99999]","[0,-150]",up,1,,,,,,001,2025-03-11_18h43.31.040,SL_sali_41,2021.2.3,Win32,59.17159763,0.8419,,,5,0,5,0,1,,,,,,,,
,,"[""diamond"",""red"",""vert"",""up"",[150,0],[106,-106]]",diamond,red,vert,up,"[150,0]","[106,-106]",left,0,,,,,,001,2025-03-11_18h43.31.040,SL_sali_41,2021.2.3,Win32,59.17159763,0.8895,,,6,0,6,0,1,,,,,,,,
,,"[""diamond"",""red"",""hori"",""left"",[0,-150],[106,106]]",diamond,red,hori,left,"[0,-150]","[106,106]",left,1,,,,,,001,2025-03-11_18h43.31.040,SL_sali_41,2021.2.3,Win32,59.17159763,1.2407,,,7,0,7,0,1,,,,,,,,
,,"[""diamond"",""red"",""vert"",""up"",[150,0],[106,-106]]",diamond,red,vert,up,"[150,0]","[106,-106]",up,1,,,,,,001,2025-03-11_18h43.31.040,SL_sali_41,2021.2.3,Win32,59.17159763,1.5075,,,8,0,8,0,1,,,,,,,,
,,"[""circle"",""red"",""vert"",""up"",[-150,0],[-106,106]]",circle,red,vert,up,"[-150,0]","[-106,106]",up,1,,,,,,001,2025-03-11_18h43.31.040,SL_sali_41,2021.2.3,Win32,59.17159763,0.9947,,,9,0,9,0,1,,,,,,,,
,,"[""diamond"",""no_dis"",""hori"",""left"",[99999,99999],[0,-150]]",diamond,no_dis,hori,left,"[99999,99999]","[0,-150]",left,1,,,,,,001,2025-03-11_18h43.31.040,SL_sali_41,2021.2.3,Win32,59.17159763,0.7265,,,10,0,10,0,1,,,,,,,,
,,"[""diamond"",""red"",""hori"",""left"",[-106,-106],[-150,0]]",diamond,red,hori,left,"[-106,-106]","[-150,0]",left,1,,,,,,001,2025-03-11_18h43.31.040,SL_sali_41,2021.2.3,Win32,59.17159763,0.9532,,,11,0,11,0,1,,,,,,,,
,,"[""diamond"",""green"",""vert"",""up"",[150,0],[106,-106]]",diamond,green,vert,up,"[150,0]","[106,-106]",up,1,,,,,,001,2025-03-11_18h43.31.040,SL_sali_41,2021.2.3,Win32,59.17159763,1.3261,,,12,0,12,0,1,,,,,,,,
,,"[""circle"",""green"",""hori"",""left"",[-106,106],[106,106]]",circle,green,hori,left,"[-106,106]","[106,106]",left,1,,,,,,001,2025-03-11_18h43.31.040,SL_sali_41,2021.2.3,Win32,59.17159763,0.8821,,,13,0,13,0,1,,,,,,,,
,,"[""circle"",""green"",""hori"",""left"",[150,0],[-106,-106]]",circle,green,hori,left,"[150,0]","[-106,-106]",left,1,,,,,,001,2025-03-11_18h43.31.040,SL_sali_41,2021.2.3,Win32,59.17159763,1.1839,,,14,0,14,0,1,,,,,,,,
,,"[""circle"",""red"",""hori"",""left"",[106,106],[106,-106]]",circle,red,hori,left,"[106,106]","[106,-106]",left,1,,,,,,001,2025-03-11_18h43.31.040,SL_sali_41,2021.2.3,Win32,59.17159763,1.208,,,15,0,15,0,1,,,,,,,,
,,"[""circle"",""green"",""vert"",""up"",[150,0],[0,150]]",circle,green,vert,up,"[150,0]","[0,150]",up,1,,,,,,001,2025-03-11_18h43.31.040,SL_sali_41,2021.2.3,Win32,59.17159763,0.8646,,,16,0,16,0,1,,,,,,,,
,,"[""diamond"",""green"",""vert"",""up"",[150,0],[106,-106]]",diamond,green,vert,up,"[150,0]","[106,-106]",left,0,,,,,,001,2025-03-11_18h43.31.040,SL_sali_41,2021.2.3,Win32,59.17159763,1.0465,,,17,0,17,0,1,,,,,,,,
,,"[""diamond"",""no_dis"",""hori"",""left"",[99999,99999],[106,106]]",diamond,no_dis,hori,left,"[99999,99999]","[106,106]",left,1,,,,,,001,2025-03-11_18h43.31.040,SL_sali_41,2021.2.3,Win32,59.17159763,1.169,,,18,0,18,0,1,,,,,,,,
,,"[""circle"",""red"",""vert"",""up"",[0,150],[-106,106]]",circle,red,vert,up,"[0,150]","[-106,106]",up,1,,,,,,001,2025-03-11_18h43.31.040,SL_sali_41,2021.2.3,Win32,59.17159763,0.8625,,,19,0,19,0,1,,,,,,,,
,,"[""diamond"",""green"",""hori"",""left"",[-106,106],[0,150]]",diamond,green,hori,left,"[-106,106]","[0,150]",left,1,,,,,,001,2025-03-11_18h43.31.040,SL_sali_41,2021.2.3,Win32,59.17159763,0.9784,,,20,0,20,0,1,,,,,,,,
,,"[""diamond"",""red"",""vert"",""up"",[-106,106],[-150,0]]",diamond,red,vert,up,"[-106,106]","[-150,0]",up,1,,,,,,001,2025-03-11_18h43.31.040,SL_sali_41,2021.2.3,Win32,59.17159763,1.4763,,,21,0,21,0,1,,,,,,,,
,,"[""circle"",""no_dis"",""hori"",""left"",[99999,99999],[-106,106]]",circle,no_dis,hori,left,"[99999,99999]","[-106,106]",left,1,,,,,,001,2025-03-11_18h43.31.040,SL_sali_41,2021.2.3,Win32,59.17159763,0.7139,,,22,0,22,0,1,,,,,,,,
,,"[""diamond"",""no_dis"",""hori"",""left"",[99999,99999],[-106,106]]",diamond,no_dis,hori,left,"[99999,99999]","[-106,106]",left,1,,,,,,001,2025-03-11_18h43.31.040,SL_sali_41,2021.2.3,Win32,59.17159763,0.7438,,,23,0,23,0,1,,,,,,,,
,,"[""circle"",""red"",""vert"",""up"",[106,106],[106,-106]]",circle,red,vert,up,"[106,106]","[106,-106]",up,1,,,,,,001,2025-03-11_18h43.31.040,SL_sali_41,2021.2.3,Win32,59.17159763,0.9654,,,24,0,24,0,1,,,,,,,,
,,"[""circle"",""red"",""hori"",""left"",[106,106],[-150,0]]",circle,red,hori,left,"[106,106]","[-150,0]",left,1,,,,,,001,2025-03-11_18h43.31.040,SL_sali_41,2021.2.3,Win32,59.17159763,0.8022,,,25,0,25,0,1,,,,,,,,
,,"[""diamond"",""red"",""vert"",""up"",[150,0],[106,106]]",diamond,red,vert,up,"[150,0]","[106,106]",up,1,,,,,,001,2025-03-11_18h43.31.040,SL_sali_41,2021.2.3,Win32,59.17159763,0.8936,,,26,0,26,0,1,,,,,,,,
,,"[""circle"",""green"",""hori"",""left"",[0,-150],[106,-106]]",circle,green,hori,left,"[0,-150]","[106,-106]",left,1,,,,,,001,2025-03-11_18h43.31.040,SL_sali_41,2021.2.3,Win32,59.17159763,0.8041,,,27,0,27,0,1,,,,,,,,
,,"[""diamond"",""red"",""hori"",""left"",[150,0],[106,106]]",diamond,red,hori,left,"[150,0]","[106,106]",left,1,,,,,,001,2025-03-11_18h43.31.040,SL_sali_41,2021.2.3,Win32,59.17159763,0.8485,,,28,0,28,0,1,,,,,,,,
,,"[""diamond"",""red"",""hori"",""left"",[-106,106],[-150,0]]",diamond,red,hori,left,"[-106,106]","[-150,0]",up,0,,,,,,001,2025-03-11_18h43.31.040,SL_sali_41,2021.2.3,Win32,59.17159763,1.118,,,29,0,29,0,1,,,,,,,,
,,"[""circle"",""green"",""vert"",""up"",[106,-106],[106,106]]",circle,green,vert,up,"[106,-106]","[106,106]",up,1,,,,,,001,2025-03-11_18h43.31.040,SL_sali_41,2021.2.3,Win32,59.17159763,0.9854,,,30,0,30,0,1,,,,,,,,
,,"[""circle"",""red"",""hori"",""left"",[150,0],[0,-150]]",circle,red,hori,left,"[150,0]","[0,-150]",up,0,,,,,,001,2025-03-11_18h43.31.040,SL_sali_41,2021.2.3,Win32,59.17159763,1.2945,,,31,0,31,0,1,,,,,,,,
,,"[""circle"",""green"",""hori"",""left"",[150,0],[-106,106]]",circle,green,hori,left,"[150,0]","[-106,106]",left,1,,,,,,001,2025-03-11_18h43.31.040,SL_sali_41,2021.2.3,Win32,59.17159763,0.7194,,,32,0,32,0,1,,,,,,,,
,,"[""circle"",""red"",""hori"",""left"",[-150,0],[106,106]]",circle,red,hori,left,"[-150,0]","[106,106]",left,1,,,,,,001,2025-03-11_18h43.31.040,SL_sali_41,2021.2.3,Win32,59.17159763,0.8325,,,33,0,33,0,1,,,,,,,,
,,"[""diamond"",""green"",""vert"",""up"",[0,-150],[106,-106]]",diamond,green,vert,up,"[0,-150]","[106,-106]",up,1,,,,,,001,2025-03-11_18h43.31.040,SL_sali_41,2021.2.3,Win32,59.17159763,1.18,,,34,0,34,0,1,,,,,,,,
,,"[""diamond"",""no_dis"",""vert"",""up"",[99999,99999],[-106,-106]]",diamond,no_dis,vert,up,"[99999,99999]","[-106,-106]",up,1,,,,,,001,2025-03-11_18h43.31.040,SL_sali_41,2021.2.3,Win32,59.17159763,1.8354,,,35,0,35,0,1,,,,,,,,
,,"[""diamond"",""green"",""hori"",""left"",[0,150],[150,0]]",diamond,green,hori,left,"[0,150]","[150,0]",left,1,,,,,,001,2025-03-11_18h43.31.040,SL_sali_41,2021.2.3,Win32,59.17159763,0.9343,,,36,0,36,0,1,,,,,,,,
,,"[""diamond"",""green"",""hori"",""left"",[106,-106],[0,-150]]",diamond,green,hori,left,"[106,-106]","[0,-150]",up,0,,,,,,001,2025-03-11_18h43.31.040,SL_sali_41,2021.2.3,Win32,59.17159763,1.4509,,,37,0,37,0,1,,,,,,,,
,,"[""circle"",""no_dis"",""vert"",""up"",[99999,99999],[0,150]]",circle,no_dis,vert,up,"[99999,99999]","[0,150]",up,1,,,,,,001,2025-03-11_18h43.31.040,SL_sali_41,2021.2.3,Win32,59.17159763,1.1181,,,38,0,38,0,1,,,,,,,,
,,"[""circle"",""no_dis"",""vert"",""up"",[99999,99999],[0,-150]]",circle,no_dis,vert,up,"[99999,99999]","[0,-150]",up,1,,,,,,001,2025-03-11_18h43.31.040,SL_sali_41,2021.2.3,Win32,59.17159763,1.0512,,,39,0,39,0,1,,,,,,,,
,,"[""circle"",""green"",""vert"",""up"",[150,0],[-150,0]]",circle,green,vert,up,"[150,0]","[-150,0]",up,1,,,,,,001,2025-03-11_18h43.31.040,SL_sali_41,2021.2.3,Win32,59.17159763,0.7176,,,40,0,40,0,1,,,,,,,,
,,"[""diamond"",""no_dis"",""vert"",""up"",[99999,99999],[106,-106]]",diamond,no_dis,vert,up,"[99999,99999]","[106,-106]",up,1,,,,,,001,2025-03-11_18h43.31.040,SL_sali_41,2021.2.3,Win32,59.17159763,0.8848,,,41,0,41,0,1,,,,,,,,
,,"[""circle"",""red"",""hori"",""left"",[106,106],[-106,-106]]",circle,red,hori,left,"[106,106]","[-106,-106]",left,1,,,,,,001,2025-03-11_18h43.31.040,SL_sali_41,2021.2.3,Win32,59.17159763,0.7677,,,42,0,42,0,1,,,,,,,,
,,"[""circle"",""red"",""vert"",""up"",[106,-106],[-150,0]]",circle,red,vert,up,"[106,-106]","[-150,0]",up,1,,,,,,001,2025-03-11_18h43.31.040,SL_sali_41,2021.2.3,Win32,59.17159763,0.8846,,,43,0,43,0,1,,,,,,,,
,,"[""diamond"",""no_dis"",""hori"",""left"",[99999,99999],[-106,-106]]",diamond,no_dis,hori,left,"[99999,99999]","[-106,-106]",left,1,,,,,,001,2025-03-11_18h43.31.040,SL_sali_41,2021.2.3,Win32,59.17159763,1.1179,,,44,0,44,0,1,,,,,,,,
,,"[""circle"",""no_dis"",""vert"",""up"",[99999,99999],[-106,-106]]",circle,no_dis,vert,up,"[99999,99999]","[-106,-106]",up,1,,,,,,001,2025-03-11_18h43.31.040,SL_sali_41,2021.2.3,Win32,59.17159763,0.834,,,45,0,45,0,1,,,,,,,,
,,"[""circle"",""no_dis"",""hori"",""left"",[99999,99999],[106,106]]",circle,no_dis,hori,left,"[99999,99999]","[106,106]",left,1,,,,,,001,2025-03-11_18h43.31.040,SL_sali_41,2021.2.3,Win32,59.17159763,0.9515,,,46,0,46,0,1,,,,,,,,
,,"[""circle"",""no_dis"",""vert"",""up"",[99999,99999],[-106,106]]",circle,no_dis,vert,up,"[99999,99999]","[-106,106]",up,1,,,,,,001,2025-03-11_18h43.31.040,SL_sali_41,2021.2.3,Win32,59.17159763,0.7674,,,47,0,47,0,1,,,,,,,,
,,"[""circle"",""red"",""hori"",""left"",[150,0],[0,-150]]",circle,red,hori,left,"[150,0]","[0,-150]",left,1,,,,,,001,2025-03-11_18h43.31.040,SL_sali_41,2021.2.3,Win32,59.17159763,1.3846,,,48,0,48,0,1,,,,,,,,
,,"[""circle"",""no_dis"",""hori"",""left"",[99999,99999],[106,106]]",circle,no_dis,hori,left,"[99999,99999]","[106,106]",left,1,,,,,,001,2025-03-11_18h43.31.040,SL_sali_41,2021.2.3,Win32,59.17159763,0.6342,,,49,0,49,0,1,,,,,,,,
,,"[""circle"",""green"",""hori"",""left"",[-150,0],[106,-106]]",circle,green,hori,left,"[-150,0]","[106,-106]",left,1,,,,,,001,2025-03-11_18h43.31.040,SL_sali_41,2021.2.3,Win32,59.17159763,0.7677,,,50,0,50,0,1,,,,,,,,
,,"[""circle"",""red"",""vert"",""up"",[0,150],[106,-106]]",circle,red,vert,up,"[0,150]","[106,-106]",up,1,,,,,,001,2025-03-11_18h43.31.040,SL_sali_41,2021.2.3,Win32,59.17159763,1.4182,,,51,0,51,0,1,,,,,,,,
,,"[""diamond"",""red"",""hori"",""left"",[106,106],[150,0]]",diamond,red,hori,left,"[106,106]","[150,0]",left,1,,,,,,001,2025-03-11_18h43.31.040,SL_sali_41,2021.2.3,Win32,59.17159763,1.2176,,,52,0,52,0,1,,,,,,,,
,,"[""circle"",""green"",""hori"",""left"",[106,-106],[150,0]]",circle,green,hori,left,"[106,-106]","[150,0]",left,1,,,,,,001,2025-03-11_18h43.31.040,SL_sali_41,2021.2.3,Win32,59.17159763,1.4182,,,53,0,53,0,1,,,,,,,,
,,"[""diamond"",""green"",""hori"",""left"",[150,0],[-106,106]]",diamond,green,hori,left,"[150,0]","[-106,106]",left,1,,,,,,001,2025-03-11_18h43.31.040,SL_sali_41,2021.2.3,Win32,59.17159763,1.3011,,,54,0,54,0,1,,,,,,,,
,,"[""diamond"",""green"",""vert"",""up"",[150,0],[106,-106]]",diamond,green,vert,up,"[150,0]","[106,-106]",left,0,,,,,,001,2025-03-11_18h43.31.040,SL_sali_41,2021.2.3,Win32,59.17159763,1.2023,,,55,0,55,0,1,,,,,,,,
,,"[""circle"",""no_dis"",""hori"",""left"",[99999,99999],[150,0]]",circle,no_dis,hori,left,"[99999,99999]","[150,0]",left,1,,,,,,001,2025-03-11_18h43.31.040,SL_sali_41,2021.2.3,Win32,59.17159763,0.7341,,,56,0,56,0,1,,,,,,,,
,,"[""diamond"",""no_dis"",""hori"",""left"",[99999,99999],[0,-150]]",diamond,no_dis,hori,left,"[99999,99999]","[0,-150]",up,0,,,,,,001,2025-03-11_18h43.31.040,SL_sali_41,2021.2.3,Win32,59.17159763,1.3345,,,57,0,57,0,1,,,,,,,,
,,"[""circle"",""red"",""hori"",""left"",[0,150],[-106,106]]",circle,red,hori,left,"[0,150]","[-106,106]",left,1,,,,,,001,2025-03-11_18h43.31.040,SL_sali_41,2021.2.3,Win32,59.17159763,0.9343,,,58,0,58,0,1,,,,,,,,
,,"[""circle"",""red"",""vert"",""up"",[0,-150],[106,106]]",circle,red,vert,up,"[0,-150]","[106,106]",up,1,,,,,,001,2025-03-11_18h43.31.040,SL_sali_41,2021.2.3,Win32,59.17159763,0.8852,,,59,0,59,0,1,,,,,,,,
,,"[""circle"",""red"",""vert"",""up"",[-106,-106],[0,-150]]",circle,red,vert,up,"[-106,-106]","[0,-150]",up,1,,,,,,001,2025-03-11_18h43.31.040,SL_sali_41,2021.2.3,Win32,59.17159763,0.9008,,,60,0,60,0,1,,,,,,,,
,,"[""circle"",""no_dis"",""hori"",""left"",[99999,99999],[-150,0]]",circle,no_dis,hori,left,"[99999,99999]","[-150,0]",left,1,,,,,,001,2025-03-11_18h43.31.040,SL_sali_41,2021.2.3,Win32,59.17159763,0.7844,,,61,0,61,0,1,,,,,,,,
,,"[""circle"",""red"",""hori"",""left"",[0,150],[106,-106]]",circle,red,hori,left,"[0,150]","[106,-106]",left,1,,,,,,001,2025-03-11_18h43.31.040,SL_sali_41,2021.2.3,Win32,59.17159763,0.7009,,,62,0,62,0,1,,,,,,,,
,,"[""diamond"",""no_dis"",""hori"",""left"",[99999,99999],[-150,0]]",diamond,no_dis,hori,left,"[99999,99999]","[-150,0]",left,1,,,,,,001,2025-03-11_18h43.31.040,SL_sali_41,2021.2.3,Win32,59.17159763,1.118,,,63,0,63,0,1,,,,,,,,
,,"[""diamond"",""no_dis"",""vert"",""up"",[99999,99999],[-150,0]]",diamond,no_dis,vert,up,"[99999,99999]","[-150,0]",left,0,,,,,,001,2025-03-11_18h43.31.040,SL_sali_41,2021.2.3,Win32,59.17159763,0.8683,,,64,0,64,0,1,,,,,,,,
,,"[""circle"",""green"",""vert"",""up"",[150,0],[-106,106]]",circle,green,vert,up,"[150,0]","[-106,106]",up,1,,,,,,001,2025-03-11_18h43.31.040,SL_sali_41,2021.2.3,Win32,59.17159763,0.7519,,,65,0,65,0,1,,,,,,,,
,,"[""circle"",""red"",""vert"",""up"",[-150,0],[106,106]]",circle,red,vert,up,"[-150,0]","[106,106]",up,1,,,,,,001,2025-03-11_18h43.31.040,SL_sali_41,2021.2.3,Win32,59.17159763,1.5015,,,66,0,66,0,1,,,,,,,,
,,"[""diamond"",""green"",""hori"",""left"",[150,0],[0,150]]",diamond,green,hori,left,"[150,0]","[0,150]",left,1,,,,,,001,2025-03-11_18h43.31.040,SL_sali_41,2021.2.3,Win32,59.17159763,1.1677,,,67,0,67,0,1,,,,,,,,
,,"[""circle"",""red"",""vert"",""up"",[150,0],[106,-106]]",circle,red,vert,up,"[150,0]","[106,-106]",up,1,,,,,,001,2025-03-11_18h43.31.040,SL_sali_41,2021.2.3,Win32,59.17159763,0.9013,,,68,0,68,0,1,,,,,,,,
,,"[""diamond"",""no_dis"",""vert"",""up"",[99999,99999],[150,0]]",diamond,no_dis,vert,up,"[99999,99999]","[150,0]",left,0,,,,,,001,2025-03-11_18h43.31.040,SL_sali_41,2021.2.3,Win32,59.17159763,0.9684,,,69,0,69,0,1,,,,,,,,
,,"[""circle"",""no_dis"",""hori"",""left"",[99999,99999],[-150,0]]",circle,no_dis,hori,left,"[99999,99999]","[-150,0]",left,1,,,,,,001,2025-03-11_18h43.31.040,SL_sali_41,2021.2.3,Win32,59.17159763,1.001,,,70,0,70,0,1,,,,,,,,
,,"[""circle"",""no_dis"",""hori"",""left"",[99999,99999],[-150,0]]",circle,no_dis,hori,left,"[99999,99999]","[-150,0]",left,1,,,,,,001,2025-03-11_18h43.31.040,SL_sali_41,2021.2.3,Win32,59.17159763,0.9015,,,71,0,71,0,1,,,,,,,,
,,"[""diamond"",""red"",""hori"",""left"",[150,0],[106,-106]]",diamond,red,hori,left,"[150,0]","[106,-106]",left,1,,,,,,001,2025-03-11_18h43.31.040,SL_sali_41,2021.2.3,Win32,59.17159763,1.968,,,72,0,72,0,1,,,,,,,,
,,"[""diamond"",""green"",""hori"",""left"",[0,150],[150,0]]",diamond,green,hori,left,"[0,150]","[150,0]",left,1,,,,,,001,2025-03-11_18h43.31.040,SL_sali_41,2021.2.3,Win32,59.17159763,1.167,,,73,0,73,0,1,,,,,,,,
,,"[""diamond"",""no_dis"",""vert"",""up"",[99999,99999],[0,150]]",diamond,no_dis,vert,up,"[99999,99999]","[0,150]",up,1,,,,,,001,2025-03-11_18h43.31.040,SL_sali_41,2021.2.3,Win32,59.17159763,1.7851,,,74,0,74,0,1,,,,,,,,
,,"[""circle"",""green"",""vert"",""up"",[150,0],[0,150]]",circle,green,vert,up,"[150,0]","[0,150]",up,1,,,,,,001,2025-03-11_18h43.31.040,SL_sali_41,2021.2.3,Win32,59.17159763,0.8839,,,75,0,75,0,1,,,,,,,,
,,"[""circle"",""red"",""vert"",""up"",[-106,106],[150,0]]",circle,red,vert,up,"[-106,106]","[150,0]",up,1,,,,,,001,2025-03-11_18h43.31.040,SL_sali_41,2021.2.3,Win32,59.17159763,1.0011,,,76,0,76,0,1,,,,,,,,
,,"[""diamond"",""red"",""vert"",""up"",[106,-106],[-106,106]]",diamond,red,vert,up,"[106,-106]","[-106,106]",up,1,,,,,,001,2025-03-11_18h43.31.040,SL_sali_41,2021.2.3,Win32,59.17159763,1.0678,,,77,0,77,0,1,,,,,,,,
,,"[""diamond"",""red"",""hori"",""left"",[150,0],[106,106]]",diamond,red,hori,left,"[150,0]","[106,106]",left,1,,,,,,001,2025-03-11_18h43.31.040,SL_sali_41,2021.2.3,Win32,59.17159763,1.3015,,,78,0,78,0,1,,,,,,,,
,,"[""diamond"",""red"",""hori"",""left"",[150,0],[106,-106]]",diamond,red,hori,left,"[150,0]","[106,-106]",left,1,,,,,,001,2025-03-11_18h43.31.040,SL_sali_41,2021.2.3,Win32,59.17159763,1.2506,,,79,0,79,0,1,,,,,,,,
,,"[""circle"",""green"",""hori"",""left"",[-106,-106],[106,106]]",circle,green,hori,left,"[-106,-106]","[106,106]",left,1,,,,,,001,2025-03-11_18h43.31.040,SL_sali_41,2021.2.3,Win32,59.17159763,0.8507,,,80,0,80,0,1,,,,,,,,
,,"[""circle"",""red"",""hori"",""left"",[-106,-106],[0,-150]]",circle,red,hori,left,"[-106,-106]","[0,-150]",left,1,,,,,,001,2025-03-11_18h43.31.040,SL_sali_41,2021.2.3,Win32,59.17159763,1.3346,,,81,0,81,0,1,,,,,,,,
,,"[""circle"",""red"",""vert"",""up"",[-106,-106],[106,-106]]",circle,red,vert,up,"[-106,-106]","[106,-106]",up,1,,,,,,001,2025-03-11_18h43.31.040,SL_sali_41,2021.2.3,Win32,59.17159763,1.9346,,,82,0,82,0,1,,,,,,,,
,,"[""diamond"",""red"",""vert"",""up"",[150,0],[0,-150]]",diamond,red,vert,up,"[150,0]","[0,-150]",up,1,,,,,,001,2025-03-11_18h43.31.040,SL_sali_41,2021.2.3,Win32,59.17159763,1.4342,,,83,0,83,0,1,,,,,,,,
,,"[""circle"",""no_dis"",""vert"",""up"",[99999,99999],[-106,-106]]",circle,no_dis,vert,up,"[99999,99999]","[-106,-106]",up,1,,,,,,001,2025-03-11_18h43.31.040,SL_sali_41,2021.2.3,Win32,59.17159763,0.7177,,,84,0,84,0,1,,,,,,,,
,,"[""circle"",""no_dis"",""vert"",""up"",[99999,99999],[106,-106]]",circle,no_dis,vert,up,"[99999,99999]","[106,-106]",up,1,,,,,,001,2025-03-11_18h43.31.040,SL_sali_41,2021.2.3,Win32,59.17159763,0.7847,,,85,0,85,0,1,,,,,,,,
,,"[""circle"",""no_dis"",""hori"",""left"",[99999,99999],[150,0]]",circle,no_dis,hori,left,"[99999,99999]","[150,0]",left,1,,,,,,001,2025-03-11_18h43.31.040,SL_sali_41,2021.2.3,Win32,59.17159763,0.7518,,,86,0,86,0,1,,,,,,,,
,,"[""circle"",""green"",""vert"",""up"",[-106,-106],[150,0]]",circle,green,vert,up,"[-106,-106]","[150,0]",up,1,,,,,,001,2025-03-11_18h43.31.040,SL_sali_41,2021.2.3,Win32,59.17159763,0.7503,,,87,0,87,0,1,,,,,,,,
,,"[""diamond"",""green"",""hori"",""left"",[106,-106],[0,-150]]",diamond,green,hori,left,"[106,-106]","[0,-150]",left,1,,,,,,001,2025-03-11_18h43.31.040,SL_sali_41,2021.2.3,Win32,59.17159763,1.0849,,,88,0,88,0,1,,,,,,,,
,,"[""diamond"",""red"",""hori"",""left"",[-106,-106],[-150,0]]",diamond,red,hori,left,"[-106,-106]","[-150,0]",left,1,,,,,,001,2025-03-11_18h43.31.040,SL_sali_41,2021.2.3,Win32,59.17159763,1.5511,,,89,0,89,0,1,,,,,,,,
,,"[""circle"",""no_dis"",""vert"",""up"",[99999,99999],[150,0]]",circle,no_dis,vert,up,"[99999,99999]","[150,0]",up,1,,,,,,001,2025-03-11_18h43.31.040,SL_sali_41,2021.2.3,Win32,59.17159763,0.9012,,,90,0,90,0,1,,,,,,,,
,,"[""diamond"",""no_dis"",""vert"",""up"",[99999,99999],[0,150]]",diamond,no_dis,vert,up,"[99999,99999]","[0,150]",up,1,,,,,,001,2025-03-11_18h43.31.040,SL_sali_41,2021.2.3,Win32,59.17159763,0.8682,,,91,0,91,0,1,,,,,,,,
,,"[""diamond"",""green"",""hori"",""left"",[106,-106],[-150,0]]",diamond,green,hori,left,"[106,-106]","[-150,0]",left,1,,,,,,001,2025-03-11_18h43.31.040,SL_sali_41,2021.2.3,Win32,59.17159763,0.6511,,,92,0,92,0,1,,,,,,,,
,,"[""circle"",""green"",""vert"",""up"",[0,150],[-150,0]]",circle,green,vert,up,"[0,150]","[-150,0]",left,0,,,,,,001,2025-03-11_18h43.31.040,SL_sali_41,2021.2.3,Win32,59.17159763,0.8675,,,93,0,93,0,1,,,,,,,,
,,"[""diamond"",""no_dis"",""vert"",""up"",[99999,99999],[-106,106]]",diamond,no_dis,vert,up,"[99999,99999]","[-106,106]",up,1,,,,,,001,2025-03-11_18h43.31.040,SL_sali_41,2021.2.3,Win32,59.17159763,0.7508,,,94,0,94,0,1,,,,,,,,
,,"[""diamond"",""no_dis"",""vert"",""up"",[99999,99999],[106,106]]",diamond,no_dis,vert,up,"[99999,99999]","[106,106]",up,1,,,,,,001,2025-03-11_18h43.31.040,SL_sali_41,2021.2.3,Win32,59.17159763,1.6014,,,95,0,95,0,1,,,,,,,,
,,"[""circle"",""red"",""hori"",""left"",[150,0],[-106,-106]]",circle,red,hori,left,"[150,0]","[-106,-106]",left,1,,,,,,001,2025-03-11_18h43.31.040,SL_sali_41,2021.2.3,Win32,59.17159763,0.8846,,,96,0,96,0,1,,,,,,,,
,,"[""diamond"",""red"",""hori"",""left"",[0,150],[150,0]]",diamond,red,hori,left,"[0,150]","[150,0]",left,1,,,,,,001,2025-03-11_18h43.31.040,SL_sali_41,2021.2.3,Win32,59.17159763,0.9512,,,97,0,97,0,1,,,,,,,,
,,"[""circle"",""green"",""hori"",""left"",[106,-106],[0,150]]",circle,green,hori,left,"[106,-106]","[0,150]",up,0,,,,,,001,2025-03-11_18h43.31.040,SL_sali_41,2021.2.3,Win32,59.17159763,0.8346,,,98,0,98,0,1,,,,,,,,
,,"[""diamond"",""no_dis"",""hori"",""left"",[99999,99999],[150,0]]",diamond,no_dis,hori,left,"[99999,99999]","[150,0]",left,1,,,,,,001,2025-03-11_18h43.31.040,SL_sali_41,2021.2.3,Win32,59.17159763,0.7851,,,99,0,99,0,1,,,,,,,,
,,"[""diamond"",""green"",""vert"",""up"",[-150,0],[150,0]]",diamond,green,vert,up,"[-150,0]","[150,0]",up,1,,,,,,001,2025-03-11_18h43.31.040,SL_sali_41,2021.2.3,Win32,59.17159763,1.0012,,,100,0,100,0,1,,,,,,,,
,,"[""diamond"",""green"",""hori"",""left"",[0,-150],[0,150]]",diamond,green,hori,left,"[0,-150]","[0,150]",left,1,,,,,,001,2025-03-11_18h43.31.040,SL_sali_41,2021.2.3,Win32,59.17159763,1.4015,,,101,0,101,0,1,,,,,,,,
,,"[""circle"",""green"",""hori"",""left"",[-106,106],[150,0]]",circle,green,hori,left,"[-106,106]","[150,0]",left,1,,,,,,001,2025-03-11_18h43.31.040,SL_sali_41,2021.2.3,Win32,59.17159763,0.7844,,,102,0,102,0,1,,,,,,,,
,,"[""circle"",""green"",""vert"",""up"",[-150,0],[-106,-106]]",circle,green,vert,up,"[-150,0]","[-106,-106]",up,1,,,,,,001,2025-03-11_18h43.31.040,SL_sali_41,2021.2.3,Win32,59.17159763,1.0005,,,103,0,103,0,1,,,,,,,,
,,"[""circle"",""green"",""hori"",""left"",[-106,106],[0,150]]",circle,green,hori,left,"[-106,106]","[0,150]",left,1,,,,,,001,2025-03-11_18h43.31.040,SL_sali_41,2021.2.3,Win32,59.17159763,0.951,,,104,0,104,0,1,,,,,,,,
,,"[""diamond"",""green"",""vert"",""up"",[106,106],[-106,106]]",diamond,green,vert,up,"[106,106]","[-106,106]",up,1,,,,,,001,2025-03-11_18h43.31.040,SL_sali_41,2021.2.3,Win32,59.17159763,1.6015,,,105,0,105,0,1,,,,,,,,
,,"[""diamond"",""green"",""vert"",""up"",[150,0],[106,-106]]",diamond,green,vert,up,"[150,0]","[106,-106]",up,1,,,,,,001,2025-03-11_18h43.31.040,SL_sali_41,2021.2.3,Win32,59.17159763,1.9847,,,106,0,106,0,1,,,,,,,,
,,"[""diamond"",""green"",""hori"",""left"",[-150,0],[106,-106]]",diamond,green,hori,left,"[-150,0]","[106,-106]",left,1,,,,,,001,2025-03-11_18h43.31.040,SL_sali_41,2021.2.3,Win32,59.17159763,1.0675,,,107,0,107,0,1,,,,,,,,
,,"[""diamond"",""green"",""vert"",""up"",[150,0],[-106,106]]",diamond,green,vert,up,"[150,0]","[-106,106]",up,1,,,,,,001,2025-03-11_18h43.31.040,SL_sali_41,2021.2.3,Win32,59.17159763,0.8008,,,108,0,108,0,1,,,,,,,,
,,"[""circle"",""green"",""vert"",""up"",[150,0],[106,106]]",circle,green,vert,up,"[150,0]","[106,106]",up,1,,,,,,001,2025-03-11_18h43.31.040,SL_sali_41,2021.2.3,Win32,59.17159763,1.4514,,,109,0,109,0,1,,,,,,,,
,,"[""circle"",""no_dis"",""hori"",""left"",[99999,99999],[0,150]]",circle,no_dis,hori,left,"[99999,99999]","[0,150]",left,1,,,,,,001,2025-03-11_18h43.31.040,SL_sali_41,2021.2.3,Win32,59.17159763,1.4676,,,110,0,110,0,1,,,,,,,,
,,"[""circle"",""green"",""vert"",""up"",[106,106],[-106,-106]]",circle,green,vert,up,"[106,106]","[-106,-106]",up,1,,,,,,001,2025-03-11_18h43.31.040,SL_sali_41,2021.2.3,Win32,59.17159763,0.7515,,,111,0,111,0,1,,,,,,,,
,,"[""diamond"",""green"",""vert"",""up"",[150,0],[0,-150]]",diamond,green,vert,up,"[150,0]","[0,-150]",left,0,,,,,,001,2025-03-11_18h43.31.040,SL_sali_41,2021.2.3,Win32,59.17159763,1.3511,,,112,0,112,0,1,,,,,,,,
,,"[""diamond"",""green"",""vert"",""up"",[150,0],[-106,106]]",diamond,green,vert,up,"[150,0]","[-106,106]",up,1,,,,,,001,2025-03-11_18h43.31.040,SL_sali_41,2021.2.3,Win32,59.17159763,0.7844,,,113,0,113,0,1,,,,,,,,
,,"[""diamond"",""red"",""vert"",""up"",[-106,106],[0,150]]",diamond,red,vert,up,"[-106,106]","[0,150]",up,1,,,,,,001,2025-03-11_18h43.31.040,SL_sali_41,2021.2.3,Win32,59.17159763,1.051,,,114,0,114,0,1,,,,,,,,
,,"[""diamond"",""red"",""vert"",""up"",[150,0],[0,150]]",diamond,red,vert,up,"[150,0]","[0,150]",up,1,,,,,,001,2025-03-11_18h43.31.040,SL_sali_41,2021.2.3,Win32,59.17159763,2.0179,,,115,0,115,0,1,,,,,,,,
,,"[""diamond"",""red"",""hori"",""left"",[106,106],[0,-150]]",diamond,red,hori,left,"[106,106]","[0,-150]",up,0,,,,,,001,2025-03-11_18h43.31.040,SL_sali_41,2021.2.3,Win32,59.17159763,2.1533,,,116,0,116,0,1,,,,,,,,
,,"[""diamond"",""red"",""vert"",""up"",[0,-150],[150,0]]",diamond,red,vert,up,"[0,-150]","[150,0]",up,1,,,,,,001,2025-03-11_18h43.31.040,SL_sali_41,2021.2.3,Win32,59.17159763,1.0348,,,117,0,117,0,1,,,,,,,,
,,"[""circle"",""green"",""vert"",""up"",[0,-150],[106,-106]]",circle,green,vert,up,"[0,-150]","[106,-106]",up,1,,,,,,001,2025-03-11_18h43.31.040,SL_sali_41,2021.2.3,Win32,59.17159763,1.0009,,,118,0,118,0,1,,,,,,,,
,,"[""circle"",""no_dis"",""vert"",""up"",[99999,99999],[0,-150]]",circle,no_dis,vert,up,"[99999,99999]","[0,-150]",left,0,,,,,,001,2025-03-11_18h43.31.040,SL_sali_41,2021.2.3,Win32,59.17159763,1.2009,,,119,0,119,0,1,,,,,,,,
,,"[""diamond"",""green"",""vert"",""up"",[150,0],[0,-150]]",diamond,green,vert,up,"[150,0]","[0,-150]",up,1,,,,,,001,2025-03-11_18h43.31.040,SL_sali_41,2021.2.3,Win32,59.17159763,0.985,,,120,0,120,0,1,,,,,,,,
,,"[""diamond"",""red"",""vert"",""up"",[150,0],[-106,-106]]",diamond,red,vert,up,"[150,0]","[-106,-106]",up,1,,,,,,001,2025-03-11_18h43.31.040,SL_sali_41,2021.2.3,Win32,59.17159763,0.8994,,,121,0,121,0,1,,,,,,,,
,,"[""diamond"",""red"",""vert"",""up"",[150,0],[-106,106]]",diamond,red,vert,up,"[150,0]","[-106,106]",up,1,,,,,,001,2025-03-11_18h43.31.040,SL_sali_41,2021.2.3,Win32,59.17159763,0.9011,,,122,0,122,0,1,,,,,,,,
,,"[""circle"",""no_dis"",""vert"",""up"",[99999,99999],[106,-106]]",circle,no_dis,vert,up,"[99999,99999]","[106,-106]",up,1,,,,,,001,2025-03-11_18h43.31.040,SL_sali_41,2021.2.3,Win32,59.17159763,1.3186,,,123,0,123,0,1,,,,,,,,
,,"[""diamond"",""green"",""hori"",""left"",[-150,0],[0,150]]",diamond,green,hori,left,"[-150,0]","[0,150]",left,1,,,,,,001,2025-03-11_18h43.31.040,SL_sali_41,2021.2.3,Win32,59.17159763,1.0181,,,124,0,124,0,1,,,,,,,,
,,"[""circle"",""no_dis"",""hori"",""left"",[99999,99999],[106,106]]",circle,no_dis,hori,left,"[99999,99999]","[106,106]",left,1,,,,,,001,2025-03-11_18h43.31.040,SL_sali_41,2021.2.3,Win32,59.17159763,2.1516,,,125,0,125,0,1,,,,,,,,
,,"[""diamond"",""no_dis"",""hori"",""left"",[99999,99999],[106,-106]]",diamond,no_dis,hori,left,"[99999,99999]","[106,-106]",left,1,,,,,,001,2025-03-11_18h43.31.040,SL_sali_41,2021.2.3,Win32,59.17159763,1.2014,,,126,0,126,0,1,,,,,,,,
,,"[""diamond"",""no_dis"",""hori"",""left"",[99999,99999],[-106,106]]",diamond,no_dis,hori,left,"[99999,99999]","[-106,106]",left,1,,,,,,001,2025-03-11_18h43.31.040,SL_sali_41,2021.2.3,Win32,59.17159763,1.3014,,,127,0,127,0,1,,,,,,,,
,,,,,,,,,,,,,,,,001,2025-03-11_18h43.31.040,SL_sali_41,2021.2.3,Win32,59.17159763,,,,,,,,,1,space,240.6096,0,0,0,0,1
,,"[""circle"",""green"",""vert"",""up"",[150,0],[106,106]]",circle,green,vert,up,"[150,0]","[106,106]",up,1,,,,,,001,2025-03-11_18h43.31.040,SL_sali_41,2021.2.3,Win32,59.17159763,1.1516,,,0,0,0,0,1,,,,,,,,
,,"[""circle"",""no_dis"",""hori"",""left"",[99999,99999],[0,150]]",circle,no_dis,hori,left,"[99999,99999]","[0,150]",left,1,,,,,,001,2025-03-11_18h43.31.040,SL_sali_41,2021.2.3,Win32,59.17159763,1.4677,,,1,0,1,0,1,,,,,,,,
,,"[""diamond"",""red"",""hori"",""left"",[-106,-106],[-150,0]]",diamond,red,hori,left,"[-106,-106]","[-150,0]",left,1,,,,,,001,2025-03-11_18h43.31.040,SL_sali_41,2021.2.3,Win32,59.17159763,2.4522,,,2,0,2,0,1,,,,,,,,
,,"[""diamond"",""green"",""hori"",""left"",[150,0],[-106,106]]",diamond,green,hori,left,"[150,0]","[-106,106]",left,1,,,,,,001,2025-03-11_18h43.31.040,SL_sali_41,2021.2.3,Win32,59.17159763,1.1892,,,3,0,3,0,1,,,,,,,,
,,"[""circle"",""red"",""vert"",""up"",[106,-106],[-150,0]]",circle,red,vert,up,"[106,-106]","[-150,0]",up,1,,,,,,001,2025-03-11_18h43.31.040,SL_sali_41,2021.2.3,Win32,59.17159763,0.9224,,,4,0,4,0,1,,,,,,,,
,,"[""circle"",""no_dis"",""vert"",""up"",[99999,99999],[0,-150]]",circle,no_dis,vert,up,"[99999,99999]","[0,-150]",up,1,,,,,,001,2025-03-11_18h43.31.040,SL_sali_41,2021.2.3,Win32,59.17159763,0.8123,,,5,0,5,0,1,,,,,,,,
,,"[""diamond"",""red"",""vert"",""up"",[150,0],[106,106]]",diamond,red,vert,up,"[150,0]","[106,106]",up,1,,,,,,001,2025-03-11_18h43.31.040,SL_sali_41,2021.2.3,Win32,59.17159763,1.1839,,,6,0,6,0,1,,,,,,,,
,,"[""diamond"",""no_dis"",""hori"",""left"",[99999,99999],[-106,106]]",diamond,no_dis,hori,left,"[99999,99999]","[-106,106]",left,1,,,,,,001,2025-03-11_18h43.31.040,SL_sali_41,2021.2.3,Win32,59.17159763,0.8384,,,7,0,7,0,1,,,,,,,,
,,"[""diamond"",""no_dis"",""hori"",""left"",[99999,99999],[-106,-106]]",diamond,no_dis,hori,left,"[99999,99999]","[-106,-106]",left,1,,,,,,001,2025-03-11_18h43.31.040,SL_sali_41,2021.2.3,Win32,59.17159763,0.8197,,,8,0,8,0,1,,,,,,,,
,,"[""diamond"",""no_dis"",""vert"",""up"",[99999,99999],[-106,-106]]",diamond,no_dis,vert,up,"[99999,99999]","[-106,-106]",up,1,,,,,,001,2025-03-11_18h43.31.040,SL_sali_41,2021.2.3,Win32,59.17159763,1.7873,,,9,0,9,0,1,,,,,,,,
,,"[""diamond"",""green"",""hori"",""left"",[0,150],[150,0]]",diamond,green,hori,left,"[0,150]","[150,0]",up,0,,,,,,001,2025-03-11_18h43.31.040,SL_sali_41,2021.2.3,Win32,59.17159763,1.244,,,10,0,10,0,1,,,,,,,,
,,"[""diamond"",""green"",""vert"",""up"",[150,0],[0,-150]]",diamond,green,vert,up,"[150,0]","[0,-150]",up,1,,,,,,001,2025-03-11_18h43.31.040,SL_sali_41,2021.2.3,Win32,59.17159763,1.0549,,,11,0,11,0,1,,,,,,,,
,,"[""circle"",""red"",""vert"",""up"",[150,0],[106,-106]]",circle,red,vert,up,"[150,0]","[106,-106]",up,1,,,,,,001,2025-03-11_18h43.31.040,SL_sali_41,2021.2.3,Win32,59.17159763,1.1529,,,12,0,12,0,1,,,,,,,,
,,"[""circle"",""green"",""hori"",""left"",[-106,106],[150,0]]",circle,green,hori,left,"[-106,106]","[150,0]",left,1,,,,,,001,2025-03-11_18h43.31.040,SL_sali_41,2021.2.3,Win32,59.17159763,0.8488,,,13,0,13,0,1,,,,,,,,
,,"[""diamond"",""green"",""vert"",""up"",[150,0],[106,-106]]",diamond,green,vert,up,"[150,0]","[106,-106]",up,1,,,,,,001,2025-03-11_18h43.31.040,SL_sali_41,2021.2.3,Win32,59.17159763,1.41,,,14,0,14,0,1,,,,,,,,
,,"[""diamond"",""red"",""hori"",""left"",[106,106],[0,-150]]",diamond,red,hori,left,"[106,106]","[0,-150]",left,1,,,,,,001,2025-03-11_18h43.31.040,SL_sali_41,2021.2.3,Win32,59.17159763,1.1508,,,15,0,15,0,1,,,,,,,,
,,"[""circle"",""red"",""hori"",""left"",[-106,-106],[0,-150]]",circle,red,hori,left,"[-106,-106]","[0,-150]",left,1,,,,,,001,2025-03-11_18h43.31.040,SL_sali_41,2021.2.3,Win32,59.17159763,0.8527,,,16,0,16,0,1,,,,,,,,
,,"[""circle"",""no_dis"",""hori"",""left"",[99999,99999],[150,0]]",circle,no_dis,hori,left,"[99999,99999]","[150,0]",left,1,,,,,,001,2025-03-11_18h43.31.040,SL_sali_41,2021.2.3,Win32,59.17159763,0.7547,,,17,0,17,0,1,,,,,,,,
,,"[""diamond"",""green"",""hori"",""left"",[0,-150],[0,150]]",diamond,green,hori,left,"[0,-150]","[0,150]",left,1,,,,,,001,2025-03-11_18h43.31.040,SL_sali_41,2021.2.3,Win32,59.17159763,1.5478,,,18,0,18,0,1,,,,,,,,
,,"[""diamond"",""red"",""hori"",""left"",[150,0],[106,-106]]",diamond,red,hori,left,"[150,0]","[106,-106]",left,1,,,,,,001,2025-03-11_18h43.31.040,SL_sali_41,2021.2.3,Win32,59.17159763,1.3794,,,19,0,19,0,1,,,,,,,,
,,"[""circle"",""green"",""hori"",""left"",[-106,106],[106,106]]",circle,green,hori,left,"[-106,106]","[106,106]",left,1,,,,,,001,2025-03-11_18h43.31.040,SL_sali_41,2021.2.3,Win32,59.17159763,1.1401,,,20,0,20,0,1,,,,,,,,
,,"[""diamond"",""no_dis"",""vert"",""up"",[99999,99999],[106,106]]",diamond,no_dis,vert,up,"[99999,99999]","[106,106]",up,1,,,,,,001,2025-03-11_18h43.31.040,SL_sali_41,2021.2.3,Win32,59.17159763,1.0956,,,21,0,21,0,1,,,,,,,,
,,"[""circle"",""red"",""vert"",""up"",[-106,106],[150,0]]",circle,red,vert,up,"[-106,106]","[150,0]",up,1,,,,,,001,2025-03-11_18h43.31.040,SL_sali_41,2021.2.3,Win32,59.17159763,0.8959,,,22,0,22,0,1,,,,,,,,
,,"[""diamond"",""no_dis"",""hori"",""left"",[99999,99999],[-106,106]]",diamond,no_dis,hori,left,"[99999,99999]","[-106,106]",left,1,,,,,,001,2025-03-11_18h43.31.040,SL_sali_41,2021.2.3,Win32,59.17159763,0.7619,,,23,0,23,0,1,,,,,,,,
,,"[""circle"",""green"",""hori"",""left"",[150,0],[-106,-106]]",circle,green,hori,left,"[150,0]","[-106,-106]",left,1,,,,,,001,2025-03-11_18h43.31.040,SL_sali_41,2021.2.3,Win32,59.17159763,0.6833,,,24,0,24,0,1,,,,,,,,
,,"[""diamond"",""red"",""hori"",""left"",[0,150],[150,0]]",diamond,red,hori,left,"[0,150]","[150,0]",left,1,,,,,,001,2025-03-11_18h43.31.040,SL_sali_41,2021.2.3,Win32,59.17159763,1.0619,,,25,0,25,0,1,,,,,,,,
,,"[""circle"",""red"",""vert"",""up"",[-150,0],[106,106]]",circle,red,vert,up,"[-150,0]","[106,106]",up,1,,,,,,001,2025-03-11_18h43.31.040,SL_sali_41,2021.2.3,Win32,59.17159763,0.6632,,,26,0,26,0,1,,,,,,,,
,,"[""diamond"",""green"",""hori"",""left"",[106,-106],[-150,0]]",diamond,green,hori,left,"[106,-106]","[-150,0]",left,1,,,,,,001,2025-03-11_18h43.31.040,SL_sali_41,2021.2.3,Win32,59.17159763,1.966,,,27,0,27,0,1,,,,,,,,
,,"[""circle"",""green"",""hori"",""left"",[106,-106],[150,0]]",circle,green,hori,left,"[106,-106]","[150,0]",left,1,,,,,,001,2025-03-11_18h43.31.040,SL_sali_41,2021.2.3,Win32,59.17159763,1.5165,,,28,0,28,0,1,,,,,,,,
,,"[""circle"",""red"",""vert"",""up"",[106,106],[106,-106]]",circle,red,vert,up,"[106,106]","[106,-106]",up,1,,,,,,001,2025-03-11_18h43.31.040,SL_sali_41,2021.2.3,Win32,59.17159763,1.0665,,,29,0,29,0,1,,,,,,,,
,,"[""diamond"",""red"",""vert"",""up"",[150,0],[0,150]]",diamond,red,vert,up,"[150,0]","[0,150]",up,1,,,,,,001,2025-03-11_18h43.31.040,SL_sali_41,2021.2.3,Win32,59.17159763,1.2422,,,30,0,30,0,1,,,,,,,,
,,"[""circle"",""green"",""vert"",""up"",[106,106],[-106,-106]]",circle,green,vert,up,"[106,106]","[-106,-106]",up,1,,,,,,001,2025-03-11_18h43.31.040,SL_sali_41,2021.2.3,Win32,59.17159763,0.7699,,,31,0,31,0,1,,,,,,,,
,,"[""circle"",""green"",""hori"",""left"",[-106,-106],[106,106]]",circle,green,hori,left,"[-106,-106]","[106,106]",left,1,,,,,,001,2025-03-11_18h43.31.040,SL_sali_41,2021.2.3,Win32,59.17159763,0.6819,,,32,0,32,0,1,,,,,,,,
,,"[""circle"",""no_dis"",""vert"",""up"",[99999,99999],[106,-106]]",circle,no_dis,vert,up,"[99999,99999]","[106,-106]",up,1,,,,,,001,2025-03-11_18h43.31.040,SL_sali_41,2021.2.3,Win32,59.17159763,0.7301,,,33,0,33,0,1,,,,,,,,
,,"[""circle"",""red"",""vert"",""up"",[-150,0],[-106,106]]",circle,red,vert,up,"[-150,0]","[-106,106]",up,1,,,,,,001,2025-03-11_18h43.31.040,SL_sali_41,2021.2.3,Win32,59.17159763,0.8336,,,34,0,34,0,1,,,,,,,,
,,"[""diamond"",""red"",""vert"",""up"",[150,0],[-106,106]]",diamond,red,vert,up,"[150,0]","[-106,106]",up,1,,,,,,001,2025-03-11_18h43.31.040,SL_sali_41,2021.2.3,Win32,59.17159763,1.0854,,,35,0,35,0,1,,,,,,,,
,,"[""diamond"",""green"",""vert"",""up"",[150,0],[106,-106]]",diamond,green,vert,up,"[150,0]","[106,-106]",up,1,,,,,,001,2025-03-11_18h43.31.040,SL_sali_41,2021.2.3,Win32,59.17159763,1.5903,,,36,0,36,0,1,,,,,,,,
,,"[""circle"",""green"",""hori"",""left"",[150,0],[-106,106]]",circle,green,hori,left,"[150,0]","[-106,106]",left,1,,,,,,001,2025-03-11_18h43.31.040,SL_sali_41,2021.2.3,Win32,59.17159763,0.6628,,,37,0,37,0,1,,,,,,,,
,,"[""diamond"",""red"",""vert"",""up"",[-106,106],[0,150]]",diamond,red,vert,up,"[-106,106]","[0,150]",up,1,,,,,,001,2025-03-11_18h43.31.040,SL_sali_41,2021.2.3,Win32,59.17159763,1.9429,,,38,0,38,0,1,,,,,,,,
,,"[""diamond"",""green"",""vert"",""up"",[0,-150],[106,-106]]",diamond,green,vert,up,"[0,-150]","[106,-106]",up,1,,,,,,001,2025-03-11_18h43.31.040,SL_sali_41,2021.2.3,Win32,59.17159763,1.0626,,,39,0,39,0,1,,,,,,,,
,,"[""circle"",""green"",""vert"",""up"",[150,0],[-150,0]]",circle,green,vert,up,"[150,0]","[-150,0]",up,1,,,,,,001,2025-03-11_18h43.31.040,SL_sali_41,2021.2.3,Win32,59.17159763,0.767,,,40,0,40,0,1,,,,,,,,
,,"[""diamond"",""green"",""vert"",""up"",[150,0],[-106,106]]",diamond,green,vert,up,"[150,0]","[-106,106]",up,1,,,,,,001,2025-03-11_18h43.31.040,SL_sali_41,2021.2.3,Win32,59.17159763,0.6289,,,41,0,41,0,1,,,,,,,,
,,"[""circle"",""no_dis"",""hori"",""left"",[99999,99999],[106,106]]",circle,no_dis,hori,left,"[99999,99999]","[106,106]",left,1,,,,,,001,2025-03-11_18h43.31.040,SL_sali_41,2021.2.3,Win32,59.17159763,1.1233,,,42,0,42,0,1,,,,,,,,
,,"[""diamond"",""red"",""hori"",""left"",[150,0],[106,106]]",diamond,red,hori,left,"[150,0]","[106,106]",left,1,,,,,,001,2025-03-11_18h43.31.040,SL_sali_41,2021.2.3,Win32,59.17159763,1.008,,,43,0,43,0,1,,,,,,,,
,,"[""circle"",""red"",""vert"",""up"",[-106,-106],[0,-150]]",circle,red,vert,up,"[-106,-106]","[0,-150]",up,1,,,,,,001,2025-03-11_18h43.31.040,SL_sali_41,2021.2.3,Win32,59.17159763,1.2447,,,44,0,44,0,1,,,,,,,,
,,"[""diamond"",""green"",""vert"",""up"",[-150,0],[150,0]]",diamond,green,vert,up,"[-150,0]","[150,0]",left,0,,,,,,001,2025-03-11_18h43.31.040,SL_sali_41,2021.2.3,Win32,59.17159763,0.6669,,,45,0,45,0,1,,,,,,,,
,,"[""circle"",""red"",""hori"",""left"",[106,106],[-150,0]]",circle,red,hori,left,"[106,106]","[-150,0]",left,1,,,,,,001,2025-03-11_18h43.31.040,SL_sali_41,2021.2.3,Win32,59.17159763,0.8264,,,46,0,46,0,1,,,,,,,,
,,"[""diamond"",""green"",""hori"",""left"",[0,150],[150,0]]",diamond,green,hori,left,"[0,150]","[150,0]",left,1,,,,,,001,2025-03-11_18h43.31.040,SL_sali_41,2021.2.3,Win32,59.17159763,1.1466,,,47,0,47,0,1,,,,,,,,
,,"[""circle"",""green"",""hori"",""left"",[-106,106],[0,150]]",circle,green,hori,left,"[-106,106]","[0,150]",left,1,,,,,,001,2025-03-11_18h43.31.040,SL_sali_41,2021.2.3,Win32,59.17159763,1.1794,,,48,0,48,0,1,,,,,,,,
,,"[""diamond"",""red"",""vert"",""up"",[106,-106],[-106,106]]",diamond,red,vert,up,"[106,-106]","[-106,106]",up,1,,,,,,001,2025-03-11_18h43.31.040,SL_sali_41,2021.2.3,Win32,59.17159763,0.8677,,,49,0,49,0,1,,,,,,,,
,,"[""diamond"",""no_dis"",""hori"",""left"",[99999,99999],[106,-106]]",diamond,no_dis,hori,left,"[99999,99999]","[106,-106]",left,1,,,,,,001,2025-03-11_18h43.31.040,SL_sali_41,2021.2.3,Win32,59.17159763,1.115,,,50,0,50,0,1,,,,,,,,
,,"[""circle"",""no_dis"",""hori"",""left"",[99999,99999],[-106,106]]",circle,no_dis,hori,left,"[99999,99999]","[-106,106]",left,1,,,,,,001,2025-03-11_18h43.31.040,SL_sali_41,2021.2.3,Win32,59.17159763,0.6958,,,51,0,51,0,1,,,,,,,,
,,"[""circle"",""no_dis"",""vert"",""up"",[99999,99999],[150,0]]",circle,no_dis,vert,up,"[99999,99999]","[150,0]",up,1,,,,,,001,2025-03-11_18h43.31.040,SL_sali_41,2021.2.3,Win32,59.17159763,0.6666,,,52,0,52,0,1,,,,,,,,
,,"[""circle"",""no_dis"",""hori"",""left"",[99999,99999],[-150,0]]",circle,no_dis,hori,left,"[99999,99999]","[-150,0]",left,1,,,,,,001,2025-03-11_18h43.31.040,SL_sali_41,2021.2.3,Win32,59.17159763,0.7872,,,53,0,53,0,1,,,,,,,,
,,"[""diamond"",""green"",""vert"",""up"",[106,106],[-106,106]]",diamond,green,vert,up,"[106,106]","[-106,106]",up,1,,,,,,001,2025-03-11_18h43.31.040,SL_sali_41,2021.2.3,Win32,59.17159763,1.4581,,,54,0,54,0,1,,,,,,,,
,,"[""circle"",""red"",""hori"",""left"",[106,106],[-106,-106]]",circle,red,hori,left,"[106,106]","[-106,-106]",left,1,,,,,,001,2025-03-11_18h43.31.040,SL_sali_41,2021.2.3,Win32,59.17159763,1.1623,,,55,0,55,0,1,,,,,,,,
,,"[""circle"",""no_dis"",""hori"",""left"",[99999,99999],[-150,0]]",circle,no_dis,hori,left,"[99999,99999]","[-150,0]",left,1,,,,,,001,2025-03-11_18h43.31.040,SL_sali_41,2021.2.3,Win32,59.17159763,0.7662,,,56,0,56,0,1,,,,,,,,
,,"[""circle"",""red"",""vert"",""up"",[0,150],[106,-106]]",circle,red,vert,up,"[0,150]","[106,-106]",up,1,,,,,,001,2025-03-11_18h43.31.040,SL_sali_41,2021.2.3,Win32,59.17159763,1.0379,,,57,0,57,0,1,,,,,,,,
,,"[""diamond"",""red"",""hori"",""left"",[-106,-106],[-150,0]]",diamond,red,hori,left,"[-106,-106]","[-150,0]",left,1,,,,,,001,2025-03-11_18h43.31.040,SL_sali_41,2021.2.3,Win32,59.17159763,1.1675,,,58,0,58,0,1,,,,,,,,
,,"[""diamond"",""red"",""vert"",""up"",[0,-150],[150,0]]",diamond,red,vert,up,"[0,-150]","[150,0]",up,1,,,,,,001,2025-03-11_18h43.31.040,SL_sali_41,2021.2.3,Win32,59.17159763,0.9561,,,59,0,59,0,1,,,,,,,,
,,"[""circle"",""red"",""hori"",""left"",[150,0],[0,-150]]",circle,red,hori,left,"[150,0]","[0,-150]",up,0,,,,,,001,2025-03-11_18h43.31.040,SL_sali_41,2021.2.3,Win32,59.17159763,1.9442,,,60,0,60,0,1,,,,,,,,
,,"[""circle"",""green"",""vert"",""up"",[-150,0],[-106,-106]]",circle,green,vert,up,"[-150,0]","[-106,-106]",up,1,,,,,,001,2025-03-11_18h43.31.040,SL_sali_41,2021.2.3,Win32,59.17159763,1.5893,,,61,0,61,0,1,,,,,,,,
,,"[""circle"",""green"",""vert"",""up"",[106,-106],[106,106]]",circle,green,vert,up,"[106,-106]","[106,106]",up,1,,,,,,001,2025-03-11_18h43.31.040,SL_sali_41,2021.2.3,Win32,59.17159763,1.1826,,,62,0,62,0,1,,,,,,,,
,,"[""diamond"",""green"",""hori"",""left"",[-106,106],[0,150]]",diamond,green,hori,left,"[-106,106]","[0,150]",left,1,,,,,,001,2025-03-11_18h43.31.040,SL_sali_41,2021.2.3,Win32,59.17159763,1.5147,,,63,0,63,0,1,,,,,,,,
,,"[""diamond"",""red"",""hori"",""left"",[106,106],[150,0]]",diamond,red,hori,left,"[106,106]","[150,0]",left,1,,,,,,001,2025-03-11_18h43.31.040,SL_sali_41,2021.2.3,Win32,59.17159763,1.4747,,,64,0,64,0,1,,,,,,,,
,,"[""circle"",""no_dis"",""hori"",""left"",[99999,99999],[106,106]]",circle,no_dis,hori,left,"[99999,99999]","[106,106]",left,1,,,,,,001,2025-03-11_18h43.31.040,SL_sali_41,2021.2.3,Win32,59.17159763,1.4306,,,65,0,65,0,1,,,,,,,,
,,"[""diamond"",""green"",""vert"",""up"",[150,0],[-106,106]]",diamond,green,vert,up,"[150,0]","[-106,106]",up,1,,,,,,001,2025-03-11_18h43.31.040,SL_sali_41,2021.2.3,Win32,59.17159763,0.7781,,,66,0,66,0,1,,,,,,,,
,,"[""circle"",""no_dis"",""vert"",""up"",[99999,99999],[0,150]]",circle,no_dis,vert,up,"[99999,99999]","[0,150]",up,1,,,,,,001,2025-03-11_18h43.31.040,SL_sali_41,2021.2.3,Win32,59.17159763,1.2644,,,67,0,67,0,1,,,,,,,,
,,"[""circle"",""green"",""vert"",""up"",[150,0],[0,150]]",circle,green,vert,up,"[150,0]","[0,150]",up,1,,,,,,001,2025-03-11_18h43.31.040,SL_sali_41,2021.2.3,Win32,59.17159763,0.9459,,,68,0,68,0,1,,,,,,,,
,,"[""diamond"",""red"",""vert"",""up"",[150,0],[0,-150]]",diamond,red,vert,up,"[150,0]","[0,-150]",left,0,,,,,,001,2025-03-11_18h43.31.040,SL_sali_41,2021.2.3,Win32,59.17159763,1.5343,,,69,0,69,0,1,,,,,,,,
,,"[""diamond"",""no_dis"",""vert"",""up"",[99999,99999],[150,0]]",diamond,no_dis,vert,up,"[99999,99999]","[150,0]",up,1,,,,,,001,2025-03-11_18h43.31.040,SL_sali_41,2021.2.3,Win32,59.17159763,2.0173,,,70,0,70,0,1,,,,,,,,
,,"[""diamond"",""green"",""hori"",""left"",[-150,0],[0,150]]",diamond,green,hori,left,"[-150,0]","[0,150]",left,1,,,,,,001,2025-03-11_18h43.31.040,SL_sali_41,2021.2.3,Win32,59.17159763,1.7007,,,71,0,71,0,1,,,,,,,,
,,"[""circle"",""no_dis"",""vert"",""up"",[99999,99999],[-106,-106]]",circle,no_dis,vert,up,"[99999,99999]","[-106,-106]",up,1,,,,,,001,2025-03-11_18h43.31.040,SL_sali_41,2021.2.3,Win32,59.17159763,0.8337,,,72,0,72,0,1,,,,,,,,
,,"[""circle"",""green"",""vert"",""up"",[-106,-106],[150,0]]",circle,green,vert,up,"[-106,-106]","[150,0]",up,1,,,,,,001,2025-03-11_18h43.31.040,SL_sali_41,2021.2.3,Win32,59.17159763,1.3344,,,73,0,73,0,1,,,,,,,,
,,"[""diamond"",""no_dis"",""vert"",""up"",[99999,99999],[-150,0]]",diamond,no_dis,vert,up,"[99999,99999]","[-150,0]",up,1,,,,,,001,2025-03-11_18h43.31.040,SL_sali_41,2021.2.3,Win32,59.17159763,1.4013,,,74,0,74,0,1,,,,,,,,
,,"[""circle"",""no_dis"",""hori"",""left"",[99999,99999],[-150,0]]",circle,no_dis,hori,left,"[99999,99999]","[-150,0]",left,1,,,,,,001,2025-03-11_18h43.31.040,SL_sali_41,2021.2.3,Win32,59.17159763,1.8696,,,75,0,75,0,1,,,,,,,,
,,"[""diamond"",""no_dis"",""hori"",""left"",[99999,99999],[106,106]]",diamond,no_dis,hori,left,"[99999,99999]","[106,106]",left,1,,,,,,001,2025-03-11_18h43.31.040,SL_sali_41,2021.2.3,Win32,59.17159763,2.3848,,,76,0,76,0,1,,,,,,,,
,,"[""diamond"",""red"",""hori"",""left"",[0,-150],[106,106]]",diamond,red,hori,left,"[0,-150]","[106,106]",left,1,,,,,,001,2025-03-11_18h43.31.040,SL_sali_41,2021.2.3,Win32,59.17159763,1.4347,,,77,0,77,0,1,,,,,,,,
,,"[""circle"",""red"",""hori"",""left"",[150,0],[-106,-106]]",circle,red,hori,left,"[150,0]","[-106,-106]",left,1,,,,,,001,2025-03-11_18h43.31.040,SL_sali_41,2021.2.3,Win32,59.17159763,1.0508,,,78,0,78,0,1,,,,,,,,
,,"[""diamond"",""red"",""hori"",""left"",[-106,106],[-150,0]]",diamond,red,hori,left,"[-106,106]","[-150,0]",left,1,,,,,,001,2025-03-11_18h43.31.040,SL_sali_41,2021.2.3,Win32,59.17159763,1.3014,,,79,0,79,0,1,,,,,,,,
,,"[""circle"",""no_dis"",""vert"",""up"",[99999,99999],[-106,106]]",circle,no_dis,vert,up,"[99999,99999]","[-106,106]",up,1,,,,,,001,2025-03-11_18h43.31.040,SL_sali_41,2021.2.3,Win32,59.17159763,0.8844,,,80,0,80,0,1,,,,,,,,
,,"[""diamond"",""green"",""hori"",""left"",[-150,0],[106,-106]]",diamond,green,hori,left,"[-150,0]","[106,-106]",left,1,,,,,,001,2025-03-11_18h43.31.040,SL_sali_41,2021.2.3,Win32,59.17159763,1.1509,,,81,0,81,0,1,,,,,,,,
,,"[""diamond"",""green"",""hori"",""left"",[106,-106],[0,-150]]",diamond,green,hori,left,"[106,-106]","[0,-150]",left,1,,,,,,001,2025-03-11_18h43.31.040,SL_sali_41,2021.2.3,Win32,59.17159763,1.2344,,,82,0,82,0,1,,,,,,,,
,,"[""diamond"",""red"",""vert"",""up"",[150,0],[106,-106]]",diamond,red,vert,up,"[150,0]","[106,-106]",up,1,,,,,,001,2025-03-11_18h43.31.040,SL_sali_41,2021.2.3,Win32,59.17159763,1.1512,,,83,0,83,0,1,,,,,,,,
,,"[""diamond"",""no_dis"",""vert"",""up"",[99999,99999],[-106,106]]",diamond,no_dis,vert,up,"[99999,99999]","[-106,106]",up,1,,,,,,001,2025-03-11_18h43.31.040,SL_sali_41,2021.2.3,Win32,59.17159763,0.7343,,,84,0,84,0,1,,,,,,,,
,,"[""circle"",""red"",""vert"",""up"",[0,-150],[106,106]]",circle,red,vert,up,"[0,-150]","[106,106]",left,0,,,,,,001,2025-03-11_18h43.31.040,SL_sali_41,2021.2.3,Win32,59.17159763,1.6351,,,85,0,85,0,1,,,,,,,,
,,"[""diamond"",""no_dis"",""vert"",""up"",[99999,99999],[0,150]]",diamond,no_dis,vert,up,"[99999,99999]","[0,150]",up,1,,,,,,001,2025-03-11_18h43.31.040,SL_sali_41,2021.2.3,Win32,59.17159763,0.8679,,,86,0,86,0,1,,,,,,,,
,,"[""circle"",""no_dis"",""vert"",""up"",[99999,99999],[106,-106]]",circle,no_dis,vert,up,"[99999,99999]","[106,-106]",up,1,,,,,,001,2025-03-11_18h43.31.040,SL_sali_41,2021.2.3,Win32,59.17159763,0.8504,,,87,0,87,0,1,,,,,,,,
,,"[""diamond"",""green"",""hori"",""left"",[150,0],[0,150]]",diamond,green,hori,left,"[150,0]","[0,150]",left,1,,,,,,001,2025-03-11_18h43.31.040,SL_sali_41,2021.2.3,Win32,59.17159763,1.1682,,,88,0,88,0,1,,,,,,,,
,,"[""circle"",""green"",""vert"",""up"",[150,0],[-106,106]]",circle,green,vert,up,"[150,0]","[-106,106]",up,1,,,,,,001,2025-03-11_18h43.31.040,SL_sali_41,2021.2.3,Win32,59.17159763,1.101,,,89,0,89,0,1,,,,,,,,
,,"[""diamond"",""no_dis"",""vert"",""up"",[99999,99999],[0,-150]]",diamond,no_dis,vert,up,"[99999,99999]","[0,-150]",up,1,,,,,,001,2025-03-11_18h43.31.040,SL_sali_41,2021.2.3,Win32,59.17159763,0.7342,,,90,0,90,0,1,,,,,,,,
,,"[""circle"",""no_dis"",""vert"",""up"",[99999,99999],[-106,-106]]",circle,no_dis,vert,up,"[99999,99999]","[-106,-106]",up,1,,,,,,001,2025-03-11_18h43.31.040,SL_sali_41,2021.2.3,Win32,59.17159763,1.6181,,,91,0,91,0,1,,,,,,,,
,,"[""diamond"",""no_dis"",""hori"",""left"",[99999,99999],[-106,-106]]",diamond,no_dis,hori,left,"[99999,99999]","[-106,-106]",left,1,,,,,,001,2025-03-11_18h43.31.040,SL_sali_41,2021.2.3,Win32,59.17159763,0.7512,,,92,0,92,0,1,,,,,,,,
,,"[""circle"",""green"",""hori"",""left"",[106,-106],[0,150]]",circle,green,hori,left,"[106,-106]","[0,150]",left,1,,,,,,001,2025-03-11_18h43.31.040,SL_sali_41,2021.2.3,Win32,59.17159763,0.8844,,,93,0,93,0,1,,,,,,,,
,,"[""diamond"",""red"",""vert"",""up"",[150,0],[106,-106]]",diamond,red,vert,up,"[150,0]","[106,-106]",up,1,,,,,,001,2025-03-11_18h43.31.040,SL_sali_41,2021.2.3,Win32,59.17159763,1.2344,,,94,0,94,0,1,,,,,,,,
,,"[""circle"",""red"",""vert"",""up"",[0,150],[-106,106]]",circle,red,vert,up,"[0,150]","[-106,106]",up,1,,,,,,001,2025-03-11_18h43.31.040,SL_sali_41,2021.2.3,Win32,59.17159763,0.9684,,,95,0,95,0,1,,,,,,,,
,,"[""circle"",""no_dis"",""vert"",""up"",[99999,99999],[106,-106]]",circle,no_dis,vert,up,"[99999,99999]","[106,-106]",up,1,,,,,,001,2025-03-11_18h43.31.040,SL_sali_41,2021.2.3,Win32,59.17159763,1.0183,,,96,0,96,0,1,,,,,,,,
,,"[""circle"",""green"",""vert"",""up"",[0,150],[-150,0]]",circle,green,vert,up,"[0,150]","[-150,0]",up,1,,,,,,001,2025-03-11_18h43.31.040,SL_sali_41,2021.2.3,Win32,59.17159763,1.1513,,,97,0,97,0,1,,,,,,,,
,,"[""circle"",""no_dis"",""hori"",""left"",[99999,99999],[106,106]]",circle,no_dis,hori,left,"[99999,99999]","[106,106]",left,1,,,,,,001,2025-03-11_18h43.31.040,SL_sali_41,2021.2.3,Win32,59.17159763,0.9678,,,98,0,98,0,1,,,,,,,,
,,"[""circle"",""green"",""hori"",""left"",[-106,-106],[-150,0]]",circle,green,hori,left,"[-106,-106]","[-150,0]",left,1,,,,,,001,2025-03-11_18h43.31.040,SL_sali_41,2021.2.3,Win32,59.17159763,1.235,,,99,0,99,0,1,,,,,,,,
,,"[""diamond"",""red"",""vert"",""up"",[150,0],[-106,-106]]",diamond,red,vert,up,"[150,0]","[-106,-106]",up,1,,,,,,001,2025-03-11_18h43.31.040,SL_sali_41,2021.2.3,Win32,59.17159763,1.2356,,,100,0,100,0,1,,,,,,,,
,,"[""diamond"",""no_dis"",""hori"",""left"",[99999,99999],[150,0]]",diamond,no_dis,hori,left,"[99999,99999]","[150,0]",left,1,,,,,,001,2025-03-11_18h43.31.040,SL_sali_41,2021.2.3,Win32,59.17159763,1.2341,,,101,0,101,0,1,,,,,,,,
,,"[""circle"",""red"",""hori"",""left"",[150,0],[0,-150]]",circle,red,hori,left,"[150,0]","[0,-150]",left,1,,,,,,001,2025-03-11_18h43.31.040,SL_sali_41,2021.2.3,Win32,59.17159763,0.9841,,,102,0,102,0,1,,,,,,,,
,,"[""diamond"",""green"",""vert"",""up"",[150,0],[106,-106]]",diamond,green,vert,up,"[150,0]","[106,-106]",up,1,,,,,,001,2025-03-11_18h43.31.040,SL_sali_41,2021.2.3,Win32,59.17159763,1.8685,,,103,0,103,0,1,,,,,,,,
,,"[""diamond"",""no_dis"",""vert"",""up"",[99999,99999],[0,150]]",diamond,no_dis,vert,up,"[99999,99999]","[0,150]",up,1,,,,,,001,2025-03-11_18h43.31.040,SL_sali_41,2021.2.3,Win32,59.17159763,0.8671,,,104,0,104,0,1,,,,,,,,
,,"[""circle"",""green"",""hori"",""left"",[-150,0],[106,-106]]",circle,green,hori,left,"[-150,0]","[106,-106]",left,1,,,,,,001,2025-03-11_18h43.31.040,SL_sali_41,2021.2.3,Win32,59.17159763,0.85,,,105,0,105,0,1,,,,,,,,
,,"[""circle"",""red"",""hori"",""left"",[0,150],[-106,106]]",circle,red,hori,left,"[0,150]","[-106,106]",left,1,,,,,,001,2025-03-11_18h43.31.040,SL_sali_41,2021.2.3,Win32,59.17159763,0.8855,,,106,0,106,0,1,,,,,,,,
,,"[""circle"",""red"",""hori"",""left"",[0,-150],[150,0]]",circle,red,hori,left,"[0,-150]","[150,0]",left,1,,,,,,001,2025-03-11_18h43.31.040,SL_sali_41,2021.2.3,Win32,59.17159763,0.9013,,,107,0,107,0,1,,,,,,,,
,,"[""diamond"",""no_dis"",""hori"",""left"",[99999,99999],[0,-150]]",diamond,no_dis,hori,left,"[99999,99999]","[0,-150]",left,1,,,,,,001,2025-03-11_18h43.31.040,SL_sali_41,2021.2.3,Win32,59.17159763,1.1678,,,108,0,108,0,1,,,,,,,,
,,"[""diamond"",""no_dis"",""hori"",""left"",[99999,99999],[-150,0]]",diamond,no_dis,hori,left,"[99999,99999]","[-150,0]",left,1,,,,,,001,2025-03-11_18h43.31.040,SL_sali_41,2021.2.3,Win32,59.17159763,1.0118,,,109,0,109,0,1,,,,,,,,
,,"[""diamond"",""red"",""hori"",""left"",[150,0],[106,-106]]",diamond,red,hori,left,"[150,0]","[106,-106]",left,1,,,,,,001,2025-03-11_18h43.31.040,SL_sali_41,2021.2.3,Win32,59.17159763,1.3392,,,110,0,110,0,1,,,,,,,,
,,"[""diamond"",""no_dis"",""vert"",""up"",[99999,99999],[0,150]]",diamond,no_dis,vert,up,"[99999,99999]","[0,150]",up,1,,,,,,001,2025-03-11_18h43.31.040,SL_sali_41,2021.2.3,Win32,59.17159763,1.2127,,,111,0,111,0,1,,,,,,,,
,,"[""circle"",""green"",""hori"",""left"",[0,-150],[106,-106]]",circle,green,hori,left,"[0,-150]","[106,-106]",left,1,,,,,,001,2025-03-11_18h43.31.040,SL_sali_41,2021.2.3,Win32,59.17159763,0.5816,,,112,0,112,0,1,,,,,,,,
,,"[""diamond"",""no_dis"",""hori"",""left"",[99999,99999],[0,-150]]",diamond,no_dis,hori,left,"[99999,99999]","[0,-150]",left,1,,,,,,001,2025-03-11_18h43.31.040,SL_sali_41,2021.2.3,Win32,59.17159763,0.9761,,,113,0,113,0,1,,,,,,,,
,,"[""diamond"",""green"",""vert"",""up"",[150,0],[0,-150]]",diamond,green,vert,up,"[150,0]","[0,-150]",up,1,,,,,,001,2025-03-11_18h43.31.040,SL_sali_41,2021.2.3,Win32,59.17159763,1.3628,,,114,0,114,0,1,,,,,,,,
,,"[""circle"",""no_dis"",""hori"",""left"",[99999,99999],[150,0]]",circle,no_dis,hori,left,"[99999,99999]","[150,0]",left,1,,,,,,001,2025-03-11_18h43.31.040,SL_sali_41,2021.2.3,Win32,59.17159763,1.6212,,,115,0,115,0,1,,,,,,,,
,,"[""diamond"",""red"",""vert"",""up"",[-106,106],[-150,0]]",diamond,red,vert,up,"[-106,106]","[-150,0]",up,1,,,,,,001,2025-03-11_18h43.31.040,SL_sali_41,2021.2.3,Win32,59.17159763,2.0773,,,116,0,116,0,1,,,,,,,,
,,"[""circle"",""red"",""hori"",""left"",[106,106],[106,-106]]",circle,red,hori,left,"[106,106]","[106,-106]",left,1,,,,,,001,2025-03-11_18h43.31.040,SL_sali_41,2021.2.3,Win32,59.17159763,1.7539,,,117,0,117,0,1,,,,,,,,
,,"[""circle"",""green"",""vert"",""up"",[150,0],[0,150]]",circle,green,vert,up,"[150,0]","[0,150]",up,1,,,,,,001,2025-03-11_18h43.31.040,SL_sali_41,2021.2.3,Win32,59.17159763,1.1691,,,118,0,118,0,1,,,,,,,,
,,"[""diamond"",""green"",""hori"",""left"",[106,-106],[0,-150]]",diamond,green,hori,left,"[106,-106]","[0,-150]",left,1,,,,,,001,2025-03-11_18h43.31.040,SL_sali_41,2021.2.3,Win32,59.17159763,2.2008,,,119,0,119,0,1,,,,,,,,
,,"[""circle"",""red"",""hori"",""left"",[0,150],[106,-106]]",circle,red,hori,left,"[0,150]","[106,-106]",up,0,,,,,,001,2025-03-11_18h43.31.040,SL_sali_41,2021.2.3,Win32,59.17159763,2.214,,,120,0,120,0,1,,,,,,,,
,,"[""diamond"",""green"",""vert"",""up"",[150,0],[106,-106]]",diamond,green,vert,up,"[150,0]","[106,-106]",up,1,,,,,,001,2025-03-11_18h43.31.040,SL_sali_41,2021.2.3,Win32,59.17159763,1.6608,,,121,0,121,0,1,,,,,,,,
,,"[""diamond"",""red"",""hori"",""left"",[150,0],[106,106]]",diamond,red,hori,left,"[150,0]","[106,106]",left,1,,,,,,001,2025-03-11_18h43.31.040,SL_sali_41,2021.2.3,Win32,59.17159763,2.0516,,,122,0,122,0,1,,,,,,,,
,,"[""circle"",""red"",""hori"",""left"",[-150,0],[106,106]]",circle,red,hori,left,"[-150,0]","[106,106]",left,1,,,,,,001,2025-03-11_18h43.31.040,SL_sali_41,2021.2.3,Win32,59.17159763,2.0109,,,123,0,123,0,1,,,,,,,,
,,"[""circle"",""no_dis"",""vert"",""up"",[99999,99999],[0,-150]]",circle,no_dis,vert,up,"[99999,99999]","[0,-150]",,0,,,,,,001,2025-03-11_18h43.31.040,SL_sali_41,2021.2.3,Win32,59.17159763,,,,124,0,124,0,1,,,,,,,,
,,"[""circle"",""red"",""vert"",""up"",[-106,-106],[106,-106]]",circle,red,vert,up,"[-106,-106]","[106,-106]",up,1,,,,,,001,2025-03-11_18h43.31.040,SL_sali_41,2021.2.3,Win32,59.17159763,0.8008,,,125,0,125,0,1,,,,,,,,
,,"[""diamond"",""no_dis"",""vert"",""up"",[99999,99999],[106,-106]]",diamond,no_dis,vert,up,"[99999,99999]","[106,-106]",up,1,,,,,,001,2025-03-11_18h43.31.040,SL_sali_41,2021.2.3,Win32,59.17159763,0.8186,,,126,0,126,0,1,,,,,,,,
,,"[""circle"",""green"",""vert"",""up"",[0,-150],[106,-106]]",circle,green,vert,up,"[0,-150]","[106,-106]",up,1,,,,,,001,2025-03-11_18h43.31.040,SL_sali_41,2021.2.3,Win32,59.17159763,1.6701,,,127,0,127,0,1,,,,,,,,
,,,,,,,,,,,,,,,,001,2025-03-11_18h43.31.040,SL_sali_41,2021.2.3,Win32,59.17159763,,,,,,,,,2,space,158.0731,1,0,1,0,1
,,"[""diamond"",""red"",""vert"",""up"",[150,0],[106,-106]]",diamond,red,vert,up,"[150,0]","[106,-106]",up,1,,,,,,001,2025-03-11_18h43.31.040,SL_sali_41,2021.2.3,Win32,59.17159763,1.4945,,,0,0,0,0,1,,,,,,,,
,,"[""circle"",""no_dis"",""vert"",""up"",[99999,99999],[-106,-106]]",circle,no_dis,vert,up,"[99999,99999]","[-106,-106]",up,1,,,,,,001,2025-03-11_18h43.31.040,SL_sali_41,2021.2.3,Win32,59.17159763,1.8714,,,1,0,1,0,1,,,,,,,,
,,"[""circle"",""red"",""vert"",""up"",[-150,0],[-106,106]]",circle,red,vert,up,"[-150,0]","[-106,106]",up,1,,,,,,001,2025-03-11_18h43.31.040,SL_sali_41,2021.2.3,Win32,59.17159763,1.5995,,,2,0,2,0,1,,,,,,,,
,,"[""circle"",""red"",""vert"",""up"",[106,-106],[-150,0]]",circle,red,vert,up,"[106,-106]","[-150,0]",up,1,,,,,,001,2025-03-11_18h43.31.040,SL_sali_41,2021.2.3,Win32,59.17159763,1.979,,,3,0,3,0,1,,,,,,,,
,,"[""diamond"",""red"",""hori"",""left"",[150,0],[106,106]]",diamond,red,hori,left,"[150,0]","[106,106]",left,1,,,,,,001,2025-03-11_18h43.31.040,SL_sali_41,2021.2.3,Win32,59.17159763,0.911,,,4,0,4,0,1,,,,,,,,
,,"[""diamond"",""green"",""hori"",""left"",[150,0],[-106,106]]",diamond,green,hori,left,"[150,0]","[-106,106]",left,1,,,,,,001,2025-03-11_18h43.31.040,SL_sali_41,2021.2.3,Win32,59.17159763,0.8158,,,5,0,5,0,1,,,,,,,,
,,"[""circle"",""green"",""vert"",""up"",[-150,0],[-106,-106]]",circle,green,vert,up,"[-150,0]","[-106,-106]",up,1,,,,,,001,2025-03-11_18h43.31.040,SL_sali_41,2021.2.3,Win32,59.17159763,1.362,,,6,0,6,0,1,,,,,,,,
,,"[""diamond"",""red"",""vert"",""up"",[-106,106],[0,150]]",diamond,red,vert,up,"[-106,106]","[0,150]",up,1,,,,,,001,2025-03-11_18h43.31.040,SL_sali_41,2021.2.3,Win32,59.17159763,1.158,,,7,0,7,0,1,,,,,,,,
,,"[""diamond"",""no_dis"",""hori"",""left"",[99999,99999],[-106,-106]]",diamond,no_dis,hori,left,"[99999,99999]","[-106,-106]",left,1,,,,,,001,2025-03-11_18h43.31.040,SL_sali_41,2021.2.3,Win32,59.17159763,1.6325,,,8,0,8,0,1,,,,,,,,
,,"[""circle"",""red"",""hori"",""left"",[150,0],[0,-150]]",circle,red,hori,left,"[150,0]","[0,-150]",left,1,,,,,,001,2025-03-11_18h43.31.040,SL_sali_41,2021.2.3,Win32,59.17159763,1.2217,,,9,0,9,0,1,,,,,,,,
,,"[""diamond"",""red"",""vert"",""up"",[106,-106],[-106,106]]",diamond,red,vert,up,"[106,-106]","[-106,106]",up,1,,,,,,001,2025-03-11_18h43.31.040,SL_sali_41,2021.2.3,Win32,59.17159763,0.2753,,,10,0,10,0,1,,,,,,,,
,,"[""circle"",""no_dis"",""vert"",""up"",[99999,99999],[106,-106]]",circle,no_dis,vert,up,"[99999,99999]","[106,-106]",up,1,,,,,,001,2025-03-11_18h43.31.040,SL_sali_41,2021.2.3,Win32,59.17159763,0.8168,,,11,0,11,0,1,,,,,,,,
,,"[""diamond"",""no_dis"",""hori"",""left"",[99999,99999],[0,-150]]",diamond,no_dis,hori,left,"[99999,99999]","[0,-150]",left,1,,,,,,001,2025-03-11_18h43.31.040,SL_sali_41,2021.2.3,Win32,59.17159763,1.3048,,,12,0,12,0,1,,,,,,,,
,,"[""circle"",""green"",""hori"",""left"",[0,-150],[106,-106]]",circle,green,hori,left,"[0,-150]","[106,-106]",left,1,,,,,,001,2025-03-11_18h43.31.040,SL_sali_41,2021.2.3,Win32,59.17159763,0.9613,,,13,0,13,0,1,,,,,,,,
,,"[""diamond"",""no_dis"",""vert"",""up"",[99999,99999],[-106,106]]",diamond,no_dis,vert,up,"[99999,99999]","[-106,106]",up,1,,,,,,001,2025-03-11_18h43.31.040,SL_sali_41,2021.2.3,Win32,59.17159763,0.7591,,,14,0,14,0,1,,,,,,,,
,,"[""diamond"",""no_dis"",""hori"",""left"",[99999,99999],[-106,106]]",diamond,no_dis,hori,left,"[99999,99999]","[-106,106]",left,1,,,,,,001,2025-03-11_18h43.31.040,SL_sali_41,2021.2.3,Win32,59.17159763,0.7695,,,15,0,15,0,1,,,,,,,,
,,"[""diamond"",""no_dis"",""vert"",""up"",[99999,99999],[106,-106]]",diamond,no_dis,vert,up,"[99999,99999]","[106,-106]",up,1,,,,,,001,2025-03-11_18h43.31.040,SL_sali_41,2021.2.3,Win32,59.17159763,1.0172,,,16,0,16,0,1,,,,,,,,
,,"[""circle"",""no_dis"",""vert"",""up"",[99999,99999],[0,150]]",circle,no_dis,vert,up,"[99999,99999]","[0,150]",up,1,,,,,,001,2025-03-11_18h43.31.040,SL_sali_41,2021.2.3,Win32,59.17159763,1.0342,,,17,0,17,0,1,,,,,,,,
,,"[""circle"",""green"",""vert"",""up"",[150,0],[106,106]]",circle,green,vert,up,"[150,0]","[106,106]",up,1,,,,,,001,2025-03-11_18h43.31.040,SL_sali_41,2021.2.3,Win32,59.17159763,0.7574,,,18,0,18,0,1,,,,,,,,
,,"[""diamond"",""red"",""hori"",""left"",[0,150],[150,0]]",diamond,red,hori,left,"[0,150]","[150,0]",left,1,,,,,,001,2025-03-11_18h43.31.040,SL_sali_41,2021.2.3,Win32,59.17159763,1.2489,,,19,0,19,0,1,,,,,,,,
,,"[""circle"",""no_dis"",""hori"",""left"",[99999,99999],[0,150]]",circle,no_dis,hori,left,"[99999,99999]","[0,150]",left,1,,,,,,001,2025-03-11_18h43.31.040,SL_sali_41,2021.2.3,Win32,59.17159763,0.6663,,,20,0,20,0,1,,,,,,,,
,,"[""diamond"",""green"",""hori"",""left"",[-150,0],[106,-106]]",diamond,green,hori,left,"[-150,0]","[106,-106]",left,1,,,,,,001,2025-03-11_18h43.31.040,SL_sali_41,2021.2.3,Win32,59.17159763,1.2834,,,21,0,21,0,1,,,,,,,,
,,"[""circle"",""red"",""hori"",""left"",[150,0],[0,-150]]",circle,red,hori,left,"[150,0]","[0,-150]",left,1,,,,,,001,2025-03-11_18h43.31.040,SL_sali_41,2021.2.3,Win32,59.17159763,0.8954,,,22,0,22,0,1,,,,,,,,
,,"[""diamond"",""no_dis"",""hori"",""left"",[99999,99999],[106,106]]",diamond,no_dis,hori,left,"[99999,99999]","[106,106]",left,1,,,,,,001,2025-03-11_18h43.31.040,SL_sali_41,2021.2.3,Win32,59.17159763,1.1006,,,23,0,23,0,1,,,,,,,,
,,"[""diamond"",""green"",""vert"",""up"",[-150,0],[150,0]]",diamond,green,vert,up,"[-150,0]","[150,0]",up,1,,,,,,001,2025-03-11_18h43.31.040,SL_sali_41,2021.2.3,Win32,59.17159763,0.8624,,,24,0,24,0,1,,,,,,,,
,,"[""circle"",""green"",""vert"",""up"",[106,106],[-106,-106]]",circle,green,vert,up,"[106,106]","[-106,-106]",up,1,,,,,,001,2025-03-11_18h43.31.040,SL_sali_41,2021.2.3,Win32,59.17159763,1.1607,,,25,0,25,0,1,,,,,,,,
,,"[""circle"",""red"",""hori"",""left"",[-150,0],[106,106]]",circle,red,hori,left,"[-150,0]","[106,106]",up,0,,,,,,001,2025-03-11_18h43.31.040,SL_sali_41,2021.2.3,Win32,59.17159763,1.5335,,,26,0,26,0,1,,,,,,,,
,,"[""circle"",""no_dis"",""hori"",""left"",[99999,99999],[150,0]]",circle,no_dis,hori,left,"[99999,99999]","[150,0]",left,1,,,,,,001,2025-03-11_18h43.31.040,SL_sali_41,2021.2.3,Win32,59.17159763,1.4735,,,27,0,27,0,1,,,,,,,,
,,"[""circle"",""no_dis"",""vert"",""up"",[99999,99999],[-106,106]]",circle,no_dis,vert,up,"[99999,99999]","[-106,106]",up,1,,,,,,001,2025-03-11_18h43.31.040,SL_sali_41,2021.2.3,Win32,59.17159763,0.8603,,,28,0,28,0,1,,,,,,,,
,,"[""circle"",""red"",""vert"",""up"",[150,0],[106,-106]]",circle,red,vert,up,"[150,0]","[106,-106]",left,0,,,,,,001,2025-03-11_18h43.31.040,SL_sali_41,2021.2.3,Win32,59.17159763,2.3643,,,29,0,29,0,1,,,,,,,,
,,"[""circle"",""green"",""hori"",""left"",[-106,106],[150,0]]",circle,green,hori,left,"[-106,106]","[150,0]",up,0,,,,,,001,2025-03-11_18h43.31.040,SL_sali_41,2021.2.3,Win32,59.17159763,1.3717,,,30,0,30,0,1,,,,,,,,
,,"[""diamond"",""red"",""vert"",""up"",[150,0],[0,150]]",diamond,red,vert,up,"[150,0]","[0,150]",up,1,,,,,,001,2025-03-11_18h43.31.040,SL_sali_41,2021.2.3,Win32,59.17159763,0.9598,,,31,0,31,0,1,,,,,,,,
,,"[""circle"",""red"",""hori"",""left"",[0,150],[106,-106]]",circle,red,hori,left,"[0,150]","[106,-106]",left,1,,,,,,001,2025-03-11_18h43.31.040,SL_sali_41,2021.2.3,Win32,59.17159763,0.7453,,,32,0,32,0,1,,,,,,,,
,,"[""diamond"",""green"",""hori"",""left"",[106,-106],[-150,0]]",diamond,green,hori,left,"[106,-106]","[-150,0]",left,1,,,,,,001,2025-03-11_18h43.31.040,SL_sali_41,2021.2.3,Win32,59.17159763,0.9576,,,33,0,33,0,1,,,,,,,,
,,"[""circle"",""red"",""hori"",""left"",[106,106],[-150,0]]",circle,red,hori,left,"[106,106]","[-150,0]",left,1,,,,,,001,2025-03-11_18h43.31.040,SL_sali_41,2021.2.3,Win32,59.17159763,0.7694,,,34,0,34,0,1,,,,,,,,
,,"[""diamond"",""no_dis"",""hori"",""left"",[99999,99999],[-106,-106]]",diamond,no_dis,hori,left,"[99999,99999]","[-106,-106]",left,1,,,,,,001,2025-03-11_18h43.31.040,SL_sali_41,2021.2.3,Win32,59.17159763,0.8944,,,35,0,35,0,1,,,,,,,,
,,"[""diamond"",""green"",""vert"",""up"",[106,106],[-106,106]]",diamond,green,vert,up,"[106,106]","[-106,106]",up,1,,,,,,001,2025-03-11_18h43.31.040,SL_sali_41,2021.2.3,Win32,59.17159763,0.9485,,,36,0,36,0,1,,,,,,,,
,,"[""diamond"",""green"",""vert"",""up"",[0,-150],[106,-106]]",diamond,green,vert,up,"[0,-150]","[106,-106]",left,0,,,,,,001,2025-03-11_18h43.31.040,SL_sali_41,2021.2.3,Win32,59.17159763,1.1587,,,37,0,37,0,1,,,,,,,,
,,"[""circle"",""green"",""hori"",""left"",[-106,106],[106,106]]",circle,green,hori,left,"[-106,106]","[106,106]",up,0,,,,,,001,2025-03-11_18h43.31.040,SL_sali_41,2021.2.3,Win32,59.17159763,1.1837,,,38,0,38,0,1,,,,,,,,
,,"[""diamond"",""red"",""vert"",""up"",[150,0],[-106,-106]]",diamond,red,vert,up,"[150,0]","[-106,-106]",up,1,,,,,,001,2025-03-11_18h43.31.040,SL_sali_41,2021.2.3,Win32,59.17159763,0.9169,,,39,0,39,0,1,,,,,,,,
,,"[""diamond"",""green"",""vert"",""up"",[150,0],[-106,106]]",diamond,green,vert,up,"[150,0]","[-106,106]",up,1,,,,,,001,2025-03-11_18h43.31.040,SL_sali_41,2021.2.3,Win32,59.17159763,0.7994,,,40,0,40,0,1,,,,,,,,
,,"[""diamond"",""green"",""hori"",""left"",[-106,106],[0,150]]",diamond,green,hori,left,"[-106,106]","[0,150]",left,1,,,,,,001,2025-03-11_18h43.31.040,SL_sali_41,2021.2.3,Win32,59.17159763,1.158,,,41,0,41,0,1,,,,,,,,
,,"[""circle"",""green"",""vert"",""up"",[0,150],[-150,0]]",circle,green,vert,up,"[0,150]","[-150,0]",up,1,,,,,,001,2025-03-11_18h43.31.040,SL_sali_41,2021.2.3,Win32,59.17159763,0.994,,,42,0,42,0,1,,,,,,,,
,,"[""circle"",""green"",""vert"",""up"",[150,0],[0,150]]",circle,green,vert,up,"[150,0]","[0,150]",left,0,,,,,,001,2025-03-11_18h43.31.040,SL_sali_41,2021.2.3,Win32,59.17159763,0.9999,,,43,0,43,0,1,,,,,,,,
,,"[""circle"",""red"",""hori"",""left"",[106,106],[-106,-106]]",circle,red,hori,left,"[106,106]","[-106,-106]",left,1,,,,,,001,2025-03-11_18h43.31.040,SL_sali_41,2021.2.3,Win32,59.17159763,1.3838,,,44,0,44,0,1,,,,,,,,
,,"[""circle"",""red"",""vert"",""up"",[0,150],[106,-106]]",circle,red,vert,up,"[0,150]","[106,-106]",up,1,,,,,,001,2025-03-11_18h43.31.040,SL_sali_41,2021.2.3,Win32,59.17159763,0.8204,,,45,0,45,0,1,,,,,,,,
,,"[""diamond"",""red"",""vert"",""up"",[150,0],[-106,106]]",diamond,red,vert,up,"[150,0]","[-106,106]",up,1,,,,,,001,2025-03-11_18h43.31.040,SL_sali_41,2021.2.3,Win32,59.17159763,0.9102,,,46,0,46,0,1,,,,,,,,
,,"[""diamond"",""green"",""vert"",""up"",[150,0],[106,-106]]",diamond,green,vert,up,"[150,0]","[106,-106]",up,1,,,,,,001,2025-03-11_18h43.31.040,SL_sali_41,2021.2.3,Win32,59.17159763,1.4161,,,47,0,47,0,1,,,,,,,,
,,"[""circle"",""red"",""vert"",""up"",[106,106],[106,-106]]",circle,red,vert,up,"[106,106]","[106,-106]",up,1,,,,,,001,2025-03-11_18h43.31.040,SL_sali_41,2021.2.3,Win32,59.17159763,0.784,,,48,0,48,0,1,,,,,,,,
,,"[""circle"",""green"",""vert"",""up"",[150,0],[0,150]]",circle,green,vert,up,"[150,0]","[0,150]",up,1,,,,,,001,2025-03-11_18h43.31.040,SL_sali_41,2021.2.3,Win32,59.17159763,1.136,,,49,0,49,0,1,,,,,,,,
,,"[""circle"",""red"",""hori"",""left"",[0,150],[-106,106]]",circle,red,hori,left,"[0,150]","[-106,106]",left,1,,,,,,001,2025-03-11_18h43.31.040,SL_sali_41,2021.2.3,Win32,59.17159763,0.7698,,,50,0,50,0,1,,,,,,,,
,,"[""circle"",""green"",""hori"",""left"",[-106,-106],[106,106]]",circle,green,hori,left,"[-106,-106]","[106,106]",left,1,,,,,,001,2025-03-11_18h43.31.040,SL_sali_41,2021.2.3,Win32,59.17159763,0.7541,,,51,0,51,0,1,,,,,,,,
,,"[""diamond"",""red"",""hori"",""left"",[-106,-106],[-150,0]]",diamond,red,hori,left,"[-106,-106]","[-150,0]",left,1,,,,,,001,2025-03-11_18h43.31.040,SL_sali_41,2021.2.3,Win32,59.17159763,0.9419,,,52,0,52,0,1,,,,,,,,
,,"[""diamond"",""green"",""hori"",""left"",[-150,0],[0,150]]",diamond,green,hori,left,"[-150,0]","[0,150]",left,1,,,,,,001,2025-03-11_18h43.31.040,SL_sali_41,2021.2.3,Win32,59.17159763,1.0678,,,53,0,53,0,1,,,,,,,,
,,"[""circle"",""no_dis"",""hori"",""left"",[99999,99999],[106,106]]",circle,no_dis,hori,left,"[99999,99999]","[106,106]",left,1,,,,,,001,2025-03-11_18h43.31.040,SL_sali_41,2021.2.3,Win32,59.17159763,1.5799,,,54,0,54,0,1,,,,,,,,
,,"[""diamond"",""no_dis"",""vert"",""up"",[99999,99999],[0,150]]",diamond,no_dis,vert,up,"[99999,99999]","[0,150]",up,1,,,,,,001,2025-03-11_18h43.31.040,SL_sali_41,2021.2.3,Win32,59.17159763,0.9012,,,55,0,55,0,1,,,,,,,,
,,"[""diamond"",""red"",""vert"",""up"",[150,0],[106,106]]",diamond,red,vert,up,"[150,0]","[106,106]",left,0,,,,,,001,2025-03-11_18h43.31.040,SL_sali_41,2021.2.3,Win32,59.17159763,1.1653,,,56,0,56,0,1,,,,,,,,
,,"[""circle"",""red"",""hori"",""left"",[106,106],[106,-106]]",circle,red,hori,left,"[106,106]","[106,-106]",left,1,,,,,,001,2025-03-11_18h43.31.040,SL_sali_41,2021.2.3,Win32,59.17159763,0.7403,,,57,0,57,0,1,,,,,,,,
,,"[""circle"",""green"",""vert"",""up"",[-106,-106],[150,0]]",circle,green,vert,up,"[-106,-106]","[150,0]",up,1,,,,,,001,2025-03-11_18h43.31.040,SL_sali_41,2021.2.3,Win32,59.17159763,0.6798,,,58,0,58,0,1,,,,,,,,
,,"[""circle"",""green"",""vert"",""up"",[0,-150],[106,-106]]",circle,green,vert,up,"[0,-150]","[106,-106]",up,1,,,,,,001,2025-03-11_18h43.31.040,SL_sali_41,2021.2.3,Win32,59.17159763,0.8575,,,59,0,59,0,1,,,,,,,,
,,"[""circle"",""green"",""hori"",""left"",[150,0],[-106,106]]",circle,green,hori,left,"[150,0]","[-106,106]",left,1,,,,,,001,2025-03-11_18h43.31.040,SL_sali_41,2021.2.3,Win32,59.17159763,0.6562,,,60,0,60,0,1,,,,,,,,
,,"[""circle"",""green"",""hori"",""left"",[-150,0],[106,-106]]",circle,green,hori,left,"[-150,0]","[106,-106]",left,1,,,,,,001,2025-03-11_18h43.31.040,SL_sali_41,2021.2.3,Win32,59.17159763,0.7392,,,61,0,61,0,1,,,,,,,,
,,"[""circle"",""red"",""vert"",""up"",[-106,-106],[106,-106]]",circle,red,vert,up,"[-106,-106]","[106,-106]",up,1,,,,,,001,2025-03-11_18h43.31.040,SL_sali_41,2021.2.3,Win32,59.17159763,1.4136,,,62,0,62,0,1,,,,,,,,
,,"[""circle"",""no_dis"",""vert"",""up"",[99999,99999],[-106,-106]]",circle,no_dis,vert,up,"[99999,99999]","[-106,-106]",up,1,,,,,,001,2025-03-11_18h43.31.040,SL_sali_41,2021.2.3,Win32,59.17159763,0.7235,,,63,0,63,0,1,,,,,,,,
,,"[""diamond"",""green"",""hori"",""left"",[106,-106],[0,-150]]",diamond,green,hori,left,"[106,-106]","[0,-150]",left,1,,,,,,001,2025-03-11_18h43.31.040,SL_sali_41,2021.2.3,Win32,59.17159763,1.2744,,,64,0,64,0,1,,,,,,,,
,,"[""circle"",""no_dis"",""hori"",""left"",[99999,99999],[-106,106]]",circle,no_dis,hori,left,"[99999,99999]","[-106,106]",left,1,,,,,,001,2025-03-11_18h43.31.040,SL_sali_41,2021.2.3,Win32,59.17159763,0.7467,,,65,0,65,0,1,,,,,,,,
,,"[""diamond"",""red"",""hori"",""left"",[150,0],[106,106]]",diamond,red,hori,left,"[150,0]","[106,106]",left,1,,,,,,001,2025-03-11_18h43.31.040,SL_sali_41,2021.2.3,Win32,59.17159763,2.1948,,,66,0,66,0,1,,,,,,,,
,,"[""diamond"",""red"",""hori"",""left"",[0,-150],[106,106]]",diamond,red,hori,left,"[0,-150]","[106,106]",left,1,,,,,,001,2025-03-11_18h43.31.040,SL_sali_41,2021.2.3,Win32,59.17159763,1.1305,,,67,0,67,0,1,,,,,,,,
,,"[""diamond"",""no_dis"",""vert"",""up"",[99999,99999],[0,-150]]",diamond,no_dis,vert,up,"[99999,99999]","[0,-150]",left,0,,,,,,001,2025-03-11_18h43.31.040,SL_sali_41,2021.2.3,Win32,59.17159763,1.9707,,,68,0,68,0,1,,,,,,,,
,,"[""circle"",""green"",""hori"",""left"",[-106,-106],[-150,0]]",circle,green,hori,left,"[-106,-106]","[-150,0]",left,1,,,,,,001,2025-03-11_18h43.31.040,SL_sali_41,2021.2.3,Win32,59.17159763,1.3247,,,69,0,69,0,1,,,,,,,,
,,"[""diamond"",""red"",""hori"",""left"",[-106,106],[-150,0]]",diamond,red,hori,left,"[-106,106]","[-150,0]",left,1,,,,,,001,2025-03-11_18h43.31.040,SL_sali_41,2021.2.3,Win32,59.17159763,1.0264,,,70,0,70,0,1,,,,,,,,
,,"[""diamond"",""green"",""vert"",""up"",[150,0],[0,-150]]",diamond,green,vert,up,"[150,0]","[0,-150]",up,1,,,,,,001,2025-03-11_18h43.31.040,SL_sali_41,2021.2.3,Win32,59.17159763,1.7123,,,71,0,71,0,1,,,,,,,,
,,"[""circle"",""green"",""hori"",""left"",[106,-106],[0,150]]",circle,green,hori,left,"[106,-106]","[0,150]",left,1,,,,,,001,2025-03-11_18h43.31.040,SL_sali_41,2021.2.3,Win32,59.17159763,1.0165,,,72,0,72,0,1,,,,,,,,
,,"[""circle"",""no_dis"",""vert"",""up"",[99999,99999],[150,0]]",circle,no_dis,vert,up,"[99999,99999]","[150,0]",up,1,,,,,,001,2025-03-11_18h43.31.040,SL_sali_41,2021.2.3,Win32,59.17159763,0.7802,,,73,0,73,0,1,,,,,,,,
,,"[""diamond"",""green"",""hori"",""left"",[0,150],[150,0]]",diamond,green,hori,left,"[0,150]","[150,0]",left,1,,,,,,001,2025-03-11_18h43.31.040,SL_sali_41,2021.2.3,Win32,59.17159763,1.0433,,,74,0,74,0,1,,,,,,,,
,,"[""diamond"",""no_dis"",""hori"",""left"",[99999,99999],[-106,106]]",diamond,no_dis,hori,left,"[99999,99999]","[-106,106]",left,1,,,,,,001,2025-03-11_18h43.31.040,SL_sali_41,2021.2.3,Win32,59.17159763,0.7087,,,75,0,75,0,1,,,,,,,,
,,"[""circle"",""green"",""hori"",""left"",[-106,106],[0,150]]",circle,green,hori,left,"[-106,106]","[0,150]",left,1,,,,,,001,2025-03-11_18h43.31.040,SL_sali_41,2021.2.3,Win32,59.17159763,1.3322,,,76,0,76,0,1,,,,,,,,
,,"[""diamond"",""no_dis"",""hori"",""left"",[99999,99999],[106,-106]]",diamond,no_dis,hori,left,"[99999,99999]","[106,-106]",left,1,,,,,,001,2025-03-11_18h43.31.040,SL_sali_41,2021.2.3,Win32,59.17159763,1.2097,,,77,0,77,0,1,,,,,,,,
,,"[""diamond"",""green"",""vert"",""up"",[150,0],[0,-150]]",diamond,green,vert,up,"[150,0]","[0,-150]",up,1,,,,,,001,2025-03-11_18h43.31.040,SL_sali_41,2021.2.3,Win32,59.17159763,1.0542,,,78,0,78,0,1,,,,,,,,
,,"[""circle"",""no_dis"",""hori"",""left"",[99999,99999],[-150,0]]",circle,no_dis,hori,left,"[99999,99999]","[-150,0]",left,1,,,,,,001,2025-03-11_18h43.31.040,SL_sali_41,2021.2.3,Win32,59.17159763,0.7561,,,79,0,79,0,1,,,,,,,,
,,"[""circle"",""no_dis"",""vert"",""up"",[99999,99999],[106,-106]]",circle,no_dis,vert,up,"[99999,99999]","[106,-106]",up,1,,,,,,001,2025-03-11_18h43.31.040,SL_sali_41,2021.2.3,Win32,59.17159763,0.7133,,,80,0,80,0,1,,,,,,,,
,,"[""diamond"",""green"",""hori"",""left"",[150,0],[0,150]]",diamond,green,hori,left,"[150,0]","[0,150]",left,1,,,,,,001,2025-03-11_18h43.31.040,SL_sali_41,2021.2.3,Win32,59.17159763,0.7619,,,81,0,81,0,1,,,,,,,,
,,"[""circle"",""no_dis"",""vert"",""up"",[99999,99999],[0,-150]]",circle,no_dis,vert,up,"[99999,99999]","[0,-150]",up,1,,,,,,001,2025-03-11_18h43.31.040,SL_sali_41,2021.2.3,Win32,59.17159763,0.7944,,,82,0,82,0,1,,,,,,,,
,,"[""circle"",""no_dis"",""vert"",""up"",[99999,99999],[106,-106]]",circle,no_dis,vert,up,"[99999,99999]","[106,-106]",up,1,,,,,,001,2025-03-11_18h43.31.040,SL_sali_41,2021.2.3,Win32,59.17159763,0.7393,,,83,0,83,0,1,,,,,,,,
,,"[""circle"",""green"",""vert"",""up"",[150,0],[-150,0]]",circle,green,vert,up,"[150,0]","[-150,0]",up,1,,,,,,001,2025-03-11_18h43.31.040,SL_sali_41,2021.2.3,Win32,59.17159763,0.6726,,,84,0,84,0,1,,,,,,,,
,,"[""diamond"",""green"",""hori"",""left"",[0,150],[150,0]]",diamond,green,hori,left,"[0,150]","[150,0]",left,1,,,,,,001,2025-03-11_18h43.31.040,SL_sali_41,2021.2.3,Win32,59.17159763,0.861,,,85,0,85,0,1,,,,,,,,
,,"[""diamond"",""red"",""hori"",""left"",[106,106],[0,-150]]",diamond,red,hori,left,"[106,106]","[0,-150]",up,0,,,,,,001,2025-03-11_18h43.31.040,SL_sali_41,2021.2.3,Win32,59.17159763,1.0674,,,86,0,86,0,1,,,,,,,,
,,"[""diamond"",""red"",""vert"",""up"",[0,-150],[150,0]]",diamond,red,vert,up,"[0,-150]","[150,0]",up,1,,,,,,001,2025-03-11_18h43.31.040,SL_sali_41,2021.2.3,Win32,59.17159763,1.1878,,,87,0,87,0,1,,,,,,,,
,,"[""diamond"",""red"",""hori"",""left"",[150,0],[106,-106]]",diamond,red,hori,left,"[150,0]","[106,-106]",left,1,,,,,,001,2025-03-11_18h43.31.040,SL_sali_41,2021.2.3,Win32,59.17159763,1.1589,,,88,0,88,0,1,,,,,,,,
,,"[""diamond"",""red"",""hori"",""left"",[150,0],[106,-106]]",diamond,red,hori,left,"[150,0]","[106,-106]",left,1,,,,,,001,2025-03-11_18h43.31.040,SL_sali_41,2021.2.3,Win32,59.17159763,0.8765,,,89,0,89,0,1,,,,,,,,
,,"[""diamond"",""red"",""hori"",""left"",[-106,-106],[-150,0]]",diamond,red,hori,left,"[-106,-106]","[-150,0]",left,1,,,,,,001,2025-03-11_18h43.31.040,SL_sali_41,2021.2.3,Win32,59.17159763,1.3266,,,90,0,90,0,1,,,,,,,,
,,"[""circle"",""no_dis"",""hori"",""left"",[99999,99999],[-150,0]]",circle,no_dis,hori,left,"[99999,99999]","[-150,0]",left,1,,,,,,001,2025-03-11_18h43.31.040,SL_sali_41,2021.2.3,Win32,59.17159763,1.1995,,,91,0,91,0,1,,,,,,,,
,,"[""circle"",""green"",""vert"",""up"",[106,-106],[106,106]]",circle,green,vert,up,"[106,-106]","[106,106]",left,0,,,,,,001,2025-03-11_18h43.31.040,SL_sali_41,2021.2.3,Win32,59.17159763,0.8408,,,92,0,92,0,1,,,,,,,,
,,"[""circle"",""red"",""vert"",""up"",[-150,0],[106,106]]",circle,red,vert,up,"[-150,0]","[106,106]",up,1,,,,,,001,2025-03-11_18h43.31.040,SL_sali_41,2021.2.3,Win32,59.17159763,0.797,,,93,0,93,0,1,,,,,,,,
,,"[""circle"",""no_dis"",""hori"",""left"",[99999,99999],[150,0]]",circle,no_dis,hori,left,"[99999,99999]","[150,0]",left,1,,,,,,001,2025-03-11_18h43.31.040,SL_sali_41,2021.2.3,Win32,59.17159763,0.7972,,,94,0,94,0,1,,,,,,,,
,,"[""circle"",""no_dis"",""hori"",""left"",[99999,99999],[-150,0]]",circle,no_dis,hori,left,"[99999,99999]","[-150,0]",left,1,,,,,,001,2025-03-11_18h43.31.040,SL_sali_41,2021.2.3,Win32,59.17159763,0.8197,,,95,0,95,0,1,,,,,,,,
,,"[""circle"",""red"",""hori"",""left"",[-106,-106],[0,-150]]",circle,red,hori,left,"[-106,-106]","[0,-150]",left,1,,,,,,001,2025-03-11_18h43.31.040,SL_sali_41,2021.2.3,Win32,59.17159763,0.9801,,,96,0,96,0,1,,,,,,,,
,,"[""circle"",""no_dis"",""vert"",""up"",[99999,99999],[0,-150]]",circle,no_dis,vert,up,"[99999,99999]","[0,-150]",up,1,,,,,,001,2025-03-11_18h43.31.040,SL_sali_41,2021.2.3,Win32,59.17159763,0.6984,,,97,0,97,0,1,,,,,,,,
,,"[""diamond"",""red"",""vert"",""up"",[-106,106],[-150,0]]",diamond,red,vert,up,"[-106,106]","[-150,0]",up,1,,,,,,001,2025-03-11_18h43.31.040,SL_sali_41,2021.2.3,Win32,59.17159763,0.959,,,98,0,98,0,1,,,,,,,,
,,"[""diamond"",""green"",""hori"",""left"",[0,-150],[0,150]]",diamond,green,hori,left,"[0,-150]","[0,150]",left,1,,,,,,001,2025-03-11_18h43.31.040,SL_sali_41,2021.2.3,Win32,59.17159763,0.981,,,99,0,99,0,1,,,,,,,,
,,"[""diamond"",""no_dis"",""hori"",""left"",[99999,99999],[0,-150]]",diamond,no_dis,hori,left,"[99999,99999]","[0,-150]",left,1,,,,,,001,2025-03-11_18h43.31.040,SL_sali_41,2021.2.3,Win32,59.17159763,0.7939,,,100,0,100,0,1,,,,,,,,
,,"[""circle"",""red"",""vert"",""up"",[0,-150],[106,106]]",circle,red,vert,up,"[0,-150]","[106,106]",up,1,,,,,,001,2025-03-11_18h43.31.040,SL_sali_41,2021.2.3,Win32,59.17159763,0.9469,,,101,0,101,0,1,,,,,,,,
,,"[""diamond"",""no_dis"",""vert"",""up"",[99999,99999],[106,106]]",diamond,no_dis,vert,up,"[99999,99999]","[106,106]",up,1,,,,,,001,2025-03-11_18h43.31.040,SL_sali_41,2021.2.3,Win32,59.17159763,1.1555,,,102,0,102,0,1,,,,,,,,
,,"[""circle"",""no_dis"",""hori"",""left"",[99999,99999],[106,106]]",circle,no_dis,hori,left,"[99999,99999]","[106,106]",left,1,,,,,,001,2025-03-11_18h43.31.040,SL_sali_41,2021.2.3,Win32,59.17159763,0.7448,,,103,0,103,0,1,,,,,,,,
,,"[""diamond"",""green"",""vert"",""up"",[150,0],[-106,106]]",diamond,green,vert,up,"[150,0]","[-106,106]",up,1,,,,,,001,2025-03-11_18h43.31.040,SL_sali_41,2021.2.3,Win32,59.17159763,0.9202,,,104,0,104,0,1,,,,,,,,
,,"[""circle"",""no_dis"",""hori"",""left"",[99999,99999],[106,106]]",circle,no_dis,hori,left,"[99999,99999]","[106,106]",left,1,,,,,,001,2025-03-11_18h43.31.040,SL_sali_41,2021.2.3,Win32,59.17159763,0.6631,,,105,0,105,0,1,,,,,,,,
,,"[""circle"",""green"",""hori"",""left"",[106,-106],[150,0]]",circle,green,hori,left,"[106,-106]","[150,0]",up,0,,,,,,001,2025-03-11_18h43.31.040,SL_sali_41,2021.2.3,Win32,59.17159763,1.2085,,,106,0,106,0,1,,,,,,,,
,,"[""circle"",""red"",""vert"",""up"",[-106,106],[150,0]]",circle,red,vert,up,"[-106,106]","[150,0]",up,1,,,,,,001,2025-03-11_18h43.31.040,SL_sali_41,2021.2.3,Win32,59.17159763,0.8256,,,107,0,107,0,1,,,,,,,,
,,"[""circle"",""red"",""vert"",""up"",[-106,-106],[0,-150]]",circle,red,vert,up,"[-106,-106]","[0,-150]",up,1,,,,,,001,2025-03-11_18h43.31.040,SL_sali_41,2021.2.3,Win32,59.17159763,1.0186,,,108,0,108,0,1,,,,,,,,
,,"[""circle"",""red"",""hori"",""left"",[0,-150],[150,0]]",circle,red,hori,left,"[0,-150]","[150,0]",left,1,,,,,,001,2025-03-11_18h43.31.040,SL_sali_41,2021.2.3,Win32,59.17159763,1.2962,,,109,0,109,0,1,,,,,,,,
,,"[""circle"",""green"",""vert"",""up"",[150,0],[-106,106]]",circle,green,vert,up,"[150,0]","[-106,106]",up,1,,,,,,001,2025-03-11_18h43.31.040,SL_sali_41,2021.2.3,Win32,59.17159763,0.7028,,,110,0,110,0,1,,,,,,,,
,,"[""diamond"",""red"",""vert"",""up"",[150,0],[106,-106]]",diamond,red,vert,up,"[150,0]","[106,-106]",up,1,,,,,,001,2025-03-11_18h43.31.040,SL_sali_41,2021.2.3,Win32,59.17159763,0.8377,,,111,0,111,0,1,,,,,,,,
,,"[""diamond"",""red"",""vert"",""up"",[150,0],[0,-150]]",diamond,red,vert,up,"[150,0]","[0,-150]",up,1,,,,,,001,2025-03-11_18h43.31.040,SL_sali_41,2021.2.3,Win32,59.17159763,1.0649,,,112,0,112,0,1,,,,,,,,
,,"[""diamond"",""no_dis"",""hori"",""left"",[99999,99999],[150,0]]",diamond,no_dis,hori,left,"[99999,99999]","[150,0]",left,1,,,,,,001,2025-03-11_18h43.31.040,SL_sali_41,2021.2.3,Win32,59.17159763,1.0778,,,113,0,113,0,1,,,,,,,,
,,"[""diamond"",""green"",""vert"",""up"",[150,0],[106,-106]]",diamond,green,vert,up,"[150,0]","[106,-106]",up,1,,,,,,001,2025-03-11_18h43.31.040,SL_sali_41,2021.2.3,Win32,59.17159763,1.9655,,,114,0,114,0,1,,,,,,,,
,,"[""diamond"",""no_dis"",""vert"",""up"",[99999,99999],[-106,-106]]",diamond,no_dis,vert,up,"[99999,99999]","[-106,-106]",up,1,,,,,,001,2025-03-11_18h43.31.040,SL_sali_41,2021.2.3,Win32,59.17159763,0.794,,,115,0,115,0,1,,,,,,,,
,,"[""diamond"",""no_dis"",""vert"",""up"",[99999,99999],[0,150]]",diamond,no_dis,vert,up,"[99999,99999]","[0,150]",left,0,,,,,,001,2025-03-11_18h43.31.040,SL_sali_41,2021.2.3,Win32,59.17159763,0.8115,,,116,0,116,0,1,,,,,,,,
,,"[""circle"",""green"",""hori"",""left"",[150,0],[-106,-106]]",circle,green,hori,left,"[150,0]","[-106,-106]",left,1,,,,,,001,2025-03-11_18h43.31.040,SL_sali_41,2021.2.3,Win32,59.17159763,0.6625,,,117,0,117,0,1,,,,,,,,
,,"[""circle"",""red"",""hori"",""left"",[150,0],[-106,-106]]",circle,red,hori,left,"[150,0]","[-106,-106]",left,1,,,,,,001,2025-03-11_18h43.31.040,SL_sali_41,2021.2.3,Win32,59.17159763,0.8341,,,118,0,118,0,1,,,,,,,,
,,"[""diamond"",""green"",""hori"",""left"",[106,-106],[0,-150]]",diamond,green,hori,left,"[106,-106]","[0,-150]",up,0,,,,,,001,2025-03-11_18h43.31.040,SL_sali_41,2021.2.3,Win32,59.17159763,1.1705,,,119,0,119,0,1,,,,,,,,
,,"[""diamond"",""no_dis"",""vert"",""up"",[99999,99999],[150,0]]",diamond,no_dis,vert,up,"[99999,99999]","[150,0]",up,1,,,,,,001,2025-03-11_18h43.31.040,SL_sali_41,2021.2.3,Win32,59.17159763,1.2583,,,120,0,120,0,1,,,,,,,,
,,"[""diamond"",""green"",""vert"",""up"",[150,0],[106,-106]]",diamond,green,vert,up,"[150,0]","[106,-106]",up,1,,,,,,001,2025-03-11_18h43.31.040,SL_sali_41,2021.2.3,Win32,59.17159763,1.047,,,121,0,121,0,1,,,,,,,,
,,"[""diamond"",""no_dis"",""hori"",""left"",[99999,99999],[-150,0]]",diamond,no_dis,hori,left,"[99999,99999]","[-150,0]",left,1,,,,,,001,2025-03-11_18h43.31.040,SL_sali_41,2021.2.3,Win32,59.17159763,0.7004,,,122,0,122,0,1,,,,,,,,
,,"[""diamond"",""green"",""vert"",""up"",[150,0],[106,-106]]",diamond,green,vert,up,"[150,0]","[106,-106]",up,1,,,,,,001,2025-03-11_18h43.31.040,SL_sali_41,2021.2.3,Win32,59.17159763,1.0241,,,123,0,123,0,1,,,,,,,,
,,"[""circle"",""red"",""vert"",""up"",[0,150],[-106,106]]",circle,red,vert,up,"[0,150]","[-106,106]",up,1,,,,,,001,2025-03-11_18h43.31.040,SL_sali_41,2021.2.3,Win32,59.17159763,0.8956,,,124,0,124,0,1,,,,,,,,
,,"[""diamond"",""red"",""hori"",""left"",[106,106],[150,0]]",diamond,red,hori,left,"[106,106]","[150,0]",left,1,,,,,,001,2025-03-11_18h43.31.040,SL_sali_41,2021.2.3,Win32,59.17159763,1.1813,,,125,0,125,0,1,,,,,,,,
,,"[""diamond"",""no_dis"",""vert"",""up"",[99999,99999],[-150,0]]",diamond,no_dis,vert,up,"[99999,99999]","[-150,0]",up,1,,,,,,001,2025-03-11_18h43.31.040,SL_sali_41,2021.2.3,Win32,59.17159763,0.7254,,,126,0,126,0,1,,,,,,,,
,,"[""diamond"",""no_dis"",""vert"",""up"",[99999,99999],[0,150]]",diamond,no_dis,vert,up,"[99999,99999]","[0,150]",up,1,,,,,,001,2025-03-11_18h43.31.040,SL_sali_41,2021.2.3,Win32,59.17159763,0.7593,,,127,0,127,0,1,,,,,,,,
,,,,,,,,,,,,,,,,001,2025-03-11_18h43.31.040,SL_sali_41,2021.2.3,Win32,59.17159763,,,,,,,,,3,space,119.786,2,0,2,0,1
,,"[""circle"",""red"",""vert"",""up"",[0,150],[-106,106]]",circle,red,vert,up,"[0,150]","[-106,106]",up,1,,,,,,001,2025-03-11_18h43.31.040,SL_sali_41,2021.2.3,Win32,59.17159763,0.8865,,,0,0,0,0,1,,,,,,,,
,,"[""circle"",""red"",""hori"",""left"",[106,106],[-106,-106]]",circle,red,hori,left,"[106,106]","[-106,-106]",left,1,,,,,,001,2025-03-11_18h43.31.040,SL_sali_41,2021.2.3,Win32,59.17159763,0.6873,,,1,0,1,0,1,,,,,,,,
,,"[""diamond"",""red"",""hori"",""left"",[150,0],[106,106]]",diamond,red,hori,left,"[150,0]","[106,106]",left,1,,,,,,001,2025-03-11_18h43.31.040,SL_sali_41,2021.2.3,Win32,59.17159763,0.9386,,,2,0,2,0,1,,,,,,,,
,,"[""circle"",""red"",""vert"",""up"",[-150,0],[-106,106]]",circle,red,vert,up,"[-150,0]","[-106,106]",up,1,,,,,,001,2025-03-11_18h43.31.040,SL_sali_41,2021.2.3,Win32,59.17159763,1.0142,,,3,0,3,0,1,,,,,,,,
,,"[""diamond"",""red"",""vert"",""up"",[150,0],[106,-106]]",diamond,red,vert,up,"[150,0]","[106,-106]",up,1,,,,,,001,2025-03-11_18h43.31.040,SL_sali_41,2021.2.3,Win32,59.17159763,1.2947,,,4,0,4,0,1,,,,,,,,
,,"[""diamond"",""red"",""hori"",""left"",[150,0],[106,-106]]",diamond,red,hori,left,"[150,0]","[106,-106]",left,1,,,,,,001,2025-03-11_18h43.31.040,SL_sali_41,2021.2.3,Win32,59.17159763,1.2128,,,5,0,5,0,1,,,,,,,,
,,"[""diamond"",""no_dis"",""vert"",""up"",[99999,99999],[0,150]]",diamond,no_dis,vert,up,"[99999,99999]","[0,150]",left,0,,,,,,001,2025-03-11_18h43.31.040,SL_sali_41,2021.2.3,Win32,59.17159763,0.7917,,,6,0,6,0,1,,,,,,,,
,,"[""diamond"",""green"",""vert"",""up"",[106,106],[-106,106]]",diamond,green,vert,up,"[106,106]","[-106,106]",up,1,,,,,,001,2025-03-11_18h43.31.040,SL_sali_41,2021.2.3,Win32,59.17159763,1.5478,,,7,0,7,0,1,,,,,,,,
,,"[""diamond"",""no_dis"",""hori"",""left"",[99999,99999],[0,-150]]",diamond,no_dis,hori,left,"[99999,99999]","[0,-150]",left,1,,,,,,001,2025-03-11_18h43.31.040,SL_sali_41,2021.2.3,Win32,59.17159763,1.1575,,,8,0,8,0,1,,,,,,,,
,,"[""circle"",""green"",""hori"",""left"",[-106,106],[150,0]]",circle,green,hori,left,"[-106,106]","[150,0]",left,1,,,,,,001,2025-03-11_18h43.31.040,SL_sali_41,2021.2.3,Win32,59.17159763,0.8672,,,9,0,9,0,1,,,,,,,,
,,"[""diamond"",""red"",""vert"",""up"",[-106,106],[-150,0]]",diamond,red,vert,up,"[-106,106]","[-150,0]",up,1,,,,,,001,2025-03-11_18h43.31.040,SL_sali_41,2021.2.3,Win32,59.17159763,1.2021,,,10,0,10,0,1,,,,,,,,
,,"[""diamond"",""red"",""hori"",""left"",[106,106],[150,0]]",diamond,red,hori,left,"[106,106]","[150,0]",left,1,,,,,,001,2025-03-11_18h43.31.040,SL_sali_41,2021.2.3,Win32,59.17159763,1.0978,,,11,0,11,0,1,,,,,,,,
,,"[""diamond"",""green"",""vert"",""up"",[150,0],[0,-150]]",diamond,green,vert,up,"[150,0]","[0,-150]",up,1,,,,,,001,2025-03-11_18h43.31.040,SL_sali_41,2021.2.3,Win32,59.17159763,0.9261,,,12,0,12,0,1,,,,,,,,
,,"[""diamond"",""red"",""vert"",""up"",[150,0],[0,-150]]",diamond,red,vert,up,"[150,0]","[0,-150]",up,1,,,,,,001,2025-03-11_18h43.31.040,SL_sali_41,2021.2.3,Win32,59.17159763,0.9137,,,13,0,13,0,1,,,,,,,,
,,"[""circle"",""no_dis"",""vert"",""up"",[99999,99999],[0,-150]]",circle,no_dis,vert,up,"[99999,99999]","[0,-150]",up,1,,,,,,001,2025-03-11_18h43.31.040,SL_sali_41,2021.2.3,Win32,59.17159763,0.6966,,,14,0,14,0,1,,,,,,,,
,,"[""circle"",""red"",""hori"",""left"",[0,150],[106,-106]]",circle,red,hori,left,"[0,150]","[106,-106]",left,1,,,,,,001,2025-03-11_18h43.31.040,SL_sali_41,2021.2.3,Win32,59.17159763,0.7459,,,15,0,15,0,1,,,,,,,,
,,"[""diamond"",""red"",""vert"",""up"",[150,0],[-106,106]]",diamond,red,vert,up,"[150,0]","[-106,106]",up,1,,,,,,001,2025-03-11_18h43.31.040,SL_sali_41,2021.2.3,Win32,59.17159763,0.7784,,,16,0,16,0,1,,,,,,,,
,,"[""diamond"",""green"",""hori"",""left"",[-150,0],[106,-106]]",diamond,green,hori,left,"[-150,0]","[106,-106]",up,0,,,,,,001,2025-03-11_18h43.31.040,SL_sali_41,2021.2.3,Win32,59.17159763,1.4683,,,17,0,17,0,1,,,,,,,,
,,"[""diamond"",""no_dis"",""hori"",""left"",[99999,99999],[106,106]]",diamond,no_dis,hori,left,"[99999,99999]","[106,106]",left,1,,,,,,001,2025-03-11_18h43.31.040,SL_sali_41,2021.2.3,Win32,59.17159763,0.8583,,,18,0,18,0,1,,,,,,,,
,,"[""diamond"",""green"",""vert"",""up"",[-150,0],[150,0]]",diamond,green,vert,up,"[-150,0]","[150,0]",up,1,,,,,,001,2025-03-11_18h43.31.040,SL_sali_41,2021.2.3,Win32,59.17159763,1.5473,,,19,0,19,0,1,,,,,,,,
,,"[""circle"",""green"",""hori"",""left"",[0,-150],[106,-106]]",circle,green,hori,left,"[0,-150]","[106,-106]",left,1,,,,,,001,2025-03-11_18h43.31.040,SL_sali_41,2021.2.3,Win32,59.17159763,0.6632,,,20,0,20,0,1,,,,,,,,
,,"[""diamond"",""no_dis"",""vert"",""up"",[99999,99999],[0,150]]",diamond,no_dis,vert,up,"[99999,99999]","[0,150]",up,1,,,,,,001,2025-03-11_18h43.31.040,SL_sali_41,2021.2.3,Win32,59.17159763,0.9616,,,21,0,21,0,1,,,,,,,,
,,"[""circle"",""red"",""hori"",""left"",[106,106],[106,-106]]",circle,red,hori,left,"[106,106]","[106,-106]",left,1,,,,,,001,2025-03-11_18h43.31.040,SL_sali_41,2021.2.3,Win32,59.17159763,0.762,,,22,0,22,0,1,,,,,,,,
,,"[""diamond"",""red"",""hori"",""left"",[150,0],[106,-106]]",diamond,red,hori,left,"[150,0]","[106,-106]",left,1,,,,,,001,2025-03-11_18h43.31.040,SL_sali_41,2021.2.3,Win32,59.17159763,1.0105,,,23,0,23,0,1,,,,,,,,
,,"[""circle"",""red"",""vert"",""up"",[0,-150],[106,106]]",circle,red,vert,up,"[0,-150]","[106,106]",up,1,,,,,,001,2025-03-11_18h43.31.040,SL_sali_41,2021.2.3,Win32,59.17159763,0.7973,,,24,0,24,0,1,,,,,,,,
,,"[""diamond"",""red"",""vert"",""up"",[150,0],[106,106]]",diamond,red,vert,up,"[150,0]","[106,106]",up,1,,,,,,001,2025-03-11_18h43.31.040,SL_sali_41,2021.2.3,Win32,59.17159763,1.4003,,,25,0,25,0,1,,,,,,,,
,,"[""circle"",""green"",""hori"",""left"",[150,0],[-106,106]]",circle,green,hori,left,"[150,0]","[-106,106]",left,1,,,,,,001,2025-03-11_18h43.31.040,SL_sali_41,2021.2.3,Win32,59.17159763,0.696,,,26,0,26,0,1,,,,,,,,
,,"[""circle"",""no_dis"",""hori"",""left"",[99999,99999],[106,106]]",circle,no_dis,hori,left,"[99999,99999]","[106,106]",up,0,,,,,,001,2025-03-11_18h43.31.040,SL_sali_41,2021.2.3,Win32,59.17159763,0.7193,,,27,0,27,0,1,,,,,,,,
,,"[""circle"",""green"",""vert"",""up"",[150,0],[-106,106]]",circle,green,vert,up,"[150,0]","[-106,106]",up,1,,,,,,001,2025-03-11_18h43.31.040,SL_sali_41,2021.2.3,Win32,59.17159763,0.7696,,,28,0,28,0,1,,,,,,,,
,,"[""circle"",""green"",""hori"",""left"",[-106,106],[0,150]]",circle,green,hori,left,"[-106,106]","[0,150]",left,1,,,,,,001,2025-03-11_18h43.31.040,SL_sali_41,2021.2.3,Win32,59.17159763,1.1994,,,29,0,29,0,1,,,,,,,,
,,"[""circle"",""red"",""hori"",""left"",[0,-150],[150,0]]",circle,red,hori,left,"[0,-150]","[150,0]",left,1,,,,,,001,2025-03-11_18h43.31.040,SL_sali_41,2021.2.3,Win32,59.17159763,0.7004,,,30,0,30,0,1,,,,,,,,
,,"[""circle"",""red"",""vert"",""up"",[106,-106],[-150,0]]",circle,red,vert,up,"[106,-106]","[-150,0]",up,1,,,,,,001,2025-03-11_18h43.31.040,SL_sali_41,2021.2.3,Win32,59.17159763,0.7142,,,31,0,31,0,1,,,,,,,,
,,"[""circle"",""no_dis"",""hori"",""left"",[99999,99999],[106,106]]",circle,no_dis,hori,left,"[99999,99999]","[106,106]",left,1,,,,,,001,2025-03-11_18h43.31.040,SL_sali_41,2021.2.3,Win32,59.17159763,0.5862,,,32,0,32,0,1,,,,,,,,
,,"[""diamond"",""red"",""hori"",""left"",[106,106],[0,-150]]",diamond,red,hori,left,"[106,106]","[0,-150]",left,1,,,,,,001,2025-03-11_18h43.31.040,SL_sali_41,2021.2.3,Win32,59.17159763,1.0326,,,33,0,33,0,1,,,,,,,,
,,"[""circle"",""green"",""vert"",""up"",[150,0],[0,150]]",circle,green,vert,up,"[150,0]","[0,150]",up,1,,,,,,001,2025-03-11_18h43.31.040,SL_sali_41,2021.2.3,Win32,59.17159763,0.8609,,,34,0,34,0,1,,,,,,,,
,,"[""diamond"",""green"",""vert"",""up"",[150,0],[106,-106]]",diamond,green,vert,up,"[150,0]","[106,-106]",left,0,,,,,,001,2025-03-11_18h43.31.040,SL_sali_41,2021.2.3,Win32,59.17159763,1.252,,,35,0,35,0,1,,,,,,,,
,,"[""diamond"",""no_dis"",""hori"",""left"",[99999,99999],[0,-150]]",diamond,no_dis,hori,left,"[99999,99999]","[0,-150]",up,0,,,,,,001,2025-03-11_18h43.31.040,SL_sali_41,2021.2.3,Win32,59.17159763,0.9038,,,36,0,36,0,1,,,,,,,,
,,"[""circle"",""green"",""vert"",""up"",[150,0],[0,150]]",circle,green,vert,up,"[150,0]","[0,150]",up,1,,,,,,001,2025-03-11_18h43.31.040,SL_sali_41,2021.2.3,Win32,59.17159763,1.0863,,,37,0,37,0,1,,,,,,,,
,,"[""circle"",""green"",""vert"",""up"",[106,-106],[106,106]]",circle,green,vert,up,"[106,-106]","[106,106]",up,1,,,,,,001,2025-03-11_18h43.31.040,SL_sali_41,2021.2.3,Win32,59.17159763,0.6289,,,38,0,38,0,1,,,,,,,,
,,"[""diamond"",""green"",""vert"",""up"",[150,0],[106,-106]]",diamond,green,vert,up,"[150,0]","[106,-106]",left,0,,,,,,001,2025-03-11_18h43.31.040,SL_sali_41,2021.2.3,Win32,59.17159763,0.8977,,,39,0,39,0,1,,,,,,,,
,,"[""diamond"",""no_dis"",""vert"",""up"",[99999,99999],[106,106]]",diamond,no_dis,vert,up,"[99999,99999]","[106,106]",left,0,,,,,,001,2025-03-11_18h43.31.040,SL_sali_41,2021.2.3,Win32,59.17159763,1.3297,,,40,0,40,0,1,,,,,,,,
,,"[""diamond"",""green"",""hori"",""left"",[106,-106],[0,-150]]",diamond,green,hori,left,"[106,-106]","[0,-150]",left,1,,,,,,001,2025-03-11_18h43.31.040,SL_sali_41,2021.2.3,Win32,59.17159763,1.3576,,,41,0,41,0,1,,,,,,,,
,,"[""circle"",""no_dis"",""vert"",""up"",[99999,99999],[106,-106]]",circle,no_dis,vert,up,"[99999,99999]","[106,-106]",up,1,,,,,,001,2025-03-11_18h43.31.040,SL_sali_41,2021.2.3,Win32,59.17159763,1.3396,,,42,0,42,0,1,,,,,,,,
,,"[""diamond"",""green"",""hori"",""left"",[0,-150],[0,150]]",diamond,green,hori,left,"[0,-150]","[0,150]",left,1,,,,,,001,2025-03-11_18h43.31.040,SL_sali_41,2021.2.3,Win32,59.17159763,0.9449,,,43,0,43,0,1,,,,,,,,
,,"[""circle"",""red"",""vert"",""up"",[-150,0],[106,106]]",circle,red,vert,up,"[-150,0]","[106,106]",up,1,,,,,,001,2025-03-11_18h43.31.040,SL_sali_41,2021.2.3,Win32,59.17159763,0.8516,,,44,0,44,0,1,,,,,,,,
,,"[""circle"",""green"",""hori"",""left"",[-106,-106],[106,106]]",circle,green,hori,left,"[-106,-106]","[106,106]",left,1,,,,,,001,2025-03-11_18h43.31.040,SL_sali_41,2021.2.3,Win32,59.17159763,0.7704,,,45,0,45,0,1,,,,,,,,
,,"[""diamond"",""green"",""hori"",""left"",[106,-106],[0,-150]]",diamond,green,hori,left,"[106,-106]","[0,-150]",left,1,,,,,,001,2025-03-11_18h43.31.040,SL_sali_41,2021.2.3,Win32,59.17159763,1.3823,,,46,0,46,0,1,,,,,,,,
,,"[""circle"",""no_dis"",""vert"",""up"",[99999,99999],[150,0]]",circle,no_dis,vert,up,"[99999,99999]","[150,0]",up,1,,,,,,001,2025-03-11_18h43.31.040,SL_sali_41,2021.2.3,Win32,59.17159763,0.7997,,,47,0,47,0,1,,,,,,,,
,,"[""circle"",""green"",""vert"",""up"",[0,-150],[106,-106]]",circle,green,vert,up,"[0,-150]","[106,-106]",up,1,,,,,,001,2025-03-11_18h43.31.040,SL_sali_41,2021.2.3,Win32,59.17159763,0.6694,,,48,0,48,0,1,,,,,,,,
,,"[""circle"",""green"",""hori"",""left"",[150,0],[-106,-106]]",circle,green,hori,left,"[150,0]","[-106,-106]",left,1,,,,,,001,2025-03-11_18h43.31.040,SL_sali_41,2021.2.3,Win32,59.17159763,0.7837,,,49,0,49,0,1,,,,,,,,
,,"[""diamond"",""green"",""hori"",""left"",[-150,0],[0,150]]",diamond,green,hori,left,"[-150,0]","[0,150]",left,1,,,,,,001,2025-03-11_18h43.31.040,SL_sali_41,2021.2.3,Win32,59.17159763,1.2703,,,50,0,50,0,1,,,,,,,,
,,"[""diamond"",""no_dis"",""vert"",""up"",[99999,99999],[0,150]]",diamond,no_dis,vert,up,"[99999,99999]","[0,150]",up,1,,,,,,001,2025-03-11_18h43.31.040,SL_sali_41,2021.2.3,Win32,59.17159763,0.836,,,51,0,51,0,1,,,,,,,,
,,"[""diamond"",""green"",""hori"",""left"",[-106,106],[0,150]]",diamond,green,hori,left,"[-106,106]","[0,150]",left,1,,,,,,001,2025-03-11_18h43.31.040,SL_sali_41,2021.2.3,Win32,59.17159763,1.5874,,,52,0,52,0,1,,,,,,,,
,,"[""circle"",""red"",""hori"",""left"",[150,0],[0,-150]]",circle,red,hori,left,"[150,0]","[0,-150]",left,1,,,,,,001,2025-03-11_18h43.31.040,SL_sali_41,2021.2.3,Win32,59.17159763,0.9299,,,53,0,53,0,1,,,,,,,,
,,"[""circle"",""no_dis"",""vert"",""up"",[99999,99999],[106,-106]]",circle,no_dis,vert,up,"[99999,99999]","[106,-106]",up,1,,,,,,001,2025-03-11_18h43.31.040,SL_sali_41,2021.2.3,Win32,59.17159763,1.1269,,,54,0,54,0,1,,,,,,,,
,,"[""circle"",""red"",""vert"",""up"",[150,0],[106,-106]]",circle,red,vert,up,"[150,0]","[106,-106]",up,1,,,,,,001,2025-03-11_18h43.31.040,SL_sali_41,2021.2.3,Win32,59.17159763,0.7817,,,55,0,55,0,1,,,,,,,,
,,"[""circle"",""no_dis"",""vert"",""up"",[99999,99999],[-106,-106]]",circle,no_dis,vert,up,"[99999,99999]","[-106,-106]",up,1,,,,,,001,2025-03-11_18h43.31.040,SL_sali_41,2021.2.3,Win32,59.17159763,0.7474,,,56,0,56,0,1,,,,,,,,
,,"[""circle"",""green"",""vert"",""up"",[-106,-106],[150,0]]",circle,green,vert,up,"[-106,-106]","[150,0]",up,1,,,,,,001,2025-03-11_18h43.31.040,SL_sali_41,2021.2.3,Win32,59.17159763,0.74,,,57,0,57,0,1,,,,,,,,
,,"[""circle"",""no_dis"",""vert"",""up"",[99999,99999],[106,-106]]",circle,no_dis,vert,up,"[99999,99999]","[106,-106]",up,1,,,,,,001,2025-03-11_18h43.31.040,SL_sali_41,2021.2.3,Win32,59.17159763,1.3391,,,58,0,58,0,1,,,,,,,,
,,"[""circle"",""red"",""vert"",""up"",[-106,106],[150,0]]",circle,red,vert,up,"[-106,106]","[150,0]",up,1,,,,,,001,2025-03-11_18h43.31.040,SL_sali_41,2021.2.3,Win32,59.17159763,0.8218,,,59,0,59,0,1,,,,,,,,
,,"[""circle"",""red"",""vert"",""up"",[0,150],[106,-106]]",circle,red,vert,up,"[0,150]","[106,-106]",up,1,,,,,,001,2025-03-11_18h43.31.040,SL_sali_41,2021.2.3,Win32,59.17159763,1.7199,,,60,0,60,0,1,,,,,,,,
,,"[""diamond"",""no_dis"",""vert"",""up"",[99999,99999],[-150,0]]",diamond,no_dis,vert,up,"[99999,99999]","[-150,0]",up,1,,,,,,001,2025-03-11_18h43.31.040,SL_sali_41,2021.2.3,Win32,59.17159763,0.9911,,,61,0,61,0,1,,,,,,,,
