﻿key_resp.keys,key_resp.rt,trial_para,tar_shape,dis_color_condi,tar_line,cor_resp,dis_loc,tar_loc,resp.keys,resp.corr,resp.rt,trials.thisRepN,trials.thisTrialN,trials.thisN,trials.thisIndex,trials.ran,participant,date,expName,psychopyVersion,OS,frameRate,key_resp_2.keys,key_resp_2.rt,trials_2.thisRepN,trials_2.thisTrialN,trials_2.thisN,trials_2.thisIndex,trials_2.ran,block_num,key_resp_3.keys,key_resp_3.rt,trials_3.thisRepN,trials_3.thisTrialN,trials_3.thisN,trials_3.thisIndex,trials_3.ran
space,30.3378,"[""diamond"",""green"",""vert"",""up"",[0,150],[0,-150]]",diamond,green,vert,up,"[0,150]","[0,-150]",up,1,2.1936,0,0,0,0,1,001,2025-03-11_01h40.02.171,SL_sali_41,2021.2.3,Win32,142.8571429,,,,,,,,,,,,,,,
,,"[""circle"",""green"",""vert"",""up"",[106,106],[-106,106]]",circle,green,vert,up,"[106,106]","[-106,106]",left,0,0.9297,1,0,1,0,1,001,2025-03-11_01h40.02.171,SL_sali_41,2021.2.3,Win32,142.8571429,,,,,,,,,,,,,,,
,,"[""diamond"",""red"",""hori"",""left"",[106,106],[106,-106]]",diamond,red,hori,left,"[106,106]","[106,-106]",up,0,2.8058,2,0,2,0,1,001,2025-03-11_01h40.02.171,SL_sali_41,2021.2.3,Win32,142.8571429,,,,,,,,,,,,,,,
,,"[""circle"",""green"",""hori"",""left"",[0,150],[-106,-106]]",circle,green,hori,left,"[0,150]","[-106,-106]",,0,,3,0,3,0,1,001,2025-03-11_01h40.02.171,SL_sali_41,2021.2.3,Win32,142.8571429,,,,,,,,,,,,,,,
,,"[""circle"",""no_dis"",""hori"",""left"",[99999,99999],[106,106]]",circle,no_dis,hori,left,"[99999,99999]","[106,106]",,0,,4,0,4,0,1,001,2025-03-11_01h40.02.171,SL_sali_41,2021.2.3,Win32,142.8571429,,,,,,,,,,,,,,,
,,"[""diamond"",""red"",""vert"",""up"",[106,-106],[106,106]]",diamond,red,vert,up,"[106,-106]","[106,106]",left,0,1.5766,5,0,5,0,1,001,2025-03-11_01h40.02.171,SL_sali_41,2021.2.3,Win32,142.8571429,,,,,,,,,,,,,,,
,,"[""diamond"",""red"",""hori"",""left"",[-150,0],[106,106]]",diamond,red,hori,left,"[-150,0]","[106,106]",up,0,0.8556,6,0,6,0,1,001,2025-03-11_01h40.02.171,SL_sali_41,2021.2.3,Win32,142.8571429,,,,,,,,,,,,,,,
,,"[""circle"",""red"",""hori"",""left"",[0,150],[-106,106]]",circle,red,hori,left,"[0,150]","[-106,106]",left,1,2.2017,7,0,7,0,1,001,2025-03-11_01h40.02.171,SL_sali_41,2021.2.3,Win32,142.8571429,,,,,,,,,,,,,,,
,,"[""diamond"",""red"",""vert"",""up"",[-106,106],[106,-106]]",diamond,red,vert,up,"[-106,106]","[106,-106]",left,0,1.1327,8,0,8,0,1,001,2025-03-11_01h40.02.171,SL_sali_41,2021.2.3,Win32,142.8571429,,,,,,,,,,,,,,,
,,"[""circle"",""no_dis"",""vert"",""up"",[99999,99999],[-106,-106]]",circle,no_dis,vert,up,"[99999,99999]","[-106,-106]",,0,,9,0,9,0,1,001,2025-03-11_01h40.02.171,SL_sali_41,2021.2.3,Win32,142.8571429,,,,,,,,,,,,,,,
,,"[""diamond"",""green"",""vert"",""up"",[0,150],[0,-150]]",diamond,green,vert,up,"[0,150]","[0,-150]",up,1,2.9098,,,,,,001,2025-03-11_01h40.02.171,SL_sali_41,2021.2.3,Win32,142.8571429,space,40.0008,0,0,0,0,1,,,,,,,,
,,"[""circle"",""green"",""vert"",""up"",[106,106],[-106,106]]",circle,green,vert,up,"[106,106]","[-106,106]",up,1,2.2166,,,,,,001,2025-03-11_01h40.02.171,SL_sali_41,2021.2.3,Win32,142.8571429,,,1,0,1,0,1,,,,,,,,
,,"[""diamond"",""red"",""hori"",""left"",[106,106],[106,-106]]",diamond,red,hori,left,"[106,106]","[106,-106]",,0,,,,,,,001,2025-03-11_01h40.02.171,SL_sali_41,2021.2.3,Win32,142.8571429,,,2,0,2,0,1,,,,,,,,
,,"[""circle"",""green"",""hori"",""left"",[0,150],[-106,-106]]",circle,green,hori,left,"[0,150]","[-106,-106]",left,1,1.4592,,,,,,001,2025-03-11_01h40.02.171,SL_sali_41,2021.2.3,Win32,142.8571429,,,3,0,3,0,1,,,,,,,,
,,"[""circle"",""no_dis"",""hori"",""left"",[99999,99999],[106,106]]",circle,no_dis,hori,left,"[99999,99999]","[106,106]",left,1,1.3789,,,,,,001,2025-03-11_01h40.02.171,SL_sali_41,2021.2.3,Win32,142.8571429,,,4,0,4,0,1,,,,,,,,
,,"[""diamond"",""red"",""vert"",""up"",[106,-106],[106,106]]",diamond,red,vert,up,"[106,-106]","[106,106]",up,1,1.2296,,,,,,001,2025-03-11_01h40.02.171,SL_sali_41,2021.2.3,Win32,142.8571429,,,5,0,5,0,1,,,,,,,,
,,"[""diamond"",""red"",""hori"",""left"",[-150,0],[106,106]]",diamond,red,hori,left,"[-150,0]","[106,106]",left,1,1.4814,,,,,,001,2025-03-11_01h40.02.171,SL_sali_41,2021.2.3,Win32,142.8571429,,,6,0,6,0,1,,,,,,,,
,,"[""circle"",""red"",""hori"",""left"",[0,150],[-106,106]]",circle,red,hori,left,"[0,150]","[-106,106]",left,1,2.2572,,,,,,001,2025-03-11_01h40.02.171,SL_sali_41,2021.2.3,Win32,142.8571429,,,7,0,7,0,1,,,,,,,,
,,"[""diamond"",""red"",""vert"",""up"",[-106,106],[106,-106]]",diamond,red,vert,up,"[-106,106]","[106,-106]",up,1,2.2228,,,,,,001,2025-03-11_01h40.02.171,SL_sali_41,2021.2.3,Win32,142.8571429,,,8,0,8,0,1,,,,,,,,
,,"[""circle"",""no_dis"",""vert"",""up"",[99999,99999],[-106,-106]]",circle,no_dis,vert,up,"[99999,99999]","[-106,-106]",up,1,1.4586,,,,,,001,2025-03-11_01h40.02.171,SL_sali_41,2021.2.3,Win32,142.8571429,,,9,0,9,0,1,,,,,,,,
,,"[""diamond"",""green"",""vert"",""up"",[-150,0],[-106,106]]",diamond,green,vert,up,"[-150,0]","[-106,106]",up,1,2.0001,,,,,,001,2025-03-11_01h40.02.171,SL_sali_41,2021.2.3,Win32,142.8571429,,,10,0,10,0,1,,,,,,,,
,,"[""circle"",""green"",""vert"",""up"",[106,106],[-106,106]]",circle,green,vert,up,"[106,106]","[-106,106]",up,1,1.9948,,,,,,001,2025-03-11_01h40.02.171,SL_sali_41,2021.2.3,Win32,142.8571429,,,11,0,11,0,1,,,,,,,,
,,"[""diamond"",""green"",""hori"",""left"",[150,0],[-106,-106]]",diamond,green,hori,left,"[150,0]","[-106,-106]",left,1,2.2581,,,,,,001,2025-03-11_01h40.02.171,SL_sali_41,2021.2.3,Win32,142.8571429,,,12,0,12,0,1,,,,,,,,
,,"[""circle"",""red"",""hori"",""left"",[-106,-106],[150,0]]",circle,red,hori,left,"[-106,-106]","[150,0]",left,1,1.4522,,,,,,001,2025-03-11_01h40.02.171,SL_sali_41,2021.2.3,Win32,142.8571429,,,13,0,13,0,1,,,,,,,,
,,"[""circle"",""no_dis"",""vert"",""up"",[99999,99999],[106,-106]]",circle,no_dis,vert,up,"[99999,99999]","[106,-106]",up,1,1.6178,,,,,,001,2025-03-11_01h40.02.171,SL_sali_41,2021.2.3,Win32,142.8571429,,,14,0,14,0,1,,,,,,,,
,,"[""circle"",""red"",""hori"",""left"",[106,106],[-106,106]]",circle,red,hori,left,"[106,106]","[-106,106]",left,1,1.7452,,,,,,001,2025-03-11_01h40.02.171,SL_sali_41,2021.2.3,Win32,142.8571429,,,15,0,15,0,1,,,,,,,,
,,"[""circle"",""no_dis"",""hori"",""left"",[99999,99999],[-150,0]]",circle,no_dis,hori,left,"[99999,99999]","[-150,0]",left,1,1.6388,,,,,,001,2025-03-11_01h40.02.171,SL_sali_41,2021.2.3,Win32,142.8571429,,,16,0,16,0,1,,,,,,,,
,,"[""diamond"",""red"",""vert"",""up"",[106,106],[0,-150]]",diamond,red,vert,up,"[106,106]","[0,-150]",up,1,1.6,,,,,,001,2025-03-11_01h40.02.171,SL_sali_41,2021.2.3,Win32,142.8571429,,,17,0,17,0,1,,,,,,,,
,,"[""diamond"",""red"",""hori"",""left"",[0,-150],[106,-106]]",diamond,red,hori,left,"[0,-150]","[106,-106]",left,1,1.3415,,,,,,001,2025-03-11_01h40.02.171,SL_sali_41,2021.2.3,Win32,142.8571429,,,18,0,18,0,1,,,,,,,,
,,"[""circle"",""green"",""hori"",""left"",[106,106],[-106,-106]]",circle,green,hori,left,"[106,106]","[-106,-106]",left,1,1.487,,,,,,001,2025-03-11_01h40.02.171,SL_sali_41,2021.2.3,Win32,142.8571429,,,19,0,19,0,1,,,,,,,,
,,"[""circle"",""red"",""hori"",""left"",[106,106],[0,-150]]",circle,red,hori,left,"[106,106]","[0,-150]",left,1,1.2154,,,,,,001,2025-03-11_01h40.02.171,SL_sali_41,2021.2.3,Win32,142.8571429,,,20,0,20,0,1,,,,,,,,
,,"[""circle"",""no_dis"",""vert"",""up"",[99999,99999],[0,150]]",circle,no_dis,vert,up,"[99999,99999]","[0,150]",up,1,1.2568,,,,,,001,2025-03-11_01h40.02.171,SL_sali_41,2021.2.3,Win32,142.8571429,,,21,0,21,0,1,,,,,,,,
,,"[""circle"",""red"",""hori"",""left"",[0,-150],[150,0]]",circle,red,hori,left,"[0,-150]","[150,0]",left,1,0.9464,,,,,,001,2025-03-11_01h40.02.171,SL_sali_41,2021.2.3,Win32,142.8571429,,,22,0,22,0,1,,,,,,,,
,,"[""circle"",""no_dis"",""hori"",""left"",[99999,99999],[-106,106]]",circle,no_dis,hori,left,"[99999,99999]","[-106,106]",left,1,1.4109,,,,,,001,2025-03-11_01h40.02.171,SL_sali_41,2021.2.3,Win32,142.8571429,,,23,0,23,0,1,,,,,,,,
,,"[""diamond"",""no_dis"",""vert"",""up"",[99999,99999],[0,-150]]",diamond,no_dis,vert,up,"[99999,99999]","[0,-150]",up,1,1.014,,,,,,001,2025-03-11_01h40.02.171,SL_sali_41,2021.2.3,Win32,142.8571429,,,24,0,24,0,1,,,,,,,,
,,"[""diamond"",""red"",""hori"",""left"",[-150,0],[106,106]]",diamond,red,hori,left,"[-150,0]","[106,106]",left,1,0.9157,,,,,,001,2025-03-11_01h40.02.171,SL_sali_41,2021.2.3,Win32,142.8571429,,,25,0,25,0,1,,,,,,,,
,,"[""circle"",""red"",""vert"",""up"",[106,106],[-106,106]]",circle,red,vert,up,"[106,106]","[-106,106]",up,1,1.0071,,,,,,001,2025-03-11_01h40.02.171,SL_sali_41,2021.2.3,Win32,142.8571429,,,26,0,26,0,1,,,,,,,,
,,"[""diamond"",""no_dis"",""vert"",""up"",[99999,99999],[-106,-106]]",diamond,no_dis,vert,up,"[99999,99999]","[-106,-106]",up,1,0.9172,,,,,,001,2025-03-11_01h40.02.171,SL_sali_41,2021.2.3,Win32,142.8571429,,,27,0,27,0,1,,,,,,,,
,,"[""diamond"",""green"",""hori"",""left"",[-106,106],[150,0]]",diamond,green,hori,left,"[-106,106]","[150,0]",left,1,0.8952,,,,,,001,2025-03-11_01h40.02.171,SL_sali_41,2021.2.3,Win32,142.8571429,,,28,0,28,0,1,,,,,,,,
,,"[""circle"",""green"",""hori"",""left"",[106,-106],[-106,106]]",circle,green,hori,left,"[106,-106]","[-106,106]",left,1,0.9478,,,,,,001,2025-03-11_01h40.02.171,SL_sali_41,2021.2.3,Win32,142.8571429,,,29,0,29,0,1,,,,,,,,
,,"[""diamond"",""green"",""hori"",""left"",[150,0],[106,106]]",diamond,green,hori,left,"[150,0]","[106,106]",left,1,1.4741,,,,,,001,2025-03-11_01h40.02.171,SL_sali_41,2021.2.3,Win32,142.8571429,,,30,0,30,0,1,,,,,,,,
,,"[""circle"",""green"",""hori"",""left"",[0,-150],[-106,-106]]",circle,green,hori,left,"[0,-150]","[-106,-106]",left,1,1.0007,,,,,,001,2025-03-11_01h40.02.171,SL_sali_41,2021.2.3,Win32,142.8571429,,,31,0,31,0,1,,,,,,,,
,,"[""diamond"",""green"",""hori"",""left"",[0,150],[-150,0]]",diamond,green,hori,left,"[0,150]","[-150,0]",left,1,1.1748,,,,,,001,2025-03-11_01h40.02.171,SL_sali_41,2021.2.3,Win32,142.8571429,,,32,0,32,0,1,,,,,,,,
,,"[""circle"",""red"",""vert"",""up"",[106,-106],[-150,0]]",circle,red,vert,up,"[106,-106]","[-150,0]",up,1,1.2446,,,,,,001,2025-03-11_01h40.02.171,SL_sali_41,2021.2.3,Win32,142.8571429,,,33,0,33,0,1,,,,,,,,
,,"[""diamond"",""no_dis"",""vert"",""up"",[99999,99999],[106,-106]]",diamond,no_dis,vert,up,"[99999,99999]","[106,-106]",up,1,1.0064,,,,,,001,2025-03-11_01h40.02.171,SL_sali_41,2021.2.3,Win32,142.8571429,,,34,0,34,0,1,,,,,,,,
,,"[""circle"",""no_dis"",""hori"",""left"",[99999,99999],[106,106]]",circle,no_dis,hori,left,"[99999,99999]","[106,106]",left,1,1.424,,,,,,001,2025-03-11_01h40.02.171,SL_sali_41,2021.2.3,Win32,142.8571429,,,35,0,35,0,1,,,,,,,,
,,"[""circle"",""no_dis"",""hori"",""left"",[99999,99999],[-106,106]]",circle,no_dis,hori,left,"[99999,99999]","[-106,106]",left,1,1.0901,,,,,,001,2025-03-11_01h40.02.171,SL_sali_41,2021.2.3,Win32,142.8571429,,,36,0,36,0,1,,,,,,,,
,,"[""circle"",""no_dis"",""vert"",""up"",[99999,99999],[106,-106]]",circle,no_dis,vert,up,"[99999,99999]","[106,-106]",up,1,1.2854,,,,,,001,2025-03-11_01h40.02.171,SL_sali_41,2021.2.3,Win32,142.8571429,,,37,0,37,0,1,,,,,,,,
,,"[""diamond"",""green"",""hori"",""left"",[106,-106],[106,106]]",diamond,green,hori,left,"[106,-106]","[106,106]",left,1,1.4308,,,,,,001,2025-03-11_01h40.02.171,SL_sali_41,2021.2.3,Win32,142.8571429,,,38,0,38,0,1,,,,,,,,
,,"[""circle"",""green"",""hori"",""left"",[106,106],[-106,-106]]",circle,green,hori,left,"[106,106]","[-106,-106]",left,1,0.9646,,,,,,001,2025-03-11_01h40.02.171,SL_sali_41,2021.2.3,Win32,142.8571429,,,39,0,39,0,1,,,,,,,,
,,"[""diamond"",""red"",""hori"",""left"",[-150,0],[-106,-106]]",diamond,red,hori,left,"[-150,0]","[-106,-106]",left,1,1.2962,,,,,,001,2025-03-11_01h40.02.171,SL_sali_41,2021.2.3,Win32,142.8571429,,,40,0,40,0,1,,,,,,,,
,,"[""circle"",""red"",""vert"",""up"",[150,0],[0,150]]",circle,red,vert,up,"[150,0]","[0,150]",up,1,1.765,,,,,,001,2025-03-11_01h40.02.171,SL_sali_41,2021.2.3,Win32,142.8571429,,,41,0,41,0,1,,,,,,,,
,,"[""diamond"",""red"",""vert"",""up"",[-106,106],[150,0]]",diamond,red,vert,up,"[-106,106]","[150,0]",up,1,0.9355,,,,,,001,2025-03-11_01h40.02.171,SL_sali_41,2021.2.3,Win32,142.8571429,,,42,0,42,0,1,,,,,,,,
,,"[""diamond"",""no_dis"",""vert"",""up"",[99999,99999],[150,0]]",diamond,no_dis,vert,up,"[99999,99999]","[150,0]",up,1,0.936,,,,,,001,2025-03-11_01h40.02.171,SL_sali_41,2021.2.3,Win32,142.8571429,,,43,0,43,0,1,,,,,,,,
,,"[""diamond"",""green"",""hori"",""left"",[106,106],[150,0]]",diamond,green,hori,left,"[106,106]","[150,0]",left,1,1.0605,,,,,,001,2025-03-11_01h40.02.171,SL_sali_41,2021.2.3,Win32,142.8571429,,,44,0,44,0,1,,,,,,,,
,,"[""diamond"",""red"",""hori"",""left"",[106,106],[106,-106]]",diamond,red,hori,left,"[106,106]","[106,-106]",left,1,0.9093,,,,,,001,2025-03-11_01h40.02.171,SL_sali_41,2021.2.3,Win32,142.8571429,,,45,0,45,0,1,,,,,,,,
,,"[""circle"",""no_dis"",""vert"",""up"",[99999,99999],[-150,0]]",circle,no_dis,vert,up,"[99999,99999]","[-150,0]",up,1,0.9661,,,,,,001,2025-03-11_01h40.02.171,SL_sali_41,2021.2.3,Win32,142.8571429,,,46,0,46,0,1,,,,,,,,
,,"[""diamond"",""no_dis"",""hori"",""left"",[99999,99999],[150,0]]",diamond,no_dis,hori,left,"[99999,99999]","[150,0]",left,1,0.8484,,,,,,001,2025-03-11_01h40.02.171,SL_sali_41,2021.2.3,Win32,142.8571429,,,47,0,47,0,1,,,,,,,,
,,"[""diamond"",""green"",""vert"",""up"",[-150,0],[-106,106]]",diamond,green,vert,up,"[-150,0]","[-106,106]",up,1,1.8533,,,,,,001,2025-03-11_01h40.02.171,SL_sali_41,2021.2.3,Win32,142.8571429,,,48,0,48,0,1,,,,,,,,
,,"[""circle"",""no_dis"",""vert"",""up"",[99999,99999],[150,0]]",circle,no_dis,vert,up,"[99999,99999]","[150,0]",up,1,1.6594,,,,,,001,2025-03-11_01h40.02.171,SL_sali_41,2021.2.3,Win32,142.8571429,,,49,0,49,0,1,,,,,,,,
,,"[""diamond"",""red"",""vert"",""up"",[-106,106],[106,-106]]",diamond,red,vert,up,"[-106,106]","[106,-106]",up,1,0.916,,,,,,001,2025-03-11_01h40.02.171,SL_sali_41,2021.2.3,Win32,142.8571429,,,50,0,50,0,1,,,,,,,,
,,"[""diamond"",""green"",""vert"",""up"",[106,-106],[-150,0]]",diamond,green,vert,up,"[106,-106]","[-150,0]",up,1,1.1519,,,,,,001,2025-03-11_01h40.02.171,SL_sali_41,2021.2.3,Win32,142.8571429,,,51,0,51,0,1,,,,,,,,
,,"[""diamond"",""no_dis"",""vert"",""up"",[99999,99999],[0,-150]]",diamond,no_dis,vert,up,"[99999,99999]","[0,-150]",up,1,1.1032,,,,,,001,2025-03-11_01h40.02.171,SL_sali_41,2021.2.3,Win32,142.8571429,,,52,0,52,0,1,,,,,,,,
,,"[""circle"",""red"",""hori"",""left"",[106,106],[-150,0]]",circle,red,hori,left,"[106,106]","[-150,0]",left,1,1.8833,,,,,,001,2025-03-11_01h40.02.171,SL_sali_41,2021.2.3,Win32,142.8571429,,,53,0,53,0,1,,,,,,,,
,,"[""circle"",""green"",""vert"",""up"",[-150,0],[0,150]]",circle,green,vert,up,"[-150,0]","[0,150]",up,1,1.146,,,,,,001,2025-03-11_01h40.02.171,SL_sali_41,2021.2.3,Win32,142.8571429,,,54,0,54,0,1,,,,,,,,
,,"[""diamond"",""no_dis"",""hori"",""left"",[99999,99999],[-150,0]]",diamond,no_dis,hori,left,"[99999,99999]","[-150,0]",left,1,0.993,,,,,,001,2025-03-11_01h40.02.171,SL_sali_41,2021.2.3,Win32,142.8571429,,,55,0,55,0,1,,,,,,,,
,,"[""circle"",""green"",""vert"",""up"",[150,0],[-150,0]]",circle,green,vert,up,"[150,0]","[-150,0]",up,1,1.9874,,,,,,001,2025-03-11_01h40.02.171,SL_sali_41,2021.2.3,Win32,142.8571429,,,56,0,56,0,1,,,,,,,,
,,"[""circle"",""green"",""vert"",""up"",[106,106],[-106,106]]",circle,green,vert,up,"[106,106]","[-106,106]",up,1,1.174,,,,,,001,2025-03-11_01h40.02.171,SL_sali_41,2021.2.3,Win32,142.8571429,,,57,0,57,0,1,,,,,,,,
,,"[""circle"",""green"",""hori"",""left"",[0,-150],[150,0]]",circle,green,hori,left,"[0,-150]","[150,0]",left,1,0.9313,,,,,,001,2025-03-11_01h40.02.171,SL_sali_41,2021.2.3,Win32,142.8571429,,,58,0,58,0,1,,,,,,,,
,,"[""circle"",""red"",""vert"",""up"",[106,106],[0,150]]",circle,red,vert,up,"[106,106]","[0,150]",up,1,0.8983,,,,,,001,2025-03-11_01h40.02.171,SL_sali_41,2021.2.3,Win32,142.8571429,,,59,0,59,0,1,,,,,,,,
,,"[""diamond"",""no_dis"",""vert"",""up"",[99999,99999],[150,0]]",diamond,no_dis,vert,up,"[99999,99999]","[150,0]",up,1,0.8812,,,,,,001,2025-03-11_01h40.02.171,SL_sali_41,2021.2.3,Win32,142.8571429,,,60,0,60,0,1,,,,,,,,
,,"[""circle"",""red"",""vert"",""up"",[0,150],[106,106]]",circle,red,vert,up,"[0,150]","[106,106]",up,1,1.6743,,,,,,001,2025-03-11_01h40.02.171,SL_sali_41,2021.2.3,Win32,142.8571429,,,61,0,61,0,1,,,,,,,,
,,"[""diamond"",""green"",""vert"",""up"",[-106,-106],[0,150]]",diamond,green,vert,up,"[-106,-106]","[0,150]",up,1,1.2427,,,,,,001,2025-03-11_01h40.02.171,SL_sali_41,2021.2.3,Win32,142.8571429,,,62,0,62,0,1,,,,,,,,
,,"[""circle"",""red"",""hori"",""left"",[150,0],[0,150]]",circle,red,hori,left,"[150,0]","[0,150]",left,1,1.1801,,,,,,001,2025-03-11_01h40.02.171,SL_sali_41,2021.2.3,Win32,142.8571429,,,63,0,63,0,1,,,,,,,,
,,"[""circle"",""red"",""vert"",""up"",[0,-150],[150,0]]",circle,red,vert,up,"[0,-150]","[150,0]",up,1,1.5482,,,,,,001,2025-03-11_01h40.02.171,SL_sali_41,2021.2.3,Win32,142.8571429,,,64,0,64,0,1,,,,,,,,
,,"[""circle"",""no_dis"",""vert"",""up"",[99999,99999],[-106,106]]",circle,no_dis,vert,up,"[99999,99999]","[-106,106]",left,0,1.4238,,,,,,001,2025-03-11_01h40.02.171,SL_sali_41,2021.2.3,Win32,142.8571429,,,65,0,65,0,1,,,,,,,,
,,"[""diamond"",""red"",""vert"",""up"",[-150,0],[150,0]]",diamond,red,vert,up,"[-150,0]","[150,0]",up,1,0.895,,,,,,001,2025-03-11_01h40.02.171,SL_sali_41,2021.2.3,Win32,142.8571429,,,66,0,66,0,1,,,,,,,,
,,"[""circle"",""green"",""hori"",""left"",[106,106],[-150,0]]",circle,green,hori,left,"[106,106]","[-150,0]",left,1,1.1118,,,,,,001,2025-03-11_01h40.02.171,SL_sali_41,2021.2.3,Win32,142.8571429,,,67,0,67,0,1,,,,,,,,
,,"[""diamond"",""green"",""hori"",""left"",[106,106],[-106,106]]",diamond,green,hori,left,"[106,106]","[-106,106]",left,1,1.3547,,,,,,001,2025-03-11_01h40.02.171,SL_sali_41,2021.2.3,Win32,142.8571429,,,68,0,68,0,1,,,,,,,,
,,"[""circle"",""green"",""hori"",""left"",[106,106],[-106,-106]]",circle,green,hori,left,"[106,106]","[-106,-106]",left,1,1.1896,,,,,,001,2025-03-11_01h40.02.171,SL_sali_41,2021.2.3,Win32,142.8571429,,,69,0,69,0,1,,,,,,,,
,,"[""diamond"",""red"",""vert"",""up"",[0,-150],[150,0]]",diamond,red,vert,up,"[0,-150]","[150,0]",up,1,1.2279,,,,,,001,2025-03-11_01h40.02.171,SL_sali_41,2021.2.3,Win32,142.8571429,,,70,0,70,0,1,,,,,,,,
,,"[""diamond"",""no_dis"",""hori"",""left"",[99999,99999],[106,106]]",diamond,no_dis,hori,left,"[99999,99999]","[106,106]",left,1,0.7772,,,,,,001,2025-03-11_01h40.02.171,SL_sali_41,2021.2.3,Win32,142.8571429,,,71,0,71,0,1,,,,,,,,
,,"[""diamond"",""red"",""vert"",""up"",[-106,106],[150,0]]",diamond,red,vert,up,"[-106,106]","[150,0]",up,1,0.8475,,,,,,001,2025-03-11_01h40.02.171,SL_sali_41,2021.2.3,Win32,142.8571429,,,72,0,72,0,1,,,,,,,,
,,"[""circle"",""red"",""vert"",""up"",[106,106],[0,150]]",circle,red,vert,up,"[106,106]","[0,150]",left,0,0.8682,,,,,,001,2025-03-11_01h40.02.171,SL_sali_41,2021.2.3,Win32,142.8571429,,,73,0,73,0,1,,,,,,,,
,,"[""circle"",""red"",""hori"",""left"",[150,0],[-150,0]]",circle,red,hori,left,"[150,0]","[-150,0]",left,1,1.4871,,,,,,001,2025-03-11_01h40.02.171,SL_sali_41,2021.2.3,Win32,142.8571429,,,74,0,74,0,1,,,,,,,,
,,"[""diamond"",""no_dis"",""vert"",""up"",[99999,99999],[-106,106]]",diamond,no_dis,vert,up,"[99999,99999]","[-106,106]",up,1,1.4498,,,,,,001,2025-03-11_01h40.02.171,SL_sali_41,2021.2.3,Win32,142.8571429,,,75,0,75,0,1,,,,,,,,
,,"[""circle"",""green"",""vert"",""up"",[106,106],[-106,106]]",circle,green,vert,up,"[106,106]","[-106,106]",up,1,1.0647,,,,,,001,2025-03-11_01h40.02.171,SL_sali_41,2021.2.3,Win32,142.8571429,,,76,0,76,0,1,,,,,,,,
,,"[""diamond"",""green"",""hori"",""left"",[0,150],[150,0]]",diamond,green,hori,left,"[0,150]","[150,0]",left,1,1.3601,,,,,,001,2025-03-11_01h40.02.171,SL_sali_41,2021.2.3,Win32,142.8571429,,,77,0,77,0,1,,,,,,,,
,,"[""diamond"",""green"",""hori"",""left"",[0,150],[-106,-106]]",diamond,green,hori,left,"[0,150]","[-106,-106]",left,1,1.1105,,,,,,001,2025-03-11_01h40.02.171,SL_sali_41,2021.2.3,Win32,142.8571429,,,78,0,78,0,1,,,,,,,,
,,"[""circle"",""green"",""vert"",""up"",[106,106],[150,0]]",circle,green,vert,up,"[106,106]","[150,0]",up,1,1.1466,,,,,,001,2025-03-11_01h40.02.171,SL_sali_41,2021.2.3,Win32,142.8571429,,,79,0,79,0,1,,,,,,,,
,,"[""diamond"",""no_dis"",""hori"",""left"",[99999,99999],[-106,-106]]",diamond,no_dis,hori,left,"[99999,99999]","[-106,-106]",left,1,1.1112,,,,,,001,2025-03-11_01h40.02.171,SL_sali_41,2021.2.3,Win32,142.8571429,,,80,0,80,0,1,,,,,,,,
,,"[""circle"",""no_dis"",""vert"",""up"",[99999,99999],[0,-150]]",circle,no_dis,vert,up,"[99999,99999]","[0,-150]",up,1,0.9578,,,,,,001,2025-03-11_01h40.02.171,SL_sali_41,2021.2.3,Win32,142.8571429,,,81,0,81,0,1,,,,,,,,
,,"[""circle"",""red"",""vert"",""up"",[-106,106],[150,0]]",circle,red,vert,up,"[-106,106]","[150,0]",up,1,0.8817,,,,,,001,2025-03-11_01h40.02.171,SL_sali_41,2021.2.3,Win32,142.8571429,,,82,0,82,0,1,,,,,,,,
,,"[""diamond"",""red"",""hori"",""left"",[106,-106],[0,150]]",diamond,red,hori,left,"[106,-106]","[0,150]",left,1,1.3535,,,,,,001,2025-03-11_01h40.02.171,SL_sali_41,2021.2.3,Win32,142.8571429,,,83,0,83,0,1,,,,,,,,
,,"[""circle"",""no_dis"",""hori"",""left"",[99999,99999],[0,150]]",circle,no_dis,hori,left,"[99999,99999]","[0,150]",left,1,1.1472,,,,,,001,2025-03-11_01h40.02.171,SL_sali_41,2021.2.3,Win32,142.8571429,,,84,0,84,0,1,,,,,,,,
,,"[""circle"",""no_dis"",""hori"",""left"",[99999,99999],[106,-106]]",circle,no_dis,hori,left,"[99999,99999]","[106,-106]",left,1,1.1532,,,,,,001,2025-03-11_01h40.02.171,SL_sali_41,2021.2.3,Win32,142.8571429,,,85,0,85,0,1,,,,,,,,
,,"[""diamond"",""red"",""vert"",""up"",[-106,106],[0,-150]]",diamond,red,vert,up,"[-106,106]","[0,-150]",up,1,1.0366,,,,,,001,2025-03-11_01h40.02.171,SL_sali_41,2021.2.3,Win32,142.8571429,,,86,0,86,0,1,,,,,,,,
,,"[""circle"",""red"",""hori"",""left"",[106,-106],[0,-150]]",circle,red,hori,left,"[106,-106]","[0,-150]",left,1,1.1811,,,,,,001,2025-03-11_01h40.02.171,SL_sali_41,2021.2.3,Win32,142.8571429,,,87,0,87,0,1,,,,,,,,
,,"[""circle"",""no_dis"",""hori"",""left"",[99999,99999],[-106,-106]]",circle,no_dis,hori,left,"[99999,99999]","[-106,-106]",left,1,1.2015,,,,,,001,2025-03-11_01h40.02.171,SL_sali_41,2021.2.3,Win32,142.8571429,,,88,0,88,0,1,,,,,,,,
,,"[""diamond"",""red"",""hori"",""left"",[106,106],[106,-106]]",diamond,red,hori,left,"[106,106]","[106,-106]",left,1,1.0339,,,,,,001,2025-03-11_01h40.02.171,SL_sali_41,2021.2.3,Win32,142.8571429,,,89,0,89,0,1,,,,,,,,
,,"[""diamond"",""green"",""vert"",""up"",[106,106],[-106,106]]",diamond,green,vert,up,"[106,106]","[-106,106]",up,1,1.0192,,,,,,001,2025-03-11_01h40.02.171,SL_sali_41,2021.2.3,Win32,142.8571429,,,90,0,90,0,1,,,,,,,,
,,"[""circle"",""no_dis"",""vert"",""up"",[99999,99999],[0,-150]]",circle,no_dis,vert,up,"[99999,99999]","[0,-150]",up,1,1.3535,,,,,,001,2025-03-11_01h40.02.171,SL_sali_41,2021.2.3,Win32,142.8571429,,,91,0,91,0,1,,,,,,,,
,,"[""circle"",""green"",""hori"",""left"",[-106,-106],[106,106]]",circle,green,hori,left,"[-106,-106]","[106,106]",left,1,1.1631,,,,,,001,2025-03-11_01h40.02.171,SL_sali_41,2021.2.3,Win32,142.8571429,,,92,0,92,0,1,,,,,,,,
,,"[""circle"",""green"",""vert"",""up"",[-106,-106],[106,-106]]",circle,green,vert,up,"[-106,-106]","[106,-106]",up,1,0.972,,,,,,001,2025-03-11_01h40.02.171,SL_sali_41,2021.2.3,Win32,142.8571429,,,93,0,93,0,1,,,,,,,,
,,"[""diamond"",""no_dis"",""hori"",""left"",[99999,99999],[0,-150]]",diamond,no_dis,hori,left,"[99999,99999]","[0,-150]",left,1,1.0982,,,,,,001,2025-03-11_01h40.02.171,SL_sali_41,2021.2.3,Win32,142.8571429,,,94,0,94,0,1,,,,,,,,
,,"[""diamond"",""red"",""hori"",""left"",[106,106],[-106,-106]]",diamond,red,hori,left,"[106,106]","[-106,-106]",left,1,1.1115,,,,,,001,2025-03-11_01h40.02.171,SL_sali_41,2021.2.3,Win32,142.8571429,,,95,0,95,0,1,,,,,,,,
,,"[""diamond"",""no_dis"",""hori"",""left"",[99999,99999],[150,0]]",diamond,no_dis,hori,left,"[99999,99999]","[150,0]",left,1,1.1737,,,,,,001,2025-03-11_01h40.02.171,SL_sali_41,2021.2.3,Win32,142.8571429,,,96,0,96,0,1,,,,,,,,
,,"[""diamond"",""red"",""hori"",""left"",[0,-150],[0,150]]",diamond,red,hori,left,"[0,-150]","[0,150]",left,1,1.8529,,,,,,001,2025-03-11_01h40.02.171,SL_sali_41,2021.2.3,Win32,142.8571429,,,97,0,97,0,1,,,,,,,,
,,"[""circle"",""red"",""vert"",""up"",[-150,0],[-106,-106]]",circle,red,vert,up,"[-150,0]","[-106,-106]",up,1,1.1947,,,,,,001,2025-03-11_01h40.02.171,SL_sali_41,2021.2.3,Win32,142.8571429,,,98,0,98,0,1,,,,,,,,
,,"[""circle"",""red"",""vert"",""up"",[-106,-106],[106,-106]]",circle,red,vert,up,"[-106,-106]","[106,-106]",up,1,1.195,,,,,,001,2025-03-11_01h40.02.171,SL_sali_41,2021.2.3,Win32,142.8571429,,,99,0,99,0,1,,,,,,,,
,,"[""circle"",""no_dis"",""vert"",""up"",[99999,99999],[106,106]]",circle,no_dis,vert,up,"[99999,99999]","[106,106]",up,1,1.0366,,,,,,001,2025-03-11_01h40.02.171,SL_sali_41,2021.2.3,Win32,142.8571429,,,100,0,100,0,1,,,,,,,,
,,"[""circle"",""red"",""hori"",""left"",[106,106],[106,-106]]",circle,red,hori,left,"[106,106]","[106,-106]",left,1,1.2781,,,,,,001,2025-03-11_01h40.02.171,SL_sali_41,2021.2.3,Win32,142.8571429,,,101,0,101,0,1,,,,,,,,
,,"[""circle"",""green"",""hori"",""left"",[0,150],[-106,106]]",circle,green,hori,left,"[0,150]","[-106,106]",left,1,1.1393,,,,,,001,2025-03-11_01h40.02.171,SL_sali_41,2021.2.3,Win32,142.8571429,,,102,0,102,0,1,,,,,,,,
,,"[""circle"",""green"",""hori"",""left"",[106,106],[-106,106]]",circle,green,hori,left,"[106,106]","[-106,106]",left,1,0.9446,,,,,,001,2025-03-11_01h40.02.171,SL_sali_41,2021.2.3,Win32,142.8571429,,,103,0,103,0,1,,,,,,,,
,,"[""diamond"",""green"",""vert"",""up"",[106,106],[-150,0]]",diamond,green,vert,up,"[106,106]","[-150,0]",up,1,1.4396,,,,,,001,2025-03-11_01h40.02.171,SL_sali_41,2021.2.3,Win32,142.8571429,,,104,0,104,0,1,,,,,,,,
,,"[""diamond"",""no_dis"",""vert"",""up"",[99999,99999],[106,-106]]",diamond,no_dis,vert,up,"[99999,99999]","[106,-106]",up,1,0.8948,,,,,,001,2025-03-11_01h40.02.171,SL_sali_41,2021.2.3,Win32,142.8571429,,,105,0,105,0,1,,,,,,,,
,,"[""diamond"",""red"",""hori"",""left"",[106,106],[0,150]]",diamond,red,hori,left,"[106,106]","[0,150]",left,1,0.8739,,,,,,001,2025-03-11_01h40.02.171,SL_sali_41,2021.2.3,Win32,142.8571429,,,106,0,106,0,1,,,,,,,,
,,"[""circle"",""green"",""vert"",""up"",[-106,-106],[106,-106]]",circle,green,vert,up,"[-106,-106]","[106,-106]",up,1,0.7494,,,,,,001,2025-03-11_01h40.02.171,SL_sali_41,2021.2.3,Win32,142.8571429,,,107,0,107,0,1,,,,,,,,
,,"[""diamond"",""no_dis"",""vert"",""up"",[99999,99999],[-150,0]]",diamond,no_dis,vert,up,"[99999,99999]","[-150,0]",up,1,1.2211,,,,,,001,2025-03-11_01h40.02.171,SL_sali_41,2021.2.3,Win32,142.8571429,,,108,0,108,0,1,,,,,,,,
,,"[""circle"",""no_dis"",""hori"",""left"",[99999,99999],[-150,0]]",circle,no_dis,hori,left,"[99999,99999]","[-150,0]",left,1,0.9177,,,,,,001,2025-03-11_01h40.02.171,SL_sali_41,2021.2.3,Win32,142.8571429,,,109,0,109,0,1,,,,,,,,
,,"[""diamond"",""green"",""hori"",""left"",[106,106],[-106,106]]",diamond,green,hori,left,"[106,106]","[-106,106]",left,1,0.9594,,,,,,001,2025-03-11_01h40.02.171,SL_sali_41,2021.2.3,Win32,142.8571429,,,110,0,110,0,1,,,,,,,,
,,"[""diamond"",""green"",""vert"",""up"",[106,106],[150,0]]",diamond,green,vert,up,"[106,106]","[150,0]",up,1,1.471,,,,,,001,2025-03-11_01h40.02.171,SL_sali_41,2021.2.3,Win32,142.8571429,,,111,0,111,0,1,,,,,,,,
,,"[""diamond"",""no_dis"",""hori"",""left"",[99999,99999],[0,150]]",diamond,no_dis,hori,left,"[99999,99999]","[0,150]",left,1,1.0207,,,,,,001,2025-03-11_01h40.02.171,SL_sali_41,2021.2.3,Win32,142.8571429,,,112,0,112,0,1,,,,,,,,
,,"[""circle"",""red"",""vert"",""up"",[150,0],[-106,-106]]",circle,red,vert,up,"[150,0]","[-106,-106]",up,1,1.0632,,,,,,001,2025-03-11_01h40.02.171,SL_sali_41,2021.2.3,Win32,142.8571429,,,113,0,113,0,1,,,,,,,,
,,"[""diamond"",""red"",""vert"",""up"",[106,106],[150,0]]",diamond,red,vert,up,"[106,106]","[150,0]",up,1,2.0211,,,,,,001,2025-03-11_01h40.02.171,SL_sali_41,2021.2.3,Win32,142.8571429,,,114,0,114,0,1,,,,,,,,
,,"[""diamond"",""green"",""vert"",""up"",[106,106],[-106,106]]",diamond,green,vert,up,"[106,106]","[-106,106]",up,1,1.0484,,,,,,001,2025-03-11_01h40.02.171,SL_sali_41,2021.2.3,Win32,142.8571429,,,115,0,115,0,1,,,,,,,,
,,"[""diamond"",""no_dis"",""hori"",""left"",[99999,99999],[106,106]]",diamond,no_dis,hori,left,"[99999,99999]","[106,106]",left,1,1.0552,,,,,,001,2025-03-11_01h40.02.171,SL_sali_41,2021.2.3,Win32,142.8571429,,,116,0,116,0,1,,,,,,,,
,,"[""diamond"",""green"",""vert"",""up"",[-106,106],[106,-106]]",diamond,green,vert,up,"[-106,106]","[106,-106]",up,1,0.7633,,,,,,001,2025-03-11_01h40.02.171,SL_sali_41,2021.2.3,Win32,142.8571429,,,117,0,117,0,1,,,,,,,,
,,"[""circle"",""red"",""hori"",""left"",[106,106],[0,150]]",circle,red,hori,left,"[106,106]","[0,150]",left,1,0.8811,,,,,,001,2025-03-11_01h40.02.171,SL_sali_41,2021.2.3,Win32,142.8571429,,,118,0,118,0,1,,,,,,,,
,,"[""circle"",""green"",""vert"",""up"",[-106,-106],[106,-106]]",circle,green,vert,up,"[-106,-106]","[106,-106]",up,1,0.7644,,,,,,001,2025-03-11_01h40.02.171,SL_sali_41,2021.2.3,Win32,142.8571429,,,119,0,119,0,1,,,,,,,,
,,"[""circle"",""no_dis"",""hori"",""left"",[99999,99999],[-106,-106]]",circle,no_dis,hori,left,"[99999,99999]","[-106,-106]",left,1,0.7598,,,,,,001,2025-03-11_01h40.02.171,SL_sali_41,2021.2.3,Win32,142.8571429,,,120,0,120,0,1,,,,,,,,
,,"[""diamond"",""green"",""hori"",""left"",[150,0],[-106,-106]]",diamond,green,hori,left,"[150,0]","[-106,-106]",left,1,0.717,,,,,,001,2025-03-11_01h40.02.171,SL_sali_41,2021.2.3,Win32,142.8571429,,,121,0,121,0,1,,,,,,,,
,,"[""diamond"",""red"",""vert"",""up"",[106,-106],[-106,-106]]",diamond,red,vert,up,"[106,-106]","[-106,-106]",up,1,0.9147,,,,,,001,2025-03-11_01h40.02.171,SL_sali_41,2021.2.3,Win32,142.8571429,,,122,0,122,0,1,,,,,,,,
,,"[""diamond"",""green"",""vert"",""up"",[-106,-106],[150,0]]",diamond,green,vert,up,"[-106,-106]","[150,0]",up,1,2.1031,,,,,,001,2025-03-11_01h40.02.171,SL_sali_41,2021.2.3,Win32,142.8571429,,,123,0,123,0,1,,,,,,,,
,,"[""circle"",""green"",""vert"",""up"",[0,-150],[0,150]]",circle,green,vert,up,"[0,-150]","[0,150]",up,1,1.0762,,,,,,001,2025-03-11_01h40.02.171,SL_sali_41,2021.2.3,Win32,142.8571429,,,124,0,124,0,1,,,,,,,,
,,"[""diamond"",""no_dis"",""hori"",""left"",[99999,99999],[0,150]]",diamond,no_dis,hori,left,"[99999,99999]","[0,150]",left,1,0.9638,,,,,,001,2025-03-11_01h40.02.171,SL_sali_41,2021.2.3,Win32,142.8571429,,,125,0,125,0,1,,,,,,,,
,,"[""diamond"",""no_dis"",""hori"",""left"",[99999,99999],[0,150]]",diamond,no_dis,hori,left,"[99999,99999]","[0,150]",left,1,0.7634,,,,,,001,2025-03-11_01h40.02.171,SL_sali_41,2021.2.3,Win32,142.8571429,,,126,0,126,0,1,,,,,,,,
,,"[""diamond"",""no_dis"",""vert"",""up"",[99999,99999],[-106,106]]",diamond,no_dis,vert,up,"[99999,99999]","[-106,106]",up,1,1.1445,,,,,,001,2025-03-11_01h40.02.171,SL_sali_41,2021.2.3,Win32,142.8571429,,,127,0,127,0,1,,,,,,,,
,,,,,,,,,,,,,,,,,001,2025-03-11_01h40.02.171,SL_sali_41,2021.2.3,Win32,142.8571429,,,,,,,,1,space,7.3582,0,0,0,0,1
,,"[""diamond"",""green"",""hori"",""left"",[150,0],[106,106]]",diamond,green,hori,left,"[150,0]","[106,106]",,0,,,,,,,001,2025-03-11_01h40.02.171,SL_sali_41,2021.2.3,Win32,142.8571429,,,0,0,0,0,1,,,,,,,,
,,"[""circle"",""red"",""vert"",""up"",[150,0],[0,150]]",circle,red,vert,up,"[150,0]","[0,150]",up,1,1.2638,,,,,,001,2025-03-11_01h40.02.171,SL_sali_41,2021.2.3,Win32,142.8571429,,,1,0,1,0,1,,,,,,,,
,,"[""circle"",""no_dis"",""hori"",""left"",[99999,99999],[106,106]]",circle,no_dis,hori,left,"[99999,99999]","[106,106]",left,1,1.1455,,,,,,001,2025-03-11_01h40.02.171,SL_sali_41,2021.2.3,Win32,142.8571429,,,2,0,2,0,1,,,,,,,,
,,"[""circle"",""red"",""hori"",""left"",[0,-150],[150,0]]",circle,red,hori,left,"[0,-150]","[150,0]",left,1,1.4655,,,,,,001,2025-03-11_01h40.02.171,SL_sali_41,2021.2.3,Win32,142.8571429,,,3,0,3,0,1,,,,,,,,
,,"[""diamond"",""green"",""vert"",""up"",[106,106],[-106,106]]",diamond,green,vert,up,"[106,106]","[-106,106]",up,1,1.1587,,,,,,001,2025-03-11_01h40.02.171,SL_sali_41,2021.2.3,Win32,142.8571429,,,4,0,4,0,1,,,,,,,,
,,"[""diamond"",""no_dis"",""vert"",""up"",[99999,99999],[106,-106]]",diamond,no_dis,vert,up,"[99999,99999]","[106,-106]",up,1,0.8461,,,,,,001,2025-03-11_01h40.02.171,SL_sali_41,2021.2.3,Win32,142.8571429,,,5,0,5,0,1,,,,,,,,
,,"[""circle"",""red"",""vert"",""up"",[-150,0],[-106,-106]]",circle,red,vert,up,"[-150,0]","[-106,-106]",up,1,1.062,,,,,,001,2025-03-11_01h40.02.171,SL_sali_41,2021.2.3,Win32,142.8571429,,,6,0,6,0,1,,,,,,,,
,,"[""diamond"",""red"",""hori"",""left"",[0,-150],[106,-106]]",diamond,red,hori,left,"[0,-150]","[106,-106]",left,1,1.361,,,,,,001,2025-03-11_01h40.02.171,SL_sali_41,2021.2.3,Win32,142.8571429,,,7,0,7,0,1,,,,,,,,
,,"[""circle"",""no_dis"",""hori"",""left"",[99999,99999],[-150,0]]",circle,no_dis,hori,left,"[99999,99999]","[-150,0]",left,1,1.034,,,,,,001,2025-03-11_01h40.02.171,SL_sali_41,2021.2.3,Win32,142.8571429,,,8,0,8,0,1,,,,,,,,
,,"[""diamond"",""red"",""vert"",""up"",[0,-150],[150,0]]",diamond,red,vert,up,"[0,-150]","[150,0]",up,1,1.1111,,,,,,001,2025-03-11_01h40.02.171,SL_sali_41,2021.2.3,Win32,142.8571429,,,9,0,9,0,1,,,,,,,,
,,"[""circle"",""green"",""hori"",""left"",[106,106],[-150,0]]",circle,green,hori,left,"[106,106]","[-150,0]",left,1,0.8602,,,,,,001,2025-03-11_01h40.02.171,SL_sali_41,2021.2.3,Win32,142.8571429,,,10,0,10,0,1,,,,,,,,
,,"[""circle"",""no_dis"",""vert"",""up"",[99999,99999],[106,-106]]",circle,no_dis,vert,up,"[99999,99999]","[106,-106]",up,1,0.834,,,,,,001,2025-03-11_01h40.02.171,SL_sali_41,2021.2.3,Win32,142.8571429,,,11,0,11,0,1,,,,,,,,
,,"[""circle"",""green"",""hori"",""left"",[106,106],[-106,-106]]",circle,green,hori,left,"[106,106]","[-106,-106]",left,1,0.7732,,,,,,001,2025-03-11_01h40.02.171,SL_sali_41,2021.2.3,Win32,142.8571429,,,12,0,12,0,1,,,,,,,,
,,"[""circle"",""red"",""hori"",""left"",[106,106],[-150,0]]",circle,red,hori,left,"[106,106]","[-150,0]",left,1,0.8051,,,,,,001,2025-03-11_01h40.02.171,SL_sali_41,2021.2.3,Win32,142.8571429,,,13,0,13,0,1,,,,,,,,
,,"[""diamond"",""no_dis"",""vert"",""up"",[99999,99999],[-150,0]]",diamond,no_dis,vert,up,"[99999,99999]","[-150,0]",up,1,0.9449,,,,,,001,2025-03-11_01h40.02.171,SL_sali_41,2021.2.3,Win32,142.8571429,,,14,0,14,0,1,,,,,,,,
,,"[""diamond"",""green"",""vert"",""up"",[-106,106],[106,-106]]",diamond,green,vert,up,"[-106,106]","[106,-106]",up,1,0.7419,,,,,,001,2025-03-11_01h40.02.171,SL_sali_41,2021.2.3,Win32,142.8571429,,,15,0,15,0,1,,,,,,,,
,,"[""circle"",""red"",""vert"",""up"",[0,150],[106,106]]",circle,red,vert,up,"[0,150]","[106,106]",up,1,1.3006,,,,,,001,2025-03-11_01h40.02.171,SL_sali_41,2021.2.3,Win32,142.8571429,,,16,0,16,0,1,,,,,,,,
,,"[""circle"",""green"",""vert"",""up"",[-106,-106],[106,-106]]",circle,green,vert,up,"[-106,-106]","[106,-106]",up,1,1.4108,,,,,,001,2025-03-11_01h40.02.171,SL_sali_41,2021.2.3,Win32,142.8571429,,,17,0,17,0,1,,,,,,,,
,,"[""diamond"",""red"",""vert"",""up"",[-106,106],[106,-106]]",diamond,red,vert,up,"[-106,106]","[106,-106]",up,1,0.9988,,,,,,001,2025-03-11_01h40.02.171,SL_sali_41,2021.2.3,Win32,142.8571429,,,18,0,18,0,1,,,,,,,,
,,"[""circle"",""green"",""vert"",""up"",[106,106],[-106,106]]",circle,green,vert,up,"[106,106]","[-106,106]",up,1,0.9731,,,,,,001,2025-03-11_01h40.02.171,SL_sali_41,2021.2.3,Win32,142.8571429,,,19,0,19,0,1,,,,,,,,
,,"[""circle"",""green"",""vert"",""up"",[106,106],[-106,106]]",circle,green,vert,up,"[106,106]","[-106,106]",up,1,1.1757,,,,,,001,2025-03-11_01h40.02.171,SL_sali_41,2021.2.3,Win32,142.8571429,,,20,0,20,0,1,,,,,,,,
,,"[""diamond"",""green"",""hori"",""left"",[106,106],[-106,106]]",diamond,green,hori,left,"[106,106]","[-106,106]",left,1,0.9436,,,,,,001,2025-03-11_01h40.02.171,SL_sali_41,2021.2.3,Win32,142.8571429,,,21,0,21,0,1,,,,,,,,
,,"[""circle"",""red"",""hori"",""left"",[106,-106],[0,-150]]",circle,red,hori,left,"[106,-106]","[0,-150]",left,1,1.3475,,,,,,001,2025-03-11_01h40.02.171,SL_sali_41,2021.2.3,Win32,142.8571429,,,22,0,22,0,1,,,,,,,,
,,"[""diamond"",""no_dis"",""hori"",""left"",[99999,99999],[106,106]]",diamond,no_dis,hori,left,"[99999,99999]","[106,106]",left,1,1.3399,,,,,,001,2025-03-11_01h40.02.171,SL_sali_41,2021.2.3,Win32,142.8571429,,,23,0,23,0,1,,,,,,,,
,,"[""circle"",""red"",""vert"",""up"",[106,106],[0,150]]",circle,red,vert,up,"[106,106]","[0,150]",up,1,0.8679,,,,,,001,2025-03-11_01h40.02.171,SL_sali_41,2021.2.3,Win32,142.8571429,,,24,0,24,0,1,,,,,,,,
,,"[""diamond"",""no_dis"",""hori"",""left"",[99999,99999],[150,0]]",diamond,no_dis,hori,left,"[99999,99999]","[150,0]",left,1,1.2839,,,,,,001,2025-03-11_01h40.02.171,SL_sali_41,2021.2.3,Win32,142.8571429,,,25,0,25,0,1,,,,,,,,
,,"[""diamond"",""no_dis"",""hori"",""left"",[99999,99999],[0,150]]",diamond,no_dis,hori,left,"[99999,99999]","[0,150]",left,1,0.9286,,,,,,001,2025-03-11_01h40.02.171,SL_sali_41,2021.2.3,Win32,142.8571429,,,26,0,26,0,1,,,,,,,,
,,"[""circle"",""red"",""vert"",""up"",[106,106],[-106,106]]",circle,red,vert,up,"[106,106]","[-106,106]",up,1,1.0643,,,,,,001,2025-03-11_01h40.02.171,SL_sali_41,2021.2.3,Win32,142.8571429,,,27,0,27,0,1,,,,,,,,
,,"[""diamond"",""green"",""hori"",""left"",[106,106],[150,0]]",diamond,green,hori,left,"[106,106]","[150,0]",left,1,1.2705,,,,,,001,2025-03-11_01h40.02.171,SL_sali_41,2021.2.3,Win32,142.8571429,,,28,0,28,0,1,,,,,,,,
,,"[""diamond"",""no_dis"",""vert"",""up"",[99999,99999],[-106,106]]",diamond,no_dis,vert,up,"[99999,99999]","[-106,106]",up,1,0.9049,,,,,,001,2025-03-11_01h40.02.171,SL_sali_41,2021.2.3,Win32,142.8571429,,,29,0,29,0,1,,,,,,,,
,,"[""diamond"",""red"",""hori"",""left"",[106,106],[106,-106]]",diamond,red,hori,left,"[106,106]","[106,-106]",left,1,1.2754,,,,,,001,2025-03-11_01h40.02.171,SL_sali_41,2021.2.3,Win32,142.8571429,,,30,0,30,0,1,,,,,,,,
,,"[""diamond"",""green"",""vert"",""up"",[106,106],[-106,106]]",diamond,green,vert,up,"[106,106]","[-106,106]",up,1,0.9426,,,,,,001,2025-03-11_01h40.02.171,SL_sali_41,2021.2.3,Win32,142.8571429,,,31,0,31,0,1,,,,,,,,
,,"[""diamond"",""green"",""hori"",""left"",[150,0],[-106,-106]]",diamond,green,hori,left,"[150,0]","[-106,-106]",left,1,1.2492,,,,,,001,2025-03-11_01h40.02.171,SL_sali_41,2021.2.3,Win32,142.8571429,,,32,0,32,0,1,,,,,,,,
,,"[""diamond"",""red"",""vert"",""up"",[106,-106],[106,106]]",diamond,red,vert,up,"[106,-106]","[106,106]",up,1,1.1263,,,,,,001,2025-03-11_01h40.02.171,SL_sali_41,2021.2.3,Win32,142.8571429,,,33,0,33,0,1,,,,,,,,
,,"[""circle"",""green"",""vert"",""up"",[106,106],[-106,106]]",circle,green,vert,up,"[106,106]","[-106,106]",up,1,1.1468,,,,,,001,2025-03-11_01h40.02.171,SL_sali_41,2021.2.3,Win32,142.8571429,,,34,0,34,0,1,,,,,,,,
,,"[""circle"",""no_dis"",""vert"",""up"",[99999,99999],[-106,106]]",circle,no_dis,vert,up,"[99999,99999]","[-106,106]",up,1,1.0762,,,,,,001,2025-03-11_01h40.02.171,SL_sali_41,2021.2.3,Win32,142.8571429,,,35,0,35,0,1,,,,,,,,
,,"[""diamond"",""green"",""vert"",""up"",[0,150],[0,-150]]",diamond,green,vert,up,"[0,150]","[0,-150]",up,1,1.5892,,,,,,001,2025-03-11_01h40.02.171,SL_sali_41,2021.2.3,Win32,142.8571429,,,36,0,36,0,1,,,,,,,,
,,"[""diamond"",""green"",""hori"",""left"",[106,106],[-106,106]]",diamond,green,hori,left,"[106,106]","[-106,106]",left,1,1.0686,,,,,,001,2025-03-11_01h40.02.171,SL_sali_41,2021.2.3,Win32,142.8571429,,,37,0,37,0,1,,,,,,,,
,,"[""circle"",""red"",""vert"",""up"",[106,-106],[-150,0]]",circle,red,vert,up,"[106,-106]","[-150,0]",up,1,1.2427,,,,,,001,2025-03-11_01h40.02.171,SL_sali_41,2021.2.3,Win32,142.8571429,,,38,0,38,0,1,,,,,,,,
,,"[""diamond"",""no_dis"",""vert"",""up"",[99999,99999],[0,-150]]",diamond,no_dis,vert,up,"[99999,99999]","[0,-150]",up,1,0.916,,,,,,001,2025-03-11_01h40.02.171,SL_sali_41,2021.2.3,Win32,142.8571429,,,39,0,39,0,1,,,,,,,,
,,"[""diamond"",""red"",""vert"",""up"",[-150,0],[150,0]]",diamond,red,vert,up,"[-150,0]","[150,0]",up,1,1.1389,,,,,,001,2025-03-11_01h40.02.171,SL_sali_41,2021.2.3,Win32,142.8571429,,,40,0,40,0,1,,,,,,,,
,,"[""diamond"",""red"",""hori"",""left"",[-150,0],[106,106]]",diamond,red,hori,left,"[-150,0]","[106,106]",left,1,1.6334,,,,,,001,2025-03-11_01h40.02.171,SL_sali_41,2021.2.3,Win32,142.8571429,,,41,0,41,0,1,,,,,,,,
,,"[""circle"",""green"",""hori"",""left"",[0,-150],[-106,-106]]",circle,green,hori,left,"[0,-150]","[-106,-106]",left,1,1.0784,,,,,,001,2025-03-11_01h40.02.171,SL_sali_41,2021.2.3,Win32,142.8571429,,,42,0,42,0,1,,,,,,,,
,,"[""circle"",""red"",""vert"",""up"",[150,0],[-106,-106]]",circle,red,vert,up,"[150,0]","[-106,-106]",up,1,0.9723,,,,,,001,2025-03-11_01h40.02.171,SL_sali_41,2021.2.3,Win32,142.8571429,,,43,0,43,0,1,,,,,,,,
,,"[""diamond"",""no_dis"",""vert"",""up"",[99999,99999],[150,0]]",diamond,no_dis,vert,up,"[99999,99999]","[150,0]",up,1,1.1684,,,,,,001,2025-03-11_01h40.02.171,SL_sali_41,2021.2.3,Win32,142.8571429,,,44,0,44,0,1,,,,,,,,
,,"[""circle"",""green"",""vert"",""up"",[-106,-106],[106,-106]]",circle,green,vert,up,"[-106,-106]","[106,-106]",up,1,1.0976,,,,,,001,2025-03-11_01h40.02.171,SL_sali_41,2021.2.3,Win32,142.8571429,,,45,0,45,0,1,,,,,,,,
,,"[""circle"",""green"",""vert"",""up"",[106,106],[-106,106]]",circle,green,vert,up,"[106,106]","[-106,106]",up,1,0.8982,,,,,,001,2025-03-11_01h40.02.171,SL_sali_41,2021.2.3,Win32,142.8571429,,,46,0,46,0,1,,,,,,,,
,,"[""diamond"",""green"",""vert"",""up"",[106,106],[-150,0]]",diamond,green,vert,up,"[106,106]","[-150,0]",up,1,0.9457,,,,,,001,2025-03-11_01h40.02.171,SL_sali_41,2021.2.3,Win32,142.8571429,,,47,0,47,0,1,,,,,,,,
,,"[""diamond"",""red"",""vert"",""up"",[106,-106],[-106,-106]]",diamond,red,vert,up,"[106,-106]","[-106,-106]",up,1,1.1665,,,,,,001,2025-03-11_01h40.02.171,SL_sali_41,2021.2.3,Win32,142.8571429,,,48,0,48,0,1,,,,,,,,
,,"[""circle"",""no_dis"",""vert"",""up"",[99999,99999],[0,150]]",circle,no_dis,vert,up,"[99999,99999]","[0,150]",up,1,0.9934,,,,,,001,2025-03-11_01h40.02.171,SL_sali_41,2021.2.3,Win32,142.8571429,,,49,0,49,0,1,,,,,,,,
,,"[""circle"",""red"",""hori"",""left"",[0,150],[-106,106]]",circle,red,hori,left,"[0,150]","[-106,106]",left,1,0.882,,,,,,001,2025-03-11_01h40.02.171,SL_sali_41,2021.2.3,Win32,142.8571429,,,50,0,50,0,1,,,,,,,,
,,"[""diamond"",""no_dis"",""vert"",""up"",[99999,99999],[106,-106]]",diamond,no_dis,vert,up,"[99999,99999]","[106,-106]",up,1,0.7766,,,,,,001,2025-03-11_01h40.02.171,SL_sali_41,2021.2.3,Win32,142.8571429,,,51,0,51,0,1,,,,,,,,
,,"[""circle"",""green"",""hori"",""left"",[0,150],[-106,-106]]",circle,green,hori,left,"[0,150]","[-106,-106]",left,1,0.835,,,,,,001,2025-03-11_01h40.02.171,SL_sali_41,2021.2.3,Win32,142.8571429,,,52,0,52,0,1,,,,,,,,
,,"[""circle"",""red"",""hori"",""left"",[106,106],[0,-150]]",circle,red,hori,left,"[106,106]","[0,-150]",left,1,0.841,,,,,,001,2025-03-11_01h40.02.171,SL_sali_41,2021.2.3,Win32,142.8571429,,,53,0,53,0,1,,,,,,,,
,,"[""circle"",""no_dis"",""hori"",""left"",[99999,99999],[106,106]]",circle,no_dis,hori,left,"[99999,99999]","[106,106]",left,1,1.1897,,,,,,001,2025-03-11_01h40.02.171,SL_sali_41,2021.2.3,Win32,142.8571429,,,54,0,54,0,1,,,,,,,,
,,"[""diamond"",""red"",""hori"",""left"",[-150,0],[106,106]]",diamond,red,hori,left,"[-150,0]","[106,106]",left,1,1.3691,,,,,,001,2025-03-11_01h40.02.171,SL_sali_41,2021.2.3,Win32,142.8571429,,,55,0,55,0,1,,,,,,,,
,,"[""circle"",""red"",""vert"",""up"",[-106,-106],[106,-106]]",circle,red,vert,up,"[-106,-106]","[106,-106]",up,1,0.9937,,,,,,001,2025-03-11_01h40.02.171,SL_sali_41,2021.2.3,Win32,142.8571429,,,56,0,56,0,1,,,,,,,,
,,"[""circle"",""green"",""hori"",""left"",[0,-150],[150,0]]",circle,green,hori,left,"[0,-150]","[150,0]",left,1,0.8348,,,,,,001,2025-03-11_01h40.02.171,SL_sali_41,2021.2.3,Win32,142.8571429,,,57,0,57,0,1,,,,,,,,
,,"[""diamond"",""no_dis"",""hori"",""left"",[99999,99999],[-106,-106]]",diamond,no_dis,hori,left,"[99999,99999]","[-106,-106]",left,1,0.7278,,,,,,001,2025-03-11_01h40.02.171,SL_sali_41,2021.2.3,Win32,142.8571429,,,58,0,58,0,1,,,,,,,,
,,"[""circle"",""red"",""vert"",""up"",[0,-150],[150,0]]",circle,red,vert,up,"[0,-150]","[150,0]",up,1,0.7578,,,,,,001,2025-03-11_01h40.02.171,SL_sali_41,2021.2.3,Win32,142.8571429,,,59,0,59,0,1,,,,,,,,
,,"[""circle"",""green"",""vert"",""up"",[-150,0],[0,150]]",circle,green,vert,up,"[-150,0]","[0,150]",up,1,0.5514,,,,,,001,2025-03-11_01h40.02.171,SL_sali_41,2021.2.3,Win32,142.8571429,,,60,0,60,0,1,,,,,,,,
,,"[""diamond"",""green"",""vert"",""up"",[-106,-106],[150,0]]",diamond,green,vert,up,"[-106,-106]","[150,0]",up,1,1.221,,,,,,001,2025-03-11_01h40.02.171,SL_sali_41,2021.2.3,Win32,142.8571429,,,61,0,61,0,1,,,,,,,,
,,"[""diamond"",""red"",""hori"",""left"",[106,106],[106,-106]]",diamond,red,hori,left,"[106,106]","[106,-106]",left,1,0.7655,,,,,,001,2025-03-11_01h40.02.171,SL_sali_41,2021.2.3,Win32,142.8571429,,,62,0,62,0,1,,,,,,,,
,,"[""circle"",""no_dis"",""vert"",""up"",[99999,99999],[106,106]]",circle,no_dis,vert,up,"[99999,99999]","[106,106]",up,1,1.0625,,,,,,001,2025-03-11_01h40.02.171,SL_sali_41,2021.2.3,Win32,142.8571429,,,63,0,63,0,1,,,,,,,,
,,"[""circle"",""red"",""hori"",""left"",[106,106],[-106,106]]",circle,red,hori,left,"[106,106]","[-106,106]",left,1,0.6043,,,,,,001,2025-03-11_01h40.02.171,SL_sali_41,2021.2.3,Win32,142.8571429,,,64,0,64,0,1,,,,,,,,
,,"[""circle"",""red"",""hori"",""left"",[-106,-106],[150,0]]",circle,red,hori,left,"[-106,-106]","[150,0]",left,1,1.347,,,,,,001,2025-03-11_01h40.02.171,SL_sali_41,2021.2.3,Win32,142.8571429,,,65,0,65,0,1,,,,,,,,
,,"[""circle"",""red"",""vert"",""up"",[-106,106],[150,0]]",circle,red,vert,up,"[-106,106]","[150,0]",up,1,0.8262,,,,,,001,2025-03-11_01h40.02.171,SL_sali_41,2021.2.3,Win32,142.8571429,,,66,0,66,0,1,,,,,,,,
,,"[""circle"",""green"",""vert"",""up"",[0,-150],[0,150]]",circle,green,vert,up,"[0,-150]","[0,150]",up,1,1.0504,,,,,,001,2025-03-11_01h40.02.171,SL_sali_41,2021.2.3,Win32,142.8571429,,,67,0,67,0,1,,,,,,,,
,,"[""diamond"",""no_dis"",""hori"",""left"",[99999,99999],[0,-150]]",diamond,no_dis,hori,left,"[99999,99999]","[0,-150]",left,1,1.458,,,,,,001,2025-03-11_01h40.02.171,SL_sali_41,2021.2.3,Win32,142.8571429,,,68,0,68,0,1,,,,,,,,
,,"[""diamond"",""green"",""vert"",""up"",[-150,0],[-106,106]]",diamond,green,vert,up,"[-150,0]","[-106,106]",up,1,1.5007,,,,,,001,2025-03-11_01h40.02.171,SL_sali_41,2021.2.3,Win32,142.8571429,,,69,0,69,0,1,,,,,,,,
,,"[""diamond"",""red"",""hori"",""left"",[106,106],[-106,-106]]",diamond,red,hori,left,"[106,106]","[-106,-106]",left,1,0.882,,,,,,001,2025-03-11_01h40.02.171,SL_sali_41,2021.2.3,Win32,142.8571429,,,70,0,70,0,1,,,,,,,,
,,"[""circle"",""no_dis"",""vert"",""up"",[99999,99999],[-150,0]]",circle,no_dis,vert,up,"[99999,99999]","[-150,0]",up,1,1.1673,,,,,,001,2025-03-11_01h40.02.171,SL_sali_41,2021.2.3,Win32,142.8571429,,,71,0,71,0,1,,,,,,,,
,,"[""diamond"",""red"",""vert"",""up"",[-106,106],[0,-150]]",diamond,red,vert,up,"[-106,106]","[0,-150]",up,1,0.8744,,,,,,001,2025-03-11_01h40.02.171,SL_sali_41,2021.2.3,Win32,142.8571429,,,72,0,72,0,1,,,,,,,,
,,"[""diamond"",""green"",""hori"",""left"",[-106,106],[150,0]]",diamond,green,hori,left,"[-106,106]","[150,0]",left,1,0.9155,,,,,,001,2025-03-11_01h40.02.171,SL_sali_41,2021.2.3,Win32,142.8571429,,,73,0,73,0,1,,,,,,,,
,,"[""diamond"",""red"",""vert"",""up"",[106,106],[0,-150]]",diamond,red,vert,up,"[106,106]","[0,-150]",up,1,1.0494,,,,,,001,2025-03-11_01h40.02.171,SL_sali_41,2021.2.3,Win32,142.8571429,,,74,0,74,0,1,,,,,,,,
,,"[""circle"",""no_dis"",""hori"",""left"",[99999,99999],[-106,-106]]",circle,no_dis,hori,left,"[99999,99999]","[-106,-106]",left,1,0.8681,,,,,,001,2025-03-11_01h40.02.171,SL_sali_41,2021.2.3,Win32,142.8571429,,,75,0,75,0,1,,,,,,,,
,,"[""circle"",""no_dis"",""vert"",""up"",[99999,99999],[-106,-106]]",circle,no_dis,vert,up,"[99999,99999]","[-106,-106]",up,1,1.2987,,,,,,001,2025-03-11_01h40.02.171,SL_sali_41,2021.2.3,Win32,142.8571429,,,76,0,76,0,1,,,,,,,,
,,"[""diamond"",""green"",""hori"",""left"",[0,150],[-150,0]]",diamond,green,hori,left,"[0,150]","[-150,0]",left,1,0.9937,,,,,,001,2025-03-11_01h40.02.171,SL_sali_41,2021.2.3,Win32,142.8571429,,,77,0,77,0,1,,,,,,,,
,,"[""diamond"",""red"",""hori"",""left"",[106,106],[0,150]]",diamond,red,hori,left,"[106,106]","[0,150]",left,1,1.3468,,,,,,001,2025-03-11_01h40.02.171,SL_sali_41,2021.2.3,Win32,142.8571429,,,78,0,78,0,1,,,,,,,,
,,"[""circle"",""green"",""hori"",""left"",[106,-106],[-106,106]]",circle,green,hori,left,"[106,-106]","[-106,106]",left,1,0.8813,,,,,,001,2025-03-11_01h40.02.171,SL_sali_41,2021.2.3,Win32,142.8571429,,,79,0,79,0,1,,,,,,,,
,,"[""circle"",""no_dis"",""vert"",""up"",[99999,99999],[0,-150]]",circle,no_dis,vert,up,"[99999,99999]","[0,-150]",up,1,0.7139,,,,,,001,2025-03-11_01h40.02.171,SL_sali_41,2021.2.3,Win32,142.8571429,,,80,0,80,0,1,,,,,,,,
,,"[""diamond"",""green"",""hori"",""left"",[0,150],[-106,-106]]",diamond,green,hori,left,"[0,150]","[-106,-106]",left,1,0.6116,,,,,,001,2025-03-11_01h40.02.171,SL_sali_41,2021.2.3,Win32,142.8571429,,,81,0,81,0,1,,,,,,,,
,,"[""diamond"",""red"",""vert"",""up"",[-106,106],[106,-106]]",diamond,red,vert,up,"[-106,106]","[106,-106]",up,1,0.9111,,,,,,001,2025-03-11_01h40.02.171,SL_sali_41,2021.2.3,Win32,142.8571429,,,82,0,82,0,1,,,,,,,,
,,"[""circle"",""no_dis"",""hori"",""left"",[99999,99999],[-106,106]]",circle,no_dis,hori,left,"[99999,99999]","[-106,106]",left,1,1.0851,,,,,,001,2025-03-11_01h40.02.171,SL_sali_41,2021.2.3,Win32,142.8571429,,,83,0,83,0,1,,,,,,,,
,,"[""circle"",""no_dis"",""hori"",""left"",[99999,99999],[-106,-106]]",circle,no_dis,hori,left,"[99999,99999]","[-106,-106]",left,1,0.9173,,,,,,001,2025-03-11_01h40.02.171,SL_sali_41,2021.2.3,Win32,142.8571429,,,84,0,84,0,1,,,,,,,,
,,"[""circle"",""no_dis"",""hori"",""left"",[99999,99999],[106,-106]]",circle,no_dis,hori,left,"[99999,99999]","[106,-106]",left,1,1.3128,,,,,,001,2025-03-11_01h40.02.171,SL_sali_41,2021.2.3,Win32,142.8571429,,,85,0,85,0,1,,,,,,,,
,,"[""diamond"",""no_dis"",""vert"",""up"",[99999,99999],[-106,106]]",diamond,no_dis,vert,up,"[99999,99999]","[-106,106]",up,1,1.4643,,,,,,001,2025-03-11_01h40.02.171,SL_sali_41,2021.2.3,Win32,142.8571429,,,86,0,86,0,1,,,,,,,,
,,"[""circle"",""green"",""vert"",""up"",[106,106],[150,0]]",circle,green,vert,up,"[106,106]","[150,0]",up,1,1.2713,,,,,,001,2025-03-11_01h40.02.171,SL_sali_41,2021.2.3,Win32,142.8571429,,,87,0,87,0,1,,,,,,,,
,,"[""diamond"",""no_dis"",""hori"",""left"",[99999,99999],[-150,0]]",diamond,no_dis,hori,left,"[99999,99999]","[-150,0]",left,1,1.2972,,,,,,001,2025-03-11_01h40.02.171,SL_sali_41,2021.2.3,Win32,142.8571429,,,88,0,88,0,1,,,,,,,,
,,"[""diamond"",""red"",""hori"",""left"",[106,106],[106,-106]]",diamond,red,hori,left,"[106,106]","[106,-106]",left,1,0.8406,,,,,,001,2025-03-11_01h40.02.171,SL_sali_41,2021.2.3,Win32,142.8571429,,,89,0,89,0,1,,,,,,,,
,,"[""circle"",""green"",""hori"",""left"",[-106,-106],[106,106]]",circle,green,hori,left,"[-106,-106]","[106,106]",left,1,1,,,,,,001,2025-03-11_01h40.02.171,SL_sali_41,2021.2.3,Win32,142.8571429,,,90,0,90,0,1,,,,,,,,
,,"[""diamond"",""red"",""hori"",""left"",[-150,0],[-106,-106]]",diamond,red,hori,left,"[-150,0]","[-106,-106]",left,1,1.3881,,,,,,001,2025-03-11_01h40.02.171,SL_sali_41,2021.2.3,Win32,142.8571429,,,91,0,91,0,1,,,,,,,,
,,"[""diamond"",""red"",""hori"",""left"",[0,-150],[0,150]]",diamond,red,hori,left,"[0,-150]","[0,150]",left,1,1.2236,,,,,,001,2025-03-11_01h40.02.171,SL_sali_41,2021.2.3,Win32,142.8571429,,,92,0,92,0,1,,,,,,,,
,,"[""circle"",""red"",""hori"",""left"",[106,106],[0,150]]",circle,red,hori,left,"[106,106]","[0,150]",left,1,1.028,,,,,,001,2025-03-11_01h40.02.171,SL_sali_41,2021.2.3,Win32,142.8571429,,,93,0,93,0,1,,,,,,,,
,,"[""diamond"",""green"",""hori"",""left"",[150,0],[-106,-106]]",diamond,green,hori,left,"[150,0]","[-106,-106]",left,1,0.7907,,,,,,001,2025-03-11_01h40.02.171,SL_sali_41,2021.2.3,Win32,142.8571429,,,94,0,94,0,1,,,,,,,,
,,"[""diamond"",""no_dis"",""hori"",""left"",[99999,99999],[150,0]]",diamond,no_dis,hori,left,"[99999,99999]","[150,0]",up,0,1.1816,,,,,,001,2025-03-11_01h40.02.171,SL_sali_41,2021.2.3,Win32,142.8571429,,,95,0,95,0,1,,,,,,,,
,,"[""diamond"",""no_dis"",""hori"",""left"",[99999,99999],[0,150]]",diamond,no_dis,hori,left,"[99999,99999]","[0,150]",left,1,1.3325,,,,,,001,2025-03-11_01h40.02.171,SL_sali_41,2021.2.3,Win32,142.8571429,,,96,0,96,0,1,,,,,,,,
,,"[""circle"",""green"",""hori"",""left"",[106,106],[-106,106]]",circle,green,hori,left,"[106,106]","[-106,106]",left,1,1.078,,,,,,001,2025-03-11_01h40.02.171,SL_sali_41,2021.2.3,Win32,142.8571429,,,97,0,97,0,1,,,,,,,,
,,"[""diamond"",""red"",""vert"",""up"",[-106,106],[150,0]]",diamond,red,vert,up,"[-106,106]","[150,0]",up,1,1.1472,,,,,,001,2025-03-11_01h40.02.171,SL_sali_41,2021.2.3,Win32,142.8571429,,,98,0,98,0,1,,,,,,,,
,,"[""circle"",""green"",""vert"",""up"",[-106,-106],[106,-106]]",circle,green,vert,up,"[-106,-106]","[106,-106]",up,1,1.4175,,,,,,001,2025-03-11_01h40.02.171,SL_sali_41,2021.2.3,Win32,142.8571429,,,99,0,99,0,1,,,,,,,,
,,"[""circle"",""red"",""hori"",""left"",[106,106],[106,-106]]",circle,red,hori,left,"[106,106]","[106,-106]",left,1,0.7524,,,,,,001,2025-03-11_01h40.02.171,SL_sali_41,2021.2.3,Win32,142.8571429,,,100,0,100,0,1,,,,,,,,
,,"[""circle"",""green"",""hori"",""left"",[106,106],[-106,-106]]",circle,green,hori,left,"[106,106]","[-106,-106]",left,1,0.9525,,,,,,001,2025-03-11_01h40.02.171,SL_sali_41,2021.2.3,Win32,142.8571429,,,101,0,101,0,1,,,,,,,,
,,"[""diamond"",""green"",""vert"",""up"",[-150,0],[-106,106]]",diamond,green,vert,up,"[-150,0]","[-106,106]",up,1,1.4023,,,,,,001,2025-03-11_01h40.02.171,SL_sali_41,2021.2.3,Win32,142.8571429,,,102,0,102,0,1,,,,,,,,
,,"[""circle"",""no_dis"",""vert"",""up"",[99999,99999],[0,-150]]",circle,no_dis,vert,up,"[99999,99999]","[0,-150]",up,1,1.167,,,,,,001,2025-03-11_01h40.02.171,SL_sali_41,2021.2.3,Win32,142.8571429,,,103,0,103,0,1,,,,,,,,
,,"[""diamond"",""no_dis"",""hori"",""left"",[99999,99999],[106,106]]",diamond,no_dis,hori,left,"[99999,99999]","[106,106]",left,1,0.8812,,,,,,001,2025-03-11_01h40.02.171,SL_sali_41,2021.2.3,Win32,142.8571429,,,104,0,104,0,1,,,,,,,,
,,"[""diamond"",""green"",""hori"",""left"",[106,-106],[106,106]]",diamond,green,hori,left,"[106,-106]","[106,106]",left,1,1.2002,,,,,,001,2025-03-11_01h40.02.171,SL_sali_41,2021.2.3,Win32,142.8571429,,,105,0,105,0,1,,,,,,,,
,,"[""circle"",""no_dis"",""hori"",""left"",[99999,99999],[-106,106]]",circle,no_dis,hori,left,"[99999,99999]","[-106,106]",left,1,0.7776,,,,,,001,2025-03-11_01h40.02.171,SL_sali_41,2021.2.3,Win32,142.8571429,,,106,0,106,0,1,,,,,,,,
,,"[""diamond"",""no_dis"",""vert"",""up"",[99999,99999],[0,-150]]",diamond,no_dis,vert,up,"[99999,99999]","[0,-150]",up,1,0.9225,,,,,,001,2025-03-11_01h40.02.171,SL_sali_41,2021.2.3,Win32,142.8571429,,,107,0,107,0,1,,,,,,,,
,,"[""circle"",""red"",""hori"",""left"",[150,0],[0,150]]",circle,red,hori,left,"[150,0]","[0,150]",left,1,1.557,,,,,,001,2025-03-11_01h40.02.171,SL_sali_41,2021.2.3,Win32,142.8571429,,,108,0,108,0,1,,,,,,,,
,,"[""diamond"",""green"",""vert"",""up"",[106,106],[150,0]]",diamond,green,vert,up,"[106,106]","[150,0]",up,1,1.1445,,,,,,001,2025-03-11_01h40.02.171,SL_sali_41,2021.2.3,Win32,142.8571429,,,109,0,109,0,1,,,,,,,,
,,"[""diamond"",""no_dis"",""vert"",""up"",[99999,99999],[-106,-106]]",diamond,no_dis,vert,up,"[99999,99999]","[-106,-106]",up,1,0.7836,,,,,,001,2025-03-11_01h40.02.171,SL_sali_41,2021.2.3,Win32,142.8571429,,,110,0,110,0,1,,,,,,,,
,,"[""circle"",""green"",""vert"",""up"",[150,0],[-150,0]]",circle,green,vert,up,"[150,0]","[-150,0]",up,1,1.0619,,,,,,001,2025-03-11_01h40.02.171,SL_sali_41,2021.2.3,Win32,142.8571429,,,111,0,111,0,1,,,,,,,,
,,"[""circle"",""no_dis"",""vert"",""up"",[99999,99999],[106,-106]]",circle,no_dis,vert,up,"[99999,99999]","[106,-106]",up,1,0.9377,,,,,,001,2025-03-11_01h40.02.171,SL_sali_41,2021.2.3,Win32,142.8571429,,,112,0,112,0,1,,,,,,,,
,,"[""circle"",""green"",""hori"",""left"",[0,150],[-106,106]]",circle,green,hori,left,"[0,150]","[-106,106]",left,1,1.4586,,,,,,001,2025-03-11_01h40.02.171,SL_sali_41,2021.2.3,Win32,142.8571429,,,113,0,113,0,1,,,,,,,,
,,"[""circle"",""red"",""hori"",""left"",[150,0],[-150,0]]",circle,red,hori,left,"[150,0]","[-150,0]",left,1,0.7987,,,,,,001,2025-03-11_01h40.02.171,SL_sali_41,2021.2.3,Win32,142.8571429,,,114,0,114,0,1,,,,,,,,
,,"[""diamond"",""no_dis"",""hori"",""left"",[99999,99999],[0,150]]",diamond,no_dis,hori,left,"[99999,99999]","[0,150]",left,1,1.0897,,,,,,001,2025-03-11_01h40.02.171,SL_sali_41,2021.2.3,Win32,142.8571429,,,115,0,115,0,1,,,,,,,,
,,"[""diamond"",""red"",""vert"",""up"",[-106,106],[150,0]]",diamond,red,vert,up,"[-106,106]","[150,0]",up,1,0.999,,,,,,001,2025-03-11_01h40.02.171,SL_sali_41,2021.2.3,Win32,142.8571429,,,116,0,116,0,1,,,,,,,,
,,"[""diamond"",""green"",""vert"",""up"",[-106,-106],[0,150]]",diamond,green,vert,up,"[-106,-106]","[0,150]",up,1,1.3185,,,,,,001,2025-03-11_01h40.02.171,SL_sali_41,2021.2.3,Win32,142.8571429,,,117,0,117,0,1,,,,,,,,
,,"[""circle"",""no_dis"",""hori"",""left"",[99999,99999],[0,150]]",circle,no_dis,hori,left,"[99999,99999]","[0,150]",left,1,1.2494,,,,,,001,2025-03-11_01h40.02.171,SL_sali_41,2021.2.3,Win32,142.8571429,,,118,0,118,0,1,,,,,,,,
,,"[""diamond"",""no_dis"",""vert"",""up"",[99999,99999],[150,0]]",diamond,no_dis,vert,up,"[99999,99999]","[150,0]",up,1,0.8808,,,,,,001,2025-03-11_01h40.02.171,SL_sali_41,2021.2.3,Win32,142.8571429,,,119,0,119,0,1,,,,,,,,
,,"[""diamond"",""green"",""vert"",""up"",[106,-106],[-150,0]]",diamond,green,vert,up,"[106,-106]","[-150,0]",up,1,1.1606,,,,,,001,2025-03-11_01h40.02.171,SL_sali_41,2021.2.3,Win32,142.8571429,,,120,0,120,0,1,,,,,,,,
,,"[""circle"",""no_dis"",""hori"",""left"",[99999,99999],[-150,0]]",circle,no_dis,hori,left,"[99999,99999]","[-150,0]",left,1,1.4516,,,,,,001,2025-03-11_01h40.02.171,SL_sali_41,2021.2.3,Win32,142.8571429,,,121,0,121,0,1,,,,,,,,
,,"[""circle"",""green"",""hori"",""left"",[106,106],[-106,-106]]",circle,green,hori,left,"[106,106]","[-106,-106]",left,1,0.9729,,,,,,001,2025-03-11_01h40.02.171,SL_sali_41,2021.2.3,Win32,142.8571429,,,122,0,122,0,1,,,,,,,,
,,"[""diamond"",""red"",""vert"",""up"",[106,106],[150,0]]",diamond,red,vert,up,"[106,106]","[150,0]",up,1,1.4107,,,,,,001,2025-03-11_01h40.02.171,SL_sali_41,2021.2.3,Win32,142.8571429,,,123,0,123,0,1,,,,,,,,
,,"[""diamond"",""red"",""hori"",""left"",[106,-106],[0,150]]",diamond,red,hori,left,"[106,-106]","[0,150]",left,1,1.0199,,,,,,001,2025-03-11_01h40.02.171,SL_sali_41,2021.2.3,Win32,142.8571429,,,124,0,124,0,1,,,,,,,,
,,"[""circle"",""no_dis"",""vert"",""up"",[99999,99999],[150,0]]",circle,no_dis,vert,up,"[99999,99999]","[150,0]",up,1,1.4476,,,,,,001,2025-03-11_01h40.02.171,SL_sali_41,2021.2.3,Win32,142.8571429,,,125,0,125,0,1,,,,,,,,
,,"[""circle"",""red"",""vert"",""up"",[106,106],[0,150]]",circle,red,vert,up,"[106,106]","[0,150]",up,1,1.8714,,,,,,001,2025-03-11_01h40.02.171,SL_sali_41,2021.2.3,Win32,142.8571429,,,126,0,126,0,1,,,,,,,,
,,"[""diamond"",""green"",""hori"",""left"",[0,150],[150,0]]",diamond,green,hori,left,"[0,150]","[150,0]",left,1,0.9657,,,,,,001,2025-03-11_01h40.02.171,SL_sali_41,2021.2.3,Win32,142.8571429,,,127,0,127,0,1,,,,,,,,
,,,,,,,,,,,,,,,,,001,2025-03-11_01h40.02.171,SL_sali_41,2021.2.3,Win32,142.8571429,,,,,,,,2,space,3.2794,1,0,1,0,1
,,"[""diamond"",""green"",""vert"",""up"",[-150,0],[-106,106]]",diamond,green,vert,up,"[-150,0]","[-106,106]",up,1,1.2267,,,,,,001,2025-03-11_01h40.02.171,SL_sali_41,2021.2.3,Win32,142.8571429,,,0,0,0,0,1,,,,,,,,
,,"[""circle"",""green"",""hori"",""left"",[0,-150],[-106,-106]]",circle,green,hori,left,"[0,-150]","[-106,-106]",left,1,1.7386,,,,,,001,2025-03-11_01h40.02.171,SL_sali_41,2021.2.3,Win32,142.8571429,,,1,0,1,0,1,,,,,,,,
,,"[""circle"",""red"",""hori"",""left"",[106,106],[-106,106]]",circle,red,hori,left,"[106,106]","[-106,106]",left,1,0.8329,,,,,,001,2025-03-11_01h40.02.171,SL_sali_41,2021.2.3,Win32,142.8571429,,,2,0,2,0,1,,,,,,,,
,,"[""diamond"",""red"",""vert"",""up"",[-150,0],[150,0]]",diamond,red,vert,up,"[-150,0]","[150,0]",up,1,1.1793,,,,,,001,2025-03-11_01h40.02.171,SL_sali_41,2021.2.3,Win32,142.8571429,,,3,0,3,0,1,,,,,,,,
,,"[""circle"",""red"",""hori"",""left"",[106,106],[-150,0]]",circle,red,hori,left,"[106,106]","[-150,0]",left,1,0.854,,,,,,001,2025-03-11_01h40.02.171,SL_sali_41,2021.2.3,Win32,142.8571429,,,4,0,4,0,1,,,,,,,,
,,"[""circle"",""no_dis"",""vert"",""up"",[99999,99999],[-106,106]]",circle,no_dis,vert,up,"[99999,99999]","[-106,106]",up,1,0.9954,,,,,,001,2025-03-11_01h40.02.171,SL_sali_41,2021.2.3,Win32,142.8571429,,,5,0,5,0,1,,,,,,,,
,,"[""circle"",""red"",""vert"",""up"",[-150,0],[-106,-106]]",circle,red,vert,up,"[-150,0]","[-106,-106]",up,1,1.2364,,,,,,001,2025-03-11_01h40.02.171,SL_sali_41,2021.2.3,Win32,142.8571429,,,6,0,6,0,1,,,,,,,,
,,"[""circle"",""green"",""hori"",""left"",[106,106],[-106,-106]]",circle,green,hori,left,"[106,106]","[-106,-106]",left,1,0.7358,,,,,,001,2025-03-11_01h40.02.171,SL_sali_41,2021.2.3,Win32,142.8571429,,,7,0,7,0,1,,,,,,,,
,,"[""circle"",""green"",""vert"",""up"",[-150,0],[0,150]]",circle,green,vert,up,"[-150,0]","[0,150]",up,1,1.042,,,,,,001,2025-03-11_01h40.02.171,SL_sali_41,2021.2.3,Win32,142.8571429,,,8,0,8,0,1,,,,,,,,
,,"[""circle"",""no_dis"",""vert"",""up"",[99999,99999],[0,-150]]",circle,no_dis,vert,up,"[99999,99999]","[0,-150]",up,1,1.1183,,,,,,001,2025-03-11_01h40.02.171,SL_sali_41,2021.2.3,Win32,142.8571429,,,9,0,9,0,1,,,,,,,,
,,"[""diamond"",""red"",""vert"",""up"",[-106,106],[106,-106]]",diamond,red,vert,up,"[-106,106]","[106,-106]",left,0,1.7358,,,,,,001,2025-03-11_01h40.02.171,SL_sali_41,2021.2.3,Win32,142.8571429,,,10,0,10,0,1,,,,,,,,
,,"[""diamond"",""red"",""vert"",""up"",[0,-150],[150,0]]",diamond,red,vert,up,"[0,-150]","[150,0]",up,1,1.0336,,,,,,001,2025-03-11_01h40.02.171,SL_sali_41,2021.2.3,Win32,142.8571429,,,11,0,11,0,1,,,,,,,,
,,"[""circle"",""no_dis"",""hori"",""left"",[99999,99999],[-150,0]]",circle,no_dis,hori,left,"[99999,99999]","[-150,0]",left,1,0.9594,,,,,,001,2025-03-11_01h40.02.171,SL_sali_41,2021.2.3,Win32,142.8571429,,,12,0,12,0,1,,,,,,,,
,,"[""diamond"",""green"",""vert"",""up"",[-150,0],[-106,106]]",diamond,green,vert,up,"[-150,0]","[-106,106]",up,1,2.0966,,,,,,001,2025-03-11_01h40.02.171,SL_sali_41,2021.2.3,Win32,142.8571429,,,13,0,13,0,1,,,,,,,,
,,"[""circle"",""red"",""hori"",""left"",[106,106],[106,-106]]",circle,red,hori,left,"[106,106]","[106,-106]",left,1,1.0276,,,,,,001,2025-03-11_01h40.02.171,SL_sali_41,2021.2.3,Win32,142.8571429,,,14,0,14,0,1,,,,,,,,
,,"[""diamond"",""red"",""vert"",""up"",[106,-106],[-106,-106]]",diamond,red,vert,up,"[106,-106]","[-106,-106]",up,1,1.2289,,,,,,001,2025-03-11_01h40.02.171,SL_sali_41,2021.2.3,Win32,142.8571429,,,15,0,15,0,1,,,,,,,,
,,"[""circle"",""green"",""vert"",""up"",[106,106],[150,0]]",circle,green,vert,up,"[106,106]","[150,0]",up,1,1.625,,,,,,001,2025-03-11_01h40.02.171,SL_sali_41,2021.2.3,Win32,142.8571429,,,16,0,16,0,1,,,,,,,,
,,"[""circle"",""green"",""hori"",""left"",[106,106],[-106,-106]]",circle,green,hori,left,"[106,106]","[-106,-106]",left,1,0.8543,,,,,,001,2025-03-11_01h40.02.171,SL_sali_41,2021.2.3,Win32,142.8571429,,,17,0,17,0,1,,,,,,,,
,,"[""diamond"",""green"",""hori"",""left"",[150,0],[-106,-106]]",diamond,green,hori,left,"[150,0]","[-106,-106]",left,1,0.6523,,,,,,001,2025-03-11_01h40.02.171,SL_sali_41,2021.2.3,Win32,142.8571429,,,18,0,18,0,1,,,,,,,,
,,"[""diamond"",""no_dis"",""hori"",""left"",[99999,99999],[150,0]]",diamond,no_dis,hori,left,"[99999,99999]","[150,0]",left,1,0.5826,,,,,,001,2025-03-11_01h40.02.171,SL_sali_41,2021.2.3,Win32,142.8571429,,,19,0,19,0,1,,,,,,,,
,,"[""diamond"",""no_dis"",""hori"",""left"",[99999,99999],[-106,-106]]",diamond,no_dis,hori,left,"[99999,99999]","[-106,-106]",left,1,0.5618,,,,,,001,2025-03-11_01h40.02.171,SL_sali_41,2021.2.3,Win32,142.8571429,,,20,0,20,0,1,,,,,,,,
,,"[""diamond"",""green"",""vert"",""up"",[106,106],[150,0]]",diamond,green,vert,up,"[106,106]","[150,0]",up,1,0.7073,,,,,,001,2025-03-11_01h40.02.171,SL_sali_41,2021.2.3,Win32,142.8571429,,,21,0,21,0,1,,,,,,,,
,,"[""circle"",""no_dis"",""vert"",""up"",[99999,99999],[0,-150]]",circle,no_dis,vert,up,"[99999,99999]","[0,-150]",up,1,1.465,,,,,,001,2025-03-11_01h40.02.171,SL_sali_41,2021.2.3,Win32,142.8571429,,,22,0,22,0,1,,,,,,,,
,,"[""circle"",""red"",""hori"",""left"",[106,-106],[0,-150]]",circle,red,hori,left,"[106,-106]","[0,-150]",left,1,1.1599,,,,,,001,2025-03-11_01h40.02.171,SL_sali_41,2021.2.3,Win32,142.8571429,,,23,0,23,0,1,,,,,,,,
,,"[""circle"",""red"",""vert"",""up"",[150,0],[-106,-106]]",circle,red,vert,up,"[150,0]","[-106,-106]",up,1,0.7154,,,,,,001,2025-03-11_01h40.02.171,SL_sali_41,2021.2.3,Win32,142.8571429,,,24,0,24,0,1,,,,,,,,
,,"[""diamond"",""no_dis"",""hori"",""left"",[99999,99999],[-150,0]]",diamond,no_dis,hori,left,"[99999,99999]","[-150,0]",left,1,1.0975,,,,,,001,2025-03-11_01h40.02.171,SL_sali_41,2021.2.3,Win32,142.8571429,,,25,0,25,0,1,,,,,,,,
,,"[""circle"",""no_dis"",""vert"",""up"",[99999,99999],[106,106]]",circle,no_dis,vert,up,"[99999,99999]","[106,106]",up,1,0.9751,,,,,,001,2025-03-11_01h40.02.171,SL_sali_41,2021.2.3,Win32,142.8571429,,,26,0,26,0,1,,,,,,,,
,,"[""diamond"",""red"",""vert"",""up"",[106,-106],[106,106]]",diamond,red,vert,up,"[106,-106]","[106,106]",up,1,1.0759,,,,,,001,2025-03-11_01h40.02.171,SL_sali_41,2021.2.3,Win32,142.8571429,,,27,0,27,0,1,,,,,,,,
,,"[""circle"",""no_dis"",""hori"",""left"",[99999,99999],[-106,106]]",circle,no_dis,hori,left,"[99999,99999]","[-106,106]",left,1,0.8475,,,,,,001,2025-03-11_01h40.02.171,SL_sali_41,2021.2.3,Win32,142.8571429,,,28,0,28,0,1,,,,,,,,
,,"[""diamond"",""red"",""vert"",""up"",[-106,106],[150,0]]",diamond,red,vert,up,"[-106,106]","[150,0]",up,1,1.0351,,,,,,001,2025-03-11_01h40.02.171,SL_sali_41,2021.2.3,Win32,142.8571429,,,29,0,29,0,1,,,,,,,,
,,"[""circle"",""red"",""hori"",""left"",[150,0],[0,150]]",circle,red,hori,left,"[150,0]","[0,150]",left,1,1.5705,,,,,,001,2025-03-11_01h40.02.171,SL_sali_41,2021.2.3,Win32,142.8571429,,,30,0,30,0,1,,,,,,,,
,,"[""circle"",""green"",""vert"",""up"",[106,106],[-106,106]]",circle,green,vert,up,"[106,106]","[-106,106]",up,1,1.6333,,,,,,001,2025-03-11_01h40.02.171,SL_sali_41,2021.2.3,Win32,142.8571429,,,31,0,31,0,1,,,,,,,,
,,"[""diamond"",""no_dis"",""vert"",""up"",[99999,99999],[-106,-106]]",diamond,no_dis,vert,up,"[99999,99999]","[-106,-106]",up,1,0.9512,,,,,,001,2025-03-11_01h40.02.171,SL_sali_41,2021.2.3,Win32,142.8571429,,,32,0,32,0,1,,,,,,,,
,,"[""circle"",""no_dis"",""hori"",""left"",[99999,99999],[-106,-106]]",circle,no_dis,hori,left,"[99999,99999]","[-106,-106]",left,1,0.9026,,,,,,001,2025-03-11_01h40.02.171,SL_sali_41,2021.2.3,Win32,142.8571429,,,33,0,33,0,1,,,,,,,,
,,"[""diamond"",""green"",""hori"",""left"",[-106,106],[150,0]]",diamond,green,hori,left,"[-106,106]","[150,0]",left,1,1.0622,,,,,,001,2025-03-11_01h40.02.171,SL_sali_41,2021.2.3,Win32,142.8571429,,,34,0,34,0,1,,,,,,,,
,,"[""diamond"",""green"",""vert"",""up"",[106,-106],[-150,0]]",diamond,green,vert,up,"[106,-106]","[-150,0]",up,1,1.1872,,,,,,001,2025-03-11_01h40.02.171,SL_sali_41,2021.2.3,Win32,142.8571429,,,35,0,35,0,1,,,,,,,,
,,"[""circle"",""red"",""hori"",""left"",[150,0],[-150,0]]",circle,red,hori,left,"[150,0]","[-150,0]",left,1,1.5146,,,,,,001,2025-03-11_01h40.02.171,SL_sali_41,2021.2.3,Win32,142.8571429,,,36,0,36,0,1,,,,,,,,
,,"[""circle"",""red"",""vert"",""up"",[150,0],[0,150]]",circle,red,vert,up,"[150,0]","[0,150]",up,1,0.9238,,,,,,001,2025-03-11_01h40.02.171,SL_sali_41,2021.2.3,Win32,142.8571429,,,37,0,37,0,1,,,,,,,,
,,"[""circle"",""no_dis"",""hori"",""left"",[99999,99999],[106,106]]",circle,no_dis,hori,left,"[99999,99999]","[106,106]",left,1,0.653,,,,,,001,2025-03-11_01h40.02.171,SL_sali_41,2021.2.3,Win32,142.8571429,,,38,0,38,0,1,,,,,,,,
,,"[""circle"",""green"",""hori"",""left"",[106,106],[-106,106]]",circle,green,hori,left,"[106,106]","[-106,106]",left,1,0.5628,,,,,,001,2025-03-11_01h40.02.171,SL_sali_41,2021.2.3,Win32,142.8571429,,,39,0,39,0,1,,,,,,,,
,,"[""circle"",""green"",""hori"",""left"",[0,-150],[150,0]]",circle,green,hori,left,"[0,-150]","[150,0]",left,1,0.5137,,,,,,001,2025-03-11_01h40.02.171,SL_sali_41,2021.2.3,Win32,142.8571429,,,40,0,40,0,1,,,,,,,,
,,"[""diamond"",""red"",""hori"",""left"",[-150,0],[-106,-106]]",diamond,red,hori,left,"[-150,0]","[-106,-106]",up,0,0.9573,,,,,,001,2025-03-11_01h40.02.171,SL_sali_41,2021.2.3,Win32,142.8571429,,,41,0,41,0,1,,,,,,,,
,,"[""circle"",""red"",""hori"",""left"",[-106,-106],[150,0]]",circle,red,hori,left,"[-106,-106]","[150,0]",left,1,1.4609,,,,,,001,2025-03-11_01h40.02.171,SL_sali_41,2021.2.3,Win32,142.8571429,,,42,0,42,0,1,,,,,,,,
,,"[""circle"",""red"",""vert"",""up"",[0,150],[106,106]]",circle,red,vert,up,"[0,150]","[106,106]",up,1,1.2116,,,,,,001,2025-03-11_01h40.02.171,SL_sali_41,2021.2.3,Win32,142.8571429,,,43,0,43,0,1,,,,,,,,
,,"[""circle"",""red"",""hori"",""left"",[106,106],[0,150]]",circle,red,hori,left,"[106,106]","[0,150]",left,1,1.9448,,,,,,001,2025-03-11_01h40.02.171,SL_sali_41,2021.2.3,Win32,142.8571429,,,44,0,44,0,1,,,,,,,,
,,"[""diamond"",""green"",""hori"",""left"",[150,0],[106,106]]",diamond,green,hori,left,"[150,0]","[106,106]",left,1,1.6238,,,,,,001,2025-03-11_01h40.02.171,SL_sali_41,2021.2.3,Win32,142.8571429,,,45,0,45,0,1,,,,,,,,
,,"[""circle"",""red"",""vert"",""up"",[-106,106],[150,0]]",circle,red,vert,up,"[-106,106]","[150,0]",up,1,0.8546,,,,,,001,2025-03-11_01h40.02.171,SL_sali_41,2021.2.3,Win32,142.8571429,,,46,0,46,0,1,,,,,,,,
,,"[""diamond"",""red"",""vert"",""up"",[106,106],[0,-150]]",diamond,red,vert,up,"[106,106]","[0,-150]",up,1,0.9447,,,,,,001,2025-03-11_01h40.02.171,SL_sali_41,2021.2.3,Win32,142.8571429,,,47,0,47,0,1,,,,,,,,
,,"[""diamond"",""red"",""hori"",""left"",[106,106],[106,-106]]",diamond,red,hori,left,"[106,106]","[106,-106]",left,1,0.6959,,,,,,001,2025-03-11_01h40.02.171,SL_sali_41,2021.2.3,Win32,142.8571429,,,48,0,48,0,1,,,,,,,,
,,"[""diamond"",""no_dis"",""vert"",""up"",[99999,99999],[0,-150]]",diamond,no_dis,vert,up,"[99999,99999]","[0,-150]",up,1,1.2141,,,,,,001,2025-03-11_01h40.02.171,SL_sali_41,2021.2.3,Win32,142.8571429,,,49,0,49,0,1,,,,,,,,
,,"[""diamond"",""green"",""vert"",""up"",[-106,-106],[150,0]]",diamond,green,vert,up,"[-106,-106]","[150,0]",up,1,0.7427,,,,,,001,2025-03-11_01h40.02.171,SL_sali_41,2021.2.3,Win32,142.8571429,,,50,0,50,0,1,,,,,,,,
,,"[""diamond"",""red"",""hori"",""left"",[106,106],[0,150]]",diamond,red,hori,left,"[106,106]","[0,150]",left,1,0.9315,,,,,,001,2025-03-11_01h40.02.171,SL_sali_41,2021.2.3,Win32,142.8571429,,,51,0,51,0,1,,,,,,,,
,,"[""circle"",""green"",""hori"",""left"",[-106,-106],[106,106]]",circle,green,hori,left,"[-106,-106]","[106,106]",left,1,1.1464,,,,,,001,2025-03-11_01h40.02.171,SL_sali_41,2021.2.3,Win32,142.8571429,,,52,0,52,0,1,,,,,,,,
,,"[""diamond"",""green"",""hori"",""left"",[0,150],[150,0]]",diamond,green,hori,left,"[0,150]","[150,0]",left,1,0.7072,,,,,,001,2025-03-11_01h40.02.171,SL_sali_41,2021.2.3,Win32,142.8571429,,,53,0,53,0,1,,,,,,,,
,,"[""diamond"",""red"",""hori"",""left"",[-150,0],[106,106]]",diamond,red,hori,left,"[-150,0]","[106,106]",left,1,0.6889,,,,,,001,2025-03-11_01h40.02.171,SL_sali_41,2021.2.3,Win32,142.8571429,,,54,0,54,0,1,,,,,,,,
,,"[""circle"",""red"",""hori"",""left"",[106,106],[0,-150]]",circle,red,hori,left,"[106,106]","[0,-150]",left,1,1.3668,,,,,,001,2025-03-11_01h40.02.171,SL_sali_41,2021.2.3,Win32,142.8571429,,,55,0,55,0,1,,,,,,,,
,,"[""diamond"",""red"",""hori"",""left"",[106,106],[106,-106]]",diamond,red,hori,left,"[106,106]","[106,-106]",left,1,1.0335,,,,,,001,2025-03-11_01h40.02.171,SL_sali_41,2021.2.3,Win32,142.8571429,,,56,0,56,0,1,,,,,,,,
,,"[""circle"",""no_dis"",""vert"",""up"",[99999,99999],[106,-106]]",circle,no_dis,vert,up,"[99999,99999]","[106,-106]",up,1,1.0906,,,,,,001,2025-03-11_01h40.02.171,SL_sali_41,2021.2.3,Win32,142.8571429,,,57,0,57,0,1,,,,,,,,
,,"[""diamond"",""no_dis"",""vert"",""up"",[99999,99999],[-106,106]]",diamond,no_dis,vert,up,"[99999,99999]","[-106,106]",up,1,1.8463,,,,,,001,2025-03-11_01h40.02.171,SL_sali_41,2021.2.3,Win32,142.8571429,,,58,0,58,0,1,,,,,,,,
,,"[""circle"",""red"",""vert"",""up"",[0,-150],[150,0]]",circle,red,vert,up,"[0,-150]","[150,0]",up,1,0.959,,,,,,001,2025-03-11_01h40.02.171,SL_sali_41,2021.2.3,Win32,142.8571429,,,59,0,59,0,1,,,,,,,,
,,"[""diamond"",""red"",""vert"",""up"",[106,106],[150,0]]",diamond,red,vert,up,"[106,106]","[150,0]",up,1,0.8463,,,,,,001,2025-03-11_01h40.02.171,SL_sali_41,2021.2.3,Win32,142.8571429,,,60,0,60,0,1,,,,,,,,
,,"[""diamond"",""red"",""vert"",""up"",[-106,106],[150,0]]",diamond,red,vert,up,"[-106,106]","[150,0]",up,1,0.7511,,,,,,001,2025-03-11_01h40.02.171,SL_sali_41,2021.2.3,Win32,142.8571429,,,61,0,61,0,1,,,,,,,,
,,"[""diamond"",""green"",""vert"",""up"",[0,150],[0,-150]]",diamond,green,vert,up,"[0,150]","[0,-150]",up,1,0.7287,,,,,,001,2025-03-11_01h40.02.171,SL_sali_41,2021.2.3,Win32,142.8571429,,,62,0,62,0,1,,,,,,,,
,,"[""diamond"",""red"",""vert"",""up"",[-106,106],[106,-106]]",diamond,red,vert,up,"[-106,106]","[106,-106]",left,0,0.9874,,,,,,001,2025-03-11_01h40.02.171,SL_sali_41,2021.2.3,Win32,142.8571429,,,63,0,63,0,1,,,,,,,,
,,"[""circle"",""green"",""vert"",""up"",[106,106],[-106,106]]",circle,green,vert,up,"[106,106]","[-106,106]",up,1,1.4863,,,,,,001,2025-03-11_01h40.02.171,SL_sali_41,2021.2.3,Win32,142.8571429,,,64,0,64,0,1,,,,,,,,
,,"[""circle"",""red"",""hori"",""left"",[0,150],[-106,106]]",circle,red,hori,left,"[0,150]","[-106,106]",left,1,1.2299,,,,,,001,2025-03-11_01h40.02.171,SL_sali_41,2021.2.3,Win32,142.8571429,,,65,0,65,0,1,,,,,,,,
,,"[""circle"",""green"",""vert"",""up"",[-106,-106],[106,-106]]",circle,green,vert,up,"[-106,-106]","[106,-106]",up,1,1.3336,,,,,,001,2025-03-11_01h40.02.171,SL_sali_41,2021.2.3,Win32,142.8571429,,,66,0,66,0,1,,,,,,,,
,,"[""circle"",""red"",""vert"",""up"",[106,106],[-106,106]]",circle,red,vert,up,"[106,106]","[-106,106]",up,1,0.9448,,,,,,001,2025-03-11_01h40.02.171,SL_sali_41,2021.2.3,Win32,142.8571429,,,67,0,67,0,1,,,,,,,,
,,"[""diamond"",""no_dis"",""hori"",""left"",[99999,99999],[0,150]]",diamond,no_dis,hori,left,"[99999,99999]","[0,150]",left,1,0.9947,,,,,,001,2025-03-11_01h40.02.171,SL_sali_41,2021.2.3,Win32,142.8571429,,,68,0,68,0,1,,,,,,,,
,,"[""circle"",""green"",""vert"",""up"",[106,106],[-106,106]]",circle,green,vert,up,"[106,106]","[-106,106]",up,1,1.0338,,,,,,001,2025-03-11_01h40.02.171,SL_sali_41,2021.2.3,Win32,142.8571429,,,69,0,69,0,1,,,,,,,,
,,"[""diamond"",""no_dis"",""vert"",""up"",[99999,99999],[106,-106]]",diamond,no_dis,vert,up,"[99999,99999]","[106,-106]",up,1,0.8197,,,,,,001,2025-03-11_01h40.02.171,SL_sali_41,2021.2.3,Win32,142.8571429,,,70,0,70,0,1,,,,,,,,
,,"[""diamond"",""red"",""hori"",""left"",[106,106],[106,-106]]",diamond,red,hori,left,"[106,106]","[106,-106]",left,1,0.8364,,,,,,001,2025-03-11_01h40.02.171,SL_sali_41,2021.2.3,Win32,142.8571429,,,71,0,71,0,1,,,,,,,,
,,"[""diamond"",""no_dis"",""vert"",""up"",[99999,99999],[150,0]]",diamond,no_dis,vert,up,"[99999,99999]","[150,0]",up,1,0.8406,,,,,,001,2025-03-11_01h40.02.171,SL_sali_41,2021.2.3,Win32,142.8571429,,,72,0,72,0,1,,,,,,,,
,,"[""circle"",""green"",""vert"",""up"",[-106,-106],[106,-106]]",circle,green,vert,up,"[-106,-106]","[106,-106]",up,1,1.6275,,,,,,001,2025-03-11_01h40.02.171,SL_sali_41,2021.2.3,Win32,142.8571429,,,73,0,73,0,1,,,,,,,,
,,"[""diamond"",""red"",""hori"",""left"",[106,-106],[0,150]]",diamond,red,hori,left,"[106,-106]","[0,150]",left,1,0.7996,,,,,,001,2025-03-11_01h40.02.171,SL_sali_41,2021.2.3,Win32,142.8571429,,,74,0,74,0,1,,,,,,,,
,,"[""diamond"",""no_dis"",""hori"",""left"",[99999,99999],[0,-150]]",diamond,no_dis,hori,left,"[99999,99999]","[0,-150]",left,1,0.8638,,,,,,001,2025-03-11_01h40.02.171,SL_sali_41,2021.2.3,Win32,142.8571429,,,75,0,75,0,1,,,,,,,,
,,"[""diamond"",""green"",""hori"",""left"",[106,106],[-106,106]]",diamond,green,hori,left,"[106,106]","[-106,106]",left,1,0.69,,,,,,001,2025-03-11_01h40.02.171,SL_sali_41,2021.2.3,Win32,142.8571429,,,76,0,76,0,1,,,,,,,,
,,"[""circle"",""red"",""hori"",""left"",[0,-150],[150,0]]",circle,red,hori,left,"[0,-150]","[150,0]",left,1,0.9607,,,,,,001,2025-03-11_01h40.02.171,SL_sali_41,2021.2.3,Win32,142.8571429,,,77,0,77,0,1,,,,,,,,
,,"[""diamond"",""green"",""vert"",""up"",[-106,-106],[0,150]]",diamond,green,vert,up,"[-106,-106]","[0,150]",up,1,0.8931,,,,,,001,2025-03-11_01h40.02.171,SL_sali_41,2021.2.3,Win32,142.8571429,,,78,0,78,0,1,,,,,,,,
,,"[""circle"",""red"",""vert"",""up"",[106,-106],[-150,0]]",circle,red,vert,up,"[106,-106]","[-150,0]",left,0,1.0103,,,,,,001,2025-03-11_01h40.02.171,SL_sali_41,2021.2.3,Win32,142.8571429,,,79,0,79,0,1,,,,,,,,
,,"[""diamond"",""no_dis"",""hori"",""left"",[99999,99999],[150,0]]",diamond,no_dis,hori,left,"[99999,99999]","[150,0]",left,1,0.7715,,,,,,001,2025-03-11_01h40.02.171,SL_sali_41,2021.2.3,Win32,142.8571429,,,80,0,80,0,1,,,,,,,,
,,"[""diamond"",""green"",""hori"",""left"",[0,150],[-150,0]]",diamond,green,hori,left,"[0,150]","[-150,0]",left,1,0.9935,,,,,,001,2025-03-11_01h40.02.171,SL_sali_41,2021.2.3,Win32,142.8571429,,,81,0,81,0,1,,,,,,,,
,,"[""diamond"",""red"",""vert"",""up"",[-106,106],[0,-150]]",diamond,red,vert,up,"[-106,106]","[0,-150]",up,1,0.8051,,,,,,001,2025-03-11_01h40.02.171,SL_sali_41,2021.2.3,Win32,142.8571429,,,82,0,82,0,1,,,,,,,,
,,"[""diamond"",""green"",""vert"",""up"",[106,106],[-106,106]]",diamond,green,vert,up,"[106,106]","[-106,106]",up,1,1.0843,,,,,,001,2025-03-11_01h40.02.171,SL_sali_41,2021.2.3,Win32,142.8571429,,,83,0,83,0,1,,,,,,,,
,,"[""circle"",""green"",""vert"",""up"",[0,-150],[0,150]]",circle,green,vert,up,"[0,-150]","[0,150]",up,1,1.5628,,,,,,001,2025-03-11_01h40.02.171,SL_sali_41,2021.2.3,Win32,142.8571429,,,84,0,84,0,1,,,,,,,,
,,"[""diamond"",""no_dis"",""hori"",""left"",[99999,99999],[0,150]]",diamond,no_dis,hori,left,"[99999,99999]","[0,150]",left,1,1.7589,,,,,,001,2025-03-11_01h40.02.171,SL_sali_41,2021.2.3,Win32,142.8571429,,,85,0,85,0,1,,,,,,,,
,,"[""circle"",""no_dis"",""hori"",""left"",[99999,99999],[106,106]]",circle,no_dis,hori,left,"[99999,99999]","[106,106]",left,1,0.9384,,,,,,001,2025-03-11_01h40.02.171,SL_sali_41,2021.2.3,Win32,142.8571429,,,86,0,86,0,1,,,,,,,,
,,"[""diamond"",""red"",""hori"",""left"",[-150,0],[106,106]]",diamond,red,hori,left,"[-150,0]","[106,106]",left,1,1.0837,,,,,,001,2025-03-11_01h40.02.171,SL_sali_41,2021.2.3,Win32,142.8571429,,,87,0,87,0,1,,,,,,,,
,,"[""diamond"",""green"",""hori"",""left"",[106,-106],[106,106]]",diamond,green,hori,left,"[106,-106]","[106,106]",left,1,0.8126,,,,,,001,2025-03-11_01h40.02.171,SL_sali_41,2021.2.3,Win32,142.8571429,,,88,0,88,0,1,,,,,,,,
,,"[""circle"",""red"",""vert"",""up"",[106,106],[0,150]]",circle,red,vert,up,"[106,106]","[0,150]",up,1,1.3413,,,,,,001,2025-03-11_01h40.02.171,SL_sali_41,2021.2.3,Win32,142.8571429,,,89,0,89,0,1,,,,,,,,
,,"[""diamond"",""green"",""vert"",""up"",[106,106],[-150,0]]",diamond,green,vert,up,"[106,106]","[-150,0]",up,1,0.9091,,,,,,001,2025-03-11_01h40.02.171,SL_sali_41,2021.2.3,Win32,142.8571429,,,90,0,90,0,1,,,,,,,,
,,"[""circle"",""no_dis"",""hori"",""left"",[99999,99999],[-106,106]]",circle,no_dis,hori,left,"[99999,99999]","[-106,106]",left,1,1.3128,,,,,,001,2025-03-11_01h40.02.171,SL_sali_41,2021.2.3,Win32,142.8571429,,,91,0,91,0,1,,,,,,,,
,,"[""circle"",""no_dis"",""hori"",""left"",[99999,99999],[106,-106]]",circle,no_dis,hori,left,"[99999,99999]","[106,-106]",left,1,0.8684,,,,,,001,2025-03-11_01h40.02.171,SL_sali_41,2021.2.3,Win32,142.8571429,,,92,0,92,0,1,,,,,,,,
,,"[""diamond"",""green"",""vert"",""up"",[106,106],[-106,106]]",diamond,green,vert,up,"[106,106]","[-106,106]",up,1,1.1181,,,,,,001,2025-03-11_01h40.02.171,SL_sali_41,2021.2.3,Win32,142.8571429,,,93,0,93,0,1,,,,,,,,
,,"[""diamond"",""red"",""hori"",""left"",[0,-150],[0,150]]",diamond,red,hori,left,"[0,-150]","[0,150]",left,1,1.042,,,,,,001,2025-03-11_01h40.02.171,SL_sali_41,2021.2.3,Win32,142.8571429,,,94,0,94,0,1,,,,,,,,
,,"[""circle"",""red"",""vert"",""up"",[-106,-106],[106,-106]]",circle,red,vert,up,"[-106,-106]","[106,-106]",up,1,1.285,,,,,,001,2025-03-11_01h40.02.171,SL_sali_41,2021.2.3,Win32,142.8571429,,,95,0,95,0,1,,,,,,,,
,,"[""diamond"",""no_dis"",""vert"",""up"",[99999,99999],[150,0]]",diamond,no_dis,vert,up,"[99999,99999]","[150,0]",up,1,0.9586,,,,,,001,2025-03-11_01h40.02.171,SL_sali_41,2021.2.3,Win32,142.8571429,,,96,0,96,0,1,,,,,,,,
,,"[""diamond"",""no_dis"",""vert"",""up"",[99999,99999],[-150,0]]",diamond,no_dis,vert,up,"[99999,99999]","[-150,0]",up,1,0.8957,,,,,,001,2025-03-11_01h40.02.171,SL_sali_41,2021.2.3,Win32,142.8571429,,,97,0,97,0,1,,,,,,,,
,,"[""circle"",""no_dis"",""vert"",""up"",[99999,99999],[150,0]]",circle,no_dis,vert,up,"[99999,99999]","[150,0]",up,1,0.771,,,,,,001,2025-03-11_01h40.02.171,SL_sali_41,2021.2.3,Win32,142.8571429,,,98,0,98,0,1,,,,,,,,
,,"[""circle"",""green"",""hori"",""left"",[106,-106],[-106,106]]",circle,green,hori,left,"[106,-106]","[-106,106]",left,1,0.9584,,,,,,001,2025-03-11_01h40.02.171,SL_sali_41,2021.2.3,Win32,142.8571429,,,99,0,99,0,1,,,,,,,,
,,"[""circle"",""no_dis"",""hori"",""left"",[99999,99999],[0,150]]",circle,no_dis,hori,left,"[99999,99999]","[0,150]",left,1,0.9099,,,,,,001,2025-03-11_01h40.02.171,SL_sali_41,2021.2.3,Win32,142.8571429,,,100,0,100,0,1,,,,,,,,
,,"[""diamond"",""red"",""hori"",""left"",[0,-150],[106,-106]]",diamond,red,hori,left,"[0,-150]","[106,-106]",left,1,1.2015,,,,,,001,2025-03-11_01h40.02.171,SL_sali_41,2021.2.3,Win32,142.8571429,,,101,0,101,0,1,,,,,,,,
,,"[""diamond"",""no_dis"",""vert"",""up"",[99999,99999],[106,-106]]",diamond,no_dis,vert,up,"[99999,99999]","[106,-106]",up,1,0.8631,,,,,,001,2025-03-11_01h40.02.171,SL_sali_41,2021.2.3,Win32,142.8571429,,,102,0,102,0,1,,,,,,,,
,,"[""circle"",""green"",""hori"",""left"",[106,106],[-150,0]]",circle,green,hori,left,"[106,106]","[-150,0]",left,1,0.9727,,,,,,001,2025-03-11_01h40.02.171,SL_sali_41,2021.2.3,Win32,142.8571429,,,103,0,103,0,1,,,,,,,,
,,"[""diamond"",""no_dis"",""vert"",""up"",[99999,99999],[0,-150]]",diamond,no_dis,vert,up,"[99999,99999]","[0,-150]",up,1,0.986,,,,,,001,2025-03-11_01h40.02.171,SL_sali_41,2021.2.3,Win32,142.8571429,,,104,0,104,0,1,,,,,,,,
,,"[""circle"",""green"",""vert"",""up"",[150,0],[-150,0]]",circle,green,vert,up,"[150,0]","[-150,0]",up,1,1.1201,,,,,,001,2025-03-11_01h40.02.171,SL_sali_41,2021.2.3,Win32,142.8571429,,,105,0,105,0,1,,,,,,,,
,,"[""circle"",""no_dis"",""vert"",""up"",[99999,99999],[-106,-106]]",circle,no_dis,vert,up,"[99999,99999]","[-106,-106]",up,1,0.7085,,,,,,001,2025-03-11_01h40.02.171,SL_sali_41,2021.2.3,Win32,142.8571429,,,106,0,106,0,1,,,,,,,,
,,"[""circle"",""green"",""vert"",""up"",[-106,-106],[106,-106]]",circle,green,vert,up,"[-106,-106]","[106,-106]",up,1,1.1698,,,,,,001,2025-03-11_01h40.02.171,SL_sali_41,2021.2.3,Win32,142.8571429,,,107,0,107,0,1,,,,,,,,
,,"[""diamond"",""no_dis"",""hori"",""left"",[99999,99999],[106,106]]",diamond,no_dis,hori,left,"[99999,99999]","[106,106]",left,1,0.8817,,,,,,001,2025-03-11_01h40.02.171,SL_sali_41,2021.2.3,Win32,142.8571429,,,108,0,108,0,1,,,,,,,,
,,"[""diamond"",""no_dis"",""hori"",""left"",[99999,99999],[0,150]]",diamond,no_dis,hori,left,"[99999,99999]","[0,150]",left,1,0.7952,,,,,,001,2025-03-11_01h40.02.171,SL_sali_41,2021.2.3,Win32,142.8571429,,,109,0,109,0,1,,,,,,,,
,,"[""circle"",""green"",""vert"",""up"",[106,106],[-106,106]]",circle,green,vert,up,"[106,106]","[-106,106]",up,1,0.8354,,,,,,001,2025-03-11_01h40.02.171,SL_sali_41,2021.2.3,Win32,142.8571429,,,110,0,110,0,1,,,,,,,,
,,"[""circle"",""no_dis"",""vert"",""up"",[99999,99999],[-150,0]]",circle,no_dis,vert,up,"[99999,99999]","[-150,0]",up,1,0.8544,,,,,,001,2025-03-11_01h40.02.171,SL_sali_41,2021.2.3,Win32,142.8571429,,,111,0,111,0,1,,,,,,,,
,,"[""circle"",""red"",""vert"",""up"",[106,106],[0,150]]",circle,red,vert,up,"[106,106]","[0,150]",up,1,0.8476,,,,,,001,2025-03-11_01h40.02.171,SL_sali_41,2021.2.3,Win32,142.8571429,,,112,0,112,0,1,,,,,,,,
,,"[""circle"",""no_dis"",""hori"",""left"",[99999,99999],[-150,0]]",circle,no_dis,hori,left,"[99999,99999]","[-150,0]",left,1,1.4931,,,,,,001,2025-03-11_01h40.02.171,SL_sali_41,2021.2.3,Win32,142.8571429,,,113,0,113,0,1,,,,,,,,
,,"[""circle"",""no_dis"",""vert"",""up"",[99999,99999],[106,-106]]",circle,no_dis,vert,up,"[99999,99999]","[106,-106]",up,1,0.6668,,,,,,001,2025-03-11_01h40.02.171,SL_sali_41,2021.2.3,Win32,142.8571429,,,114,0,114,0,1,,,,,,,,
,,"[""diamond"",""green"",""hori"",""left"",[150,0],[-106,-106]]",diamond,green,hori,left,"[150,0]","[-106,-106]",left,1,1.1395,,,,,,001,2025-03-11_01h40.02.171,SL_sali_41,2021.2.3,Win32,142.8571429,,,115,0,115,0,1,,,,,,,,
,,"[""diamond"",""no_dis"",""hori"",""left"",[99999,99999],[106,106]]",diamond,no_dis,hori,left,"[99999,99999]","[106,106]",left,1,0.7711,,,,,,001,2025-03-11_01h40.02.171,SL_sali_41,2021.2.3,Win32,142.8571429,,,116,0,116,0,1,,,,,,,,
,,"[""circle"",""green"",""hori"",""left"",[0,150],[-106,-106]]",circle,green,hori,left,"[0,150]","[-106,-106]",left,1,0.8543,,,,,,001,2025-03-11_01h40.02.171,SL_sali_41,2021.2.3,Win32,142.8571429,,,117,0,117,0,1,,,,,,,,
,,"[""diamond"",""green"",""hori"",""left"",[106,106],[-106,106]]",diamond,green,hori,left,"[106,106]","[-106,106]",left,1,0.9656,,,,,,001,2025-03-11_01h40.02.171,SL_sali_41,2021.2.3,Win32,142.8571429,,,118,0,118,0,1,,,,,,,,
,,"[""diamond"",""green"",""hori"",""left"",[106,106],[150,0]]",diamond,green,hori,left,"[106,106]","[150,0]",left,1,0.6335,,,,,,001,2025-03-11_01h40.02.171,SL_sali_41,2021.2.3,Win32,142.8571429,,,119,0,119,0,1,,,,,,,,
,,"[""circle"",""green"",""hori"",""left"",[0,150],[-106,106]]",circle,green,hori,left,"[0,150]","[-106,106]",left,1,1.5283,,,,,,001,2025-03-11_01h40.02.171,SL_sali_41,2021.2.3,Win32,142.8571429,,,120,0,120,0,1,,,,,,,,
,,"[""diamond"",""no_dis"",""vert"",""up"",[99999,99999],[-106,106]]",diamond,no_dis,vert,up,"[99999,99999]","[-106,106]",up,1,0.888,,,,,,001,2025-03-11_01h40.02.171,SL_sali_41,2021.2.3,Win32,142.8571429,,,121,0,121,0,1,,,,,,,,
,,"[""circle"",""no_dis"",""hori"",""left"",[99999,99999],[-106,-106]]",circle,no_dis,hori,left,"[99999,99999]","[-106,-106]",left,1,1.0348,,,,,,001,2025-03-11_01h40.02.171,SL_sali_41,2021.2.3,Win32,142.8571429,,,122,0,122,0,1,,,,,,,,
,,"[""diamond"",""green"",""vert"",""up"",[-106,106],[106,-106]]",diamond,green,vert,up,"[-106,106]","[106,-106]",up,1,1.5502,,,,,,001,2025-03-11_01h40.02.171,SL_sali_41,2021.2.3,Win32,142.8571429,,,123,0,123,0,1,,,,,,,,
,,"[""circle"",""no_dis"",""vert"",""up"",[99999,99999],[0,150]]",circle,no_dis,vert,up,"[99999,99999]","[0,150]",up,1,0.8748,,,,,,001,2025-03-11_01h40.02.171,SL_sali_41,2021.2.3,Win32,142.8571429,,,124,0,124,0,1,,,,,,,,
,,"[""diamond"",""red"",""hori"",""left"",[106,106],[-106,-106]]",diamond,red,hori,left,"[106,106]","[-106,-106]",left,1,0.7924,,,,,,001,2025-03-11_01h40.02.171,SL_sali_41,2021.2.3,Win32,142.8571429,,,125,0,125,0,1,,,,,,,,
,,"[""diamond"",""green"",""hori"",""left"",[0,150],[-106,-106]]",diamond,green,hori,left,"[0,150]","[-106,-106]",left,1,0.6672,,,,,,001,2025-03-11_01h40.02.171,SL_sali_41,2021.2.3,Win32,142.8571429,,,126,0,126,0,1,,,,,,,,
,,"[""circle"",""green"",""hori"",""left"",[106,106],[-106,-106]]",circle,green,hori,left,"[106,106]","[-106,-106]",left,1,0.5834,,,,,,001,2025-03-11_01h40.02.171,SL_sali_41,2021.2.3,Win32,142.8571429,,,127,0,127,0,1,,,,,,,,
,,,,,,,,,,,,,,,,,001,2025-03-11_01h40.02.171,SL_sali_41,2021.2.3,Win32,142.8571429,,,,,,,,3,space,2.78,2,0,2,0,1
,,"[""circle"",""green"",""vert"",""up"",[-150,0],[0,150]]",circle,green,vert,up,"[-150,0]","[0,150]",up,1,1.3416,,,,,,001,2025-03-11_01h40.02.171,SL_sali_41,2021.2.3,Win32,142.8571429,,,0,0,0,0,1,,,,,,,,
,,"[""circle"",""green"",""hori"",""left"",[0,-150],[-106,-106]]",circle,green,hori,left,"[0,-150]","[-106,-106]",left,1,0.6043,,,,,,001,2025-03-11_01h40.02.171,SL_sali_41,2021.2.3,Win32,142.8571429,,,1,0,1,0,1,,,,,,,,
,,"[""diamond"",""red"",""hori"",""left"",[-150,0],[-106,-106]]",diamond,red,hori,left,"[-150,0]","[-106,-106]",left,1,0.9469,,,,,,001,2025-03-11_01h40.02.171,SL_sali_41,2021.2.3,Win32,142.8571429,,,2,0,2,0,1,,,,,,,,
,,"[""diamond"",""no_dis"",""vert"",""up"",[99999,99999],[-106,106]]",diamond,no_dis,vert,up,"[99999,99999]","[-106,106]",up,1,0.9308,,,,,,001,2025-03-11_01h40.02.171,SL_sali_41,2021.2.3,Win32,142.8571429,,,3,0,3,0,1,,,,,,,,
,,"[""circle"",""green"",""vert"",""up"",[-106,-106],[106,-106]]",circle,green,vert,up,"[-106,-106]","[106,-106]",up,1,1.5002,,,,,,001,2025-03-11_01h40.02.171,SL_sali_41,2021.2.3,Win32,142.8571429,,,4,0,4,0,1,,,,,,,,
,,"[""diamond"",""green"",""hori"",""left"",[150,0],[-106,-106]]",diamond,green,hori,left,"[150,0]","[-106,-106]",left,1,0.681,,,,,,001,2025-03-11_01h40.02.171,SL_sali_41,2021.2.3,Win32,142.8571429,,,5,0,5,0,1,,,,,,,,
,,"[""diamond"",""red"",""vert"",""up"",[-106,106],[106,-106]]",diamond,red,vert,up,"[-106,106]","[106,-106]",up,1,1.2154,,,,,,001,2025-03-11_01h40.02.171,SL_sali_41,2021.2.3,Win32,142.8571429,,,6,0,6,0,1,,,,,,,,
,,"[""diamond"",""green"",""vert"",""up"",[106,106],[-150,0]]",diamond,green,vert,up,"[106,106]","[-150,0]",up,1,1.2435,,,,,,001,2025-03-11_01h40.02.171,SL_sali_41,2021.2.3,Win32,142.8571429,,,7,0,7,0,1,,,,,,,,
,,"[""diamond"",""red"",""vert"",""up"",[-106,106],[150,0]]",diamond,red,vert,up,"[-106,106]","[150,0]",up,1,1.287,,,,,,001,2025-03-11_01h40.02.171,SL_sali_41,2021.2.3,Win32,142.8571429,,,8,0,8,0,1,,,,,,,,
,,"[""circle"",""green"",""hori"",""left"",[0,-150],[150,0]]",circle,green,hori,left,"[0,-150]","[150,0]",left,1,1.0424,,,,,,001,2025-03-11_01h40.02.171,SL_sali_41,2021.2.3,Win32,142.8571429,,,9,0,9,0,1,,,,,,,,
,,"[""diamond"",""no_dis"",""hori"",""left"",[99999,99999],[0,150]]",diamond,no_dis,hori,left,"[99999,99999]","[0,150]",left,1,0.7876,,,,,,001,2025-03-11_01h40.02.171,SL_sali_41,2021.2.3,Win32,142.8571429,,,10,0,10,0,1,,,,,,,,
,,"[""circle"",""red"",""hori"",""left"",[106,106],[-150,0]]",circle,red,hori,left,"[106,106]","[-150,0]",left,1,0.7015,,,,,,001,2025-03-11_01h40.02.171,SL_sali_41,2021.2.3,Win32,142.8571429,,,11,0,11,0,1,,,,,,,,
,,"[""circle"",""no_dis"",""hori"",""left"",[99999,99999],[-150,0]]",circle,no_dis,hori,left,"[99999,99999]","[-150,0]",left,1,0.5626,,,,,,001,2025-03-11_01h40.02.171,SL_sali_41,2021.2.3,Win32,142.8571429,,,12,0,12,0,1,,,,,,,,
,,"[""circle"",""green"",""vert"",""up"",[106,106],[-106,106]]",circle,green,vert,up,"[106,106]","[-106,106]",up,1,0.7226,,,,,,001,2025-03-11_01h40.02.171,SL_sali_41,2021.2.3,Win32,142.8571429,,,13,0,13,0,1,,,,,,,,
,,"[""diamond"",""no_dis"",""vert"",""up"",[99999,99999],[0,-150]]",diamond,no_dis,vert,up,"[99999,99999]","[0,-150]",up,1,1.2636,,,,,,001,2025-03-11_01h40.02.171,SL_sali_41,2021.2.3,Win32,142.8571429,,,14,0,14,0,1,,,,,,,,
,,"[""diamond"",""red"",""hori"",""left"",[0,-150],[0,150]]",diamond,red,hori,left,"[0,-150]","[0,150]",left,1,0.889,,,,,,001,2025-03-11_01h40.02.171,SL_sali_41,2021.2.3,Win32,142.8571429,,,15,0,15,0,1,,,,,,,,
,,"[""diamond"",""green"",""hori"",""left"",[-106,106],[150,0]]",diamond,green,hori,left,"[-106,106]","[150,0]",left,1,0.6741,,,,,,001,2025-03-11_01h40.02.171,SL_sali_41,2021.2.3,Win32,142.8571429,,,16,0,16,0,1,,,,,,,,
,,"[""circle"",""no_dis"",""hori"",""left"",[99999,99999],[-106,106]]",circle,no_dis,hori,left,"[99999,99999]","[-106,106]",left,1,1.5636,,,,,,001,2025-03-11_01h40.02.171,SL_sali_41,2021.2.3,Win32,142.8571429,,,17,0,17,0,1,,,,,,,,
,,"[""diamond"",""no_dis"",""hori"",""left"",[99999,99999],[0,-150]]",diamond,no_dis,hori,left,"[99999,99999]","[0,-150]",left,1,0.8334,,,,,,001,2025-03-11_01h40.02.171,SL_sali_41,2021.2.3,Win32,142.8571429,,,18,0,18,0,1,,,,,,,,
,,"[""diamond"",""red"",""hori"",""left"",[106,106],[106,-106]]",diamond,red,hori,left,"[106,106]","[106,-106]",left,1,0.8198,,,,,,001,2025-03-11_01h40.02.171,SL_sali_41,2021.2.3,Win32,142.8571429,,,19,0,19,0,1,,,,,,,,
,,"[""diamond"",""green"",""hori"",""left"",[106,-106],[106,106]]",diamond,green,hori,left,"[106,-106]","[106,106]",left,1,0.8966,,,,,,001,2025-03-11_01h40.02.171,SL_sali_41,2021.2.3,Win32,142.8571429,,,20,0,20,0,1,,,,,,,,
,,"[""diamond"",""no_dis"",""vert"",""up"",[99999,99999],[-106,106]]",diamond,no_dis,vert,up,"[99999,99999]","[-106,106]",up,1,0.6812,,,,,,001,2025-03-11_01h40.02.171,SL_sali_41,2021.2.3,Win32,142.8571429,,,21,0,21,0,1,,,,,,,,
,,"[""circle"",""green"",""hori"",""left"",[106,106],[-150,0]]",circle,green,hori,left,"[106,106]","[-150,0]",left,1,0.9172,,,,,,001,2025-03-11_01h40.02.171,SL_sali_41,2021.2.3,Win32,142.8571429,,,22,0,22,0,1,,,,,,,,
,,"[""circle"",""red"",""hori"",""left"",[0,-150],[150,0]]",circle,red,hori,left,"[0,-150]","[150,0]",left,1,0.7162,,,,,,001,2025-03-11_01h40.02.171,SL_sali_41,2021.2.3,Win32,142.8571429,,,23,0,23,0,1,,,,,,,,
,,"[""circle"",""no_dis"",""vert"",""up"",[99999,99999],[-106,106]]",circle,no_dis,vert,up,"[99999,99999]","[-106,106]",up,1,0.757,,,,,,001,2025-03-11_01h40.02.171,SL_sali_41,2021.2.3,Win32,142.8571429,,,24,0,24,0,1,,,,,,,,
,,"[""circle"",""red"",""hori"",""left"",[-106,-106],[150,0]]",circle,red,hori,left,"[-106,-106]","[150,0]",left,1,0.6389,,,,,,001,2025-03-11_01h40.02.171,SL_sali_41,2021.2.3,Win32,142.8571429,,,25,0,25,0,1,,,,,,,,
,,"[""diamond"",""red"",""vert"",""up"",[-106,106],[106,-106]]",diamond,red,vert,up,"[-106,106]","[106,-106]",up,1,1.1185,,,,,,001,2025-03-11_01h40.02.171,SL_sali_41,2021.2.3,Win32,142.8571429,,,26,0,26,0,1,,,,,,,,
,,"[""diamond"",""green"",""hori"",""left"",[0,150],[-150,0]]",diamond,green,hori,left,"[0,150]","[-150,0]",left,1,0.6146,,,,,,001,2025-03-11_01h40.02.171,SL_sali_41,2021.2.3,Win32,142.8571429,,,27,0,27,0,1,,,,,,,,
,,"[""diamond"",""green"",""vert"",""up"",[-106,106],[106,-106]]",diamond,green,vert,up,"[-106,106]","[106,-106]",up,1,0.757,,,,,,001,2025-03-11_01h40.02.171,SL_sali_41,2021.2.3,Win32,142.8571429,,,28,0,28,0,1,,,,,,,,
,,"[""circle"",""green"",""vert"",""up"",[-106,-106],[106,-106]]",circle,green,vert,up,"[-106,-106]","[106,-106]",left,0,0.7915,,,,,,001,2025-03-11_01h40.02.171,SL_sali_41,2021.2.3,Win32,142.8571429,,,29,0,29,0,1,,,,,,,,
,,"[""circle"",""green"",""vert"",""up"",[0,-150],[0,150]]",circle,green,vert,up,"[0,-150]","[0,150]",up,1,0.9376,,,,,,001,2025-03-11_01h40.02.171,SL_sali_41,2021.2.3,Win32,142.8571429,,,30,0,30,0,1,,,,,,,,
,,"[""diamond"",""no_dis"",""vert"",""up"",[99999,99999],[106,-106]]",diamond,no_dis,vert,up,"[99999,99999]","[106,-106]",up,1,0.9803,,,,,,001,2025-03-11_01h40.02.171,SL_sali_41,2021.2.3,Win32,142.8571429,,,31,0,31,0,1,,,,,,,,
,,"[""circle"",""red"",""vert"",""up"",[150,0],[-106,-106]]",circle,red,vert,up,"[150,0]","[-106,-106]",up,1,1.0902,,,,,,001,2025-03-11_01h40.02.171,SL_sali_41,2021.2.3,Win32,142.8571429,,,32,0,32,0,1,,,,,,,,
,,"[""circle"",""green"",""vert"",""up"",[-106,-106],[106,-106]]",circle,green,vert,up,"[-106,-106]","[106,-106]",up,1,0.9032,,,,,,001,2025-03-11_01h40.02.171,SL_sali_41,2021.2.3,Win32,142.8571429,,,33,0,33,0,1,,,,,,,,
,,"[""circle"",""green"",""hori"",""left"",[-106,-106],[106,106]]",circle,green,hori,left,"[-106,-106]","[106,106]",left,1,0.6044,,,,,,001,2025-03-11_01h40.02.171,SL_sali_41,2021.2.3,Win32,142.8571429,,,34,0,34,0,1,,,,,,,,
,,"[""diamond"",""red"",""hori"",""left"",[106,-106],[0,150]]",diamond,red,hori,left,"[106,-106]","[0,150]",left,1,0.9264,,,,,,001,2025-03-11_01h40.02.171,SL_sali_41,2021.2.3,Win32,142.8571429,,,35,0,35,0,1,,,,,,,,
,,"[""diamond"",""no_dis"",""hori"",""left"",[99999,99999],[106,106]]",diamond,no_dis,hori,left,"[99999,99999]","[106,106]",left,1,0.6877,,,,,,001,2025-03-11_01h40.02.171,SL_sali_41,2021.2.3,Win32,142.8571429,,,36,0,36,0,1,,,,,,,,
,,"[""circle"",""no_dis"",""vert"",""up"",[99999,99999],[-106,-106]]",circle,no_dis,vert,up,"[99999,99999]","[-106,-106]",up,1,1.4536,,,,,,001,2025-03-11_01h40.02.171,SL_sali_41,2021.2.3,Win32,142.8571429,,,37,0,37,0,1,,,,,,,,
,,"[""circle"",""green"",""hori"",""left"",[106,106],[-106,106]]",circle,green,hori,left,"[106,106]","[-106,106]",left,1,0.653,,,,,,001,2025-03-11_01h40.02.171,SL_sali_41,2021.2.3,Win32,142.8571429,,,38,0,38,0,1,,,,,,,,
,,"[""diamond"",""red"",""vert"",""up"",[-106,106],[150,0]]",diamond,red,vert,up,"[-106,106]","[150,0]",up,1,0.8946,,,,,,001,2025-03-11_01h40.02.171,SL_sali_41,2021.2.3,Win32,142.8571429,,,39,0,39,0,1,,,,,,,,
,,"[""diamond"",""green"",""vert"",""up"",[106,106],[-106,106]]",diamond,green,vert,up,"[106,106]","[-106,106]",up,1,0.8263,,,,,,001,2025-03-11_01h40.02.171,SL_sali_41,2021.2.3,Win32,142.8571429,,,40,0,40,0,1,,,,,,,,
,,"[""diamond"",""red"",""hori"",""left"",[0,-150],[106,-106]]",diamond,red,hori,left,"[0,-150]","[106,-106]",left,1,1.2626,,,,,,001,2025-03-11_01h40.02.171,SL_sali_41,2021.2.3,Win32,142.8571429,,,41,0,41,0,1,,,,,,,,
,,"[""circle"",""green"",""vert"",""up"",[106,106],[-106,106]]",circle,green,vert,up,"[106,106]","[-106,106]",up,1,1.6109,,,,,,001,2025-03-11_01h40.02.171,SL_sali_41,2021.2.3,Win32,142.8571429,,,42,0,42,0,1,,,,,,,,
,,"[""diamond"",""red"",""vert"",""up"",[-106,106],[0,-150]]",diamond,red,vert,up,"[-106,106]","[0,-150]",up,1,1.0709,,,,,,001,2025-03-11_01h40.02.171,SL_sali_41,2021.2.3,Win32,142.8571429,,,43,0,43,0,1,,,,,,,,
,,"[""diamond"",""green"",""vert"",""up"",[-106,-106],[0,150]]",diamond,green,vert,up,"[-106,-106]","[0,150]",up,1,0.9849,,,,,,001,2025-03-11_01h40.02.171,SL_sali_41,2021.2.3,Win32,142.8571429,,,44,0,44,0,1,,,,,,,,
,,"[""circle"",""red"",""vert"",""up"",[106,-106],[-150,0]]",circle,red,vert,up,"[106,-106]","[-150,0]",up,1,1.1601,,,,,,001,2025-03-11_01h40.02.171,SL_sali_41,2021.2.3,Win32,142.8571429,,,45,0,45,0,1,,,,,,,,
,,"[""circle"",""red"",""hori"",""left"",[106,-106],[0,-150]]",circle,red,hori,left,"[106,-106]","[0,-150]",left,1,0.9653,,,,,,001,2025-03-11_01h40.02.171,SL_sali_41,2021.2.3,Win32,142.8571429,,,46,0,46,0,1,,,,,,,,
,,"[""diamond"",""green"",""hori"",""left"",[150,0],[106,106]]",diamond,green,hori,left,"[150,0]","[106,106]",left,1,1.0619,,,,,,001,2025-03-11_01h40.02.171,SL_sali_41,2021.2.3,Win32,142.8571429,,,47,0,47,0,1,,,,,,,,
,,"[""circle"",""no_dis"",""hori"",""left"",[99999,99999],[-106,106]]",circle,no_dis,hori,left,"[99999,99999]","[-106,106]",left,1,1.5025,,,,,,001,2025-03-11_01h40.02.171,SL_sali_41,2021.2.3,Win32,142.8571429,,,48,0,48,0,1,,,,,,,,
,,"[""diamond"",""no_dis"",""hori"",""left"",[99999,99999],[0,150]]",diamond,no_dis,hori,left,"[99999,99999]","[0,150]",left,1,1.2976,,,,,,001,2025-03-11_01h40.02.171,SL_sali_41,2021.2.3,Win32,142.8571429,,,49,0,49,0,1,,,,,,,,
,,"[""diamond"",""no_dis"",""vert"",""up"",[99999,99999],[0,-150]]",diamond,no_dis,vert,up,"[99999,99999]","[0,-150]",up,1,1.4042,,,,,,001,2025-03-11_01h40.02.171,SL_sali_41,2021.2.3,Win32,142.8571429,,,50,0,50,0,1,,,,,,,,
,,"[""circle"",""green"",""hori"",""left"",[106,106],[-106,-106]]",circle,green,hori,left,"[106,106]","[-106,-106]",left,1,0.7506,,,,,,001,2025-03-11_01h40.02.171,SL_sali_41,2021.2.3,Win32,142.8571429,,,51,0,51,0,1,,,,,,,,
,,"[""circle"",""green"",""hori"",""left"",[0,150],[-106,-106]]",circle,green,hori,left,"[0,150]","[-106,-106]",left,1,0.7225,,,,,,001,2025-03-11_01h40.02.171,SL_sali_41,2021.2.3,Win32,142.8571429,,,52,0,52,0,1,,,,,,,,
,,"[""circle"",""green"",""hori"",""left"",[106,-106],[-106,106]]",circle,green,hori,left,"[106,-106]","[-106,106]",left,1,0.8961,,,,,,001,2025-03-11_01h40.02.171,SL_sali_41,2021.2.3,Win32,142.8571429,,,53,0,53,0,1,,,,,,,,
,,"[""circle"",""no_dis"",""vert"",""up"",[99999,99999],[0,-150]]",circle,no_dis,vert,up,"[99999,99999]","[0,-150]",up,1,0.9813,,,,,,001,2025-03-11_01h40.02.171,SL_sali_41,2021.2.3,Win32,142.8571429,,,54,0,54,0,1,,,,,,,,
,,"[""diamond"",""no_dis"",""vert"",""up"",[99999,99999],[-106,-106]]",diamond,no_dis,vert,up,"[99999,99999]","[-106,-106]",up,1,1.4091,,,,,,001,2025-03-11_01h40.02.171,SL_sali_41,2021.2.3,Win32,142.8571429,,,55,0,55,0,1,,,,,,,,
,,"[""diamond"",""red"",""vert"",""up"",[106,-106],[106,106]]",diamond,red,vert,up,"[106,-106]","[106,106]",up,1,0.8321,,,,,,001,2025-03-11_01h40.02.171,SL_sali_41,2021.2.3,Win32,142.8571429,,,56,0,56,0,1,,,,,,,,
,,"[""diamond"",""no_dis"",""hori"",""left"",[99999,99999],[0,150]]",diamond,no_dis,hori,left,"[99999,99999]","[0,150]",left,1,0.8977,,,,,,001,2025-03-11_01h40.02.171,SL_sali_41,2021.2.3,Win32,142.8571429,,,57,0,57,0,1,,,,,,,,
,,"[""circle"",""red"",""hori"",""left"",[106,106],[0,-150]]",circle,red,hori,left,"[106,106]","[0,-150]",left,1,0.8473,,,,,,001,2025-03-11_01h40.02.171,SL_sali_41,2021.2.3,Win32,142.8571429,,,58,0,58,0,1,,,,,,,,
,,"[""circle"",""no_dis"",""hori"",""left"",[99999,99999],[-106,-106]]",circle,no_dis,hori,left,"[99999,99999]","[-106,-106]",left,1,0.6532,,,,,,001,2025-03-11_01h40.02.171,SL_sali_41,2021.2.3,Win32,142.8571429,,,59,0,59,0,1,,,,,,,,
