﻿key_resp.keys,key_resp.rt,trial_para,tar_shape,dis_color_condi,tar_line,cor_resp,dis_loc,tar_loc,resp.keys,resp.corr,resp.rt,trials.thisRepN,trials.thisTrialN,trials.thisN,trials.thisIndex,trials.ran,participant,date,expName,psychopyVersion,OS,frameRate,key_resp_2.keys,key_resp_2.rt,trials_2.thisRepN,trials_2.thisTrialN,trials_2.thisN,trials_2.thisIndex,trials_2.ran,block_num,key_resp_3.keys,key_resp_3.rt,trials_3.thisRepN,trials_3.thisTrialN,trials_3.thisN,trials_3.thisIndex,trials_3.ran
space,22.8152,"[""diamond"",""green"",""vert"",""up"",[0,-150],[106,106]]",diamond,green,vert,up,"[0,-150]","[106,106]",up,1,2.5655,0,0,0,0,1,001,2025-03-10_18h20.02.138,SL_sali_41,2021.2.3,Win32,60.24096386,,,,,,,,,,,,,,,
,,"[""diamond"",""no_dis"",""hori"",""left"",[99999,99999],[106,-106]]",diamond,no_dis,hori,left,"[99999,99999]","[106,-106]",left,1,1.7167,1,0,1,0,1,001,2025-03-10_18h20.02.138,SL_sali_41,2021.2.3,Win32,60.24096386,,,,,,,,,,,,,,,
,,"[""diamond"",""red"",""hori"",""left"",[-106,-106],[-106,106]]",diamond,red,hori,left,"[-106,-106]","[-106,106]",,0,,2,0,2,0,1,001,2025-03-10_18h20.02.138,SL_sali_41,2021.2.3,Win32,60.24096386,,,,,,,,,,,,,,,
,,"[""diamond"",""green"",""vert"",""up"",[-150,0],[106,106]]",diamond,green,vert,up,"[-150,0]","[106,106]",up,1,1.9676,3,0,3,0,1,001,2025-03-10_18h20.02.138,SL_sali_41,2021.2.3,Win32,60.24096386,,,,,,,,,,,,,,,
,,"[""diamond"",""no_dis"",""vert"",""up"",[99999,99999],[-150,0]]",diamond,no_dis,vert,up,"[99999,99999]","[-150,0]",up,1,1.9674,4,0,4,0,1,001,2025-03-10_18h20.02.138,SL_sali_41,2021.2.3,Win32,60.24096386,,,,,,,,,,,,,,,
,,"[""circle"",""green"",""hori"",""left"",[106,106],[106,-106]]",circle,green,hori,left,"[106,106]","[106,-106]",left,1,2.0831,5,0,5,0,1,001,2025-03-10_18h20.02.138,SL_sali_41,2021.2.3,Win32,60.24096386,,,,,,,,,,,,,,,
,,"[""diamond"",""no_dis"",""hori"",""left"",[99999,99999],[106,106]]",diamond,no_dis,hori,left,"[99999,99999]","[106,106]",left,1,2.0831,6,0,6,0,1,001,2025-03-10_18h20.02.138,SL_sali_41,2021.2.3,Win32,60.24096386,,,,,,,,,,,,,,,
,,"[""circle"",""no_dis"",""vert"",""up"",[99999,99999],[0,-150]]",circle,no_dis,vert,up,"[99999,99999]","[0,-150]",up,1,1.734,7,0,7,0,1,001,2025-03-10_18h20.02.138,SL_sali_41,2021.2.3,Win32,60.24096386,,,,,,,,,,,,,,,
,,"[""diamond"",""red"",""hori"",""left"",[-106,106],[0,-150]]",diamond,red,hori,left,"[-106,106]","[0,-150]",left,1,1.8667,8,0,8,0,1,001,2025-03-10_18h20.02.138,SL_sali_41,2021.2.3,Win32,60.24096386,,,,,,,,,,,,,,,
,,"[""diamond"",""green"",""hori"",""left"",[-106,-106],[0,-150]]",diamond,green,hori,left,"[-106,-106]","[0,-150]",left,1,2.4329,9,0,9,0,1,001,2025-03-10_18h20.02.138,SL_sali_41,2021.2.3,Win32,60.24096386,,,,,,,,,,,,,,,
,,"[""diamond"",""green"",""vert"",""up"",[0,-150],[106,106]]",diamond,green,vert,up,"[0,-150]","[106,106]",up,1,2.6666,,,,,,001,2025-03-10_18h20.02.138,SL_sali_41,2021.2.3,Win32,60.24096386,space,5.7647,0,0,0,0,1,,,,,,,,
,,"[""diamond"",""no_dis"",""hori"",""left"",[99999,99999],[106,-106]]",diamond,no_dis,hori,left,"[99999,99999]","[106,-106]",left,1,1.9828,,,,,,001,2025-03-10_18h20.02.138,SL_sali_41,2021.2.3,Win32,60.24096386,,,1,0,1,0,1,,,,,,,,
,,"[""diamond"",""red"",""hori"",""left"",[-106,-106],[-106,106]]",diamond,red,hori,left,"[-106,-106]","[-106,106]",left,1,1.6347,,,,,,001,2025-03-10_18h20.02.138,SL_sali_41,2021.2.3,Win32,60.24096386,,,2,0,2,0,1,,,,,,,,
,,"[""diamond"",""green"",""vert"",""up"",[-150,0],[106,106]]",diamond,green,vert,up,"[-150,0]","[106,106]",up,1,1.9166,,,,,,001,2025-03-10_18h20.02.138,SL_sali_41,2021.2.3,Win32,60.24096386,,,3,0,3,0,1,,,,,,,,
,,"[""diamond"",""no_dis"",""vert"",""up"",[99999,99999],[-150,0]]",diamond,no_dis,vert,up,"[99999,99999]","[-150,0]",up,1,1.5,,,,,,001,2025-03-10_18h20.02.138,SL_sali_41,2021.2.3,Win32,60.24096386,,,4,0,4,0,1,,,,,,,,
,,"[""circle"",""green"",""hori"",""left"",[106,106],[106,-106]]",circle,green,hori,left,"[106,106]","[106,-106]",left,1,2.0668,,,,,,001,2025-03-10_18h20.02.138,SL_sali_41,2021.2.3,Win32,60.24096386,,,5,0,5,0,1,,,,,,,,
,,"[""diamond"",""no_dis"",""hori"",""left"",[99999,99999],[106,106]]",diamond,no_dis,hori,left,"[99999,99999]","[106,106]",left,1,1.5123,,,,,,001,2025-03-10_18h20.02.138,SL_sali_41,2021.2.3,Win32,60.24096386,,,6,0,6,0,1,,,,,,,,
,,"[""circle"",""no_dis"",""vert"",""up"",[99999,99999],[0,-150]]",circle,no_dis,vert,up,"[99999,99999]","[0,-150]",up,1,1.6269,,,,,,001,2025-03-10_18h20.02.138,SL_sali_41,2021.2.3,Win32,60.24096386,,,7,0,7,0,1,,,,,,,,
,,"[""diamond"",""red"",""hori"",""left"",[-106,106],[0,-150]]",diamond,red,hori,left,"[-106,106]","[0,-150]",left,1,2.2499,,,,,,001,2025-03-10_18h20.02.138,SL_sali_41,2021.2.3,Win32,60.24096386,,,8,0,8,0,1,,,,,,,,
,,"[""diamond"",""green"",""hori"",""left"",[-106,-106],[0,-150]]",diamond,green,hori,left,"[-106,-106]","[0,-150]",left,1,1.7253,,,,,,001,2025-03-10_18h20.02.138,SL_sali_41,2021.2.3,Win32,60.24096386,,,9,0,9,0,1,,,,,,,,
,,"[""circle"",""red"",""vert"",""up"",[-106,-106],[150,0]]",circle,red,vert,up,"[-106,-106]","[150,0]",up,1,1.9559,,,,,,001,2025-03-10_18h20.02.138,SL_sali_41,2021.2.3,Win32,60.24096386,,,10,0,10,0,1,,,,,,,,
,,"[""diamond"",""green"",""hori"",""left"",[-106,-106],[-106,106]]",diamond,green,hori,left,"[-106,-106]","[-106,106]",,0,,,,,,,001,2025-03-10_18h20.02.138,SL_sali_41,2021.2.3,Win32,60.24096386,,,11,0,11,0,1,,,,,,,,
,,"[""diamond"",""green"",""hori"",""left"",[150,0],[106,-106]]",diamond,green,hori,left,"[150,0]","[106,-106]",left,1,1.9741,,,,,,001,2025-03-10_18h20.02.138,SL_sali_41,2021.2.3,Win32,60.24096386,,,12,0,12,0,1,,,,,,,,
,,"[""diamond"",""red"",""vert"",""up"",[-106,106],[-150,0]]",diamond,red,vert,up,"[-106,106]","[-150,0]",,0,,,,,,,001,2025-03-10_18h20.02.138,SL_sali_41,2021.2.3,Win32,60.24096386,,,13,0,13,0,1,,,,,,,,
,,"[""diamond"",""green"",""vert"",""up"",[106,-106],[0,-150]]",diamond,green,vert,up,"[106,-106]","[0,-150]",up,1,1.8477,,,,,,001,2025-03-10_18h20.02.138,SL_sali_41,2021.2.3,Win32,60.24096386,,,14,0,14,0,1,,,,,,,,
,,"[""circle"",""no_dis"",""vert"",""up"",[99999,99999],[0,-150]]",circle,no_dis,vert,up,"[99999,99999]","[0,-150]",up,1,2.7877,,,,,,001,2025-03-10_18h20.02.138,SL_sali_41,2021.2.3,Win32,60.24096386,,,15,0,15,0,1,,,,,,,,
,,"[""circle"",""red"",""vert"",""up"",[-106,-106],[106,-106]]",circle,red,vert,up,"[-106,-106]","[106,-106]",,0,,,,,,,001,2025-03-10_18h20.02.138,SL_sali_41,2021.2.3,Win32,60.24096386,,,16,0,16,0,1,,,,,,,,
,,"[""circle"",""red"",""vert"",""up"",[0,-150],[150,0]]",circle,red,vert,up,"[0,-150]","[150,0]",up,1,1.5124,,,,,,001,2025-03-10_18h20.02.138,SL_sali_41,2021.2.3,Win32,60.24096386,,,17,0,17,0,1,,,,,,,,
,,"[""circle"",""green"",""hori"",""left"",[150,0],[0,-150]]",circle,green,hori,left,"[150,0]","[0,-150]",left,1,1.5686,,,,,,001,2025-03-10_18h20.02.138,SL_sali_41,2021.2.3,Win32,60.24096386,,,18,0,18,0,1,,,,,,,,
,,"[""circle"",""no_dis"",""vert"",""up"",[99999,99999],[0,150]]",circle,no_dis,vert,up,"[99999,99999]","[0,150]",up,1,1.4117,,,,,,001,2025-03-10_18h20.02.138,SL_sali_41,2021.2.3,Win32,60.24096386,,,19,0,19,0,1,,,,,,,,
,,"[""circle"",""no_dis"",""hori"",""left"",[99999,99999],[-106,106]]",circle,no_dis,hori,left,"[99999,99999]","[-106,106]",left,1,1.3291,,,,,,001,2025-03-10_18h20.02.138,SL_sali_41,2021.2.3,Win32,60.24096386,,,20,0,20,0,1,,,,,,,,
,,"[""diamond"",""no_dis"",""hori"",""left"",[99999,99999],[-106,-106]]",diamond,no_dis,hori,left,"[99999,99999]","[-106,-106]",left,1,1.5466,,,,,,001,2025-03-10_18h20.02.138,SL_sali_41,2021.2.3,Win32,60.24096386,,,21,0,21,0,1,,,,,,,,
,,"[""circle"",""red"",""hori"",""left"",[-106,106],[-150,0]]",circle,red,hori,left,"[-106,106]","[-150,0]",left,1,1.8968,,,,,,001,2025-03-10_18h20.02.138,SL_sali_41,2021.2.3,Win32,60.24096386,,,22,0,22,0,1,,,,,,,,
,,"[""circle"",""no_dis"",""vert"",""up"",[99999,99999],[150,0]]",circle,no_dis,vert,up,"[99999,99999]","[150,0]",up,1,1.4287,,,,,,001,2025-03-10_18h20.02.138,SL_sali_41,2021.2.3,Win32,60.24096386,,,23,0,23,0,1,,,,,,,,
,,"[""circle"",""green"",""vert"",""up"",[-150,0],[-106,106]]",circle,green,vert,up,"[-150,0]","[-106,106]",up,1,1.6039,,,,,,001,2025-03-10_18h20.02.138,SL_sali_41,2021.2.3,Win32,60.24096386,,,24,0,24,0,1,,,,,,,,
,,"[""circle"",""red"",""vert"",""up"",[-106,106],[-150,0]]",circle,red,vert,up,"[-106,106]","[-150,0]",up,1,1.4971,,,,,,001,2025-03-10_18h20.02.138,SL_sali_41,2021.2.3,Win32,60.24096386,,,25,0,25,0,1,,,,,,,,
,,"[""diamond"",""green"",""hori"",""left"",[106,-106],[150,0]]",diamond,green,hori,left,"[106,-106]","[150,0]",left,1,2.336,,,,,,001,2025-03-10_18h20.02.138,SL_sali_41,2021.2.3,Win32,60.24096386,,,26,0,26,0,1,,,,,,,,
,,"[""circle"",""green"",""vert"",""up"",[106,106],[-106,106]]",circle,green,vert,up,"[106,106]","[-106,106]",up,1,1.9799,,,,,,001,2025-03-10_18h20.02.138,SL_sali_41,2021.2.3,Win32,60.24096386,,,27,0,27,0,1,,,,,,,,
,,"[""circle"",""red"",""hori"",""left"",[0,150],[150,0]]",circle,red,hori,left,"[0,150]","[150,0]",left,1,1.3036,,,,,,001,2025-03-10_18h20.02.138,SL_sali_41,2021.2.3,Win32,60.24096386,,,28,0,28,0,1,,,,,,,,
,,"[""diamond"",""green"",""vert"",""up"",[106,106],[106,-106]]",diamond,green,vert,up,"[106,106]","[106,-106]",up,1,1.8103,,,,,,001,2025-03-10_18h20.02.138,SL_sali_41,2021.2.3,Win32,60.24096386,,,29,0,29,0,1,,,,,,,,
,,"[""diamond"",""red"",""vert"",""up"",[150,0],[-106,106]]",diamond,red,vert,up,"[150,0]","[-106,106]",up,1,2.2517,,,,,,001,2025-03-10_18h20.02.138,SL_sali_41,2021.2.3,Win32,60.24096386,,,30,0,30,0,1,,,,,,,,
,,"[""diamond"",""red"",""hori"",""left"",[-150,0],[106,106]]",diamond,red,hori,left,"[-150,0]","[106,106]",left,1,2.0905,,,,,,001,2025-03-10_18h20.02.138,SL_sali_41,2021.2.3,Win32,60.24096386,,,31,0,31,0,1,,,,,,,,
,,"[""circle"",""red"",""hori"",""left"",[-106,-106],[0,150]]",circle,red,hori,left,"[-106,-106]","[0,150]",left,1,2.5198,,,,,,001,2025-03-10_18h20.02.138,SL_sali_41,2021.2.3,Win32,60.24096386,,,32,0,32,0,1,,,,,,,,
,,"[""diamond"",""no_dis"",""hori"",""left"",[99999,99999],[150,0]]",diamond,no_dis,hori,left,"[99999,99999]","[150,0]",left,1,1.9922,,,,,,001,2025-03-10_18h20.02.138,SL_sali_41,2021.2.3,Win32,60.24096386,,,33,0,33,0,1,,,,,,,,
,,"[""diamond"",""no_dis"",""hori"",""left"",[99999,99999],[150,0]]",diamond,no_dis,hori,left,"[99999,99999]","[150,0]",left,1,1.3102,,,,,,001,2025-03-10_18h20.02.138,SL_sali_41,2021.2.3,Win32,60.24096386,,,34,0,34,0,1,,,,,,,,
,,"[""circle"",""green"",""hori"",""left"",[-150,0],[0,-150]]",circle,green,hori,left,"[-150,0]","[0,-150]",left,1,2.0628,,,,,,001,2025-03-10_18h20.02.138,SL_sali_41,2021.2.3,Win32,60.24096386,,,35,0,35,0,1,,,,,,,,
,,"[""diamond"",""red"",""vert"",""up"",[0,-150],[-106,-106]]",diamond,red,vert,up,"[0,-150]","[-106,-106]",left,0,2.1203,,,,,,001,2025-03-10_18h20.02.138,SL_sali_41,2021.2.3,Win32,60.24096386,,,36,0,36,0,1,,,,,,,,
,,"[""circle"",""no_dis"",""hori"",""left"",[99999,99999],[150,0]]",circle,no_dis,hori,left,"[99999,99999]","[150,0]",left,1,1.7782,,,,,,001,2025-03-10_18h20.02.138,SL_sali_41,2021.2.3,Win32,60.24096386,,,37,0,37,0,1,,,,,,,,
,,"[""diamond"",""green"",""vert"",""up"",[-106,-106],[-106,106]]",diamond,green,vert,up,"[-106,-106]","[-106,106]",up,1,1.8271,,,,,,001,2025-03-10_18h20.02.138,SL_sali_41,2021.2.3,Win32,60.24096386,,,38,0,38,0,1,,,,,,,,
,,"[""diamond"",""no_dis"",""vert"",""up"",[99999,99999],[-106,-106]]",diamond,no_dis,vert,up,"[99999,99999]","[-106,-106]",up,1,1.6502,,,,,,001,2025-03-10_18h20.02.138,SL_sali_41,2021.2.3,Win32,60.24096386,,,39,0,39,0,1,,,,,,,,
,,"[""circle"",""green"",""hori"",""left"",[106,106],[-106,-106]]",circle,green,hori,left,"[106,106]","[-106,-106]",left,1,1.2503,,,,,,001,2025-03-10_18h20.02.138,SL_sali_41,2021.2.3,Win32,60.24096386,,,40,0,40,0,1,,,,,,,,
,,"[""diamond"",""no_dis"",""hori"",""left"",[99999,99999],[106,106]]",diamond,no_dis,hori,left,"[99999,99999]","[106,106]",left,1,1.85,,,,,,001,2025-03-10_18h20.02.138,SL_sali_41,2021.2.3,Win32,60.24096386,,,41,0,41,0,1,,,,,,,,
,,"[""diamond"",""red"",""vert"",""up"",[-106,-106],[150,0]]",diamond,red,vert,up,"[-106,-106]","[150,0]",up,1,1.3493,,,,,,001,2025-03-10_18h20.02.138,SL_sali_41,2021.2.3,Win32,60.24096386,,,42,0,42,0,1,,,,,,,,
,,"[""diamond"",""red"",""vert"",""up"",[0,-150],[106,-106]]",diamond,red,vert,up,"[0,-150]","[106,-106]",left,0,2.2328,,,,,,001,2025-03-10_18h20.02.138,SL_sali_41,2021.2.3,Win32,60.24096386,,,43,0,43,0,1,,,,,,,,
,,"[""diamond"",""red"",""hori"",""left"",[0,150],[-106,106]]",diamond,red,hori,left,"[0,150]","[-106,106]",,0,,,,,,,001,2025-03-10_18h20.02.138,SL_sali_41,2021.2.3,Win32,60.24096386,,,44,0,44,0,1,,,,,,,,
,,"[""circle"",""red"",""vert"",""up"",[-106,-106],[150,0]]",circle,red,vert,up,"[-106,-106]","[150,0]",up,1,1.2543,,,,,,001,2025-03-10_18h20.02.138,SL_sali_41,2021.2.3,Win32,60.24096386,,,45,0,45,0,1,,,,,,,,
,,"[""circle"",""red"",""hori"",""left"",[-106,-106],[150,0]]",circle,red,hori,left,"[-106,-106]","[150,0]",left,1,2.0837,,,,,,001,2025-03-10_18h20.02.138,SL_sali_41,2021.2.3,Win32,60.24096386,,,46,0,46,0,1,,,,,,,,
,,"[""diamond"",""no_dis"",""vert"",""up"",[99999,99999],[106,-106]]",diamond,no_dis,vert,up,"[99999,99999]","[106,-106]",up,1,1.5165,,,,,,001,2025-03-10_18h20.02.138,SL_sali_41,2021.2.3,Win32,60.24096386,,,47,0,47,0,1,,,,,,,,
,,"[""circle"",""red"",""hori"",""left"",[106,106],[0,-150]]",circle,red,hori,left,"[106,106]","[0,-150]",left,1,1.8499,,,,,,001,2025-03-10_18h20.02.138,SL_sali_41,2021.2.3,Win32,60.24096386,,,48,0,48,0,1,,,,,,,,
,,"[""diamond"",""red"",""hori"",""left"",[-106,-106],[106,-106]]",diamond,red,hori,left,"[-106,-106]","[106,-106]",left,1,1.7206,,,,,,001,2025-03-10_18h20.02.138,SL_sali_41,2021.2.3,Win32,60.24096386,,,49,0,49,0,1,,,,,,,,
,,"[""circle"",""green"",""vert"",""up"",[-150,0],[150,0]]",circle,green,vert,up,"[-150,0]","[150,0]",up,1,1.173,,,,,,001,2025-03-10_18h20.02.138,SL_sali_41,2021.2.3,Win32,60.24096386,,,50,0,50,0,1,,,,,,,,
,,"[""circle"",""red"",""hori"",""left"",[-106,-106],[150,0]]",circle,red,hori,left,"[-106,-106]","[150,0]",left,1,1.1771,,,,,,001,2025-03-10_18h20.02.138,SL_sali_41,2021.2.3,Win32,60.24096386,,,51,0,51,0,1,,,,,,,,
,,"[""diamond"",""no_dis"",""vert"",""up"",[99999,99999],[-106,106]]",diamond,no_dis,vert,up,"[99999,99999]","[-106,106]",up,1,1.2659,,,,,,001,2025-03-10_18h20.02.138,SL_sali_41,2021.2.3,Win32,60.24096386,,,52,0,52,0,1,,,,,,,,
,,"[""circle"",""green"",""vert"",""up"",[-106,-106],[106,-106]]",circle,green,vert,up,"[-106,-106]","[106,-106]",up,1,1.5334,,,,,,001,2025-03-10_18h20.02.138,SL_sali_41,2021.2.3,Win32,60.24096386,,,53,0,53,0,1,,,,,,,,
,,"[""circle"",""no_dis"",""hori"",""left"",[99999,99999],[-106,-106]]",circle,no_dis,hori,left,"[99999,99999]","[-106,-106]",left,1,1.5703,,,,,,001,2025-03-10_18h20.02.138,SL_sali_41,2021.2.3,Win32,60.24096386,,,54,0,54,0,1,,,,,,,,
,,"[""circle"",""green"",""vert"",""up"",[0,150],[-106,106]]",circle,green,vert,up,"[0,150]","[-106,106]",up,1,2.1668,,,,,,001,2025-03-10_18h20.02.138,SL_sali_41,2021.2.3,Win32,60.24096386,,,55,0,55,0,1,,,,,,,,
,,"[""circle"",""red"",""vert"",""up"",[-106,106],[-106,-106]]",circle,red,vert,up,"[-106,106]","[-106,-106]",up,1,1.7163,,,,,,001,2025-03-10_18h20.02.138,SL_sali_41,2021.2.3,Win32,60.24096386,,,56,0,56,0,1,,,,,,,,
,,"[""diamond"",""green"",""vert"",""up"",[106,-106],[150,0]]",diamond,green,vert,up,"[106,-106]","[150,0]",up,1,1.8335,,,,,,001,2025-03-10_18h20.02.138,SL_sali_41,2021.2.3,Win32,60.24096386,,,57,0,57,0,1,,,,,,,,
,,"[""circle"",""no_dis"",""hori"",""left"",[99999,99999],[-106,106]]",circle,no_dis,hori,left,"[99999,99999]","[-106,106]",left,1,1.5329,,,,,,001,2025-03-10_18h20.02.138,SL_sali_41,2021.2.3,Win32,60.24096386,,,58,0,58,0,1,,,,,,,,
,,"[""diamond"",""red"",""vert"",""up"",[-106,-106],[-106,106]]",diamond,red,vert,up,"[-106,-106]","[-106,106]",up,1,1.6836,,,,,,001,2025-03-10_18h20.02.138,SL_sali_41,2021.2.3,Win32,60.24096386,,,59,0,59,0,1,,,,,,,,
,,"[""diamond"",""no_dis"",""vert"",""up"",[99999,99999],[0,-150]]",diamond,no_dis,vert,up,"[99999,99999]","[0,-150]",left,0,1.9999,,,,,,001,2025-03-10_18h20.02.138,SL_sali_41,2021.2.3,Win32,60.24096386,,,60,0,60,0,1,,,,,,,,
,,"[""circle"",""no_dis"",""vert"",""up"",[99999,99999],[106,106]]",circle,no_dis,vert,up,"[99999,99999]","[106,106]",up,1,1.3835,,,,,,001,2025-03-10_18h20.02.138,SL_sali_41,2021.2.3,Win32,60.24096386,,,61,0,61,0,1,,,,,,,,
,,"[""circle"",""red"",""hori"",""left"",[0,150],[106,-106]]",circle,red,hori,left,"[0,150]","[106,-106]",left,1,1.4275,,,,,,001,2025-03-10_18h20.02.138,SL_sali_41,2021.2.3,Win32,60.24096386,,,62,0,62,0,1,,,,,,,,
,,"[""diamond"",""red"",""hori"",""left"",[-106,-106],[150,0]]",diamond,red,hori,left,"[-106,-106]","[150,0]",left,1,1.8182,,,,,,001,2025-03-10_18h20.02.138,SL_sali_41,2021.2.3,Win32,60.24096386,,,63,0,63,0,1,,,,,,,,
,,"[""diamond"",""no_dis"",""hori"",""left"",[99999,99999],[-106,-106]]",diamond,no_dis,hori,left,"[99999,99999]","[-106,-106]",left,1,1.7158,,,,,,001,2025-03-10_18h20.02.138,SL_sali_41,2021.2.3,Win32,60.24096386,,,64,0,64,0,1,,,,,,,,
,,"[""circle"",""red"",""hori"",""left"",[-106,-106],[150,0]]",circle,red,hori,left,"[-106,-106]","[150,0]",left,1,2.2519,,,,,,001,2025-03-10_18h20.02.138,SL_sali_41,2021.2.3,Win32,60.24096386,,,65,0,65,0,1,,,,,,,,
,,"[""diamond"",""red"",""hori"",""left"",[0,-150],[150,0]]",diamond,red,hori,left,"[0,-150]","[150,0]",left,1,1.4821,,,,,,001,2025-03-10_18h20.02.138,SL_sali_41,2021.2.3,Win32,60.24096386,,,66,0,66,0,1,,,,,,,,
,,"[""diamond"",""red"",""hori"",""left"",[-106,-106],[0,150]]",diamond,red,hori,left,"[-106,-106]","[0,150]",left,1,1.7697,,,,,,001,2025-03-10_18h20.02.138,SL_sali_41,2021.2.3,Win32,60.24096386,,,67,0,67,0,1,,,,,,,,
,,"[""diamond"",""green"",""hori"",""left"",[-106,-106],[0,-150]]",diamond,green,hori,left,"[-106,-106]","[0,-150]",left,1,2.5318,,,,,,001,2025-03-10_18h20.02.138,SL_sali_41,2021.2.3,Win32,60.24096386,,,68,0,68,0,1,,,,,,,,
,,"[""circle"",""no_dis"",""vert"",""up"",[99999,99999],[106,-106]]",circle,no_dis,vert,up,"[99999,99999]","[106,-106]",up,1,2.2869,,,,,,001,2025-03-10_18h20.02.138,SL_sali_41,2021.2.3,Win32,60.24096386,,,69,0,69,0,1,,,,,,,,
,,"[""diamond"",""no_dis"",""hori"",""left"",[99999,99999],[-150,0]]",diamond,no_dis,hori,left,"[99999,99999]","[-150,0]",left,1,1.8746,,,,,,001,2025-03-10_18h20.02.138,SL_sali_41,2021.2.3,Win32,60.24096386,,,70,0,70,0,1,,,,,,,,
,,"[""diamond"",""no_dis"",""vert"",""up"",[99999,99999],[150,0]]",diamond,no_dis,vert,up,"[99999,99999]","[150,0]",up,1,1.4743,,,,,,001,2025-03-10_18h20.02.138,SL_sali_41,2021.2.3,Win32,60.24096386,,,71,0,71,0,1,,,,,,,,
,,"[""diamond"",""red"",""vert"",""up"",[106,-106],[106,106]]",diamond,red,vert,up,"[106,-106]","[106,106]",up,1,1.75,,,,,,001,2025-03-10_18h20.02.138,SL_sali_41,2021.2.3,Win32,60.24096386,,,72,0,72,0,1,,,,,,,,
,,"[""diamond"",""green"",""hori"",""left"",[-150,0],[-106,106]]",diamond,green,hori,left,"[-150,0]","[-106,106]",up,0,2.0202,,,,,,001,2025-03-10_18h20.02.138,SL_sali_41,2021.2.3,Win32,60.24096386,,,73,0,73,0,1,,,,,,,,
,,"[""diamond"",""red"",""vert"",""up"",[0,-150],[-150,0]]",diamond,red,vert,up,"[0,-150]","[-150,0]",up,1,1.4121,,,,,,001,2025-03-10_18h20.02.138,SL_sali_41,2021.2.3,Win32,60.24096386,,,74,0,74,0,1,,,,,,,,
,,"[""circle"",""green"",""vert"",""up"",[0,150],[0,-150]]",circle,green,vert,up,"[0,150]","[0,-150]",up,1,1.5126,,,,,,001,2025-03-10_18h20.02.138,SL_sali_41,2021.2.3,Win32,60.24096386,,,75,0,75,0,1,,,,,,,,
,,"[""circle"",""no_dis"",""vert"",""up"",[99999,99999],[106,-106]]",circle,no_dis,vert,up,"[99999,99999]","[106,-106]",up,1,1.6527,,,,,,001,2025-03-10_18h20.02.138,SL_sali_41,2021.2.3,Win32,60.24096386,,,76,0,76,0,1,,,,,,,,
,,"[""diamond"",""red"",""vert"",""up"",[150,0],[-150,0]]",diamond,red,vert,up,"[150,0]","[-150,0]",up,1,1.3624,,,,,,001,2025-03-10_18h20.02.138,SL_sali_41,2021.2.3,Win32,60.24096386,,,77,0,77,0,1,,,,,,,,
,,"[""circle"",""green"",""vert"",""up"",[150,0],[-106,-106]]",circle,green,vert,up,"[150,0]","[-106,-106]",up,1,1.3312,,,,,,001,2025-03-10_18h20.02.138,SL_sali_41,2021.2.3,Win32,60.24096386,,,78,0,78,0,1,,,,,,,,
,,"[""diamond"",""no_dis"",""vert"",""up"",[99999,99999],[0,-150]]",diamond,no_dis,vert,up,"[99999,99999]","[0,-150]",up,1,1.949,,,,,,001,2025-03-10_18h20.02.138,SL_sali_41,2021.2.3,Win32,60.24096386,,,79,0,79,0,1,,,,,,,,
,,"[""diamond"",""green"",""vert"",""up"",[106,-106],[150,0]]",diamond,green,vert,up,"[106,-106]","[150,0]",up,1,1.934,,,,,,001,2025-03-10_18h20.02.138,SL_sali_41,2021.2.3,Win32,60.24096386,,,80,0,80,0,1,,,,,,,,
,,"[""diamond"",""no_dis"",""vert"",""up"",[99999,99999],[-150,0]]",diamond,no_dis,vert,up,"[99999,99999]","[-150,0]",up,1,1.8429,,,,,,001,2025-03-10_18h20.02.138,SL_sali_41,2021.2.3,Win32,60.24096386,,,81,0,81,0,1,,,,,,,,
,,"[""diamond"",""red"",""vert"",""up"",[-106,-106],[106,106]]",diamond,red,vert,up,"[-106,-106]","[106,106]",up,1,1.8104,,,,,,001,2025-03-10_18h20.02.138,SL_sali_41,2021.2.3,Win32,60.24096386,,,82,0,82,0,1,,,,,,,,
,,"[""circle"",""no_dis"",""hori"",""left"",[99999,99999],[106,-106]]",circle,no_dis,hori,left,"[99999,99999]","[106,-106]",left,1,1.3288,,,,,,001,2025-03-10_18h20.02.138,SL_sali_41,2021.2.3,Win32,60.24096386,,,83,0,83,0,1,,,,,,,,
,,"[""diamond"",""red"",""hori"",""left"",[106,106],[-150,0]]",diamond,red,hori,left,"[106,106]","[-150,0]",up,0,1.6276,,,,,,001,2025-03-10_18h20.02.138,SL_sali_41,2021.2.3,Win32,60.24096386,,,84,0,84,0,1,,,,,,,,
,,"[""diamond"",""green"",""hori"",""left"",[-106,-106],[150,0]]",diamond,green,hori,left,"[-106,-106]","[150,0]",left,1,2.4756,,,,,,001,2025-03-10_18h20.02.138,SL_sali_41,2021.2.3,Win32,60.24096386,,,85,0,85,0,1,,,,,,,,
,,"[""circle"",""green"",""vert"",""up"",[150,0],[-106,-106]]",circle,green,vert,up,"[150,0]","[-106,-106]",up,1,1.8969,,,,,,001,2025-03-10_18h20.02.138,SL_sali_41,2021.2.3,Win32,60.24096386,,,86,0,86,0,1,,,,,,,,
,,"[""diamond"",""green"",""vert"",""up"",[-106,106],[-150,0]]",diamond,green,vert,up,"[-106,106]","[-150,0]",,0,,,,,,,001,2025-03-10_18h20.02.138,SL_sali_41,2021.2.3,Win32,60.24096386,,,87,0,87,0,1,,,,,,,,
,,"[""diamond"",""green"",""hori"",""left"",[150,0],[106,106]]",diamond,green,hori,left,"[150,0]","[106,106]",left,1,2.9477,,,,,,001,2025-03-10_18h20.02.138,SL_sali_41,2021.2.3,Win32,60.24096386,,,88,0,88,0,1,,,,,,,,
,,"[""circle"",""no_dis"",""hori"",""left"",[99999,99999],[0,150]]",circle,no_dis,hori,left,"[99999,99999]","[0,150]",left,1,2.617,,,,,,001,2025-03-10_18h20.02.138,SL_sali_41,2021.2.3,Win32,60.24096386,,,89,0,89,0,1,,,,,,,,
,,"[""circle"",""green"",""vert"",""up"",[-106,-106],[106,106]]",circle,green,vert,up,"[-106,-106]","[106,106]",up,1,2.0531,,,,,,001,2025-03-10_18h20.02.138,SL_sali_41,2021.2.3,Win32,60.24096386,,,90,0,90,0,1,,,,,,,,
,,"[""diamond"",""green"",""hori"",""left"",[0,150],[-106,106]]",diamond,green,hori,left,"[0,150]","[-106,106]",left,1,1.7671,,,,,,001,2025-03-10_18h20.02.138,SL_sali_41,2021.2.3,Win32,60.24096386,,,91,0,91,0,1,,,,,,,,
,,"[""circle"",""no_dis"",""hori"",""left"",[99999,99999],[0,150]]",circle,no_dis,hori,left,"[99999,99999]","[0,150]",left,1,2.2883,,,,,,001,2025-03-10_18h20.02.138,SL_sali_41,2021.2.3,Win32,60.24096386,,,92,0,92,0,1,,,,,,,,
,,"[""diamond"",""green"",""vert"",""up"",[0,-150],[-150,0]]",diamond,green,vert,up,"[0,-150]","[-150,0]",left,0,1.7499,,,,,,001,2025-03-10_18h20.02.138,SL_sali_41,2021.2.3,Win32,60.24096386,,,93,0,93,0,1,,,,,,,,
,,"[""diamond"",""no_dis"",""hori"",""left"",[99999,99999],[106,106]]",diamond,no_dis,hori,left,"[99999,99999]","[106,106]",left,1,1.2998,,,,,,001,2025-03-10_18h20.02.138,SL_sali_41,2021.2.3,Win32,60.24096386,,,94,0,94,0,1,,,,,,,,
,,"[""circle"",""no_dis"",""vert"",""up"",[99999,99999],[0,150]]",circle,no_dis,vert,up,"[99999,99999]","[0,150]",up,1,1.3021,,,,,,001,2025-03-10_18h20.02.138,SL_sali_41,2021.2.3,Win32,60.24096386,,,95,0,95,0,1,,,,,,,,
,,"[""diamond"",""green"",""hori"",""left"",[-106,-106],[-150,0]]",diamond,green,hori,left,"[-106,-106]","[-150,0]",left,1,1.8329,,,,,,001,2025-03-10_18h20.02.138,SL_sali_41,2021.2.3,Win32,60.24096386,,,96,0,96,0,1,,,,,,,,
,,"[""circle"",""green"",""hori"",""left"",[0,-150],[-106,-106]]",circle,green,hori,left,"[0,-150]","[-106,-106]",left,1,1.3392,,,,,,001,2025-03-10_18h20.02.138,SL_sali_41,2021.2.3,Win32,60.24096386,,,97,0,97,0,1,,,,,,,,
,,"[""circle"",""red"",""vert"",""up"",[106,-106],[-106,106]]",circle,red,vert,up,"[106,-106]","[-106,106]",up,1,1.6999,,,,,,001,2025-03-10_18h20.02.138,SL_sali_41,2021.2.3,Win32,60.24096386,,,98,0,98,0,1,,,,,,,,
,,"[""diamond"",""red"",""vert"",""up"",[-106,-106],[0,150]]",diamond,red,vert,up,"[-106,-106]","[0,150]",up,1,1.4328,,,,,,001,2025-03-10_18h20.02.138,SL_sali_41,2021.2.3,Win32,60.24096386,,,99,0,99,0,1,,,,,,,,
,,"[""diamond"",""no_dis"",""vert"",""up"",[99999,99999],[-106,106]]",diamond,no_dis,vert,up,"[99999,99999]","[-106,106]",up,1,1.0515,,,,,,001,2025-03-10_18h20.02.138,SL_sali_41,2021.2.3,Win32,60.24096386,,,100,0,100,0,1,,,,,,,,
,,"[""circle"",""red"",""vert"",""up"",[106,-106],[-106,106]]",circle,red,vert,up,"[106,-106]","[-106,106]",up,1,1.1034,,,,,,001,2025-03-10_18h20.02.138,SL_sali_41,2021.2.3,Win32,60.24096386,,,101,0,101,0,1,,,,,,,,
,,"[""circle"",""green"",""hori"",""left"",[106,-106],[106,106]]",circle,green,hori,left,"[106,-106]","[106,106]",left,1,1.8871,,,,,,001,2025-03-10_18h20.02.138,SL_sali_41,2021.2.3,Win32,60.24096386,,,102,0,102,0,1,,,,,,,,
,,"[""circle"",""red"",""hori"",""left"",[106,106],[106,-106]]",circle,red,hori,left,"[106,106]","[106,-106]",left,1,1.5416,,,,,,001,2025-03-10_18h20.02.138,SL_sali_41,2021.2.3,Win32,60.24096386,,,103,0,103,0,1,,,,,,,,
,,"[""diamond"",""red"",""hori"",""left"",[-106,-106],[150,0]]",diamond,red,hori,left,"[-106,-106]","[150,0]",left,1,1.5843,,,,,,001,2025-03-10_18h20.02.138,SL_sali_41,2021.2.3,Win32,60.24096386,,,104,0,104,0,1,,,,,,,,
,,"[""circle"",""green"",""hori"",""left"",[-106,106],[0,150]]",circle,green,hori,left,"[-106,106]","[0,150]",up,0,2.083,,,,,,001,2025-03-10_18h20.02.138,SL_sali_41,2021.2.3,Win32,60.24096386,,,105,0,105,0,1,,,,,,,,
,,"[""circle"",""no_dis"",""hori"",""left"",[99999,99999],[-150,0]]",circle,no_dis,hori,left,"[99999,99999]","[-150,0]",left,1,1.7395,,,,,,001,2025-03-10_18h20.02.138,SL_sali_41,2021.2.3,Win32,60.24096386,,,106,0,106,0,1,,,,,,,,
,,"[""circle"",""red"",""vert"",""up"",[106,106],[-150,0]]",circle,red,vert,up,"[106,106]","[-150,0]",up,1,1.5275,,,,,,001,2025-03-10_18h20.02.138,SL_sali_41,2021.2.3,Win32,60.24096386,,,107,0,107,0,1,,,,,,,,
,,"[""circle"",""no_dis"",""vert"",""up"",[99999,99999],[-106,-106]]",circle,no_dis,vert,up,"[99999,99999]","[-106,-106]",up,1,1.4002,,,,,,001,2025-03-10_18h20.02.138,SL_sali_41,2021.2.3,Win32,60.24096386,,,108,0,108,0,1,,,,,,,,
,,"[""circle"",""red"",""hori"",""left"",[150,0],[106,106]]",circle,red,hori,left,"[150,0]","[106,106]",left,1,2.2834,,,,,,001,2025-03-10_18h20.02.138,SL_sali_41,2021.2.3,Win32,60.24096386,,,109,0,109,0,1,,,,,,,,
,,"[""circle"",""red"",""hori"",""left"",[-150,0],[150,0]]",circle,red,hori,left,"[-150,0]","[150,0]",left,1,2.2836,,,,,,001,2025-03-10_18h20.02.138,SL_sali_41,2021.2.3,Win32,60.24096386,,,110,0,110,0,1,,,,,,,,
,,"[""circle"",""green"",""vert"",""up"",[-106,-106],[106,106]]",circle,green,vert,up,"[-106,-106]","[106,106]",up,1,1.6887,,,,,,001,2025-03-10_18h20.02.138,SL_sali_41,2021.2.3,Win32,60.24096386,,,111,0,111,0,1,,,,,,,,
,,"[""circle"",""green"",""vert"",""up"",[-106,-106],[-150,0]]",circle,green,vert,up,"[-106,-106]","[-150,0]",up,1,1.5996,,,,,,001,2025-03-10_18h20.02.138,SL_sali_41,2021.2.3,Win32,60.24096386,,,112,0,112,0,1,,,,,,,,
,,"[""circle"",""no_dis"",""hori"",""left"",[99999,99999],[-106,106]]",circle,no_dis,hori,left,"[99999,99999]","[-106,106]",left,1,1.0094,,,,,,001,2025-03-10_18h20.02.138,SL_sali_41,2021.2.3,Win32,60.24096386,,,113,0,113,0,1,,,,,,,,
,,"[""diamond"",""green"",""vert"",""up"",[-106,-106],[0,-150]]",diamond,green,vert,up,"[-106,-106]","[0,-150]",up,1,1.3344,,,,,,001,2025-03-10_18h20.02.138,SL_sali_41,2021.2.3,Win32,60.24096386,,,114,0,114,0,1,,,,,,,,
,,"[""circle"",""green"",""hori"",""left"",[0,150],[-106,-106]]",circle,green,hori,left,"[0,150]","[-106,-106]",left,1,0.9335,,,,,,001,2025-03-10_18h20.02.138,SL_sali_41,2021.2.3,Win32,60.24096386,,,115,0,115,0,1,,,,,,,,
,,"[""diamond"",""green"",""hori"",""left"",[-106,-106],[-106,106]]",diamond,green,hori,left,"[-106,-106]","[-106,106]",up,0,2.3373,,,,,,001,2025-03-10_18h20.02.138,SL_sali_41,2021.2.3,Win32,60.24096386,,,116,0,116,0,1,,,,,,,,
,,"[""circle"",""no_dis"",""vert"",""up"",[99999,99999],[106,106]]",circle,no_dis,vert,up,"[99999,99999]","[106,106]",up,1,1.3947,,,,,,001,2025-03-10_18h20.02.138,SL_sali_41,2021.2.3,Win32,60.24096386,,,117,0,117,0,1,,,,,,,,
,,"[""circle"",""green"",""hori"",""left"",[-106,-106],[0,150]]",circle,green,hori,left,"[-106,-106]","[0,150]",left,1,1.6527,,,,,,001,2025-03-10_18h20.02.138,SL_sali_41,2021.2.3,Win32,60.24096386,,,118,0,118,0,1,,,,,,,,
,,"[""circle"",""green"",""hori"",""left"",[0,150],[0,-150]]",circle,green,hori,left,"[0,150]","[0,-150]",left,1,1.9339,,,,,,001,2025-03-10_18h20.02.138,SL_sali_41,2021.2.3,Win32,60.24096386,,,119,0,119,0,1,,,,,,,,
,,"[""diamond"",""red"",""hori"",""left"",[-106,-106],[106,-106]]",diamond,red,hori,left,"[-106,-106]","[106,-106]",left,1,1.7978,,,,,,001,2025-03-10_18h20.02.138,SL_sali_41,2021.2.3,Win32,60.24096386,,,120,0,120,0,1,,,,,,,,
,,"[""diamond"",""green"",""vert"",""up"",[-106,106],[106,-106]]",diamond,green,vert,up,"[-106,106]","[106,-106]",up,1,1.6924,,,,,,001,2025-03-10_18h20.02.138,SL_sali_41,2021.2.3,Win32,60.24096386,,,121,0,121,0,1,,,,,,,,
,,"[""circle"",""red"",""vert"",""up"",[-150,0],[106,106]]",circle,red,vert,up,"[-150,0]","[106,106]",up,1,1.4634,,,,,,001,2025-03-10_18h20.02.138,SL_sali_41,2021.2.3,Win32,60.24096386,,,122,0,122,0,1,,,,,,,,
,,"[""circle"",""no_dis"",""hori"",""left"",[99999,99999],[0,-150]]",circle,no_dis,hori,left,"[99999,99999]","[0,-150]",left,1,1.3998,,,,,,001,2025-03-10_18h20.02.138,SL_sali_41,2021.2.3,Win32,60.24096386,,,123,0,123,0,1,,,,,,,,
,,"[""circle"",""green"",""hori"",""left"",[-106,-106],[0,-150]]",circle,green,hori,left,"[-106,-106]","[0,-150]",left,1,1.4837,,,,,,001,2025-03-10_18h20.02.138,SL_sali_41,2021.2.3,Win32,60.24096386,,,124,0,124,0,1,,,,,,,,
,,"[""diamond"",""no_dis"",""hori"",""left"",[99999,99999],[0,150]]",diamond,no_dis,hori,left,"[99999,99999]","[0,150]",left,1,1.6862,,,,,,001,2025-03-10_18h20.02.138,SL_sali_41,2021.2.3,Win32,60.24096386,,,125,0,125,0,1,,,,,,,,
,,"[""diamond"",""no_dis"",""vert"",""up"",[99999,99999],[-150,0]]",diamond,no_dis,vert,up,"[99999,99999]","[-150,0]",up,1,1.7273,,,,,,001,2025-03-10_18h20.02.138,SL_sali_41,2021.2.3,Win32,60.24096386,,,126,0,126,0,1,,,,,,,,
,,"[""circle"",""red"",""vert"",""up"",[-106,-106],[-150,0]]",circle,red,vert,up,"[-106,-106]","[-150,0]",up,1,1.954,,,,,,001,2025-03-10_18h20.02.138,SL_sali_41,2021.2.3,Win32,60.24096386,,,127,0,127,0,1,,,,,,,,
,,,,,,,,,,,,,,,,,001,2025-03-10_18h20.02.138,SL_sali_41,2021.2.3,Win32,60.24096386,,,,,,,,1,space,71.2483,0,0,0,0,1
,,"[""diamond"",""no_dis"",""vert"",""up"",[99999,99999],[-150,0]]",diamond,no_dis,vert,up,"[99999,99999]","[-150,0]",up,1,2.3356,,,,,,001,2025-03-10_18h20.02.138,SL_sali_41,2021.2.3,Win32,60.24096386,,,0,0,0,0,1,,,,,,,,
,,"[""diamond"",""no_dis"",""vert"",""up"",[99999,99999],[-106,-106]]",diamond,no_dis,vert,up,"[99999,99999]","[-106,-106]",up,1,1.4157,,,,,,001,2025-03-10_18h20.02.138,SL_sali_41,2021.2.3,Win32,60.24096386,,,1,0,1,0,1,,,,,,,,
,,"[""circle"",""red"",""vert"",""up"",[-150,0],[106,106]]",circle,red,vert,up,"[-150,0]","[106,106]",up,1,1.2539,,,,,,001,2025-03-10_18h20.02.138,SL_sali_41,2021.2.3,Win32,60.24096386,,,2,0,2,0,1,,,,,,,,
,,"[""circle"",""red"",""hori"",""left"",[-106,106],[-150,0]]",circle,red,hori,left,"[-106,106]","[-150,0]",left,1,1.7456,,,,,,001,2025-03-10_18h20.02.138,SL_sali_41,2021.2.3,Win32,60.24096386,,,3,0,3,0,1,,,,,,,,
,,"[""diamond"",""no_dis"",""vert"",""up"",[99999,99999],[106,-106]]",diamond,no_dis,vert,up,"[99999,99999]","[106,-106]",up,1,1.4303,,,,,,001,2025-03-10_18h20.02.138,SL_sali_41,2021.2.3,Win32,60.24096386,,,4,0,4,0,1,,,,,,,,
,,"[""diamond"",""red"",""vert"",""up"",[150,0],[-106,106]]",diamond,red,vert,up,"[150,0]","[-106,106]",up,1,1.3673,,,,,,001,2025-03-10_18h20.02.138,SL_sali_41,2021.2.3,Win32,60.24096386,,,5,0,5,0,1,,,,,,,,
,,"[""circle"",""green"",""vert"",""up"",[150,0],[-106,-106]]",circle,green,vert,up,"[150,0]","[-106,-106]",up,1,1.4464,,,,,,001,2025-03-10_18h20.02.138,SL_sali_41,2021.2.3,Win32,60.24096386,,,6,0,6,0,1,,,,,,,,
,,"[""circle"",""no_dis"",""hori"",""left"",[99999,99999],[0,150]]",circle,no_dis,hori,left,"[99999,99999]","[0,150]",left,1,1.6466,,,,,,001,2025-03-10_18h20.02.138,SL_sali_41,2021.2.3,Win32,60.24096386,,,7,0,7,0,1,,,,,,,,
,,"[""circle"",""no_dis"",""vert"",""up"",[99999,99999],[106,-106]]",circle,no_dis,vert,up,"[99999,99999]","[106,-106]",up,1,1.0965,,,,,,001,2025-03-10_18h20.02.138,SL_sali_41,2021.2.3,Win32,60.24096386,,,8,0,8,0,1,,,,,,,,
,,"[""circle"",""green"",""hori"",""left"",[-106,-106],[0,150]]",circle,green,hori,left,"[-106,-106]","[0,150]",left,1,1.603,,,,,,001,2025-03-10_18h20.02.138,SL_sali_41,2021.2.3,Win32,60.24096386,,,9,0,9,0,1,,,,,,,,
,,"[""circle"",""red"",""hori"",""left"",[-106,-106],[150,0]]",circle,red,hori,left,"[-106,-106]","[150,0]",left,1,1.2196,,,,,,001,2025-03-10_18h20.02.138,SL_sali_41,2021.2.3,Win32,60.24096386,,,10,0,10,0,1,,,,,,,,
,,"[""diamond"",""red"",""hori"",""left"",[-106,-106],[106,-106]]",diamond,red,hori,left,"[-106,-106]","[106,-106]",left,1,2.1261,,,,,,001,2025-03-10_18h20.02.138,SL_sali_41,2021.2.3,Win32,60.24096386,,,11,0,11,0,1,,,,,,,,
,,"[""diamond"",""no_dis"",""vert"",""up"",[99999,99999],[-150,0]]",diamond,no_dis,vert,up,"[99999,99999]","[-150,0]",up,1,1.194,,,,,,001,2025-03-10_18h20.02.138,SL_sali_41,2021.2.3,Win32,60.24096386,,,12,0,12,0,1,,,,,,,,
,,"[""diamond"",""green"",""hori"",""left"",[-106,-106],[-106,106]]",diamond,green,hori,left,"[-106,-106]","[-106,106]",up,0,2.2949,,,,,,001,2025-03-10_18h20.02.138,SL_sali_41,2021.2.3,Win32,60.24096386,,,13,0,13,0,1,,,,,,,,
,,"[""circle"",""no_dis"",""vert"",""up"",[99999,99999],[0,150]]",circle,no_dis,vert,up,"[99999,99999]","[0,150]",up,1,1.5482,,,,,,001,2025-03-10_18h20.02.138,SL_sali_41,2021.2.3,Win32,60.24096386,,,14,0,14,0,1,,,,,,,,
,,"[""circle"",""no_dis"",""hori"",""left"",[99999,99999],[150,0]]",circle,no_dis,hori,left,"[99999,99999]","[150,0]",left,1,1.0278,,,,,,001,2025-03-10_18h20.02.138,SL_sali_41,2021.2.3,Win32,60.24096386,,,15,0,15,0,1,,,,,,,,
,,"[""diamond"",""red"",""hori"",""left"",[-106,-106],[0,150]]",diamond,red,hori,left,"[-106,-106]","[0,150]",up,0,2.3941,,,,,,001,2025-03-10_18h20.02.138,SL_sali_41,2021.2.3,Win32,60.24096386,,,16,0,16,0,1,,,,,,,,
,,"[""diamond"",""red"",""hori"",""left"",[0,150],[-106,106]]",diamond,red,hori,left,"[0,150]","[-106,106]",left,1,2.1267,,,,,,001,2025-03-10_18h20.02.138,SL_sali_41,2021.2.3,Win32,60.24096386,,,17,0,17,0,1,,,,,,,,
,,"[""diamond"",""green"",""vert"",""up"",[106,-106],[150,0]]",diamond,green,vert,up,"[106,-106]","[150,0]",up,1,1.2623,,,,,,001,2025-03-10_18h20.02.138,SL_sali_41,2021.2.3,Win32,60.24096386,,,18,0,18,0,1,,,,,,,,
,,"[""circle"",""no_dis"",""vert"",""up"",[99999,99999],[0,-150]]",circle,no_dis,vert,up,"[99999,99999]","[0,-150]",up,1,1.0627,,,,,,001,2025-03-10_18h20.02.138,SL_sali_41,2021.2.3,Win32,60.24096386,,,19,0,19,0,1,,,,,,,,
,,"[""circle"",""green"",""vert"",""up"",[150,0],[-106,-106]]",circle,green,vert,up,"[150,0]","[-106,-106]",up,1,1.1975,,,,,,001,2025-03-10_18h20.02.138,SL_sali_41,2021.2.3,Win32,60.24096386,,,20,0,20,0,1,,,,,,,,
,,"[""diamond"",""no_dis"",""hori"",""left"",[99999,99999],[-106,-106]]",diamond,no_dis,hori,left,"[99999,99999]","[-106,-106]",left,1,1.6261,,,,,,001,2025-03-10_18h20.02.138,SL_sali_41,2021.2.3,Win32,60.24096386,,,21,0,21,0,1,,,,,,,,
,,"[""diamond"",""green"",""vert"",""up"",[0,-150],[106,106]]",diamond,green,vert,up,"[0,-150]","[106,106]",up,1,1.267,,,,,,001,2025-03-10_18h20.02.138,SL_sali_41,2021.2.3,Win32,60.24096386,,,22,0,22,0,1,,,,,,,,
,,"[""diamond"",""no_dis"",""hori"",""left"",[99999,99999],[150,0]]",diamond,no_dis,hori,left,"[99999,99999]","[150,0]",left,1,1.3329,,,,,,001,2025-03-10_18h20.02.138,SL_sali_41,2021.2.3,Win32,60.24096386,,,23,0,23,0,1,,,,,,,,
,,"[""diamond"",""red"",""vert"",""up"",[-106,-106],[-106,106]]",diamond,red,vert,up,"[-106,-106]","[-106,106]",up,1,1.7297,,,,,,001,2025-03-10_18h20.02.138,SL_sali_41,2021.2.3,Win32,60.24096386,,,24,0,24,0,1,,,,,,,,
,,"[""circle"",""green"",""hori"",""left"",[0,150],[0,-150]]",circle,green,hori,left,"[0,150]","[0,-150]",up,0,2.3339,,,,,,001,2025-03-10_18h20.02.138,SL_sali_41,2021.2.3,Win32,60.24096386,,,25,0,25,0,1,,,,,,,,
,,"[""circle"",""green"",""hori"",""left"",[106,106],[106,-106]]",circle,green,hori,left,"[106,106]","[106,-106]",left,1,1.2671,,,,,,001,2025-03-10_18h20.02.138,SL_sali_41,2021.2.3,Win32,60.24096386,,,26,0,26,0,1,,,,,,,,
,,"[""diamond"",""red"",""vert"",""up"",[0,-150],[-150,0]]",diamond,red,vert,up,"[0,-150]","[-150,0]",up,1,1.7823,,,,,,001,2025-03-10_18h20.02.138,SL_sali_41,2021.2.3,Win32,60.24096386,,,27,0,27,0,1,,,,,,,,
,,"[""circle"",""red"",""vert"",""up"",[-106,-106],[106,-106]]",circle,red,vert,up,"[-106,-106]","[106,-106]",up,1,1.7975,,,,,,001,2025-03-10_18h20.02.138,SL_sali_41,2021.2.3,Win32,60.24096386,,,28,0,28,0,1,,,,,,,,
,,"[""circle"",""green"",""vert"",""up"",[0,150],[-106,106]]",circle,green,vert,up,"[0,150]","[-106,106]",up,1,1.1145,,,,,,001,2025-03-10_18h20.02.138,SL_sali_41,2021.2.3,Win32,60.24096386,,,29,0,29,0,1,,,,,,,,
,,"[""circle"",""green"",""hori"",""left"",[0,150],[-106,-106]]",circle,green,hori,left,"[0,150]","[-106,-106]",left,1,0.9204,,,,,,001,2025-03-10_18h20.02.138,SL_sali_41,2021.2.3,Win32,60.24096386,,,30,0,30,0,1,,,,,,,,
,,"[""diamond"",""no_dis"",""hori"",""left"",[99999,99999],[-106,-106]]",diamond,no_dis,hori,left,"[99999,99999]","[-106,-106]",up,0,1.4456,,,,,,001,2025-03-10_18h20.02.138,SL_sali_41,2021.2.3,Win32,60.24096386,,,31,0,31,0,1,,,,,,,,
,,"[""circle"",""red"",""hori"",""left"",[150,0],[106,106]]",circle,red,hori,left,"[150,0]","[106,106]",left,1,1.7566,,,,,,001,2025-03-10_18h20.02.138,SL_sali_41,2021.2.3,Win32,60.24096386,,,32,0,32,0,1,,,,,,,,
,,"[""diamond"",""no_dis"",""vert"",""up"",[99999,99999],[0,-150]]",diamond,no_dis,vert,up,"[99999,99999]","[0,-150]",up,1,1.545,,,,,,001,2025-03-10_18h20.02.138,SL_sali_41,2021.2.3,Win32,60.24096386,,,33,0,33,0,1,,,,,,,,
,,"[""diamond"",""red"",""vert"",""up"",[0,-150],[-106,-106]]",diamond,red,vert,up,"[0,-150]","[-106,-106]",up,1,1.1679,,,,,,001,2025-03-10_18h20.02.138,SL_sali_41,2021.2.3,Win32,60.24096386,,,34,0,34,0,1,,,,,,,,
,,"[""circle"",""green"",""vert"",""up"",[-106,-106],[106,106]]",circle,green,vert,up,"[-106,-106]","[106,106]",left,0,1.9288,,,,,,001,2025-03-10_18h20.02.138,SL_sali_41,2021.2.3,Win32,60.24096386,,,35,0,35,0,1,,,,,,,,
,,"[""diamond"",""no_dis"",""hori"",""left"",[99999,99999],[0,150]]",diamond,no_dis,hori,left,"[99999,99999]","[0,150]",left,1,1.6098,,,,,,001,2025-03-10_18h20.02.138,SL_sali_41,2021.2.3,Win32,60.24096386,,,36,0,36,0,1,,,,,,,,
,,"[""circle"",""red"",""hori"",""left"",[-150,0],[150,0]]",circle,red,hori,left,"[-150,0]","[150,0]",left,1,1.6195,,,,,,001,2025-03-10_18h20.02.138,SL_sali_41,2021.2.3,Win32,60.24096386,,,37,0,37,0,1,,,,,,,,
,,"[""circle"",""red"",""hori"",""left"",[-106,-106],[150,0]]",circle,red,hori,left,"[-106,-106]","[150,0]",left,1,0.9817,,,,,,001,2025-03-10_18h20.02.138,SL_sali_41,2021.2.3,Win32,60.24096386,,,38,0,38,0,1,,,,,,,,
,,"[""circle"",""no_dis"",""vert"",""up"",[99999,99999],[106,106]]",circle,no_dis,vert,up,"[99999,99999]","[106,106]",up,1,2.2801,,,,,,001,2025-03-10_18h20.02.138,SL_sali_41,2021.2.3,Win32,60.24096386,,,39,0,39,0,1,,,,,,,,
,,"[""circle"",""green"",""vert"",""up"",[-150,0],[150,0]]",circle,green,vert,up,"[-150,0]","[150,0]",up,1,1.152,,,,,,001,2025-03-10_18h20.02.138,SL_sali_41,2021.2.3,Win32,60.24096386,,,40,0,40,0,1,,,,,,,,
,,"[""diamond"",""no_dis"",""vert"",""up"",[99999,99999],[150,0]]",diamond,no_dis,vert,up,"[99999,99999]","[150,0]",up,1,1.4835,,,,,,001,2025-03-10_18h20.02.138,SL_sali_41,2021.2.3,Win32,60.24096386,,,41,0,41,0,1,,,,,,,,
,,"[""circle"",""green"",""vert"",""up"",[-150,0],[-106,106]]",circle,green,vert,up,"[-150,0]","[-106,106]",up,1,1.2008,,,,,,001,2025-03-10_18h20.02.138,SL_sali_41,2021.2.3,Win32,60.24096386,,,42,0,42,0,1,,,,,,,,
,,"[""circle"",""green"",""hori"",""left"",[150,0],[0,-150]]",circle,green,hori,left,"[150,0]","[0,-150]",left,1,2.2503,,,,,,001,2025-03-10_18h20.02.138,SL_sali_41,2021.2.3,Win32,60.24096386,,,43,0,43,0,1,,,,,,,,
,,"[""circle"",""no_dis"",""hori"",""left"",[99999,99999],[0,-150]]",circle,no_dis,hori,left,"[99999,99999]","[0,-150]",left,1,1.1555,,,,,,001,2025-03-10_18h20.02.138,SL_sali_41,2021.2.3,Win32,60.24096386,,,44,0,44,0,1,,,,,,,,
,,"[""diamond"",""no_dis"",""vert"",""up"",[99999,99999],[-150,0]]",diamond,no_dis,vert,up,"[99999,99999]","[-150,0]",up,1,1.8038,,,,,,001,2025-03-10_18h20.02.138,SL_sali_41,2021.2.3,Win32,60.24096386,,,45,0,45,0,1,,,,,,,,
,,"[""diamond"",""red"",""vert"",""up"",[0,-150],[106,-106]]",diamond,red,vert,up,"[0,-150]","[106,-106]",up,1,1.1993,,,,,,001,2025-03-10_18h20.02.138,SL_sali_41,2021.2.3,Win32,60.24096386,,,46,0,46,0,1,,,,,,,,
,,"[""circle"",""red"",""vert"",""up"",[-106,-106],[150,0]]",circle,red,vert,up,"[-106,-106]","[150,0]",up,1,1.1013,,,,,,001,2025-03-10_18h20.02.138,SL_sali_41,2021.2.3,Win32,60.24096386,,,47,0,47,0,1,,,,,,,,
,,"[""diamond"",""green"",""vert"",""up"",[106,-106],[150,0]]",diamond,green,vert,up,"[106,-106]","[150,0]",up,1,1.1331,,,,,,001,2025-03-10_18h20.02.138,SL_sali_41,2021.2.3,Win32,60.24096386,,,48,0,48,0,1,,,,,,,,
,,"[""diamond"",""green"",""hori"",""left"",[150,0],[106,-106]]",diamond,green,hori,left,"[150,0]","[106,-106]",up,0,1.7827,,,,,,001,2025-03-10_18h20.02.138,SL_sali_41,2021.2.3,Win32,60.24096386,,,49,0,49,0,1,,,,,,,,
,,"[""circle"",""red"",""vert"",""up"",[106,106],[-150,0]]",circle,red,vert,up,"[106,106]","[-150,0]",up,1,2.0159,,,,,,001,2025-03-10_18h20.02.138,SL_sali_41,2021.2.3,Win32,60.24096386,,,50,0,50,0,1,,,,,,,,
,,"[""circle"",""no_dis"",""vert"",""up"",[99999,99999],[150,0]]",circle,no_dis,vert,up,"[99999,99999]","[150,0]",up,1,1.0331,,,,,,001,2025-03-10_18h20.02.138,SL_sali_41,2021.2.3,Win32,60.24096386,,,51,0,51,0,1,,,,,,,,
,,"[""circle"",""red"",""hori"",""left"",[106,106],[0,-150]]",circle,red,hori,left,"[106,106]","[0,-150]",left,1,1.0498,,,,,,001,2025-03-10_18h20.02.138,SL_sali_41,2021.2.3,Win32,60.24096386,,,52,0,52,0,1,,,,,,,,
,,"[""diamond"",""red"",""vert"",""up"",[-106,-106],[150,0]]",diamond,red,vert,up,"[-106,-106]","[150,0]",up,1,1.4168,,,,,,001,2025-03-10_18h20.02.138,SL_sali_41,2021.2.3,Win32,60.24096386,,,53,0,53,0,1,,,,,,,,
,,"[""circle"",""green"",""hori"",""left"",[0,-150],[-106,-106]]",circle,green,hori,left,"[0,-150]","[-106,-106]",left,1,1.8168,,,,,,001,2025-03-10_18h20.02.138,SL_sali_41,2021.2.3,Win32,60.24096386,,,54,0,54,0,1,,,,,,,,
,,"[""circle"",""green"",""hori"",""left"",[106,-106],[106,106]]",circle,green,hori,left,"[106,-106]","[106,106]",left,1,1.518,,,,,,001,2025-03-10_18h20.02.138,SL_sali_41,2021.2.3,Win32,60.24096386,,,55,0,55,0,1,,,,,,,,
,,"[""circle"",""red"",""hori"",""left"",[-106,-106],[0,150]]",circle,red,hori,left,"[-106,-106]","[0,150]",left,1,1.7739,,,,,,001,2025-03-10_18h20.02.138,SL_sali_41,2021.2.3,Win32,60.24096386,,,56,0,56,0,1,,,,,,,,
,,"[""circle"",""no_dis"",""hori"",""left"",[99999,99999],[-150,0]]",circle,no_dis,hori,left,"[99999,99999]","[-150,0]",left,1,1.0014,,,,,,001,2025-03-10_18h20.02.138,SL_sali_41,2021.2.3,Win32,60.24096386,,,57,0,57,0,1,,,,,,,,
,,"[""diamond"",""green"",""vert"",""up"",[106,106],[106,-106]]",diamond,green,vert,up,"[106,106]","[106,-106]",left,0,2.1334,,,,,,001,2025-03-10_18h20.02.138,SL_sali_41,2021.2.3,Win32,60.24096386,,,58,0,58,0,1,,,,,,,,
,,"[""circle"",""green"",""hori"",""left"",[-106,106],[0,150]]",circle,green,hori,left,"[-106,106]","[0,150]",left,1,1.6405,,,,,,001,2025-03-10_18h20.02.138,SL_sali_41,2021.2.3,Win32,60.24096386,,,59,0,59,0,1,,,,,,,,
,,"[""circle"",""no_dis"",""hori"",""left"",[99999,99999],[-106,106]]",circle,no_dis,hori,left,"[99999,99999]","[-106,106]",left,1,1.1532,,,,,,001,2025-03-10_18h20.02.138,SL_sali_41,2021.2.3,Win32,60.24096386,,,60,0,60,0,1,,,,,,,,
,,"[""diamond"",""red"",""vert"",""up"",[-106,-106],[0,150]]",diamond,red,vert,up,"[-106,-106]","[0,150]",up,1,1.4668,,,,,,001,2025-03-10_18h20.02.138,SL_sali_41,2021.2.3,Win32,60.24096386,,,61,0,61,0,1,,,,,,,,
,,"[""diamond"",""no_dis"",""hori"",""left"",[99999,99999],[106,-106]]",diamond,no_dis,hori,left,"[99999,99999]","[106,-106]",left,1,1.4314,,,,,,001,2025-03-10_18h20.02.138,SL_sali_41,2021.2.3,Win32,60.24096386,,,62,0,62,0,1,,,,,,,,
,,"[""diamond"",""no_dis"",""hori"",""left"",[99999,99999],[150,0]]",diamond,no_dis,hori,left,"[99999,99999]","[150,0]",left,1,1.1005,,,,,,001,2025-03-10_18h20.02.138,SL_sali_41,2021.2.3,Win32,60.24096386,,,63,0,63,0,1,,,,,,,,
,,"[""diamond"",""green"",""vert"",""up"",[0,-150],[-150,0]]",diamond,green,vert,up,"[0,-150]","[-150,0]",left,0,2.1215,,,,,,001,2025-03-10_18h20.02.138,SL_sali_41,2021.2.3,Win32,60.24096386,,,64,0,64,0,1,,,,,,,,
,,"[""circle"",""green"",""hori"",""left"",[106,106],[-106,-106]]",circle,green,hori,left,"[106,106]","[-106,-106]",left,1,1.5005,,,,,,001,2025-03-10_18h20.02.138,SL_sali_41,2021.2.3,Win32,60.24096386,,,65,0,65,0,1,,,,,,,,
,,"[""diamond"",""no_dis"",""vert"",""up"",[99999,99999],[0,-150]]",diamond,no_dis,vert,up,"[99999,99999]","[0,-150]",up,1,1.7074,,,,,,001,2025-03-10_18h20.02.138,SL_sali_41,2021.2.3,Win32,60.24096386,,,66,0,66,0,1,,,,,,,,
,,"[""diamond"",""green"",""hori"",""left"",[150,0],[106,106]]",diamond,green,hori,left,"[150,0]","[106,106]",left,1,1.8777,,,,,,001,2025-03-10_18h20.02.138,SL_sali_41,2021.2.3,Win32,60.24096386,,,67,0,67,0,1,,,,,,,,
,,"[""circle"",""red"",""vert"",""up"",[-106,106],[-106,-106]]",circle,red,vert,up,"[-106,106]","[-106,-106]",up,1,2.284,,,,,,001,2025-03-10_18h20.02.138,SL_sali_41,2021.2.3,Win32,60.24096386,,,68,0,68,0,1,,,,,,,,
,,"[""circle"",""red"",""hori"",""left"",[106,106],[106,-106]]",circle,red,hori,left,"[106,106]","[106,-106]",left,1,1.2709,,,,,,001,2025-03-10_18h20.02.138,SL_sali_41,2021.2.3,Win32,60.24096386,,,69,0,69,0,1,,,,,,,,
,,"[""diamond"",""no_dis"",""hori"",""left"",[99999,99999],[106,106]]",diamond,no_dis,hori,left,"[99999,99999]","[106,106]",left,1,1.4307,,,,,,001,2025-03-10_18h20.02.138,SL_sali_41,2021.2.3,Win32,60.24096386,,,70,0,70,0,1,,,,,,,,
,,"[""diamond"",""red"",""hori"",""left"",[-106,106],[0,-150]]",diamond,red,hori,left,"[-106,106]","[0,-150]",left,1,2.094,,,,,,001,2025-03-10_18h20.02.138,SL_sali_41,2021.2.3,Win32,60.24096386,,,71,0,71,0,1,,,,,,,,
,,"[""diamond"",""red"",""hori"",""left"",[-106,-106],[106,-106]]",diamond,red,hori,left,"[-106,-106]","[106,-106]",left,1,1.6772,,,,,,001,2025-03-10_18h20.02.138,SL_sali_41,2021.2.3,Win32,60.24096386,,,72,0,72,0,1,,,,,,,,
,,"[""circle"",""no_dis"",""vert"",""up"",[99999,99999],[-106,-106]]",circle,no_dis,vert,up,"[99999,99999]","[-106,-106]",up,1,2.0868,,,,,,001,2025-03-10_18h20.02.138,SL_sali_41,2021.2.3,Win32,60.24096386,,,73,0,73,0,1,,,,,,,,
,,"[""circle"",""no_dis"",""hori"",""left"",[99999,99999],[0,150]]",circle,no_dis,hori,left,"[99999,99999]","[0,150]",left,1,1.431,,,,,,001,2025-03-10_18h20.02.138,SL_sali_41,2021.2.3,Win32,60.24096386,,,74,0,74,0,1,,,,,,,,
,,"[""diamond"",""green"",""vert"",""up"",[-106,106],[106,-106]]",diamond,green,vert,up,"[-106,106]","[106,-106]",up,1,2.2958,,,,,,001,2025-03-10_18h20.02.138,SL_sali_41,2021.2.3,Win32,60.24096386,,,75,0,75,0,1,,,,,,,,
,,"[""circle"",""no_dis"",""vert"",""up"",[99999,99999],[0,-150]]",circle,no_dis,vert,up,"[99999,99999]","[0,-150]",up,1,1.7946,,,,,,001,2025-03-10_18h20.02.138,SL_sali_41,2021.2.3,Win32,60.24096386,,,76,0,76,0,1,,,,,,,,
,,"[""circle"",""red"",""vert"",""up"",[-106,-106],[-150,0]]",circle,red,vert,up,"[-106,-106]","[-150,0]",up,1,0.9475,,,,,,001,2025-03-10_18h20.02.138,SL_sali_41,2021.2.3,Win32,60.24096386,,,77,0,77,0,1,,,,,,,,
,,"[""diamond"",""green"",""hori"",""left"",[-106,-106],[-106,106]]",diamond,green,hori,left,"[-106,-106]","[-106,106]",left,1,1.7214,,,,,,001,2025-03-10_18h20.02.138,SL_sali_41,2021.2.3,Win32,60.24096386,,,78,0,78,0,1,,,,,,,,
,,"[""circle"",""green"",""vert"",""up"",[-106,-106],[106,-106]]",circle,green,vert,up,"[-106,-106]","[106,-106]",up,1,1.1845,,,,,,001,2025-03-10_18h20.02.138,SL_sali_41,2021.2.3,Win32,60.24096386,,,79,0,79,0,1,,,,,,,,
,,"[""diamond"",""red"",""hori"",""left"",[106,106],[-150,0]]",diamond,red,hori,left,"[106,106]","[-150,0]",left,1,1.8676,,,,,,001,2025-03-10_18h20.02.138,SL_sali_41,2021.2.3,Win32,60.24096386,,,80,0,80,0,1,,,,,,,,
,,"[""diamond"",""red"",""vert"",""up"",[150,0],[-150,0]]",diamond,red,vert,up,"[150,0]","[-150,0]",up,1,1.0159,,,,,,001,2025-03-10_18h20.02.138,SL_sali_41,2021.2.3,Win32,60.24096386,,,81,0,81,0,1,,,,,,,,
,,"[""circle"",""green"",""vert"",""up"",[0,150],[0,-150]]",circle,green,vert,up,"[0,150]","[0,-150]",up,1,1.6494,,,,,,001,2025-03-10_18h20.02.138,SL_sali_41,2021.2.3,Win32,60.24096386,,,82,0,82,0,1,,,,,,,,
,,"[""diamond"",""red"",""hori"",""left"",[-106,-106],[-106,106]]",diamond,red,hori,left,"[-106,-106]","[-106,106]",left,1,1.9259,,,,,,001,2025-03-10_18h20.02.138,SL_sali_41,2021.2.3,Win32,60.24096386,,,83,0,83,0,1,,,,,,,,
,,"[""circle"",""red"",""vert"",""up"",[-106,-106],[150,0]]",circle,red,vert,up,"[-106,-106]","[150,0]",up,1,1.1699,,,,,,001,2025-03-10_18h20.02.138,SL_sali_41,2021.2.3,Win32,60.24096386,,,84,0,84,0,1,,,,,,,,
,,"[""circle"",""green"",""vert"",""up"",[-106,-106],[-150,0]]",circle,green,vert,up,"[-106,-106]","[-150,0]",up,1,1.9121,,,,,,001,2025-03-10_18h20.02.138,SL_sali_41,2021.2.3,Win32,60.24096386,,,85,0,85,0,1,,,,,,,,
,,"[""circle"",""red"",""hori"",""left"",[0,150],[106,-106]]",circle,red,hori,left,"[0,150]","[106,-106]",left,1,1.4637,,,,,,001,2025-03-10_18h20.02.138,SL_sali_41,2021.2.3,Win32,60.24096386,,,86,0,86,0,1,,,,,,,,
,,"[""circle"",""no_dis"",""hori"",""left"",[99999,99999],[-106,-106]]",circle,no_dis,hori,left,"[99999,99999]","[-106,-106]",left,1,1.8614,,,,,,001,2025-03-10_18h20.02.138,SL_sali_41,2021.2.3,Win32,60.24096386,,,87,0,87,0,1,,,,,,,,
,,"[""diamond"",""red"",""hori"",""left"",[0,-150],[150,0]]",diamond,red,hori,left,"[0,-150]","[150,0]",left,1,2.2952,,,,,,001,2025-03-10_18h20.02.138,SL_sali_41,2021.2.3,Win32,60.24096386,,,88,0,88,0,1,,,,,,,,
,,"[""diamond"",""red"",""vert"",""up"",[106,-106],[106,106]]",diamond,red,vert,up,"[106,-106]","[106,106]",up,1,1.7922,,,,,,001,2025-03-10_18h20.02.138,SL_sali_41,2021.2.3,Win32,60.24096386,,,89,0,89,0,1,,,,,,,,
,,"[""diamond"",""no_dis"",""hori"",""left"",[99999,99999],[106,106]]",diamond,no_dis,hori,left,"[99999,99999]","[106,106]",left,1,1.9994,,,,,,001,2025-03-10_18h20.02.138,SL_sali_41,2021.2.3,Win32,60.24096386,,,90,0,90,0,1,,,,,,,,
,,"[""circle"",""red"",""vert"",""up"",[106,-106],[-106,106]]",circle,red,vert,up,"[106,-106]","[-106,106]",up,1,1.1609,,,,,,001,2025-03-10_18h20.02.138,SL_sali_41,2021.2.3,Win32,60.24096386,,,91,0,91,0,1,,,,,,,,
,,"[""circle"",""red"",""hori"",""left"",[0,150],[150,0]]",circle,red,hori,left,"[0,150]","[150,0]",left,1,1.4141,,,,,,001,2025-03-10_18h20.02.138,SL_sali_41,2021.2.3,Win32,60.24096386,,,92,0,92,0,1,,,,,,,,
,,"[""diamond"",""no_dis"",""vert"",""up"",[99999,99999],[-106,106]]",diamond,no_dis,vert,up,"[99999,99999]","[-106,106]",up,1,1.245,,,,,,001,2025-03-10_18h20.02.138,SL_sali_41,2021.2.3,Win32,60.24096386,,,93,0,93,0,1,,,,,,,,
,,"[""diamond"",""green"",""hori"",""left"",[-106,-106],[0,-150]]",diamond,green,hori,left,"[-106,-106]","[0,-150]",left,1,2.1345,,,,,,001,2025-03-10_18h20.02.138,SL_sali_41,2021.2.3,Win32,60.24096386,,,94,0,94,0,1,,,,,,,,
,,"[""diamond"",""red"",""hori"",""left"",[-106,-106],[150,0]]",diamond,red,hori,left,"[-106,-106]","[150,0]",left,1,1.2997,,,,,,001,2025-03-10_18h20.02.138,SL_sali_41,2021.2.3,Win32,60.24096386,,,95,0,95,0,1,,,,,,,,
,,"[""diamond"",""green"",""vert"",""up"",[-150,0],[106,106]]",diamond,green,vert,up,"[-150,0]","[106,106]",up,1,1.5607,,,,,,001,2025-03-10_18h20.02.138,SL_sali_41,2021.2.3,Win32,60.24096386,,,96,0,96,0,1,,,,,,,,
,,"[""circle"",""no_dis"",""vert"",""up"",[99999,99999],[106,-106]]",circle,no_dis,vert,up,"[99999,99999]","[106,-106]",up,1,1.9127,,,,,,001,2025-03-10_18h20.02.138,SL_sali_41,2021.2.3,Win32,60.24096386,,,97,0,97,0,1,,,,,,,,
,,"[""diamond"",""red"",""vert"",""up"",[-106,106],[-150,0]]",diamond,red,vert,up,"[-106,106]","[-150,0]",up,1,1.5007,,,,,,001,2025-03-10_18h20.02.138,SL_sali_41,2021.2.3,Win32,60.24096386,,,98,0,98,0,1,,,,,,,,
,,"[""circle"",""no_dis"",""hori"",""left"",[99999,99999],[-106,106]]",circle,no_dis,hori,left,"[99999,99999]","[-106,106]",left,1,1.8973,,,,,,001,2025-03-10_18h20.02.138,SL_sali_41,2021.2.3,Win32,60.24096386,,,99,0,99,0,1,,,,,,,,
,,"[""circle"",""green"",""vert"",""up"",[-106,-106],[106,106]]",circle,green,vert,up,"[-106,-106]","[106,106]",up,1,1.4989,,,,,,001,2025-03-10_18h20.02.138,SL_sali_41,2021.2.3,Win32,60.24096386,,,100,0,100,0,1,,,,,,,,
,,"[""circle"",""red"",""vert"",""up"",[106,-106],[-106,106]]",circle,red,vert,up,"[106,-106]","[-106,106]",up,1,1.3642,,,,,,001,2025-03-10_18h20.02.138,SL_sali_41,2021.2.3,Win32,60.24096386,,,101,0,101,0,1,,,,,,,,
,,"[""diamond"",""red"",""vert"",""up"",[-106,-106],[106,106]]",diamond,red,vert,up,"[-106,-106]","[106,106]",up,1,2.0787,,,,,,001,2025-03-10_18h20.02.138,SL_sali_41,2021.2.3,Win32,60.24096386,,,102,0,102,0,1,,,,,,,,
,,"[""circle"",""green"",""vert"",""up"",[106,106],[-106,106]]",circle,green,vert,up,"[106,106]","[-106,106]",up,1,1.6346,,,,,,001,2025-03-10_18h20.02.138,SL_sali_41,2021.2.3,Win32,60.24096386,,,103,0,103,0,1,,,,,,,,
,,"[""diamond"",""green"",""hori"",""left"",[-150,0],[-106,106]]",diamond,green,hori,left,"[-150,0]","[-106,106]",,0,,,,,,,001,2025-03-10_18h20.02.138,SL_sali_41,2021.2.3,Win32,60.24096386,,,104,0,104,0,1,,,,,,,,
,,"[""circle"",""red"",""vert"",""up"",[0,-150],[150,0]]",circle,red,vert,up,"[0,-150]","[150,0]",up,1,1.1543,,,,,,001,2025-03-10_18h20.02.138,SL_sali_41,2021.2.3,Win32,60.24096386,,,105,0,105,0,1,,,,,,,,
,,"[""circle"",""green"",""hori"",""left"",[-106,-106],[0,-150]]",circle,green,hori,left,"[-106,-106]","[0,-150]",left,1,1.7053,,,,,,001,2025-03-10_18h20.02.138,SL_sali_41,2021.2.3,Win32,60.24096386,,,106,0,106,0,1,,,,,,,,
,,"[""circle"",""green"",""hori"",""left"",[-150,0],[0,-150]]",circle,green,hori,left,"[-150,0]","[0,-150]",left,1,2.7554,,,,,,001,2025-03-10_18h20.02.138,SL_sali_41,2021.2.3,Win32,60.24096386,,,107,0,107,0,1,,,,,,,,
,,"[""diamond"",""green"",""vert"",""up"",[-106,-106],[0,-150]]",diamond,green,vert,up,"[-106,-106]","[0,-150]",up,1,2.0963,,,,,,001,2025-03-10_18h20.02.138,SL_sali_41,2021.2.3,Win32,60.24096386,,,108,0,108,0,1,,,,,,,,
,,"[""diamond"",""green"",""hori"",""left"",[106,-106],[150,0]]",diamond,green,hori,left,"[106,-106]","[150,0]",left,1,1.4716,,,,,,001,2025-03-10_18h20.02.138,SL_sali_41,2021.2.3,Win32,60.24096386,,,109,0,109,0,1,,,,,,,,
,,"[""diamond"",""green"",""hori"",""left"",[-106,-106],[-150,0]]",diamond,green,hori,left,"[-106,-106]","[-150,0]",left,1,1.8273,,,,,,001,2025-03-10_18h20.02.138,SL_sali_41,2021.2.3,Win32,60.24096386,,,110,0,110,0,1,,,,,,,,
,,"[""circle"",""no_dis"",""hori"",""left"",[99999,99999],[106,-106]]",circle,no_dis,hori,left,"[99999,99999]","[106,-106]",left,1,1.3676,,,,,,001,2025-03-10_18h20.02.138,SL_sali_41,2021.2.3,Win32,60.24096386,,,111,0,111,0,1,,,,,,,,
,,"[""diamond"",""green"",""vert"",""up"",[-106,-106],[-106,106]]",diamond,green,vert,up,"[-106,-106]","[-106,106]",up,1,1.8751,,,,,,001,2025-03-10_18h20.02.138,SL_sali_41,2021.2.3,Win32,60.24096386,,,112,0,112,0,1,,,,,,,,
,,"[""circle"",""red"",""vert"",""up"",[-106,106],[-150,0]]",circle,red,vert,up,"[-106,106]","[-150,0]",left,0,1.9831,,,,,,001,2025-03-10_18h20.02.138,SL_sali_41,2021.2.3,Win32,60.24096386,,,113,0,113,0,1,,,,,,,,
,,"[""circle"",""no_dis"",""hori"",""left"",[99999,99999],[-106,106]]",circle,no_dis,hori,left,"[99999,99999]","[-106,106]",left,1,1.2164,,,,,,001,2025-03-10_18h20.02.138,SL_sali_41,2021.2.3,Win32,60.24096386,,,114,0,114,0,1,,,,,,,,
,,"[""circle"",""no_dis"",""vert"",""up"",[99999,99999],[106,106]]",circle,no_dis,vert,up,"[99999,99999]","[106,106]",left,0,2.5641,,,,,,001,2025-03-10_18h20.02.138,SL_sali_41,2021.2.3,Win32,60.24096386,,,115,0,115,0,1,,,,,,,,
,,"[""diamond"",""no_dis"",""vert"",""up"",[99999,99999],[-106,106]]",diamond,no_dis,vert,up,"[99999,99999]","[-106,106]",left,0,1.9094,,,,,,001,2025-03-10_18h20.02.138,SL_sali_41,2021.2.3,Win32,60.24096386,,,116,0,116,0,1,,,,,,,,
,,"[""diamond"",""green"",""vert"",""up"",[-106,106],[-150,0]]",diamond,green,vert,up,"[-106,106]","[-150,0]",up,1,1.9759,,,,,,001,2025-03-10_18h20.02.138,SL_sali_41,2021.2.3,Win32,60.24096386,,,117,0,117,0,1,,,,,,,,
,,"[""diamond"",""no_dis"",""hori"",""left"",[99999,99999],[-150,0]]",diamond,no_dis,hori,left,"[99999,99999]","[-150,0]",left,1,1.5881,,,,,,001,2025-03-10_18h20.02.138,SL_sali_41,2021.2.3,Win32,60.24096386,,,118,0,118,0,1,,,,,,,,
,,"[""diamond"",""red"",""hori"",""left"",[-106,-106],[150,0]]",diamond,red,hori,left,"[-106,-106]","[150,0]",left,1,1.6192,,,,,,001,2025-03-10_18h20.02.138,SL_sali_41,2021.2.3,Win32,60.24096386,,,119,0,119,0,1,,,,,,,,
,,"[""diamond"",""green"",""hori"",""left"",[0,150],[-106,106]]",diamond,green,hori,left,"[0,150]","[-106,106]",left,1,2.41,,,,,,001,2025-03-10_18h20.02.138,SL_sali_41,2021.2.3,Win32,60.24096386,,,120,0,120,0,1,,,,,,,,
,,"[""diamond"",""no_dis"",""hori"",""left"",[99999,99999],[106,106]]",diamond,no_dis,hori,left,"[99999,99999]","[106,106]",up,0,1.4985,,,,,,001,2025-03-10_18h20.02.138,SL_sali_41,2021.2.3,Win32,60.24096386,,,121,0,121,0,1,,,,,,,,
,,"[""diamond"",""green"",""vert"",""up"",[106,-106],[0,-150]]",diamond,green,vert,up,"[106,-106]","[0,-150]",up,1,2.1606,,,,,,001,2025-03-10_18h20.02.138,SL_sali_41,2021.2.3,Win32,60.24096386,,,122,0,122,0,1,,,,,,,,
,,"[""diamond"",""green"",""hori"",""left"",[-106,-106],[0,-150]]",diamond,green,hori,left,"[-106,-106]","[0,-150]",left,1,1.4293,,,,,,001,2025-03-10_18h20.02.138,SL_sali_41,2021.2.3,Win32,60.24096386,,,123,0,123,0,1,,,,,,,,
,,"[""circle"",""red"",""hori"",""left"",[-106,-106],[150,0]]",circle,red,hori,left,"[-106,-106]","[150,0]",left,1,2.2693,,,,,,001,2025-03-10_18h20.02.138,SL_sali_41,2021.2.3,Win32,60.24096386,,,124,0,124,0,1,,,,,,,,
,,"[""diamond"",""green"",""hori"",""left"",[-106,-106],[150,0]]",diamond,green,hori,left,"[-106,-106]","[150,0]",left,1,1.9696,,,,,,001,2025-03-10_18h20.02.138,SL_sali_41,2021.2.3,Win32,60.24096386,,,125,0,125,0,1,,,,,,,,
,,"[""circle"",""no_dis"",""vert"",""up"",[99999,99999],[0,150]]",circle,no_dis,vert,up,"[99999,99999]","[0,150]",up,1,2.1353,,,,,,001,2025-03-10_18h20.02.138,SL_sali_41,2021.2.3,Win32,60.24096386,,,126,0,126,0,1,,,,,,,,
,,"[""diamond"",""red"",""hori"",""left"",[-150,0],[106,106]]",diamond,red,hori,left,"[-150,0]","[106,106]",left,1,1.8341,,,,,,001,2025-03-10_18h20.02.138,SL_sali_41,2021.2.3,Win32,60.24096386,,,127,0,127,0,1,,,,,,,,
,,,,,,,,,,,,,,,,,001,2025-03-10_18h20.02.138,SL_sali_41,2021.2.3,Win32,60.24096386,,,,,,,,2,space,75.5314,1,0,1,0,1
,,"[""circle"",""green"",""hori"",""left"",[106,106],[106,-106]]",circle,green,hori,left,"[106,106]","[106,-106]",left,1,1.96,,,,,,001,2025-03-10_18h20.02.138,SL_sali_41,2021.2.3,Win32,60.24096386,,,0,0,0,0,1,,,,,,,,
,,"[""diamond"",""green"",""vert"",""up"",[-106,-106],[-106,106]]",diamond,green,vert,up,"[-106,-106]","[-106,106]",up,1,1.5873,,,,,,001,2025-03-10_18h20.02.138,SL_sali_41,2021.2.3,Win32,60.24096386,,,1,0,1,0,1,,,,,,,,
,,"[""circle"",""green"",""vert"",""up"",[150,0],[-106,-106]]",circle,green,vert,up,"[150,0]","[-106,-106]",up,1,1.1507,,,,,,001,2025-03-10_18h20.02.138,SL_sali_41,2021.2.3,Win32,60.24096386,,,2,0,2,0,1,,,,,,,,
,,"[""circle"",""no_dis"",""hori"",""left"",[99999,99999],[0,150]]",circle,no_dis,hori,left,"[99999,99999]","[0,150]",left,1,1.5671,,,,,,001,2025-03-10_18h20.02.138,SL_sali_41,2021.2.3,Win32,60.24096386,,,3,0,3,0,1,,,,,,,,
,,"[""circle"",""red"",""vert"",""up"",[-106,-106],[150,0]]",circle,red,vert,up,"[-106,-106]","[150,0]",up,1,1.2679,,,,,,001,2025-03-10_18h20.02.138,SL_sali_41,2021.2.3,Win32,60.24096386,,,4,0,4,0,1,,,,,,,,
,,"[""diamond"",""green"",""hori"",""left"",[106,-106],[150,0]]",diamond,green,hori,left,"[106,-106]","[150,0]",left,1,1.6882,,,,,,001,2025-03-10_18h20.02.138,SL_sali_41,2021.2.3,Win32,60.24096386,,,5,0,5,0,1,,,,,,,,
,,"[""circle"",""green"",""vert"",""up"",[-150,0],[-106,106]]",circle,green,vert,up,"[-150,0]","[-106,106]",up,1,1.3336,,,,,,001,2025-03-10_18h20.02.138,SL_sali_41,2021.2.3,Win32,60.24096386,,,6,0,6,0,1,,,,,,,,
,,"[""diamond"",""green"",""hori"",""left"",[-106,-106],[0,-150]]",diamond,green,hori,left,"[-106,-106]","[0,-150]",left,1,1.7168,,,,,,001,2025-03-10_18h20.02.138,SL_sali_41,2021.2.3,Win32,60.24096386,,,7,0,7,0,1,,,,,,,,
,,"[""circle"",""no_dis"",""vert"",""up"",[99999,99999],[0,-150]]",circle,no_dis,vert,up,"[99999,99999]","[0,-150]",up,1,1.0758,,,,,,001,2025-03-10_18h20.02.138,SL_sali_41,2021.2.3,Win32,60.24096386,,,8,0,8,0,1,,,,,,,,
,,"[""circle"",""green"",""vert"",""up"",[106,106],[-106,106]]",circle,green,vert,up,"[106,106]","[-106,106]",up,1,1.2344,,,,,,001,2025-03-10_18h20.02.138,SL_sali_41,2021.2.3,Win32,60.24096386,,,9,0,9,0,1,,,,,,,,
,,"[""diamond"",""red"",""hori"",""left"",[-106,-106],[0,150]]",diamond,red,hori,left,"[-106,-106]","[0,150]",left,1,1.6046,,,,,,001,2025-03-10_18h20.02.138,SL_sali_41,2021.2.3,Win32,60.24096386,,,10,0,10,0,1,,,,,,,,
,,"[""circle"",""no_dis"",""hori"",""left"",[99999,99999],[-106,-106]]",circle,no_dis,hori,left,"[99999,99999]","[-106,-106]",up,0,1.9693,,,,,,001,2025-03-10_18h20.02.138,SL_sali_41,2021.2.3,Win32,60.24096386,,,11,0,11,0,1,,,,,,,,
,,"[""diamond"",""no_dis"",""vert"",""up"",[99999,99999],[-150,0]]",diamond,no_dis,vert,up,"[99999,99999]","[-150,0]",up,1,1.4177,,,,,,001,2025-03-10_18h20.02.138,SL_sali_41,2021.2.3,Win32,60.24096386,,,12,0,12,0,1,,,,,,,,
,,"[""diamond"",""no_dis"",""hori"",""left"",[99999,99999],[-106,-106]]",diamond,no_dis,hori,left,"[99999,99999]","[-106,-106]",left,1,1.3726,,,,,,001,2025-03-10_18h20.02.138,SL_sali_41,2021.2.3,Win32,60.24096386,,,13,0,13,0,1,,,,,,,,
,,"[""diamond"",""green"",""vert"",""up"",[-106,106],[106,-106]]",diamond,green,vert,up,"[-106,106]","[106,-106]",up,1,1.6278,,,,,,001,2025-03-10_18h20.02.138,SL_sali_41,2021.2.3,Win32,60.24096386,,,14,0,14,0,1,,,,,,,,
,,"[""diamond"",""red"",""hori"",""left"",[-106,-106],[150,0]]",diamond,red,hori,left,"[-106,-106]","[150,0]",left,1,1.3689,,,,,,001,2025-03-10_18h20.02.138,SL_sali_41,2021.2.3,Win32,60.24096386,,,15,0,15,0,1,,,,,,,,
,,"[""circle"",""red"",""hori"",""left"",[-106,-106],[150,0]]",circle,red,hori,left,"[-106,-106]","[150,0]",left,1,1.1844,,,,,,001,2025-03-10_18h20.02.138,SL_sali_41,2021.2.3,Win32,60.24096386,,,16,0,16,0,1,,,,,,,,
,,"[""circle"",""green"",""vert"",""up"",[-106,-106],[106,106]]",circle,green,vert,up,"[-106,-106]","[106,106]",up,1,0.9338,,,,,,001,2025-03-10_18h20.02.138,SL_sali_41,2021.2.3,Win32,60.24096386,,,17,0,17,0,1,,,,,,,,
,,"[""circle"",""red"",""hori"",""left"",[106,106],[0,-150]]",circle,red,hori,left,"[106,106]","[0,-150]",left,1,1.4281,,,,,,001,2025-03-10_18h20.02.138,SL_sali_41,2021.2.3,Win32,60.24096386,,,18,0,18,0,1,,,,,,,,
,,"[""diamond"",""green"",""vert"",""up"",[0,-150],[106,106]]",diamond,green,vert,up,"[0,-150]","[106,106]",up,1,2.3826,,,,,,001,2025-03-10_18h20.02.138,SL_sali_41,2021.2.3,Win32,60.24096386,,,19,0,19,0,1,,,,,,,,
,,"[""circle"",""green"",""hori"",""left"",[-106,106],[0,150]]",circle,green,hori,left,"[-106,106]","[0,150]",left,1,1.1077,,,,,,001,2025-03-10_18h20.02.138,SL_sali_41,2021.2.3,Win32,60.24096386,,,20,0,20,0,1,,,,,,,,
,,"[""diamond"",""green"",""vert"",""up"",[0,-150],[-150,0]]",diamond,green,vert,up,"[0,-150]","[-150,0]",up,1,1.9506,,,,,,001,2025-03-10_18h20.02.138,SL_sali_41,2021.2.3,Win32,60.24096386,,,21,0,21,0,1,,,,,,,,
,,"[""diamond"",""green"",""vert"",""up"",[106,-106],[0,-150]]",diamond,green,vert,up,"[106,-106]","[0,-150]",up,1,1.683,,,,,,001,2025-03-10_18h20.02.138,SL_sali_41,2021.2.3,Win32,60.24096386,,,22,0,22,0,1,,,,,,,,
,,"[""diamond"",""green"",""hori"",""left"",[-106,-106],[-150,0]]",diamond,green,hori,left,"[-106,-106]","[-150,0]",left,1,1.4002,,,,,,001,2025-03-10_18h20.02.138,SL_sali_41,2021.2.3,Win32,60.24096386,,,23,0,23,0,1,,,,,,,,
,,"[""diamond"",""red"",""hori"",""left"",[-106,-106],[106,-106]]",diamond,red,hori,left,"[-106,-106]","[106,-106]",left,1,1.6428,,,,,,001,2025-03-10_18h20.02.138,SL_sali_41,2021.2.3,Win32,60.24096386,,,24,0,24,0,1,,,,,,,,
,,"[""diamond"",""green"",""hori"",""left"",[-106,-106],[150,0]]",diamond,green,hori,left,"[-106,-106]","[150,0]",left,1,1.4078,,,,,,001,2025-03-10_18h20.02.138,SL_sali_41,2021.2.3,Win32,60.24096386,,,25,0,25,0,1,,,,,,,,
,,"[""diamond"",""green"",""hori"",""left"",[0,150],[-106,106]]",diamond,green,hori,left,"[0,150]","[-106,106]",left,1,1.2835,,,,,,001,2025-03-10_18h20.02.138,SL_sali_41,2021.2.3,Win32,60.24096386,,,26,0,26,0,1,,,,,,,,
,,"[""circle"",""green"",""hori"",""left"",[-106,-106],[0,150]]",circle,green,hori,left,"[-106,-106]","[0,150]",left,1,2.5537,,,,,,001,2025-03-10_18h20.02.138,SL_sali_41,2021.2.3,Win32,60.24096386,,,27,0,27,0,1,,,,,,,,
,,"[""diamond"",""green"",""hori"",""left"",[-150,0],[-106,106]]",diamond,green,hori,left,"[-150,0]","[-106,106]",left,1,1.8661,,,,,,001,2025-03-10_18h20.02.138,SL_sali_41,2021.2.3,Win32,60.24096386,,,28,0,28,0,1,,,,,,,,
,,"[""diamond"",""red"",""vert"",""up"",[150,0],[-150,0]]",diamond,red,vert,up,"[150,0]","[-150,0]",up,1,1.95,,,,,,001,2025-03-10_18h20.02.138,SL_sali_41,2021.2.3,Win32,60.24096386,,,29,0,29,0,1,,,,,,,,
,,"[""diamond"",""green"",""vert"",""up"",[106,-106],[150,0]]",diamond,green,vert,up,"[106,-106]","[150,0]",up,1,1.1908,,,,,,001,2025-03-10_18h20.02.138,SL_sali_41,2021.2.3,Win32,60.24096386,,,30,0,30,0,1,,,,,,,,
,,"[""diamond"",""red"",""hori"",""left"",[-150,0],[106,106]]",diamond,red,hori,left,"[-150,0]","[106,106]",left,1,1.6331,,,,,,001,2025-03-10_18h20.02.138,SL_sali_41,2021.2.3,Win32,60.24096386,,,31,0,31,0,1,,,,,,,,
,,"[""circle"",""no_dis"",""hori"",""left"",[99999,99999],[-150,0]]",circle,no_dis,hori,left,"[99999,99999]","[-150,0]",left,1,1.2997,,,,,,001,2025-03-10_18h20.02.138,SL_sali_41,2021.2.3,Win32,60.24096386,,,32,0,32,0,1,,,,,,,,
,,"[""diamond"",""no_dis"",""vert"",""up"",[99999,99999],[-106,106]]",diamond,no_dis,vert,up,"[99999,99999]","[-106,106]",up,1,1.6328,,,,,,001,2025-03-10_18h20.02.138,SL_sali_41,2021.2.3,Win32,60.24096386,,,33,0,33,0,1,,,,,,,,
,,"[""circle"",""red"",""vert"",""up"",[106,-106],[-106,106]]",circle,red,vert,up,"[106,-106]","[-106,106]",up,1,1.3331,,,,,,001,2025-03-10_18h20.02.138,SL_sali_41,2021.2.3,Win32,60.24096386,,,34,0,34,0,1,,,,,,,,
,,"[""circle"",""red"",""hori"",""left"",[-106,-106],[0,150]]",circle,red,hori,left,"[-106,-106]","[0,150]",left,1,2.9282,,,,,,001,2025-03-10_18h20.02.138,SL_sali_41,2021.2.3,Win32,60.24096386,,,35,0,35,0,1,,,,,,,,
,,"[""diamond"",""red"",""vert"",""up"",[-106,106],[-150,0]]",diamond,red,vert,up,"[-106,106]","[-150,0]",up,1,1.9459,,,,,,001,2025-03-10_18h20.02.138,SL_sali_41,2021.2.3,Win32,60.24096386,,,36,0,36,0,1,,,,,,,,
,,"[""diamond"",""no_dis"",""hori"",""left"",[99999,99999],[-106,-106]]",diamond,no_dis,hori,left,"[99999,99999]","[-106,-106]",left,1,1.432,,,,,,001,2025-03-10_18h20.02.138,SL_sali_41,2021.2.3,Win32,60.24096386,,,37,0,37,0,1,,,,,,,,
,,"[""circle"",""green"",""hori"",""left"",[0,150],[-106,-106]]",circle,green,hori,left,"[0,150]","[-106,-106]",left,1,1.179,,,,,,001,2025-03-10_18h20.02.138,SL_sali_41,2021.2.3,Win32,60.24096386,,,38,0,38,0,1,,,,,,,,
,,"[""diamond"",""green"",""vert"",""up"",[-106,-106],[0,-150]]",diamond,green,vert,up,"[-106,-106]","[0,-150]",up,1,1.2505,,,,,,001,2025-03-10_18h20.02.138,SL_sali_41,2021.2.3,Win32,60.24096386,,,39,0,39,0,1,,,,,,,,
,,"[""diamond"",""no_dis"",""hori"",""left"",[99999,99999],[106,106]]",diamond,no_dis,hori,left,"[99999,99999]","[106,106]",up,0,1.7743,,,,,,001,2025-03-10_18h20.02.138,SL_sali_41,2021.2.3,Win32,60.24096386,,,40,0,40,0,1,,,,,,,,
,,"[""circle"",""no_dis"",""vert"",""up"",[99999,99999],[150,0]]",circle,no_dis,vert,up,"[99999,99999]","[150,0]",up,1,1.093,,,,,,001,2025-03-10_18h20.02.138,SL_sali_41,2021.2.3,Win32,60.24096386,,,41,0,41,0,1,,,,,,,,
,,"[""circle"",""red"",""hori"",""left"",[-106,106],[-150,0]]",circle,red,hori,left,"[-106,106]","[-150,0]",left,1,2.4007,,,,,,001,2025-03-10_18h20.02.138,SL_sali_41,2021.2.3,Win32,60.24096386,,,42,0,42,0,1,,,,,,,,
,,"[""diamond"",""green"",""vert"",""up"",[-150,0],[106,106]]",diamond,green,vert,up,"[-150,0]","[106,106]",up,1,2.7915,,,,,,001,2025-03-10_18h20.02.138,SL_sali_41,2021.2.3,Win32,60.24096386,,,43,0,43,0,1,,,,,,,,
,,"[""diamond"",""green"",""hori"",""left"",[-106,-106],[0,-150]]",diamond,green,hori,left,"[-106,-106]","[0,-150]",left,1,1.3248,,,,,,001,2025-03-10_18h20.02.138,SL_sali_41,2021.2.3,Win32,60.24096386,,,44,0,44,0,1,,,,,,,,
,,"[""diamond"",""green"",""vert"",""up"",[106,106],[106,-106]]",diamond,green,vert,up,"[106,106]","[106,-106]",up,1,2.1758,,,,,,001,2025-03-10_18h20.02.138,SL_sali_41,2021.2.3,Win32,60.24096386,,,45,0,45,0,1,,,,,,,,
,,"[""diamond"",""red"",""hori"",""left"",[-106,-106],[-106,106]]",diamond,red,hori,left,"[-106,-106]","[-106,106]",left,1,1.767,,,,,,001,2025-03-10_18h20.02.138,SL_sali_41,2021.2.3,Win32,60.24096386,,,46,0,46,0,1,,,,,,,,
,,"[""diamond"",""no_dis"",""hori"",""left"",[99999,99999],[150,0]]",diamond,no_dis,hori,left,"[99999,99999]","[150,0]",left,1,1.5008,,,,,,001,2025-03-10_18h20.02.138,SL_sali_41,2021.2.3,Win32,60.24096386,,,47,0,47,0,1,,,,,,,,
,,"[""circle"",""red"",""hori"",""left"",[-150,0],[150,0]]",circle,red,hori,left,"[-150,0]","[150,0]",left,1,1.1163,,,,,,001,2025-03-10_18h20.02.138,SL_sali_41,2021.2.3,Win32,60.24096386,,,48,0,48,0,1,,,,,,,,
,,"[""circle"",""green"",""vert"",""up"",[-106,-106],[106,106]]",circle,green,vert,up,"[-106,-106]","[106,106]",up,1,1.4757,,,,,,001,2025-03-10_18h20.02.138,SL_sali_41,2021.2.3,Win32,60.24096386,,,49,0,49,0,1,,,,,,,,
,,"[""circle"",""green"",""hori"",""left"",[-106,-106],[0,-150]]",circle,green,hori,left,"[-106,-106]","[0,-150]",left,1,1.2165,,,,,,001,2025-03-10_18h20.02.138,SL_sali_41,2021.2.3,Win32,60.24096386,,,50,0,50,0,1,,,,,,,,
,,"[""circle"",""green"",""vert"",""up"",[0,150],[0,-150]]",circle,green,vert,up,"[0,150]","[0,-150]",up,1,1.0838,,,,,,001,2025-03-10_18h20.02.138,SL_sali_41,2021.2.3,Win32,60.24096386,,,51,0,51,0,1,,,,,,,,
,,"[""diamond"",""no_dis"",""hori"",""left"",[99999,99999],[106,-106]]",diamond,no_dis,hori,left,"[99999,99999]","[106,-106]",left,1,1.3505,,,,,,001,2025-03-10_18h20.02.138,SL_sali_41,2021.2.3,Win32,60.24096386,,,52,0,52,0,1,,,,,,,,
,,"[""circle"",""red"",""hori"",""left"",[-106,-106],[150,0]]",circle,red,hori,left,"[-106,-106]","[150,0]",left,1,1.2006,,,,,,001,2025-03-10_18h20.02.138,SL_sali_41,2021.2.3,Win32,60.24096386,,,53,0,53,0,1,,,,,,,,
,,"[""circle"",""green"",""hori"",""left"",[0,-150],[-106,-106]]",circle,green,hori,left,"[0,-150]","[-106,-106]",left,1,2.1001,,,,,,001,2025-03-10_18h20.02.138,SL_sali_41,2021.2.3,Win32,60.24096386,,,54,0,54,0,1,,,,,,,,
,,"[""circle"",""green"",""hori"",""left"",[0,150],[0,-150]]",circle,green,hori,left,"[0,150]","[0,-150]",left,1,1.767,,,,,,001,2025-03-10_18h20.02.138,SL_sali_41,2021.2.3,Win32,60.24096386,,,55,0,55,0,1,,,,,,,,
,,"[""circle"",""red"",""vert"",""up"",[0,-150],[150,0]]",circle,red,vert,up,"[0,-150]","[150,0]",up,1,2.1169,,,,,,001,2025-03-10_18h20.02.138,SL_sali_41,2021.2.3,Win32,60.24096386,,,56,0,56,0,1,,,,,,,,
,,"[""circle"",""red"",""hori"",""left"",[106,106],[106,-106]]",circle,red,hori,left,"[106,106]","[106,-106]",left,1,1.0671,,,,,,001,2025-03-10_18h20.02.138,SL_sali_41,2021.2.3,Win32,60.24096386,,,57,0,57,0,1,,,,,,,,
,,"[""diamond"",""red"",""vert"",""up"",[0,-150],[106,-106]]",diamond,red,vert,up,"[0,-150]","[106,-106]",up,1,1.4829,,,,,,001,2025-03-10_18h20.02.138,SL_sali_41,2021.2.3,Win32,60.24096386,,,58,0,58,0,1,,,,,,,,
,,"[""circle"",""no_dis"",""hori"",""left"",[99999,99999],[0,150]]",circle,no_dis,hori,left,"[99999,99999]","[0,150]",left,1,1.3841,,,,,,001,2025-03-10_18h20.02.138,SL_sali_41,2021.2.3,Win32,60.24096386,,,59,0,59,0,1,,,,,,,,
,,"[""circle"",""no_dis"",""vert"",""up"",[99999,99999],[106,-106]]",circle,no_dis,vert,up,"[99999,99999]","[106,-106]",up,1,1.1174,,,,,,001,2025-03-10_18h20.02.138,SL_sali_41,2021.2.3,Win32,60.24096386,,,60,0,60,0,1,,,,,,,,
,,"[""diamond"",""red"",""hori"",""left"",[-106,-106],[106,-106]]",diamond,red,hori,left,"[-106,-106]","[106,-106]",left,1,1.8212,,,,,,001,2025-03-10_18h20.02.138,SL_sali_41,2021.2.3,Win32,60.24096386,,,61,0,61,0,1,,,,,,,,
,,"[""circle"",""green"",""hori"",""left"",[150,0],[0,-150]]",circle,green,hori,left,"[150,0]","[0,-150]",left,1,1.1339,,,,,,001,2025-03-10_18h20.02.138,SL_sali_41,2021.2.3,Win32,60.24096386,,,62,0,62,0,1,,,,,,,,
,,"[""diamond"",""no_dis"",""hori"",""left"",[99999,99999],[106,106]]",diamond,no_dis,hori,left,"[99999,99999]","[106,106]",left,1,1.1836,,,,,,001,2025-03-10_18h20.02.138,SL_sali_41,2021.2.3,Win32,60.24096386,,,63,0,63,0,1,,,,,,,,
,,"[""diamond"",""red"",""hori"",""left"",[0,150],[-106,106]]",diamond,red,hori,left,"[0,150]","[-106,106]",left,1,2.1623,,,,,,001,2025-03-10_18h20.02.138,SL_sali_41,2021.2.3,Win32,60.24096386,,,64,0,64,0,1,,,,,,,,
,,"[""circle"",""green"",""vert"",""up"",[0,150],[-106,106]]",circle,green,vert,up,"[0,150]","[-106,106]",left,0,2.6667,,,,,,001,2025-03-10_18h20.02.138,SL_sali_41,2021.2.3,Win32,60.24096386,,,65,0,65,0,1,,,,,,,,
,,"[""circle"",""no_dis"",""hori"",""left"",[99999,99999],[0,-150]]",circle,no_dis,hori,left,"[99999,99999]","[0,-150]",left,1,1.0854,,,,,,001,2025-03-10_18h20.02.138,SL_sali_41,2021.2.3,Win32,60.24096386,,,66,0,66,0,1,,,,,,,,
,,"[""diamond"",""no_dis"",""vert"",""up"",[99999,99999],[0,-150]]",diamond,no_dis,vert,up,"[99999,99999]","[0,-150]",up,1,1.4996,,,,,,001,2025-03-10_18h20.02.138,SL_sali_41,2021.2.3,Win32,60.24096386,,,67,0,67,0,1,,,,,,,,
,,"[""diamond"",""no_dis"",""hori"",""left"",[99999,99999],[0,150]]",diamond,no_dis,hori,left,"[99999,99999]","[0,150]",up,0,1.1332,,,,,,001,2025-03-10_18h20.02.138,SL_sali_41,2021.2.3,Win32,60.24096386,,,68,0,68,0,1,,,,,,,,
,,"[""circle"",""no_dis"",""vert"",""up"",[99999,99999],[0,150]]",circle,no_dis,vert,up,"[99999,99999]","[0,150]",up,1,2.3505,,,,,,001,2025-03-10_18h20.02.138,SL_sali_41,2021.2.3,Win32,60.24096386,,,69,0,69,0,1,,,,,,,,
,,"[""circle"",""no_dis"",""vert"",""up"",[99999,99999],[106,-106]]",circle,no_dis,vert,up,"[99999,99999]","[106,-106]",up,1,1.006,,,,,,001,2025-03-10_18h20.02.138,SL_sali_41,2021.2.3,Win32,60.24096386,,,70,0,70,0,1,,,,,,,,
,,"[""circle"",""red"",""vert"",""up"",[-106,106],[-106,-106]]",circle,red,vert,up,"[-106,106]","[-106,-106]",up,1,1.3276,,,,,,001,2025-03-10_18h20.02.138,SL_sali_41,2021.2.3,Win32,60.24096386,,,71,0,71,0,1,,,,,,,,
,,"[""circle"",""no_dis"",""vert"",""up"",[99999,99999],[0,150]]",circle,no_dis,vert,up,"[99999,99999]","[0,150]",up,1,1.6911,,,,,,001,2025-03-10_18h20.02.138,SL_sali_41,2021.2.3,Win32,60.24096386,,,72,0,72,0,1,,,,,,,,
,,"[""diamond"",""no_dis"",""hori"",""left"",[99999,99999],[150,0]]",diamond,no_dis,hori,left,"[99999,99999]","[150,0]",left,1,1.9001,,,,,,001,2025-03-10_18h20.02.138,SL_sali_41,2021.2.3,Win32,60.24096386,,,73,0,73,0,1,,,,,,,,
,,"[""circle"",""red"",""vert"",""up"",[106,106],[-150,0]]",circle,red,vert,up,"[106,106]","[-150,0]",up,1,1.4835,,,,,,001,2025-03-10_18h20.02.138,SL_sali_41,2021.2.3,Win32,60.24096386,,,74,0,74,0,1,,,,,,,,
,,"[""diamond"",""green"",""hori"",""left"",[150,0],[106,-106]]",diamond,green,hori,left,"[150,0]","[106,-106]",left,1,2.1,,,,,,001,2025-03-10_18h20.02.138,SL_sali_41,2021.2.3,Win32,60.24096386,,,75,0,75,0,1,,,,,,,,
,,"[""diamond"",""no_dis"",""vert"",""up"",[99999,99999],[0,-150]]",diamond,no_dis,vert,up,"[99999,99999]","[0,-150]",up,1,1.1832,,,,,,001,2025-03-10_18h20.02.138,SL_sali_41,2021.2.3,Win32,60.24096386,,,76,0,76,0,1,,,,,,,,
,,"[""circle"",""green"",""hori"",""left"",[-150,0],[0,-150]]",circle,green,hori,left,"[-150,0]","[0,-150]",left,1,1.3452,,,,,,001,2025-03-10_18h20.02.138,SL_sali_41,2021.2.3,Win32,60.24096386,,,77,0,77,0,1,,,,,,,,
,,"[""circle"",""green"",""vert"",""up"",[-106,-106],[-150,0]]",circle,green,vert,up,"[-106,-106]","[-150,0]",up,1,1.2549,,,,,,001,2025-03-10_18h20.02.138,SL_sali_41,2021.2.3,Win32,60.24096386,,,78,0,78,0,1,,,,,,,,
,,"[""diamond"",""red"",""vert"",""up"",[0,-150],[-150,0]]",diamond,red,vert,up,"[0,-150]","[-150,0]",up,1,1.5994,,,,,,001,2025-03-10_18h20.02.138,SL_sali_41,2021.2.3,Win32,60.24096386,,,79,0,79,0,1,,,,,,,,
,,"[""diamond"",""red"",""vert"",""up"",[150,0],[-106,106]]",diamond,red,vert,up,"[150,0]","[-106,106]",up,1,1.2003,,,,,,001,2025-03-10_18h20.02.138,SL_sali_41,2021.2.3,Win32,60.24096386,,,80,0,80,0,1,,,,,,,,
,,"[""diamond"",""red"",""vert"",""up"",[-106,-106],[-106,106]]",diamond,red,vert,up,"[-106,-106]","[-106,106]",up,1,0.9907,,,,,,001,2025-03-10_18h20.02.138,SL_sali_41,2021.2.3,Win32,60.24096386,,,81,0,81,0,1,,,,,,,,
,,"[""diamond"",""red"",""hori"",""left"",[0,-150],[150,0]]",diamond,red,hori,left,"[0,-150]","[150,0]",left,1,1.1165,,,,,,001,2025-03-10_18h20.02.138,SL_sali_41,2021.2.3,Win32,60.24096386,,,82,0,82,0,1,,,,,,,,
,,"[""diamond"",""red"",""vert"",""up"",[-106,-106],[150,0]]",diamond,red,vert,up,"[-106,-106]","[150,0]",up,1,0.917,,,,,,001,2025-03-10_18h20.02.138,SL_sali_41,2021.2.3,Win32,60.24096386,,,83,0,83,0,1,,,,,,,,
,,"[""diamond"",""red"",""vert"",""up"",[0,-150],[-106,-106]]",diamond,red,vert,up,"[0,-150]","[-106,-106]",up,1,1.9008,,,,,,001,2025-03-10_18h20.02.138,SL_sali_41,2021.2.3,Win32,60.24096386,,,84,0,84,0,1,,,,,,,,
,,"[""diamond"",""no_dis"",""vert"",""up"",[99999,99999],[106,-106]]",diamond,no_dis,vert,up,"[99999,99999]","[106,-106]",up,1,1.0667,,,,,,001,2025-03-10_18h20.02.138,SL_sali_41,2021.2.3,Win32,60.24096386,,,85,0,85,0,1,,,,,,,,
,,"[""circle"",""no_dis"",""hori"",""left"",[99999,99999],[-106,106]]",circle,no_dis,hori,left,"[99999,99999]","[-106,106]",up,0,1.2834,,,,,,001,2025-03-10_18h20.02.138,SL_sali_41,2021.2.3,Win32,60.24096386,,,86,0,86,0,1,,,,,,,,
,,"[""diamond"",""no_dis"",""hori"",""left"",[99999,99999],[106,106]]",diamond,no_dis,hori,left,"[99999,99999]","[106,106]",,0,,,,,,,001,2025-03-10_18h20.02.138,SL_sali_41,2021.2.3,Win32,60.24096386,,,87,0,87,0,1,,,,,,,,
,,"[""diamond"",""red"",""vert"",""up"",[-106,-106],[0,150]]",diamond,red,vert,up,"[-106,-106]","[0,150]",up,1,1.0673,,,,,,001,2025-03-10_18h20.02.138,SL_sali_41,2021.2.3,Win32,60.24096386,,,88,0,88,0,1,,,,,,,,
,,"[""diamond"",""green"",""vert"",""up"",[106,-106],[150,0]]",diamond,green,vert,up,"[106,-106]","[150,0]",up,1,1.5669,,,,,,001,2025-03-10_18h20.02.138,SL_sali_41,2021.2.3,Win32,60.24096386,,,89,0,89,0,1,,,,,,,,
,,"[""circle"",""no_dis"",""hori"",""left"",[99999,99999],[106,-106]]",circle,no_dis,hori,left,"[99999,99999]","[106,-106]",left,1,2.1605,,,,,,001,2025-03-10_18h20.02.138,SL_sali_41,2021.2.3,Win32,60.24096386,,,90,0,90,0,1,,,,,,,,
,,"[""circle"",""no_dis"",""vert"",""up"",[99999,99999],[-106,-106]]",circle,no_dis,vert,up,"[99999,99999]","[-106,-106]",up,1,1.5839,,,,,,001,2025-03-10_18h20.02.138,SL_sali_41,2021.2.3,Win32,60.24096386,,,91,0,91,0,1,,,,,,,,
,,"[""circle"",""red"",""hori"",""left"",[0,150],[150,0]]",circle,red,hori,left,"[0,150]","[150,0]",left,1,1.5006,,,,,,001,2025-03-10_18h20.02.138,SL_sali_41,2021.2.3,Win32,60.24096386,,,92,0,92,0,1,,,,,,,,
,,"[""circle"",""green"",""hori"",""left"",[106,-106],[106,106]]",circle,green,hori,left,"[106,-106]","[106,106]",left,1,0.9533,,,,,,001,2025-03-10_18h20.02.138,SL_sali_41,2021.2.3,Win32,60.24096386,,,93,0,93,0,1,,,,,,,,
,,"[""circle"",""red"",""vert"",""up"",[-106,-106],[-150,0]]",circle,red,vert,up,"[-106,-106]","[-150,0]",up,1,1.1167,,,,,,001,2025-03-10_18h20.02.138,SL_sali_41,2021.2.3,Win32,60.24096386,,,94,0,94,0,1,,,,,,,,
,,"[""circle"",""no_dis"",""vert"",""up"",[99999,99999],[0,-150]]",circle,no_dis,vert,up,"[99999,99999]","[0,-150]",up,1,1.3568,,,,,,001,2025-03-10_18h20.02.138,SL_sali_41,2021.2.3,Win32,60.24096386,,,95,0,95,0,1,,,,,,,,
,,"[""circle"",""green"",""vert"",""up"",[-150,0],[150,0]]",circle,green,vert,up,"[-150,0]","[150,0]",up,1,1.0004,,,,,,001,2025-03-10_18h20.02.138,SL_sali_41,2021.2.3,Win32,60.24096386,,,96,0,96,0,1,,,,,,,,
,,"[""diamond"",""no_dis"",""vert"",""up"",[99999,99999],[-106,-106]]",diamond,no_dis,vert,up,"[99999,99999]","[-106,-106]",up,1,1.418,,,,,,001,2025-03-10_18h20.02.138,SL_sali_41,2021.2.3,Win32,60.24096386,,,97,0,97,0,1,,,,,,,,
,,"[""circle"",""no_dis"",""hori"",""left"",[99999,99999],[-106,106]]",circle,no_dis,hori,left,"[99999,99999]","[-106,106]",left,1,1.0983,,,,,,001,2025-03-10_18h20.02.138,SL_sali_41,2021.2.3,Win32,60.24096386,,,98,0,98,0,1,,,,,,,,
,,"[""circle"",""red"",""vert"",""up"",[106,-106],[-106,106]]",circle,red,vert,up,"[106,-106]","[-106,106]",up,1,1.1557,,,,,,001,2025-03-10_18h20.02.138,SL_sali_41,2021.2.3,Win32,60.24096386,,,99,0,99,0,1,,,,,,,,
,,"[""diamond"",""red"",""hori"",""left"",[-106,106],[0,-150]]",diamond,red,hori,left,"[-106,106]","[0,-150]",up,0,1.9945,,,,,,001,2025-03-10_18h20.02.138,SL_sali_41,2021.2.3,Win32,60.24096386,,,100,0,100,0,1,,,,,,,,
,,"[""circle"",""red"",""hori"",""left"",[150,0],[106,106]]",circle,red,hori,left,"[150,0]","[106,106]",left,1,1.5144,,,,,,001,2025-03-10_18h20.02.138,SL_sali_41,2021.2.3,Win32,60.24096386,,,101,0,101,0,1,,,,,,,,
,,"[""circle"",""red"",""hori"",""left"",[-106,-106],[150,0]]",circle,red,hori,left,"[-106,-106]","[150,0]",left,1,1.0628,,,,,,001,2025-03-10_18h20.02.138,SL_sali_41,2021.2.3,Win32,60.24096386,,,102,0,102,0,1,,,,,,,,
,,"[""circle"",""no_dis"",""vert"",""up"",[99999,99999],[106,106]]",circle,no_dis,vert,up,"[99999,99999]","[106,106]",up,1,1.5464,,,,,,001,2025-03-10_18h20.02.138,SL_sali_41,2021.2.3,Win32,60.24096386,,,103,0,103,0,1,,,,,,,,
,,"[""circle"",""red"",""vert"",""up"",[-106,-106],[106,-106]]",circle,red,vert,up,"[-106,-106]","[106,-106]",up,1,2.1156,,,,,,001,2025-03-10_18h20.02.138,SL_sali_41,2021.2.3,Win32,60.24096386,,,104,0,104,0,1,,,,,,,,
,,"[""diamond"",""red"",""vert"",""up"",[-106,-106],[106,106]]",diamond,red,vert,up,"[-106,-106]","[106,106]",up,1,1.7751,,,,,,001,2025-03-10_18h20.02.138,SL_sali_41,2021.2.3,Win32,60.24096386,,,105,0,105,0,1,,,,,,,,
,,"[""diamond"",""green"",""hori"",""left"",[-106,-106],[-106,106]]",diamond,green,hori,left,"[-106,-106]","[-106,106]",left,1,1.4365,,,,,,001,2025-03-10_18h20.02.138,SL_sali_41,2021.2.3,Win32,60.24096386,,,106,0,106,0,1,,,,,,,,
,,"[""diamond"",""red"",""hori"",""left"",[-106,-106],[150,0]]",diamond,red,hori,left,"[-106,-106]","[150,0]",left,1,1.3018,,,,,,001,2025-03-10_18h20.02.138,SL_sali_41,2021.2.3,Win32,60.24096386,,,107,0,107,0,1,,,,,,,,
,,"[""circle"",""no_dis"",""vert"",""up"",[99999,99999],[106,106]]",circle,no_dis,vert,up,"[99999,99999]","[106,106]",up,1,1.7561,,,,,,001,2025-03-10_18h20.02.138,SL_sali_41,2021.2.3,Win32,60.24096386,,,108,0,108,0,1,,,,,,,,
,,"[""diamond"",""no_dis"",""vert"",""up"",[99999,99999],[-150,0]]",diamond,no_dis,vert,up,"[99999,99999]","[-150,0]",up,1,1.2798,,,,,,001,2025-03-10_18h20.02.138,SL_sali_41,2021.2.3,Win32,60.24096386,,,109,0,109,0,1,,,,,,,,
,,"[""circle"",""red"",""vert"",""up"",[-150,0],[106,106]]",circle,red,vert,up,"[-150,0]","[106,106]",up,1,2.0121,,,,,,001,2025-03-10_18h20.02.138,SL_sali_41,2021.2.3,Win32,60.24096386,,,110,0,110,0,1,,,,,,,,
,,"[""circle"",""green"",""vert"",""up"",[-106,-106],[106,-106]]",circle,green,vert,up,"[-106,-106]","[106,-106]",up,1,1.4964,,,,,,001,2025-03-10_18h20.02.138,SL_sali_41,2021.2.3,Win32,60.24096386,,,111,0,111,0,1,,,,,,,,
,,"[""diamond"",""green"",""vert"",""up"",[-106,106],[-150,0]]",diamond,green,vert,up,"[-106,106]","[-150,0]",up,1,1.3679,,,,,,001,2025-03-10_18h20.02.138,SL_sali_41,2021.2.3,Win32,60.24096386,,,112,0,112,0,1,,,,,,,,
,,"[""circle"",""red"",""vert"",""up"",[-106,-106],[150,0]]",circle,red,vert,up,"[-106,-106]","[150,0]",up,1,1.6136,,,,,,001,2025-03-10_18h20.02.138,SL_sali_41,2021.2.3,Win32,60.24096386,,,113,0,113,0,1,,,,,,,,
,,"[""circle"",""red"",""vert"",""up"",[-106,106],[-150,0]]",circle,red,vert,up,"[-106,106]","[-150,0]",up,1,1.4128,,,,,,001,2025-03-10_18h20.02.138,SL_sali_41,2021.2.3,Win32,60.24096386,,,114,0,114,0,1,,,,,,,,
,,"[""diamond"",""no_dis"",""hori"",""left"",[99999,99999],[-150,0]]",diamond,no_dis,hori,left,"[99999,99999]","[-150,0]",up,0,1.2165,,,,,,001,2025-03-10_18h20.02.138,SL_sali_41,2021.2.3,Win32,60.24096386,,,115,0,115,0,1,,,,,,,,
,,"[""circle"",""red"",""hori"",""left"",[0,150],[106,-106]]",circle,red,hori,left,"[0,150]","[106,-106]",left,1,1.567,,,,,,001,2025-03-10_18h20.02.138,SL_sali_41,2021.2.3,Win32,60.24096386,,,116,0,116,0,1,,,,,,,,
,,"[""diamond"",""no_dis"",""vert"",""up"",[99999,99999],[-106,106]]",diamond,no_dis,vert,up,"[99999,99999]","[-106,106]",up,1,0.9755,,,,,,001,2025-03-10_18h20.02.138,SL_sali_41,2021.2.3,Win32,60.24096386,,,117,0,117,0,1,,,,,,,,
,,"[""diamond"",""green"",""hori"",""left"",[-106,-106],[-106,106]]",diamond,green,hori,left,"[-106,-106]","[-106,106]",left,1,1.4991,,,,,,001,2025-03-10_18h20.02.138,SL_sali_41,2021.2.3,Win32,60.24096386,,,118,0,118,0,1,,,,,,,,
,,"[""diamond"",""green"",""hori"",""left"",[150,0],[106,106]]",diamond,green,hori,left,"[150,0]","[106,106]",left,1,1.4769,,,,,,001,2025-03-10_18h20.02.138,SL_sali_41,2021.2.3,Win32,60.24096386,,,119,0,119,0,1,,,,,,,,
,,"[""circle"",""no_dis"",""hori"",""left"",[99999,99999],[-106,106]]",circle,no_dis,hori,left,"[99999,99999]","[-106,106]",left,1,0.9663,,,,,,001,2025-03-10_18h20.02.138,SL_sali_41,2021.2.3,Win32,60.24096386,,,120,0,120,0,1,,,,,,,,
,,"[""diamond"",""red"",""hori"",""left"",[106,106],[-150,0]]",diamond,red,hori,left,"[106,106]","[-150,0]",left,1,1.1541,,,,,,001,2025-03-10_18h20.02.138,SL_sali_41,2021.2.3,Win32,60.24096386,,,121,0,121,0,1,,,,,,,,
,,"[""diamond"",""no_dis"",""vert"",""up"",[99999,99999],[-150,0]]",diamond,no_dis,vert,up,"[99999,99999]","[-150,0]",up,1,0.9836,,,,,,001,2025-03-10_18h20.02.138,SL_sali_41,2021.2.3,Win32,60.24096386,,,122,0,122,0,1,,,,,,,,
,,"[""diamond"",""red"",""vert"",""up"",[106,-106],[106,106]]",diamond,red,vert,up,"[106,-106]","[106,106]",left,0,2.5513,,,,,,001,2025-03-10_18h20.02.138,SL_sali_41,2021.2.3,Win32,60.24096386,,,123,0,123,0,1,,,,,,,,
,,"[""circle"",""green"",""vert"",""up"",[150,0],[-106,-106]]",circle,green,vert,up,"[150,0]","[-106,-106]",up,1,0.9611,,,,,,001,2025-03-10_18h20.02.138,SL_sali_41,2021.2.3,Win32,60.24096386,,,124,0,124,0,1,,,,,,,,
,,"[""diamond"",""no_dis"",""vert"",""up"",[99999,99999],[150,0]]",diamond,no_dis,vert,up,"[99999,99999]","[150,0]",up,1,1.0959,,,,,,001,2025-03-10_18h20.02.138,SL_sali_41,2021.2.3,Win32,60.24096386,,,125,0,125,0,1,,,,,,,,
,,"[""circle"",""green"",""hori"",""left"",[106,106],[-106,-106]]",circle,green,hori,left,"[106,106]","[-106,-106]",left,1,1.0136,,,,,,001,2025-03-10_18h20.02.138,SL_sali_41,2021.2.3,Win32,60.24096386,,,126,0,126,0,1,,,,,,,,
,,"[""circle"",""no_dis"",""hori"",""left"",[99999,99999],[150,0]]",circle,no_dis,hori,left,"[99999,99999]","[150,0]",left,1,0.8521,,,,,,001,2025-03-10_18h20.02.138,SL_sali_41,2021.2.3,Win32,60.24096386,,,127,0,127,0,1,,,,,,,,
,,,,,,,,,,,,,,,,,001,2025-03-10_18h20.02.138,SL_sali_41,2021.2.3,Win32,60.24096386,,,,,,,,3,space,20.6115,2,0,2,0,1
,,"[""circle"",""green"",""hori"",""left"",[-106,-106],[0,-150]]",circle,green,hori,left,"[-106,-106]","[0,-150]",left,1,2.4964,,,,,,001,2025-03-10_18h20.02.138,SL_sali_41,2021.2.3,Win32,60.24096386,,,0,0,0,0,1,,,,,,,,
,,"[""diamond"",""green"",""hori"",""left"",[106,-106],[150,0]]",diamond,green,hori,left,"[106,-106]","[150,0]",left,1,1.8014,,,,,,001,2025-03-10_18h20.02.138,SL_sali_41,2021.2.3,Win32,60.24096386,,,1,0,1,0,1,,,,,,,,
,,"[""diamond"",""red"",""hori"",""left"",[-106,-106],[106,-106]]",diamond,red,hori,left,"[-106,-106]","[106,-106]",left,1,1.2038,,,,,,001,2025-03-10_18h20.02.138,SL_sali_41,2021.2.3,Win32,60.24096386,,,2,0,2,0,1,,,,,,,,
,,"[""diamond"",""red"",""hori"",""left"",[-106,-106],[150,0]]",diamond,red,hori,left,"[-106,-106]","[150,0]",left,1,1.5768,,,,,,001,2025-03-10_18h20.02.138,SL_sali_41,2021.2.3,Win32,60.24096386,,,3,0,3,0,1,,,,,,,,
,,"[""diamond"",""green"",""vert"",""up"",[0,-150],[106,106]]",diamond,green,vert,up,"[0,-150]","[106,106]",up,1,1.6947,,,,,,001,2025-03-10_18h20.02.138,SL_sali_41,2021.2.3,Win32,60.24096386,,,4,0,4,0,1,,,,,,,,
,,"[""circle"",""red"",""hori"",""left"",[-150,0],[150,0]]",circle,red,hori,left,"[-150,0]","[150,0]",left,1,0.9537,,,,,,001,2025-03-10_18h20.02.138,SL_sali_41,2021.2.3,Win32,60.24096386,,,5,0,5,0,1,,,,,,,,
,,"[""diamond"",""green"",""hori"",""left"",[-106,-106],[150,0]]",diamond,green,hori,left,"[-106,-106]","[150,0]",left,1,1.3981,,,,,,001,2025-03-10_18h20.02.138,SL_sali_41,2021.2.3,Win32,60.24096386,,,6,0,6,0,1,,,,,,,,
,,"[""circle"",""red"",""hori"",""left"",[-106,-106],[150,0]]",circle,red,hori,left,"[-106,-106]","[150,0]",left,1,0.9087,,,,,,001,2025-03-10_18h20.02.138,SL_sali_41,2021.2.3,Win32,60.24096386,,,7,0,7,0,1,,,,,,,,
,,"[""circle"",""green"",""hori"",""left"",[106,-106],[106,106]]",circle,green,hori,left,"[106,-106]","[106,106]",left,1,1.597,,,,,,001,2025-03-10_18h20.02.138,SL_sali_41,2021.2.3,Win32,60.24096386,,,8,0,8,0,1,,,,,,,,
,,"[""diamond"",""green"",""hori"",""left"",[-106,-106],[-150,0]]",diamond,green,hori,left,"[-106,-106]","[-150,0]",left,1,1.9529,,,,,,001,2025-03-10_18h20.02.138,SL_sali_41,2021.2.3,Win32,60.24096386,,,9,0,9,0,1,,,,,,,,
,,"[""diamond"",""red"",""vert"",""up"",[-106,-106],[-106,106]]",diamond,red,vert,up,"[-106,-106]","[-106,106]",up,1,1.3931,,,,,,001,2025-03-10_18h20.02.138,SL_sali_41,2021.2.3,Win32,60.24096386,,,10,0,10,0,1,,,,,,,,
,,"[""circle"",""green"",""vert"",""up"",[-106,-106],[106,106]]",circle,green,vert,up,"[-106,-106]","[106,106]",up,1,1.4991,,,,,,001,2025-03-10_18h20.02.138,SL_sali_41,2021.2.3,Win32,60.24096386,,,11,0,11,0,1,,,,,,,,
,,"[""circle"",""red"",""vert"",""up"",[106,106],[-150,0]]",circle,red,vert,up,"[106,106]","[-150,0]",up,1,1.1815,,,,,,001,2025-03-10_18h20.02.138,SL_sali_41,2021.2.3,Win32,60.24096386,,,12,0,12,0,1,,,,,,,,
,,"[""diamond"",""green"",""hori"",""left"",[150,0],[106,-106]]",diamond,green,hori,left,"[150,0]","[106,-106]",left,1,1.8871,,,,,,001,2025-03-10_18h20.02.138,SL_sali_41,2021.2.3,Win32,60.24096386,,,13,0,13,0,1,,,,,,,,
,,"[""diamond"",""green"",""vert"",""up"",[-106,-106],[-106,106]]",diamond,green,vert,up,"[-106,-106]","[-106,106]",up,1,1.01,,,,,,001,2025-03-10_18h20.02.138,SL_sali_41,2021.2.3,Win32,60.24096386,,,14,0,14,0,1,,,,,,,,
,,"[""circle"",""green"",""vert"",""up"",[150,0],[-106,-106]]",circle,green,vert,up,"[150,0]","[-106,-106]",up,1,1.2433,,,,,,001,2025-03-10_18h20.02.138,SL_sali_41,2021.2.3,Win32,60.24096386,,,15,0,15,0,1,,,,,,,,
,,"[""circle"",""red"",""vert"",""up"",[-106,-106],[106,-106]]",circle,red,vert,up,"[-106,-106]","[106,-106]",up,1,1.5457,,,,,,001,2025-03-10_18h20.02.138,SL_sali_41,2021.2.3,Win32,60.24096386,,,16,0,16,0,1,,,,,,,,
,,"[""diamond"",""red"",""hori"",""left"",[0,150],[-106,106]]",diamond,red,hori,left,"[0,150]","[-106,106]",up,0,2.1763,,,,,,001,2025-03-10_18h20.02.138,SL_sali_41,2021.2.3,Win32,60.24096386,,,17,0,17,0,1,,,,,,,,
,,"[""circle"",""red"",""hori"",""left"",[106,106],[106,-106]]",circle,red,hori,left,"[106,106]","[106,-106]",left,1,1.7337,,,,,,001,2025-03-10_18h20.02.138,SL_sali_41,2021.2.3,Win32,60.24096386,,,18,0,18,0,1,,,,,,,,
,,"[""circle"",""red"",""hori"",""left"",[0,150],[106,-106]]",circle,red,hori,left,"[0,150]","[106,-106]",left,1,1.4843,,,,,,001,2025-03-10_18h20.02.138,SL_sali_41,2021.2.3,Win32,60.24096386,,,19,0,19,0,1,,,,,,,,
,,"[""diamond"",""no_dis"",""hori"",""left"",[99999,99999],[106,106]]",diamond,no_dis,hori,left,"[99999,99999]","[106,106]",left,1,1.3473,,,,,,001,2025-03-10_18h20.02.138,SL_sali_41,2021.2.3,Win32,60.24096386,,,20,0,20,0,1,,,,,,,,
,,"[""circle"",""green"",""vert"",""up"",[0,150],[-106,106]]",circle,green,vert,up,"[0,150]","[-106,106]",up,1,1.169,,,,,,001,2025-03-10_18h20.02.138,SL_sali_41,2021.2.3,Win32,60.24096386,,,21,0,21,0,1,,,,,,,,
,,"[""diamond"",""red"",""vert"",""up"",[150,0],[-150,0]]",diamond,red,vert,up,"[150,0]","[-150,0]",up,1,1.4333,,,,,,001,2025-03-10_18h20.02.138,SL_sali_41,2021.2.3,Win32,60.24096386,,,22,0,22,0,1,,,,,,,,
,,"[""diamond"",""green"",""vert"",""up"",[-106,106],[-150,0]]",diamond,green,vert,up,"[-106,106]","[-150,0]",up,1,2.3153,,,,,,001,2025-03-10_18h20.02.138,SL_sali_41,2021.2.3,Win32,60.24096386,,,23,0,23,0,1,,,,,,,,
,,"[""diamond"",""red"",""hori"",""left"",[-106,-106],[150,0]]",diamond,red,hori,left,"[-106,-106]","[150,0]",left,1,1.2497,,,,,,001,2025-03-10_18h20.02.138,SL_sali_41,2021.2.3,Win32,60.24096386,,,24,0,24,0,1,,,,,,,,
,,"[""circle"",""green"",""vert"",""up"",[106,106],[-106,106]]",circle,green,vert,up,"[106,106]","[-106,106]",up,1,1.4981,,,,,,001,2025-03-10_18h20.02.138,SL_sali_41,2021.2.3,Win32,60.24096386,,,25,0,25,0,1,,,,,,,,
,,"[""circle"",""no_dis"",""vert"",""up"",[99999,99999],[106,106]]",circle,no_dis,vert,up,"[99999,99999]","[106,106]",up,1,1.7244,,,,,,001,2025-03-10_18h20.02.138,SL_sali_41,2021.2.3,Win32,60.24096386,,,26,0,26,0,1,,,,,,,,
,,"[""circle"",""red"",""hori"",""left"",[-106,106],[-150,0]]",circle,red,hori,left,"[-106,106]","[-150,0]",left,1,1.6311,,,,,,001,2025-03-10_18h20.02.138,SL_sali_41,2021.2.3,Win32,60.24096386,,,27,0,27,0,1,,,,,,,,
,,"[""diamond"",""red"",""hori"",""left"",[-106,-106],[-106,106]]",diamond,red,hori,left,"[-106,-106]","[-106,106]",left,1,1.3616,,,,,,001,2025-03-10_18h20.02.138,SL_sali_41,2021.2.3,Win32,60.24096386,,,28,0,28,0,1,,,,,,,,
,,"[""diamond"",""red"",""hori"",""left"",[-106,-106],[106,-106]]",diamond,red,hori,left,"[-106,-106]","[106,-106]",left,1,1.6209,,,,,,001,2025-03-10_18h20.02.138,SL_sali_41,2021.2.3,Win32,60.24096386,,,29,0,29,0,1,,,,,,,,
,,"[""circle"",""red"",""hori"",""left"",[-106,-106],[0,150]]",circle,red,hori,left,"[-106,-106]","[0,150]",left,1,1.3369,,,,,,001,2025-03-10_18h20.02.138,SL_sali_41,2021.2.3,Win32,60.24096386,,,30,0,30,0,1,,,,,,,,
,,"[""diamond"",""green"",""hori"",""left"",[-150,0],[-106,106]]",diamond,green,hori,left,"[-150,0]","[-106,106]",left,1,2.0941,,,,,,001,2025-03-10_18h20.02.138,SL_sali_41,2021.2.3,Win32,60.24096386,,,31,0,31,0,1,,,,,,,,
,,"[""circle"",""no_dis"",""vert"",""up"",[99999,99999],[150,0]]",circle,no_dis,vert,up,"[99999,99999]","[150,0]",up,1,1.6697,,,,,,001,2025-03-10_18h20.02.138,SL_sali_41,2021.2.3,Win32,60.24096386,,,32,0,32,0,1,,,,,,,,
,,"[""diamond"",""red"",""vert"",""up"",[0,-150],[-106,-106]]",diamond,red,vert,up,"[0,-150]","[-106,-106]",up,1,1.5603,,,,,,001,2025-03-10_18h20.02.138,SL_sali_41,2021.2.3,Win32,60.24096386,,,33,0,33,0,1,,,,,,,,
,,"[""diamond"",""red"",""vert"",""up"",[-106,-106],[106,106]]",diamond,red,vert,up,"[-106,-106]","[106,106]",up,1,1.9642,,,,,,001,2025-03-10_18h20.02.138,SL_sali_41,2021.2.3,Win32,60.24096386,,,34,0,34,0,1,,,,,,,,
,,"[""circle"",""no_dis"",""hori"",""left"",[99999,99999],[-106,106]]",circle,no_dis,hori,left,"[99999,99999]","[-106,106]",left,1,0.9481,,,,,,001,2025-03-10_18h20.02.138,SL_sali_41,2021.2.3,Win32,60.24096386,,,35,0,35,0,1,,,,,,,,
,,"[""circle"",""red"",""vert"",""up"",[-106,-106],[150,0]]",circle,red,vert,up,"[-106,-106]","[150,0]",up,1,0.9469,,,,,,001,2025-03-10_18h20.02.138,SL_sali_41,2021.2.3,Win32,60.24096386,,,36,0,36,0,1,,,,,,,,
,,"[""diamond"",""no_dis"",""hori"",""left"",[99999,99999],[106,-106]]",diamond,no_dis,hori,left,"[99999,99999]","[106,-106]",left,1,1.6117,,,,,,001,2025-03-10_18h20.02.138,SL_sali_41,2021.2.3,Win32,60.24096386,,,37,0,37,0,1,,,,,,,,
,,"[""circle"",""no_dis"",""vert"",""up"",[99999,99999],[106,106]]",circle,no_dis,vert,up,"[99999,99999]","[106,106]",up,1,0.8354,,,,,,001,2025-03-10_18h20.02.138,SL_sali_41,2021.2.3,Win32,60.24096386,,,38,0,38,0,1,,,,,,,,
,,"[""circle"",""red"",""vert"",""up"",[106,-106],[-106,106]]",circle,red,vert,up,"[106,-106]","[-106,106]",up,1,0.9318,,,,,,001,2025-03-10_18h20.02.138,SL_sali_41,2021.2.3,Win32,60.24096386,,,39,0,39,0,1,,,,,,,,
,,"[""diamond"",""red"",""vert"",""up"",[-106,-106],[150,0]]",diamond,red,vert,up,"[-106,-106]","[150,0]",up,1,1.3654,,,,,,001,2025-03-10_18h20.02.138,SL_sali_41,2021.2.3,Win32,60.24096386,,,40,0,40,0,1,,,,,,,,
,,"[""diamond"",""no_dis"",""vert"",""up"",[99999,99999],[0,-150]]",diamond,no_dis,vert,up,"[99999,99999]","[0,-150]",up,1,1.7438,,,,,,001,2025-03-10_18h20.02.138,SL_sali_41,2021.2.3,Win32,60.24096386,,,41,0,41,0,1,,,,,,,,
,,"[""diamond"",""green"",""vert"",""up"",[106,-106],[150,0]]",diamond,green,vert,up,"[106,-106]","[150,0]",up,1,1.2669,,,,,,001,2025-03-10_18h20.02.138,SL_sali_41,2021.2.3,Win32,60.24096386,,,42,0,42,0,1,,,,,,,,
,,"[""circle"",""green"",""vert"",""up"",[-106,-106],[106,-106]]",circle,green,vert,up,"[-106,-106]","[106,-106]",up,1,2.3457,,,,,,001,2025-03-10_18h20.02.138,SL_sali_41,2021.2.3,Win32,60.24096386,,,43,0,43,0,1,,,,,,,,
,,"[""circle"",""green"",""vert"",""up"",[150,0],[-106,-106]]",circle,green,vert,up,"[150,0]","[-106,-106]",up,1,0.9302,,,,,,001,2025-03-10_18h20.02.138,SL_sali_41,2021.2.3,Win32,60.24096386,,,44,0,44,0,1,,,,,,,,
,,"[""diamond"",""no_dis"",""vert"",""up"",[99999,99999],[150,0]]",diamond,no_dis,vert,up,"[99999,99999]","[150,0]",up,1,0.9326,,,,,,001,2025-03-10_18h20.02.138,SL_sali_41,2021.2.3,Win32,60.24096386,,,45,0,45,0,1,,,,,,,,
,,"[""diamond"",""no_dis"",""hori"",""left"",[99999,99999],[150,0]]",diamond,no_dis,hori,left,"[99999,99999]","[150,0]",up,0,0.8624,,,,,,001,2025-03-10_18h20.02.138,SL_sali_41,2021.2.3,Win32,60.24096386,,,46,0,46,0,1,,,,,,,,
,,"[""diamond"",""green"",""vert"",""up"",[106,-106],[150,0]]",diamond,green,vert,up,"[106,-106]","[150,0]",up,1,1.4117,,,,,,001,2025-03-10_18h20.02.138,SL_sali_41,2021.2.3,Win32,60.24096386,,,47,0,47,0,1,,,,,,,,
,,"[""diamond"",""no_dis"",""vert"",""up"",[99999,99999],[0,-150]]",diamond,no_dis,vert,up,"[99999,99999]","[0,-150]",up,1,1.2287,,,,,,001,2025-03-10_18h20.02.138,SL_sali_41,2021.2.3,Win32,60.24096386,,,48,0,48,0,1,,,,,,,,
,,"[""diamond"",""no_dis"",""hori"",""left"",[99999,99999],[150,0]]",diamond,no_dis,hori,left,"[99999,99999]","[150,0]",left,1,1.0322,,,,,,001,2025-03-10_18h20.02.138,SL_sali_41,2021.2.3,Win32,60.24096386,,,49,0,49,0,1,,,,,,,,
,,"[""circle"",""green"",""hori"",""left"",[0,150],[-106,-106]]",circle,green,hori,left,"[0,150]","[-106,-106]",left,1,1.5051,,,,,,001,2025-03-10_18h20.02.138,SL_sali_41,2021.2.3,Win32,60.24096386,,,50,0,50,0,1,,,,,,,,
,,"[""diamond"",""no_dis"",""hori"",""left"",[99999,99999],[-150,0]]",diamond,no_dis,hori,left,"[99999,99999]","[-150,0]",left,1,2.5975,,,,,,001,2025-03-10_18h20.02.138,SL_sali_41,2021.2.3,Win32,60.24096386,,,51,0,51,0,1,,,,,,,,
,,"[""circle"",""green"",""hori"",""left"",[106,106],[-106,-106]]",circle,green,hori,left,"[106,106]","[-106,-106]",left,1,1.589,,,,,,001,2025-03-10_18h20.02.138,SL_sali_41,2021.2.3,Win32,60.24096386,,,52,0,52,0,1,,,,,,,,
,,"[""diamond"",""no_dis"",""hori"",""left"",[99999,99999],[-106,-106]]",diamond,no_dis,hori,left,"[99999,99999]","[-106,-106]",up,0,1.6801,,,,,,001,2025-03-10_18h20.02.138,SL_sali_41,2021.2.3,Win32,60.24096386,,,53,0,53,0,1,,,,,,,,
,,"[""diamond"",""green"",""vert"",""up"",[-106,106],[106,-106]]",diamond,green,vert,up,"[-106,106]","[106,-106]",up,1,1.3272,,,,,,001,2025-03-10_18h20.02.138,SL_sali_41,2021.2.3,Win32,60.24096386,,,54,0,54,0,1,,,,,,,,
,,"[""diamond"",""red"",""vert"",""up"",[150,0],[-106,106]]",diamond,red,vert,up,"[150,0]","[-106,106]",up,1,1.0947,,,,,,001,2025-03-10_18h20.02.138,SL_sali_41,2021.2.3,Win32,60.24096386,,,55,0,55,0,1,,,,,,,,
,,"[""diamond"",""red"",""vert"",""up"",[106,-106],[106,106]]",diamond,red,vert,up,"[106,-106]","[106,106]",up,1,2.4135,,,,,,001,2025-03-10_18h20.02.138,SL_sali_41,2021.2.3,Win32,60.24096386,,,56,0,56,0,1,,,,,,,,
,,"[""circle"",""red"",""vert"",""up"",[-106,-106],[-150,0]]",circle,red,vert,up,"[-106,-106]","[-150,0]",up,1,2.013,,,,,,001,2025-03-10_18h20.02.138,SL_sali_41,2021.2.3,Win32,60.24096386,,,57,0,57,0,1,,,,,,,,
,,"[""circle"",""no_dis"",""vert"",""up"",[99999,99999],[0,150]]",circle,no_dis,vert,up,"[99999,99999]","[0,150]",up,1,1.2289,,,,,,001,2025-03-10_18h20.02.138,SL_sali_41,2021.2.3,Win32,60.24096386,,,58,0,58,0,1,,,,,,,,
