﻿key_resp.keys,key_resp.rt,trial_para,tar_shape,dis_color_condi,tar_line,cor_resp,dis_loc,tar_loc,resp.keys,resp.corr,trials.thisRepN,trials.thisTrialN,trials.thisN,trials.thisIndex,trials.ran,participant,date,expName,psychopyVersion,OS,frameRate,resp.rt,key_resp_2.keys,key_resp_2.rt,trials_2.thisRepN,trials_2.thisTrialN,trials_2.thisN,trials_2.thisIndex,trials_2.ran,block_num,key_resp_3.keys,key_resp_3.rt,trials_3.thisRepN,trials_3.thisTrialN,trials_3.thisN,trials_3.thisIndex,trials_3.ran
space,34.0841,"[""diamond"",""red"",""vert"",""up"",[-106,106],[0,150]]",diamond,red,vert,up,"[-106,106]","[0,150]",,0,0,0,0,0,1,001,2025-03-18_10h12.13.060,SL_sali_41,2021.2.3,Win32,59.52380952,,,,,,,,,,,,,,,,
,,"[""diamond"",""red"",""hori"",""left"",[-106,-106],[0,150]]",diamond,red,hori,left,"[-106,-106]","[0,150]",,0,1,0,1,0,1,001,2025-03-18_10h12.13.060,SL_sali_41,2021.2.3,Win32,59.52380952,,,,,,,,,,,,,,,,
,,"[""diamond"",""red"",""hori"",""left"",[-106,106],[150,0]]",diamond,red,hori,left,"[-106,106]","[150,0]",,0,2,0,2,0,1,001,2025-03-18_10h12.13.060,SL_sali_41,2021.2.3,Win32,59.52380952,,,,,,,,,,,,,,,,
,,"[""diamond"",""no_dis"",""hori"",""left"",[99999,99999],[150,0]]",diamond,no_dis,hori,left,"[99999,99999]","[150,0]",,0,3,0,3,0,1,001,2025-03-18_10h12.13.060,SL_sali_41,2021.2.3,Win32,59.52380952,,,,,,,,,,,,,,,,
,,"[""circle"",""red"",""hori"",""left"",[-150,0],[0,-150]]",circle,red,hori,left,"[-150,0]","[0,-150]",,0,4,0,4,0,1,001,2025-03-18_10h12.13.060,SL_sali_41,2021.2.3,Win32,59.52380952,,,,,,,,,,,,,,,,
,,"[""circle"",""red"",""vert"",""up"",[150,0],[-106,106]]",circle,red,vert,up,"[150,0]","[-106,106]",left,0,5,0,5,0,1,001,2025-03-18_10h12.13.060,SL_sali_41,2021.2.3,Win32,59.52380952,2.4143,,,,,,,,,,,,,,,
,,"[""diamond"",""green"",""hori"",""left"",[0,-150],[150,0]]",diamond,green,hori,left,"[0,-150]","[150,0]",left,1,6,0,6,0,1,001,2025-03-18_10h12.13.060,SL_sali_41,2021.2.3,Win32,59.52380952,2.8305,,,,,,,,,,,,,,,
,,"[""circle"",""red"",""vert"",""up"",[-106,106],[106,106]]",circle,red,vert,up,"[-106,106]","[106,106]",left,0,7,0,7,0,1,001,2025-03-18_10h12.13.060,SL_sali_41,2021.2.3,Win32,59.52380952,1.3885,,,,,,,,,,,,,,,
,,"[""diamond"",""green"",""vert"",""up"",[-106,106],[0,-150]]",diamond,green,vert,up,"[-106,106]","[0,-150]",left,0,8,0,8,0,1,001,2025-03-18_10h12.13.060,SL_sali_41,2021.2.3,Win32,59.52380952,2.0199,,,,,,,,,,,,,,,
,,"[""diamond"",""no_dis"",""hori"",""left"",[99999,99999],[-106,106]]",diamond,no_dis,hori,left,"[99999,99999]","[-106,106]",,0,9,0,9,0,1,001,2025-03-18_10h12.13.060,SL_sali_41,2021.2.3,Win32,59.52380952,,,,,,,,,,,,,,,,
,,"[""diamond"",""red"",""vert"",""up"",[-106,106],[0,150]]",diamond,red,vert,up,"[-106,106]","[0,150]",up,1,,,,,,001,2025-03-18_10h12.13.060,SL_sali_41,2021.2.3,Win32,59.52380952,1.6286,space,17.0517,0,0,0,0,1,,,,,,,,
,,"[""diamond"",""red"",""hori"",""left"",[-106,-106],[0,150]]",diamond,red,hori,left,"[-106,-106]","[0,150]",up,0,,,,,,001,2025-03-18_10h12.13.060,SL_sali_41,2021.2.3,Win32,59.52380952,0.8137,,,1,0,1,0,1,,,,,,,,
,,"[""diamond"",""red"",""hori"",""left"",[-106,106],[150,0]]",diamond,red,hori,left,"[-106,106]","[150,0]",left,1,,,,,,001,2025-03-18_10h12.13.060,SL_sali_41,2021.2.3,Win32,59.52380952,2.2327,,,2,0,2,0,1,,,,,,,,
,,"[""diamond"",""no_dis"",""hori"",""left"",[99999,99999],[150,0]]",diamond,no_dis,hori,left,"[99999,99999]","[150,0]",up,0,,,,,,001,2025-03-18_10h12.13.060,SL_sali_41,2021.2.3,Win32,59.52380952,1.9161,,,3,0,3,0,1,,,,,,,,
,,"[""circle"",""red"",""hori"",""left"",[-150,0],[0,-150]]",circle,red,hori,left,"[-150,0]","[0,-150]",,0,,,,,,001,2025-03-18_10h12.13.060,SL_sali_41,2021.2.3,Win32,59.52380952,,,,4,0,4,0,1,,,,,,,,
,,"[""circle"",""red"",""vert"",""up"",[150,0],[-106,106]]",circle,red,vert,up,"[150,0]","[-106,106]",up,1,,,,,,001,2025-03-18_10h12.13.060,SL_sali_41,2021.2.3,Win32,59.52380952,2.0822,,,5,0,5,0,1,,,,,,,,
,,"[""diamond"",""green"",""hori"",""left"",[0,-150],[150,0]]",diamond,green,hori,left,"[0,-150]","[150,0]",left,1,,,,,,001,2025-03-18_10h12.13.060,SL_sali_41,2021.2.3,Win32,59.52380952,1.9397,,,6,0,6,0,1,,,,,,,,
,,"[""circle"",""red"",""vert"",""up"",[-106,106],[106,106]]",circle,red,vert,up,"[-106,106]","[106,106]",up,1,,,,,,001,2025-03-18_10h12.13.060,SL_sali_41,2021.2.3,Win32,59.52380952,0.8496,,,7,0,7,0,1,,,,,,,,
,,"[""diamond"",""green"",""vert"",""up"",[-106,106],[0,-150]]",diamond,green,vert,up,"[-106,106]","[0,-150]",left,0,,,,,,001,2025-03-18_10h12.13.060,SL_sali_41,2021.2.3,Win32,59.52380952,0.7995,,,8,0,8,0,1,,,,,,,,
,,"[""diamond"",""no_dis"",""hori"",""left"",[99999,99999],[-106,106]]",diamond,no_dis,hori,left,"[99999,99999]","[-106,106]",left,1,,,,,,001,2025-03-18_10h12.13.060,SL_sali_41,2021.2.3,Win32,59.52380952,2.2182,,,9,0,9,0,1,,,,,,,,
,,"[""circle"",""no_dis"",""vert"",""up"",[99999,99999],[-150,0]]",circle,no_dis,vert,up,"[99999,99999]","[-150,0]",up,1,,,,,,001,2025-03-18_10h12.13.060,SL_sali_41,2021.2.3,Win32,59.52380952,1.7243,,,10,0,10,0,1,,,,,,,,
,,"[""circle"",""red"",""hori"",""left"",[0,150],[-106,106]]",circle,red,hori,left,"[0,150]","[-106,106]",,0,,,,,,001,2025-03-18_10h12.13.060,SL_sali_41,2021.2.3,Win32,59.52380952,,,,11,0,11,0,1,,,,,,,,
,,"[""diamond"",""green"",""hori"",""left"",[106,-106],[106,106]]",diamond,green,hori,left,"[106,-106]","[106,106]",left,1,,,,,,001,2025-03-18_10h12.13.060,SL_sali_41,2021.2.3,Win32,59.52380952,2.5324,,,12,0,12,0,1,,,,,,,,
,,"[""circle"",""green"",""hori"",""left"",[-106,106],[-106,-106]]",circle,green,hori,left,"[-106,106]","[-106,-106]",left,1,,,,,,001,2025-03-18_10h12.13.060,SL_sali_41,2021.2.3,Win32,59.52380952,1.8163,,,13,0,13,0,1,,,,,,,,
,,"[""diamond"",""no_dis"",""vert"",""up"",[99999,99999],[106,106]]",diamond,no_dis,vert,up,"[99999,99999]","[106,106]",up,1,,,,,,001,2025-03-18_10h12.13.060,SL_sali_41,2021.2.3,Win32,59.52380952,1.5862,,,14,0,14,0,1,,,,,,,,
,,"[""diamond"",""green"",""hori"",""left"",[-106,-106],[0,150]]",diamond,green,hori,left,"[-106,-106]","[0,150]",left,1,,,,,,001,2025-03-18_10h12.13.060,SL_sali_41,2021.2.3,Win32,59.52380952,1.9296,,,15,0,15,0,1,,,,,,,,
,,"[""diamond"",""green"",""vert"",""up"",[-150,0],[0,150]]",diamond,green,vert,up,"[-150,0]","[0,150]",up,1,,,,,,001,2025-03-18_10h12.13.060,SL_sali_41,2021.2.3,Win32,59.52380952,1.4959,,,16,0,16,0,1,,,,,,,,
,,"[""circle"",""red"",""vert"",""up"",[106,-106],[-106,-106]]",circle,red,vert,up,"[106,-106]","[-106,-106]",up,1,,,,,,001,2025-03-18_10h12.13.060,SL_sali_41,2021.2.3,Win32,59.52380952,2.1152,,,17,0,17,0,1,,,,,,,,
,,"[""diamond"",""green"",""vert"",""up"",[-106,106],[106,106]]",diamond,green,vert,up,"[-106,106]","[106,106]",up,1,,,,,,001,2025-03-18_10h12.13.060,SL_sali_41,2021.2.3,Win32,59.52380952,2.0315,,,18,0,18,0,1,,,,,,,,
,,"[""diamond"",""no_dis"",""vert"",""up"",[99999,99999],[0,150]]",diamond,no_dis,vert,up,"[99999,99999]","[0,150]",up,1,,,,,,001,2025-03-18_10h12.13.060,SL_sali_41,2021.2.3,Win32,59.52380952,1.7777,,,19,0,19,0,1,,,,,,,,
,,"[""circle"",""green"",""vert"",""up"",[106,106],[106,-106]]",circle,green,vert,up,"[106,106]","[106,-106]",up,1,,,,,,001,2025-03-18_10h12.13.060,SL_sali_41,2021.2.3,Win32,59.52380952,1.88,,,20,0,20,0,1,,,,,,,,
,,"[""circle"",""green"",""vert"",""up"",[0,-150],[106,106]]",circle,green,vert,up,"[0,-150]","[106,106]",up,1,,,,,,001,2025-03-18_10h12.13.060,SL_sali_41,2021.2.3,Win32,59.52380952,1.3329,,,21,0,21,0,1,,,,,,,,
,,"[""diamond"",""green"",""hori"",""left"",[-106,106],[0,150]]",diamond,green,hori,left,"[-106,106]","[0,150]",left,1,,,,,,001,2025-03-18_10h12.13.060,SL_sali_41,2021.2.3,Win32,59.52380952,1.9279,,,22,0,22,0,1,,,,,,,,
,,"[""diamond"",""red"",""hori"",""left"",[106,-106],[150,0]]",diamond,red,hori,left,"[106,-106]","[150,0]",left,1,,,,,,001,2025-03-18_10h12.13.060,SL_sali_41,2021.2.3,Win32,59.52380952,1.5449,,,23,0,23,0,1,,,,,,,,
,,"[""circle"",""no_dis"",""hori"",""left"",[99999,99999],[106,106]]",circle,no_dis,hori,left,"[99999,99999]","[106,106]",left,1,,,,,,001,2025-03-18_10h12.13.060,SL_sali_41,2021.2.3,Win32,59.52380952,2.1474,,,24,0,24,0,1,,,,,,,,
,,"[""circle"",""red"",""vert"",""up"",[106,-106],[150,0]]",circle,red,vert,up,"[106,-106]","[150,0]",up,1,,,,,,001,2025-03-18_10h12.13.060,SL_sali_41,2021.2.3,Win32,59.52380952,1.068,,,25,0,25,0,1,,,,,,,,
,,"[""circle"",""no_dis"",""hori"",""left"",[99999,99999],[106,106]]",circle,no_dis,hori,left,"[99999,99999]","[106,106]",left,1,,,,,,001,2025-03-18_10h12.13.060,SL_sali_41,2021.2.3,Win32,59.52380952,1.1338,,,26,0,26,0,1,,,,,,,,
,,"[""circle"",""red"",""hori"",""left"",[106,-106],[0,-150]]",circle,red,hori,left,"[106,-106]","[0,-150]",left,1,,,,,,001,2025-03-18_10h12.13.060,SL_sali_41,2021.2.3,Win32,59.52380952,1.1241,,,27,0,27,0,1,,,,,,,,
,,"[""circle"",""no_dis"",""vert"",""up"",[99999,99999],[150,0]]",circle,no_dis,vert,up,"[99999,99999]","[150,0]",up,1,,,,,,001,2025-03-18_10h12.13.060,SL_sali_41,2021.2.3,Win32,59.52380952,1.0976,,,28,0,28,0,1,,,,,,,,
,,"[""circle"",""red"",""hori"",""left"",[-106,106],[0,150]]",circle,red,hori,left,"[-106,106]","[0,150]",left,1,,,,,,001,2025-03-18_10h12.13.060,SL_sali_41,2021.2.3,Win32,59.52380952,2.1757,,,29,0,29,0,1,,,,,,,,
,,"[""circle"",""no_dis"",""vert"",""up"",[99999,99999],[-106,-106]]",circle,no_dis,vert,up,"[99999,99999]","[-106,-106]",up,1,,,,,,001,2025-03-18_10h12.13.060,SL_sali_41,2021.2.3,Win32,59.52380952,1.5336,,,30,0,30,0,1,,,,,,,,
,,"[""diamond"",""no_dis"",""vert"",""up"",[99999,99999],[-106,-106]]",diamond,no_dis,vert,up,"[99999,99999]","[-106,-106]",,0,,,,,,001,2025-03-18_10h12.13.060,SL_sali_41,2021.2.3,Win32,59.52380952,,,,31,0,31,0,1,,,,,,,,
,,"[""circle"",""red"",""hori"",""left"",[0,-150],[106,-106]]",circle,red,hori,left,"[0,-150]","[106,-106]",left,1,,,,,,001,2025-03-18_10h12.13.060,SL_sali_41,2021.2.3,Win32,59.52380952,1.3883,,,32,0,32,0,1,,,,,,,,
,,"[""circle"",""green"",""hori"",""left"",[150,0],[-106,106]]",circle,green,hori,left,"[150,0]","[-106,106]",,0,,,,,,001,2025-03-18_10h12.13.060,SL_sali_41,2021.2.3,Win32,59.52380952,,,,33,0,33,0,1,,,,,,,,
,,"[""circle"",""green"",""vert"",""up"",[-106,106],[150,0]]",circle,green,vert,up,"[-106,106]","[150,0]",up,1,,,,,,001,2025-03-18_10h12.13.060,SL_sali_41,2021.2.3,Win32,59.52380952,1.7793,,,34,0,34,0,1,,,,,,,,
,,"[""circle"",""red"",""vert"",""up"",[-106,106],[-106,-106]]",circle,red,vert,up,"[-106,106]","[-106,-106]",up,1,,,,,,001,2025-03-18_10h12.13.060,SL_sali_41,2021.2.3,Win32,59.52380952,1.2716,,,35,0,35,0,1,,,,,,,,
,,"[""diamond"",""no_dis"",""hori"",""left"",[99999,99999],[0,-150]]",diamond,no_dis,hori,left,"[99999,99999]","[0,-150]",left,1,,,,,,001,2025-03-18_10h12.13.060,SL_sali_41,2021.2.3,Win32,59.52380952,1.6046,,,36,0,36,0,1,,,,,,,,
,,"[""circle"",""red"",""hori"",""left"",[0,-150],[-150,0]]",circle,red,hori,left,"[0,-150]","[-150,0]",left,1,,,,,,001,2025-03-18_10h12.13.060,SL_sali_41,2021.2.3,Win32,59.52380952,1.7011,,,37,0,37,0,1,,,,,,,,
,,"[""circle"",""no_dis"",""vert"",""up"",[99999,99999],[-106,-106]]",circle,no_dis,vert,up,"[99999,99999]","[-106,-106]",up,1,,,,,,001,2025-03-18_10h12.13.060,SL_sali_41,2021.2.3,Win32,59.52380952,1.7476,,,38,0,38,0,1,,,,,,,,
,,"[""diamond"",""no_dis"",""hori"",""left"",[99999,99999],[0,150]]",diamond,no_dis,hori,left,"[99999,99999]","[0,150]",left,1,,,,,,001,2025-03-18_10h12.13.060,SL_sali_41,2021.2.3,Win32,59.52380952,1.1971,,,39,0,39,0,1,,,,,,,,
,,"[""circle"",""no_dis"",""hori"",""left"",[99999,99999],[106,-106]]",circle,no_dis,hori,left,"[99999,99999]","[106,-106]",left,1,,,,,,001,2025-03-18_10h12.13.060,SL_sali_41,2021.2.3,Win32,59.52380952,1.718,,,40,0,40,0,1,,,,,,,,
,,"[""diamond"",""no_dis"",""hori"",""left"",[99999,99999],[-106,106]]",diamond,no_dis,hori,left,"[99999,99999]","[-106,106]",left,1,,,,,,001,2025-03-18_10h12.13.060,SL_sali_41,2021.2.3,Win32,59.52380952,1.3592,,,41,0,41,0,1,,,,,,,,
,,"[""circle"",""red"",""vert"",""up"",[-106,-106],[150,0]]",circle,red,vert,up,"[-106,-106]","[150,0]",up,1,,,,,,001,2025-03-18_10h12.13.060,SL_sali_41,2021.2.3,Win32,59.52380952,1.0976,,,42,0,42,0,1,,,,,,,,
,,"[""circle"",""no_dis"",""hori"",""left"",[99999,99999],[106,-106]]",circle,no_dis,hori,left,"[99999,99999]","[106,-106]",left,1,,,,,,001,2025-03-18_10h12.13.060,SL_sali_41,2021.2.3,Win32,59.52380952,1.1044,,,43,0,43,0,1,,,,,,,,
,,"[""circle"",""no_dis"",""hori"",""left"",[99999,99999],[150,0]]",circle,no_dis,hori,left,"[99999,99999]","[150,0]",left,1,,,,,,001,2025-03-18_10h12.13.060,SL_sali_41,2021.2.3,Win32,59.52380952,0.7285,,,44,0,44,0,1,,,,,,,,
,,"[""circle"",""red"",""vert"",""up"",[-150,0],[0,-150]]",circle,red,vert,up,"[-150,0]","[0,-150]",up,1,,,,,,001,2025-03-18_10h12.13.060,SL_sali_41,2021.2.3,Win32,59.52380952,1.1502,,,45,0,45,0,1,,,,,,,,
,,"[""circle"",""green"",""vert"",""up"",[-106,106],[106,-106]]",circle,green,vert,up,"[-106,106]","[106,-106]",up,1,,,,,,001,2025-03-18_10h12.13.060,SL_sali_41,2021.2.3,Win32,59.52380952,0.6895,,,46,0,46,0,1,,,,,,,,
,,"[""diamond"",""no_dis"",""hori"",""left"",[99999,99999],[-150,0]]",diamond,no_dis,hori,left,"[99999,99999]","[-150,0]",left,1,,,,,,001,2025-03-18_10h12.13.060,SL_sali_41,2021.2.3,Win32,59.52380952,1.4689,,,47,0,47,0,1,,,,,,,,
,,"[""circle"",""green"",""hori"",""left"",[-106,106],[-106,-106]]",circle,green,hori,left,"[-106,106]","[-106,-106]",left,1,,,,,,001,2025-03-18_10h12.13.060,SL_sali_41,2021.2.3,Win32,59.52380952,0.7987,,,48,0,48,0,1,,,,,,,,
,,"[""circle"",""red"",""hori"",""left"",[150,0],[0,-150]]",circle,red,hori,left,"[150,0]","[0,-150]",up,0,,,,,,001,2025-03-18_10h12.13.060,SL_sali_41,2021.2.3,Win32,59.52380952,1.2147,,,49,0,49,0,1,,,,,,,,
,,"[""diamond"",""red"",""hori"",""left"",[-106,-106],[106,106]]",diamond,red,hori,left,"[-106,-106]","[106,106]",left,1,,,,,,001,2025-03-18_10h12.13.060,SL_sali_41,2021.2.3,Win32,59.52380952,2.0802,,,50,0,50,0,1,,,,,,,,
,,"[""circle"",""red"",""vert"",""up"",[0,150],[0,-150]]",circle,red,vert,up,"[0,150]","[0,-150]",up,1,,,,,,001,2025-03-18_10h12.13.060,SL_sali_41,2021.2.3,Win32,59.52380952,1.0189,,,51,0,51,0,1,,,,,,,,
,,"[""circle"",""green"",""hori"",""left"",[-106,106],[-150,0]]",circle,green,hori,left,"[-106,106]","[-150,0]",left,1,,,,,,001,2025-03-18_10h12.13.060,SL_sali_41,2021.2.3,Win32,59.52380952,1.2352,,,52,0,52,0,1,,,,,,,,
,,"[""diamond"",""red"",""hori"",""left"",[0,150],[0,-150]]",diamond,red,hori,left,"[0,150]","[0,-150]",left,1,,,,,,001,2025-03-18_10h12.13.060,SL_sali_41,2021.2.3,Win32,59.52380952,1.5301,,,53,0,53,0,1,,,,,,,,
,,"[""diamond"",""no_dis"",""vert"",""up"",[99999,99999],[-150,0]]",diamond,no_dis,vert,up,"[99999,99999]","[-150,0]",up,1,,,,,,001,2025-03-18_10h12.13.060,SL_sali_41,2021.2.3,Win32,59.52380952,0.8953,,,54,0,54,0,1,,,,,,,,
,,"[""circle"",""red"",""vert"",""up"",[-150,0],[-106,106]]",circle,red,vert,up,"[-150,0]","[-106,106]",left,0,,,,,,001,2025-03-18_10h12.13.060,SL_sali_41,2021.2.3,Win32,59.52380952,1.3531,,,55,0,55,0,1,,,,,,,,
,,"[""diamond"",""green"",""vert"",""up"",[106,106],[0,-150]]",diamond,green,vert,up,"[106,106]","[0,-150]",up,1,,,,,,001,2025-03-18_10h12.13.060,SL_sali_41,2021.2.3,Win32,59.52380952,1.4612,,,56,0,56,0,1,,,,,,,,
,,"[""circle"",""no_dis"",""vert"",""up"",[99999,99999],[0,-150]]",circle,no_dis,vert,up,"[99999,99999]","[0,-150]",up,1,,,,,,001,2025-03-18_10h12.13.060,SL_sali_41,2021.2.3,Win32,59.52380952,2.3334,,,57,0,57,0,1,,,,,,,,
,,"[""diamond"",""no_dis"",""vert"",""up"",[99999,99999],[-150,0]]",diamond,no_dis,vert,up,"[99999,99999]","[-150,0]",up,1,,,,,,001,2025-03-18_10h12.13.060,SL_sali_41,2021.2.3,Win32,59.52380952,1.5619,,,58,0,58,0,1,,,,,,,,
,,"[""diamond"",""green"",""vert"",""up"",[-106,106],[106,106]]",diamond,green,vert,up,"[-106,106]","[106,106]",up,1,,,,,,001,2025-03-18_10h12.13.060,SL_sali_41,2021.2.3,Win32,59.52380952,1.1841,,,59,0,59,0,1,,,,,,,,
,,"[""circle"",""red"",""hori"",""left"",[106,106],[-150,0]]",circle,red,hori,left,"[106,106]","[-150,0]",left,1,,,,,,001,2025-03-18_10h12.13.060,SL_sali_41,2021.2.3,Win32,59.52380952,1.2827,,,60,0,60,0,1,,,,,,,,
,,"[""circle"",""green"",""vert"",""up"",[0,150],[106,106]]",circle,green,vert,up,"[0,150]","[106,106]",up,1,,,,,,001,2025-03-18_10h12.13.060,SL_sali_41,2021.2.3,Win32,59.52380952,1.2132,,,61,0,61,0,1,,,,,,,,
,,"[""circle"",""red"",""vert"",""up"",[-106,106],[106,106]]",circle,red,vert,up,"[-106,106]","[106,106]",up,1,,,,,,001,2025-03-18_10h12.13.060,SL_sali_41,2021.2.3,Win32,59.52380952,1.0844,,,62,0,62,0,1,,,,,,,,
,,"[""diamond"",""green"",""hori"",""left"",[150,0],[0,-150]]",diamond,green,hori,left,"[150,0]","[0,-150]",left,1,,,,,,001,2025-03-18_10h12.13.060,SL_sali_41,2021.2.3,Win32,59.52380952,1.1157,,,63,0,63,0,1,,,,,,,,
,,"[""diamond"",""no_dis"",""vert"",""up"",[99999,99999],[-106,106]]",diamond,no_dis,vert,up,"[99999,99999]","[-106,106]",up,1,,,,,,001,2025-03-18_10h12.13.060,SL_sali_41,2021.2.3,Win32,59.52380952,1.0178,,,64,0,64,0,1,,,,,,,,
,,"[""diamond"",""no_dis"",""vert"",""up"",[99999,99999],[106,-106]]",diamond,no_dis,vert,up,"[99999,99999]","[106,-106]",up,1,,,,,,001,2025-03-18_10h12.13.060,SL_sali_41,2021.2.3,Win32,59.52380952,1.268,,,65,0,65,0,1,,,,,,,,
,,"[""diamond"",""red"",""vert"",""up"",[0,-150],[-106,-106]]",diamond,red,vert,up,"[0,-150]","[-106,-106]",up,1,,,,,,001,2025-03-18_10h12.13.060,SL_sali_41,2021.2.3,Win32,59.52380952,1.3326,,,66,0,66,0,1,,,,,,,,
,,"[""circle"",""red"",""hori"",""left"",[-106,-106],[-106,106]]",circle,red,hori,left,"[-106,-106]","[-106,106]",left,1,,,,,,001,2025-03-18_10h12.13.060,SL_sali_41,2021.2.3,Win32,59.52380952,1.0545,,,67,0,67,0,1,,,,,,,,
,,"[""circle"",""green"",""hori"",""left"",[-150,0],[-106,-106]]",circle,green,hori,left,"[-150,0]","[-106,-106]",left,1,,,,,,001,2025-03-18_10h12.13.060,SL_sali_41,2021.2.3,Win32,59.52380952,1.083,,,68,0,68,0,1,,,,,,,,
,,"[""circle"",""no_dis"",""hori"",""left"",[99999,99999],[150,0]]",circle,no_dis,hori,left,"[99999,99999]","[150,0]",left,1,,,,,,001,2025-03-18_10h12.13.060,SL_sali_41,2021.2.3,Win32,59.52380952,0.7201,,,69,0,69,0,1,,,,,,,,
,,"[""diamond"",""no_dis"",""hori"",""left"",[99999,99999],[-150,0]]",diamond,no_dis,hori,left,"[99999,99999]","[-150,0]",left,1,,,,,,001,2025-03-18_10h12.13.060,SL_sali_41,2021.2.3,Win32,59.52380952,1.1331,,,70,0,70,0,1,,,,,,,,
,,"[""circle"",""no_dis"",""hori"",""left"",[99999,99999],[-106,-106]]",circle,no_dis,hori,left,"[99999,99999]","[-106,-106]",left,1,,,,,,001,2025-03-18_10h12.13.060,SL_sali_41,2021.2.3,Win32,59.52380952,0.8659,,,71,0,71,0,1,,,,,,,,
,,"[""circle"",""green"",""hori"",""left"",[-106,106],[150,0]]",circle,green,hori,left,"[-106,106]","[150,0]",left,1,,,,,,001,2025-03-18_10h12.13.060,SL_sali_41,2021.2.3,Win32,59.52380952,1.0262,,,72,0,72,0,1,,,,,,,,
,,"[""diamond"",""red"",""hori"",""left"",[0,-150],[-150,0]]",diamond,red,hori,left,"[0,-150]","[-150,0]",left,1,,,,,,001,2025-03-18_10h12.13.060,SL_sali_41,2021.2.3,Win32,59.52380952,1.7153,,,73,0,73,0,1,,,,,,,,
,,"[""diamond"",""red"",""hori"",""left"",[-106,106],[150,0]]",diamond,red,hori,left,"[-106,106]","[150,0]",left,1,,,,,,001,2025-03-18_10h12.13.060,SL_sali_41,2021.2.3,Win32,59.52380952,1.6345,,,74,0,74,0,1,,,,,,,,
,,"[""diamond"",""red"",""vert"",""up"",[-106,106],[-150,0]]",diamond,red,vert,up,"[-106,106]","[-150,0]",up,1,,,,,,001,2025-03-18_10h12.13.060,SL_sali_41,2021.2.3,Win32,59.52380952,1.1849,,,75,0,75,0,1,,,,,,,,
,,"[""circle"",""green"",""vert"",""up"",[106,106],[106,-106]]",circle,green,vert,up,"[106,106]","[106,-106]",up,1,,,,,,001,2025-03-18_10h12.13.060,SL_sali_41,2021.2.3,Win32,59.52380952,1.333,,,76,0,76,0,1,,,,,,,,
,,"[""diamond"",""green"",""hori"",""left"",[150,0],[0,150]]",diamond,green,hori,left,"[150,0]","[0,150]",left,1,,,,,,001,2025-03-18_10h12.13.060,SL_sali_41,2021.2.3,Win32,59.52380952,1.1868,,,77,0,77,0,1,,,,,,,,
,,"[""diamond"",""green"",""vert"",""up"",[106,106],[106,-106]]",diamond,green,vert,up,"[106,106]","[106,-106]",up,1,,,,,,001,2025-03-18_10h12.13.060,SL_sali_41,2021.2.3,Win32,59.52380952,1.0201,,,78,0,78,0,1,,,,,,,,
,,"[""diamond"",""red"",""vert"",""up"",[-106,106],[106,106]]",diamond,red,vert,up,"[-106,106]","[106,106]",up,1,,,,,,001,2025-03-18_10h12.13.060,SL_sali_41,2021.2.3,Win32,59.52380952,1.4389,,,79,0,79,0,1,,,,,,,,
,,"[""circle"",""green"",""hori"",""left"",[150,0],[-150,0]]",circle,green,hori,left,"[150,0]","[-150,0]",left,1,,,,,,001,2025-03-18_10h12.13.060,SL_sali_41,2021.2.3,Win32,59.52380952,1.0351,,,80,0,80,0,1,,,,,,,,
,,"[""diamond"",""red"",""vert"",""up"",[-106,106],[0,150]]",diamond,red,vert,up,"[-106,106]","[0,150]",up,1,,,,,,001,2025-03-18_10h12.13.060,SL_sali_41,2021.2.3,Win32,59.52380952,0.9975,,,81,0,81,0,1,,,,,,,,
,,"[""diamond"",""green"",""hori"",""left"",[-106,106],[150,0]]",diamond,green,hori,left,"[-106,106]","[150,0]",left,1,,,,,,001,2025-03-18_10h12.13.060,SL_sali_41,2021.2.3,Win32,59.52380952,0.9165,,,82,0,82,0,1,,,,,,,,
,,"[""circle"",""green"",""vert"",""up"",[-106,106],[106,106]]",circle,green,vert,up,"[-106,106]","[106,106]",up,1,,,,,,001,2025-03-18_10h12.13.060,SL_sali_41,2021.2.3,Win32,59.52380952,0.907,,,83,0,83,0,1,,,,,,,,
,,"[""diamond"",""no_dis"",""vert"",""up"",[99999,99999],[0,-150]]",diamond,no_dis,vert,up,"[99999,99999]","[0,-150]",up,1,,,,,,001,2025-03-18_10h12.13.060,SL_sali_41,2021.2.3,Win32,59.52380952,0.9302,,,84,0,84,0,1,,,,,,,,
,,"[""circle"",""red"",""vert"",""up"",[106,-106],[-106,-106]]",circle,red,vert,up,"[106,-106]","[-106,-106]",up,1,,,,,,001,2025-03-18_10h12.13.060,SL_sali_41,2021.2.3,Win32,59.52380952,1.2152,,,85,0,85,0,1,,,,,,,,
,,"[""diamond"",""no_dis"",""hori"",""left"",[99999,99999],[0,150]]",diamond,no_dis,hori,left,"[99999,99999]","[0,150]",left,1,,,,,,001,2025-03-18_10h12.13.060,SL_sali_41,2021.2.3,Win32,59.52380952,1.0431,,,86,0,86,0,1,,,,,,,,
,,"[""circle"",""no_dis"",""hori"",""left"",[99999,99999],[0,150]]",circle,no_dis,hori,left,"[99999,99999]","[0,150]",left,1,,,,,,001,2025-03-18_10h12.13.060,SL_sali_41,2021.2.3,Win32,59.52380952,1.2428,,,87,0,87,0,1,,,,,,,,
,,"[""diamond"",""red"",""hori"",""left"",[-106,106],[0,-150]]",diamond,red,hori,left,"[-106,106]","[0,-150]",left,1,,,,,,001,2025-03-18_10h12.13.060,SL_sali_41,2021.2.3,Win32,59.52380952,1.3115,,,88,0,88,0,1,,,,,,,,
,,"[""diamond"",""red"",""vert"",""up"",[0,150],[-150,0]]",diamond,red,vert,up,"[0,150]","[-150,0]",up,1,,,,,,001,2025-03-18_10h12.13.060,SL_sali_41,2021.2.3,Win32,59.52380952,1.2936,,,89,0,89,0,1,,,,,,,,
,,"[""circle"",""red"",""hori"",""left"",[-150,0],[150,0]]",circle,red,hori,left,"[-150,0]","[150,0]",left,1,,,,,,001,2025-03-18_10h12.13.060,SL_sali_41,2021.2.3,Win32,59.52380952,1.1989,,,90,0,90,0,1,,,,,,,,
,,"[""diamond"",""red"",""vert"",""up"",[-106,106],[0,150]]",diamond,red,vert,up,"[-106,106]","[0,150]",up,1,,,,,,001,2025-03-18_10h12.13.060,SL_sali_41,2021.2.3,Win32,59.52380952,1.2838,,,91,0,91,0,1,,,,,,,,
,,"[""circle"",""green"",""vert"",""up"",[-106,106],[0,-150]]",circle,green,vert,up,"[-106,106]","[0,-150]",up,1,,,,,,001,2025-03-18_10h12.13.060,SL_sali_41,2021.2.3,Win32,59.52380952,1.1494,,,92,0,92,0,1,,,,,,,,
,,"[""circle"",""green"",""hori"",""left"",[-106,106],[106,-106]]",circle,green,hori,left,"[-106,106]","[106,-106]",left,1,,,,,,001,2025-03-18_10h12.13.060,SL_sali_41,2021.2.3,Win32,59.52380952,1.0496,,,93,0,93,0,1,,,,,,,,
,,"[""diamond"",""green"",""hori"",""left"",[-106,106],[-106,-106]]",diamond,green,hori,left,"[-106,106]","[-106,-106]",left,1,,,,,,001,2025-03-18_10h12.13.060,SL_sali_41,2021.2.3,Win32,59.52380952,1.6478,,,94,0,94,0,1,,,,,,,,
,,"[""diamond"",""no_dis"",""vert"",""up"",[99999,99999],[106,-106]]",diamond,no_dis,vert,up,"[99999,99999]","[106,-106]",up,1,,,,,,001,2025-03-18_10h12.13.060,SL_sali_41,2021.2.3,Win32,59.52380952,0.866,,,95,0,95,0,1,,,,,,,,
,,"[""circle"",""no_dis"",""vert"",""up"",[99999,99999],[-106,106]]",circle,no_dis,vert,up,"[99999,99999]","[-106,106]",up,1,,,,,,001,2025-03-18_10h12.13.060,SL_sali_41,2021.2.3,Win32,59.52380952,1.3325,,,96,0,96,0,1,,,,,,,,
,,"[""circle"",""green"",""vert"",""up"",[106,-106],[0,-150]]",circle,green,vert,up,"[106,-106]","[0,-150]",up,1,,,,,,001,2025-03-18_10h12.13.060,SL_sali_41,2021.2.3,Win32,59.52380952,1.4329,,,97,0,97,0,1,,,,,,,,
,,"[""diamond"",""green"",""vert"",""up"",[-150,0],[0,-150]]",diamond,green,vert,up,"[-150,0]","[0,-150]",up,1,,,,,,001,2025-03-18_10h12.13.060,SL_sali_41,2021.2.3,Win32,59.52380952,1.0495,,,98,0,98,0,1,,,,,,,,
,,"[""diamond"",""green"",""hori"",""left"",[150,0],[106,-106]]",diamond,green,hori,left,"[150,0]","[106,-106]",left,1,,,,,,001,2025-03-18_10h12.13.060,SL_sali_41,2021.2.3,Win32,59.52380952,0.9379,,,99,0,99,0,1,,,,,,,,
,,"[""diamond"",""red"",""vert"",""up"",[-106,106],[0,150]]",diamond,red,vert,up,"[-106,106]","[0,150]",up,1,,,,,,001,2025-03-18_10h12.13.060,SL_sali_41,2021.2.3,Win32,59.52380952,0.9005,,,100,0,100,0,1,,,,,,,,
,,"[""diamond"",""red"",""hori"",""left"",[-106,106],[106,-106]]",diamond,red,hori,left,"[-106,106]","[106,-106]",left,1,,,,,,001,2025-03-18_10h12.13.060,SL_sali_41,2021.2.3,Win32,59.52380952,0.7771,,,101,0,101,0,1,,,,,,,,
,,"[""circle"",""red"",""hori"",""left"",[106,106],[106,-106]]",circle,red,hori,left,"[106,106]","[106,-106]",left,1,,,,,,001,2025-03-18_10h12.13.060,SL_sali_41,2021.2.3,Win32,59.52380952,0.7163,,,102,0,102,0,1,,,,,,,,
,,"[""diamond"",""green"",""hori"",""left"",[150,0],[0,150]]",diamond,green,hori,left,"[150,0]","[0,150]",left,1,,,,,,001,2025-03-18_10h12.13.060,SL_sali_41,2021.2.3,Win32,59.52380952,1.3186,,,103,0,103,0,1,,,,,,,,
,,"[""diamond"",""red"",""hori"",""left"",[0,150],[106,106]]",diamond,red,hori,left,"[0,150]","[106,106]",left,1,,,,,,001,2025-03-18_10h12.13.060,SL_sali_41,2021.2.3,Win32,59.52380952,1.2659,,,104,0,104,0,1,,,,,,,,
,,"[""diamond"",""green"",""vert"",""up"",[-106,-106],[-106,106]]",diamond,green,vert,up,"[-106,-106]","[-106,106]",up,1,,,,,,001,2025-03-18_10h12.13.060,SL_sali_41,2021.2.3,Win32,59.52380952,1.2822,,,105,0,105,0,1,,,,,,,,
,,"[""circle"",""no_dis"",""hori"",""left"",[99999,99999],[-106,-106]]",circle,no_dis,hori,left,"[99999,99999]","[-106,-106]",left,1,,,,,,001,2025-03-18_10h12.13.060,SL_sali_41,2021.2.3,Win32,59.52380952,1.4558,,,106,0,106,0,1,,,,,,,,
,,"[""circle"",""no_dis"",""vert"",""up"",[99999,99999],[106,-106]]",circle,no_dis,vert,up,"[99999,99999]","[106,-106]",up,1,,,,,,001,2025-03-18_10h12.13.060,SL_sali_41,2021.2.3,Win32,59.52380952,0.9329,,,107,0,107,0,1,,,,,,,,
,,"[""diamond"",""green"",""vert"",""up"",[-106,-106],[-106,106]]",diamond,green,vert,up,"[-106,-106]","[-106,106]",left,0,,,,,,001,2025-03-18_10h12.13.060,SL_sali_41,2021.2.3,Win32,59.52380952,0.8594,,,108,0,108,0,1,,,,,,,,
,,"[""circle"",""green"",""hori"",""left"",[0,-150],[-150,0]]",circle,green,hori,left,"[0,-150]","[-150,0]",left,1,,,,,,001,2025-03-18_10h12.13.060,SL_sali_41,2021.2.3,Win32,59.52380952,1.7574,,,109,0,109,0,1,,,,,,,,
,,"[""circle"",""no_dis"",""vert"",""up"",[99999,99999],[0,-150]]",circle,no_dis,vert,up,"[99999,99999]","[0,-150]",up,1,,,,,,001,2025-03-18_10h12.13.060,SL_sali_41,2021.2.3,Win32,59.52380952,0.7691,,,110,0,110,0,1,,,,,,,,
,,"[""diamond"",""no_dis"",""vert"",""up"",[99999,99999],[106,106]]",diamond,no_dis,vert,up,"[99999,99999]","[106,106]",up,1,,,,,,001,2025-03-18_10h12.13.060,SL_sali_41,2021.2.3,Win32,59.52380952,0.7907,,,111,0,111,0,1,,,,,,,,
,,"[""diamond"",""green"",""vert"",""up"",[106,-106],[-106,106]]",diamond,green,vert,up,"[106,-106]","[-106,106]",up,1,,,,,,001,2025-03-18_10h12.13.060,SL_sali_41,2021.2.3,Win32,59.52380952,1.7324,,,112,0,112,0,1,,,,,,,,
,,"[""diamond"",""red"",""hori"",""left"",[0,-150],[150,0]]",diamond,red,hori,left,"[0,-150]","[150,0]",left,1,,,,,,001,2025-03-18_10h12.13.060,SL_sali_41,2021.2.3,Win32,59.52380952,1.3169,,,113,0,113,0,1,,,,,,,,
,,"[""circle"",""green"",""hori"",""left"",[106,106],[-106,106]]",circle,green,hori,left,"[106,106]","[-106,106]",left,1,,,,,,001,2025-03-18_10h12.13.060,SL_sali_41,2021.2.3,Win32,59.52380952,1.6248,,,114,0,114,0,1,,,,,,,,
,,"[""diamond"",""red"",""vert"",""up"",[-106,106],[-150,0]]",diamond,red,vert,up,"[-106,106]","[-150,0]",up,1,,,,,,001,2025-03-18_10h12.13.060,SL_sali_41,2021.2.3,Win32,59.52380952,1.3161,,,115,0,115,0,1,,,,,,,,
,,"[""diamond"",""green"",""hori"",""left"",[0,150],[106,-106]]",diamond,green,hori,left,"[0,150]","[106,-106]",left,1,,,,,,001,2025-03-18_10h12.13.060,SL_sali_41,2021.2.3,Win32,59.52380952,0.8827,,,116,0,116,0,1,,,,,,,,
,,"[""circle"",""green"",""hori"",""left"",[-106,-106],[106,-106]]",circle,green,hori,left,"[-106,-106]","[106,-106]",left,1,,,,,,001,2025-03-18_10h12.13.060,SL_sali_41,2021.2.3,Win32,59.52380952,0.9521,,,117,0,117,0,1,,,,,,,,
,,"[""diamond"",""red"",""vert"",""up"",[-150,0],[106,-106]]",diamond,red,vert,up,"[-150,0]","[106,-106]",up,1,,,,,,001,2025-03-18_10h12.13.060,SL_sali_41,2021.2.3,Win32,59.52380952,0.9994,,,118,0,118,0,1,,,,,,,,
,,"[""circle"",""no_dis"",""hori"",""left"",[99999,99999],[106,106]]",circle,no_dis,hori,left,"[99999,99999]","[106,106]",left,1,,,,,,001,2025-03-18_10h12.13.060,SL_sali_41,2021.2.3,Win32,59.52380952,1.3487,,,119,0,119,0,1,,,,,,,,
,,"[""circle"",""green"",""vert"",""up"",[106,106],[0,-150]]",circle,green,vert,up,"[106,106]","[0,-150]",up,1,,,,,,001,2025-03-18_10h12.13.060,SL_sali_41,2021.2.3,Win32,59.52380952,1.4648,,,120,0,120,0,1,,,,,,,,
,,"[""diamond"",""no_dis"",""hori"",""left"",[99999,99999],[0,-150]]",diamond,no_dis,hori,left,"[99999,99999]","[0,-150]",up,0,,,,,,001,2025-03-18_10h12.13.060,SL_sali_41,2021.2.3,Win32,59.52380952,1.7815,,,121,0,121,0,1,,,,,,,,
,,"[""circle"",""no_dis"",""vert"",""up"",[99999,99999],[0,150]]",circle,no_dis,vert,up,"[99999,99999]","[0,150]",up,1,,,,,,001,2025-03-18_10h12.13.060,SL_sali_41,2021.2.3,Win32,59.52380952,1.7451,,,122,0,122,0,1,,,,,,,,
,,"[""diamond"",""no_dis"",""hori"",""left"",[99999,99999],[-106,106]]",diamond,no_dis,hori,left,"[99999,99999]","[-106,106]",left,1,,,,,,001,2025-03-18_10h12.13.060,SL_sali_41,2021.2.3,Win32,59.52380952,1.5484,,,123,0,123,0,1,,,,,,,,
,,"[""circle"",""green"",""vert"",""up"",[-106,106],[-150,0]]",circle,green,vert,up,"[-106,106]","[-150,0]",up,1,,,,,,001,2025-03-18_10h12.13.060,SL_sali_41,2021.2.3,Win32,59.52380952,1.2657,,,124,0,124,0,1,,,,,,,,
,,"[""diamond"",""red"",""vert"",""up"",[-106,106],[106,106]]",diamond,red,vert,up,"[-106,106]","[106,106]",up,1,,,,,,001,2025-03-18_10h12.13.060,SL_sali_41,2021.2.3,Win32,59.52380952,1.0902,,,125,0,125,0,1,,,,,,,,
,,"[""circle"",""no_dis"",""vert"",""up"",[99999,99999],[150,0]]",circle,no_dis,vert,up,"[99999,99999]","[150,0]",up,1,,,,,,001,2025-03-18_10h12.13.060,SL_sali_41,2021.2.3,Win32,59.52380952,1.0822,,,126,0,126,0,1,,,,,,,,
,,"[""diamond"",""green"",""vert"",""up"",[0,150],[106,106]]",diamond,green,vert,up,"[0,150]","[106,106]",up,1,,,,,,001,2025-03-18_10h12.13.060,SL_sali_41,2021.2.3,Win32,59.52380952,1.5582,,,127,0,127,0,1,,,,,,,,
,,,,,,,,,,,,,,,,001,2025-03-18_10h12.13.060,SL_sali_41,2021.2.3,Win32,59.52380952,,,,,,,,,1,space,81.2688,0,0,0,0,1
,,"[""circle"",""red"",""hori"",""left"",[-106,106],[0,150]]",circle,red,hori,left,"[-106,106]","[0,150]",left,1,,,,,,001,2025-03-18_10h12.13.060,SL_sali_41,2021.2.3,Win32,59.52380952,1.3842,,,0,0,0,0,1,,,,,,,,
,,"[""diamond"",""no_dis"",""vert"",""up"",[99999,99999],[0,-150]]",diamond,no_dis,vert,up,"[99999,99999]","[0,-150]",up,1,,,,,,001,2025-03-18_10h12.13.060,SL_sali_41,2021.2.3,Win32,59.52380952,1.6074,,,1,0,1,0,1,,,,,,,,
,,"[""diamond"",""green"",""hori"",""left"",[106,-106],[106,106]]",diamond,green,hori,left,"[106,-106]","[106,106]",left,1,,,,,,001,2025-03-18_10h12.13.060,SL_sali_41,2021.2.3,Win32,59.52380952,1.0498,,,2,0,2,0,1,,,,,,,,
,,"[""diamond"",""green"",""hori"",""left"",[-106,-106],[0,150]]",diamond,green,hori,left,"[-106,-106]","[0,150]",left,1,,,,,,001,2025-03-18_10h12.13.060,SL_sali_41,2021.2.3,Win32,59.52380952,1.1329,,,3,0,3,0,1,,,,,,,,
,,"[""circle"",""no_dis"",""vert"",""up"",[99999,99999],[150,0]]",circle,no_dis,vert,up,"[99999,99999]","[150,0]",up,1,,,,,,001,2025-03-18_10h12.13.060,SL_sali_41,2021.2.3,Win32,59.52380952,1.047,,,4,0,4,0,1,,,,,,,,
,,"[""circle"",""no_dis"",""hori"",""left"",[99999,99999],[106,-106]]",circle,no_dis,hori,left,"[99999,99999]","[106,-106]",left,1,,,,,,001,2025-03-18_10h12.13.060,SL_sali_41,2021.2.3,Win32,59.52380952,1.0263,,,5,0,5,0,1,,,,,,,,
,,"[""diamond"",""no_dis"",""hori"",""left"",[99999,99999],[0,150]]",diamond,no_dis,hori,left,"[99999,99999]","[0,150]",left,1,,,,,,001,2025-03-18_10h12.13.060,SL_sali_41,2021.2.3,Win32,59.52380952,1.0029,,,6,0,6,0,1,,,,,,,,
,,"[""diamond"",""red"",""vert"",""up"",[0,150],[-150,0]]",diamond,red,vert,up,"[0,150]","[-150,0]",up,1,,,,,,001,2025-03-18_10h12.13.060,SL_sali_41,2021.2.3,Win32,59.52380952,1.0717,,,7,0,7,0,1,,,,,,,,
,,"[""diamond"",""green"",""hori"",""left"",[-106,106],[0,150]]",diamond,green,hori,left,"[-106,106]","[0,150]",left,1,,,,,,001,2025-03-18_10h12.13.060,SL_sali_41,2021.2.3,Win32,59.52380952,0.8501,,,8,0,8,0,1,,,,,,,,
,,"[""diamond"",""no_dis"",""vert"",""up"",[99999,99999],[-150,0]]",diamond,no_dis,vert,up,"[99999,99999]","[-150,0]",up,1,,,,,,001,2025-03-18_10h12.13.060,SL_sali_41,2021.2.3,Win32,59.52380952,0.8603,,,9,0,9,0,1,,,,,,,,
,,"[""circle"",""red"",""vert"",""up"",[-106,106],[106,106]]",circle,red,vert,up,"[-106,106]","[106,106]",left,0,,,,,,001,2025-03-18_10h12.13.060,SL_sali_41,2021.2.3,Win32,59.52380952,1.3603,,,10,0,10,0,1,,,,,,,,
,,"[""circle"",""red"",""vert"",""up"",[-150,0],[-106,106]]",circle,red,vert,up,"[-150,0]","[-106,106]",up,1,,,,,,001,2025-03-18_10h12.13.060,SL_sali_41,2021.2.3,Win32,59.52380952,1.717,,,11,0,11,0,1,,,,,,,,
,,"[""diamond"",""no_dis"",""vert"",""up"",[99999,99999],[106,-106]]",diamond,no_dis,vert,up,"[99999,99999]","[106,-106]",up,1,,,,,,001,2025-03-18_10h12.13.060,SL_sali_41,2021.2.3,Win32,59.52380952,1.1,,,12,0,12,0,1,,,,,,,,
,,"[""diamond"",""green"",""hori"",""left"",[0,-150],[150,0]]",diamond,green,hori,left,"[0,-150]","[150,0]",left,1,,,,,,001,2025-03-18_10h12.13.060,SL_sali_41,2021.2.3,Win32,59.52380952,1.1156,,,13,0,13,0,1,,,,,,,,
,,"[""circle"",""green"",""hori"",""left"",[150,0],[-106,106]]",circle,green,hori,left,"[150,0]","[-106,106]",up,0,,,,,,001,2025-03-18_10h12.13.060,SL_sali_41,2021.2.3,Win32,59.52380952,0.9595,,,14,0,14,0,1,,,,,,,,
,,"[""diamond"",""no_dis"",""hori"",""left"",[99999,99999],[-106,106]]",diamond,no_dis,hori,left,"[99999,99999]","[-106,106]",left,1,,,,,,001,2025-03-18_10h12.13.060,SL_sali_41,2021.2.3,Win32,59.52380952,0.9252,,,15,0,15,0,1,,,,,,,,
,,"[""circle"",""no_dis"",""hori"",""left"",[99999,99999],[150,0]]",circle,no_dis,hori,left,"[99999,99999]","[150,0]",left,1,,,,,,001,2025-03-18_10h12.13.060,SL_sali_41,2021.2.3,Win32,59.52380952,0.9039,,,16,0,16,0,1,,,,,,,,
,,"[""circle"",""green"",""hori"",""left"",[-106,106],[-150,0]]",circle,green,hori,left,"[-106,106]","[-150,0]",left,1,,,,,,001,2025-03-18_10h12.13.060,SL_sali_41,2021.2.3,Win32,59.52380952,0.9931,,,17,0,17,0,1,,,,,,,,
,,"[""circle"",""green"",""vert"",""up"",[0,-150],[106,106]]",circle,green,vert,up,"[0,-150]","[106,106]",up,1,,,,,,001,2025-03-18_10h12.13.060,SL_sali_41,2021.2.3,Win32,59.52380952,0.9829,,,18,0,18,0,1,,,,,,,,
,,"[""diamond"",""red"",""hori"",""left"",[0,-150],[-150,0]]",diamond,red,hori,left,"[0,-150]","[-150,0]",left,1,,,,,,001,2025-03-18_10h12.13.060,SL_sali_41,2021.2.3,Win32,59.52380952,1.1517,,,19,0,19,0,1,,,,,,,,
,,"[""circle"",""no_dis"",""hori"",""left"",[99999,99999],[-106,-106]]",circle,no_dis,hori,left,"[99999,99999]","[-106,-106]",up,0,,,,,,001,2025-03-18_10h12.13.060,SL_sali_41,2021.2.3,Win32,59.52380952,1.7225,,,20,0,20,0,1,,,,,,,,
,,"[""circle"",""no_dis"",""hori"",""left"",[99999,99999],[106,106]]",circle,no_dis,hori,left,"[99999,99999]","[106,106]",left,1,,,,,,001,2025-03-18_10h12.13.060,SL_sali_41,2021.2.3,Win32,59.52380952,0.9196,,,21,0,21,0,1,,,,,,,,
,,"[""circle"",""green"",""hori"",""left"",[-106,106],[150,0]]",circle,green,hori,left,"[-106,106]","[150,0]",left,1,,,,,,001,2025-03-18_10h12.13.060,SL_sali_41,2021.2.3,Win32,59.52380952,1.019,,,22,0,22,0,1,,,,,,,,
,,"[""circle"",""green"",""hori"",""left"",[-106,-106],[106,-106]]",circle,green,hori,left,"[-106,-106]","[106,-106]",left,1,,,,,,001,2025-03-18_10h12.13.060,SL_sali_41,2021.2.3,Win32,59.52380952,0.9966,,,23,0,23,0,1,,,,,,,,
,,"[""diamond"",""red"",""vert"",""up"",[-150,0],[106,-106]]",diamond,red,vert,up,"[-150,0]","[106,-106]",up,1,,,,,,001,2025-03-18_10h12.13.060,SL_sali_41,2021.2.3,Win32,59.52380952,1.2994,,,24,0,24,0,1,,,,,,,,
,,"[""diamond"",""red"",""hori"",""left"",[106,-106],[150,0]]",diamond,red,hori,left,"[106,-106]","[150,0]",left,1,,,,,,001,2025-03-18_10h12.13.060,SL_sali_41,2021.2.3,Win32,59.52380952,1.6277,,,25,0,25,0,1,,,,,,,,
,,"[""circle"",""no_dis"",""hori"",""left"",[99999,99999],[150,0]]",circle,no_dis,hori,left,"[99999,99999]","[150,0]",left,1,,,,,,001,2025-03-18_10h12.13.060,SL_sali_41,2021.2.3,Win32,59.52380952,0.7514,,,26,0,26,0,1,,,,,,,,
,,"[""diamond"",""red"",""hori"",""left"",[-106,106],[106,-106]]",diamond,red,hori,left,"[-106,106]","[106,-106]",left,1,,,,,,001,2025-03-18_10h12.13.060,SL_sali_41,2021.2.3,Win32,59.52380952,1.3725,,,27,0,27,0,1,,,,,,,,
,,"[""circle"",""green"",""vert"",""up"",[-106,106],[106,-106]]",circle,green,vert,up,"[-106,106]","[106,-106]",up,1,,,,,,001,2025-03-18_10h12.13.060,SL_sali_41,2021.2.3,Win32,59.52380952,0.7593,,,28,0,28,0,1,,,,,,,,
,,"[""circle"",""red"",""hori"",""left"",[0,150],[-106,106]]",circle,red,hori,left,"[0,150]","[-106,106]",left,1,,,,,,001,2025-03-18_10h12.13.060,SL_sali_41,2021.2.3,Win32,59.52380952,0.9124,,,29,0,29,0,1,,,,,,,,
,,"[""diamond"",""red"",""hori"",""left"",[-106,106],[0,-150]]",diamond,red,hori,left,"[-106,106]","[0,-150]",left,1,,,,,,001,2025-03-18_10h12.13.060,SL_sali_41,2021.2.3,Win32,59.52380952,0.9261,,,30,0,30,0,1,,,,,,,,
,,"[""diamond"",""no_dis"",""vert"",""up"",[99999,99999],[0,150]]",diamond,no_dis,vert,up,"[99999,99999]","[0,150]",up,1,,,,,,001,2025-03-18_10h12.13.060,SL_sali_41,2021.2.3,Win32,59.52380952,0.7463,,,31,0,31,0,1,,,,,,,,
,,"[""diamond"",""red"",""hori"",""left"",[0,-150],[150,0]]",diamond,red,hori,left,"[0,-150]","[150,0]",left,1,,,,,,001,2025-03-18_10h12.13.060,SL_sali_41,2021.2.3,Win32,59.52380952,1.2137,,,32,0,32,0,1,,,,,,,,
,,"[""circle"",""green"",""hori"",""left"",[-150,0],[-106,-106]]",circle,green,hori,left,"[-150,0]","[-106,-106]",left,1,,,,,,001,2025-03-18_10h12.13.060,SL_sali_41,2021.2.3,Win32,59.52380952,1.0956,,,33,0,33,0,1,,,,,,,,
,,"[""diamond"",""green"",""hori"",""left"",[-106,106],[150,0]]",diamond,green,hori,left,"[-106,106]","[150,0]",left,1,,,,,,001,2025-03-18_10h12.13.060,SL_sali_41,2021.2.3,Win32,59.52380952,1.0573,,,34,0,34,0,1,,,,,,,,
,,"[""diamond"",""no_dis"",""hori"",""left"",[99999,99999],[-150,0]]",diamond,no_dis,hori,left,"[99999,99999]","[-150,0]",left,1,,,,,,001,2025-03-18_10h12.13.060,SL_sali_41,2021.2.3,Win32,59.52380952,0.8332,,,35,0,35,0,1,,,,,,,,
,,"[""diamond"",""red"",""vert"",""up"",[-106,106],[0,150]]",diamond,red,vert,up,"[-106,106]","[0,150]",left,0,,,,,,001,2025-03-18_10h12.13.060,SL_sali_41,2021.2.3,Win32,59.52380952,1.6824,,,36,0,36,0,1,,,,,,,,
,,"[""diamond"",""no_dis"",""hori"",""left"",[99999,99999],[-150,0]]",diamond,no_dis,hori,left,"[99999,99999]","[-150,0]",left,1,,,,,,001,2025-03-18_10h12.13.060,SL_sali_41,2021.2.3,Win32,59.52380952,0.7061,,,37,0,37,0,1,,,,,,,,
,,"[""diamond"",""green"",""vert"",""up"",[106,106],[106,-106]]",diamond,green,vert,up,"[106,106]","[106,-106]",left,0,,,,,,001,2025-03-18_10h12.13.060,SL_sali_41,2021.2.3,Win32,59.52380952,0.806,,,38,0,38,0,1,,,,,,,,
,,"[""circle"",""green"",""vert"",""up"",[-106,106],[150,0]]",circle,green,vert,up,"[-106,106]","[150,0]",up,1,,,,,,001,2025-03-18_10h12.13.060,SL_sali_41,2021.2.3,Win32,59.52380952,1.4993,,,39,0,39,0,1,,,,,,,,
,,"[""circle"",""red"",""hori"",""left"",[106,-106],[0,-150]]",circle,red,hori,left,"[106,-106]","[0,-150]",left,1,,,,,,001,2025-03-18_10h12.13.060,SL_sali_41,2021.2.3,Win32,59.52380952,0.8716,,,40,0,40,0,1,,,,,,,,
,,"[""diamond"",""green"",""vert"",""up"",[-150,0],[0,150]]",diamond,green,vert,up,"[-150,0]","[0,150]",up,1,,,,,,001,2025-03-18_10h12.13.060,SL_sali_41,2021.2.3,Win32,59.52380952,0.9291,,,41,0,41,0,1,,,,,,,,
,,"[""circle"",""red"",""hori"",""left"",[-106,-106],[-106,106]]",circle,red,hori,left,"[-106,-106]","[-106,106]",left,1,,,,,,001,2025-03-18_10h12.13.060,SL_sali_41,2021.2.3,Win32,59.52380952,0.9281,,,42,0,42,0,1,,,,,,,,
,,"[""circle"",""red"",""vert"",""up"",[106,-106],[150,0]]",circle,red,vert,up,"[106,-106]","[150,0]",up,1,,,,,,001,2025-03-18_10h12.13.060,SL_sali_41,2021.2.3,Win32,59.52380952,0.7501,,,43,0,43,0,1,,,,,,,,
,,"[""circle"",""red"",""hori"",""left"",[106,106],[106,-106]]",circle,red,hori,left,"[106,106]","[106,-106]",left,1,,,,,,001,2025-03-18_10h12.13.060,SL_sali_41,2021.2.3,Win32,59.52380952,0.7558,,,44,0,44,0,1,,,,,,,,
,,"[""circle"",""red"",""vert"",""up"",[106,-106],[-106,-106]]",circle,red,vert,up,"[106,-106]","[-106,-106]",up,1,,,,,,001,2025-03-18_10h12.13.060,SL_sali_41,2021.2.3,Win32,59.52380952,0.8961,,,45,0,45,0,1,,,,,,,,
,,"[""circle"",""no_dis"",""vert"",""up"",[99999,99999],[106,-106]]",circle,no_dis,vert,up,"[99999,99999]","[106,-106]",up,1,,,,,,001,2025-03-18_10h12.13.060,SL_sali_41,2021.2.3,Win32,59.52380952,0.6167,,,46,0,46,0,1,,,,,,,,
,,"[""diamond"",""green"",""hori"",""left"",[-106,106],[-106,-106]]",diamond,green,hori,left,"[-106,106]","[-106,-106]",left,1,,,,,,001,2025-03-18_10h12.13.060,SL_sali_41,2021.2.3,Win32,59.52380952,0.9461,,,47,0,47,0,1,,,,,,,,
,,"[""circle"",""green"",""vert"",""up"",[106,106],[0,-150]]",circle,green,vert,up,"[106,106]","[0,-150]",up,1,,,,,,001,2025-03-18_10h12.13.060,SL_sali_41,2021.2.3,Win32,59.52380952,0.8493,,,48,0,48,0,1,,,,,,,,
,,"[""circle"",""green"",""vert"",""up"",[0,150],[106,106]]",circle,green,vert,up,"[0,150]","[106,106]",up,1,,,,,,001,2025-03-18_10h12.13.060,SL_sali_41,2021.2.3,Win32,59.52380952,0.6857,,,49,0,49,0,1,,,,,,,,
,,"[""circle"",""no_dis"",""hori"",""left"",[99999,99999],[0,150]]",circle,no_dis,hori,left,"[99999,99999]","[0,150]",left,1,,,,,,001,2025-03-18_10h12.13.060,SL_sali_41,2021.2.3,Win32,59.52380952,0.7081,,,50,0,50,0,1,,,,,,,,
,,"[""circle"",""green"",""hori"",""left"",[-106,106],[-106,-106]]",circle,green,hori,left,"[-106,106]","[-106,-106]",left,1,,,,,,001,2025-03-18_10h12.13.060,SL_sali_41,2021.2.3,Win32,59.52380952,1.1159,,,51,0,51,0,1,,,,,,,,
,,"[""circle"",""red"",""hori"",""left"",[-150,0],[150,0]]",circle,red,hori,left,"[-150,0]","[150,0]",up,0,,,,,,001,2025-03-18_10h12.13.060,SL_sali_41,2021.2.3,Win32,59.52380952,1.2967,,,52,0,52,0,1,,,,,,,,
,,"[""diamond"",""red"",""vert"",""up"",[-106,106],[106,106]]",diamond,red,vert,up,"[-106,106]","[106,106]",up,1,,,,,,001,2025-03-18_10h12.13.060,SL_sali_41,2021.2.3,Win32,59.52380952,1.449,,,53,0,53,0,1,,,,,,,,
,,"[""circle"",""green"",""vert"",""up"",[106,106],[106,-106]]",circle,green,vert,up,"[106,106]","[106,-106]",left,0,,,,,,001,2025-03-18_10h12.13.060,SL_sali_41,2021.2.3,Win32,59.52380952,0.6602,,,54,0,54,0,1,,,,,,,,
,,"[""diamond"",""red"",""hori"",""left"",[-106,106],[150,0]]",diamond,red,hori,left,"[-106,106]","[150,0]",left,1,,,,,,001,2025-03-18_10h12.13.060,SL_sali_41,2021.2.3,Win32,59.52380952,1.2721,,,55,0,55,0,1,,,,,,,,
,,"[""diamond"",""no_dis"",""vert"",""up"",[99999,99999],[-150,0]]",diamond,no_dis,vert,up,"[99999,99999]","[-150,0]",up,1,,,,,,001,2025-03-18_10h12.13.060,SL_sali_41,2021.2.3,Win32,59.52380952,0.7341,,,56,0,56,0,1,,,,,,,,
,,"[""diamond"",""no_dis"",""vert"",""up"",[99999,99999],[106,106]]",diamond,no_dis,vert,up,"[99999,99999]","[106,106]",up,1,,,,,,001,2025-03-18_10h12.13.060,SL_sali_41,2021.2.3,Win32,59.52380952,0.8334,,,57,0,57,0,1,,,,,,,,
,,"[""circle"",""red"",""vert"",""up"",[-106,106],[-106,-106]]",circle,red,vert,up,"[-106,106]","[-106,-106]",up,1,,,,,,001,2025-03-18_10h12.13.060,SL_sali_41,2021.2.3,Win32,59.52380952,1.0359,,,58,0,58,0,1,,,,,,,,
,,"[""diamond"",""green"",""vert"",""up"",[106,106],[0,-150]]",diamond,green,vert,up,"[106,106]","[0,-150]",up,1,,,,,,001,2025-03-18_10h12.13.060,SL_sali_41,2021.2.3,Win32,59.52380952,0.933,,,59,0,59,0,1,,,,,,,,
,,"[""diamond"",""green"",""vert"",""up"",[-150,0],[0,-150]]",diamond,green,vert,up,"[-150,0]","[0,-150]",up,1,,,,,,001,2025-03-18_10h12.13.060,SL_sali_41,2021.2.3,Win32,59.52380952,1.2281,,,60,0,60,0,1,,,,,,,,
,,"[""diamond"",""red"",""hori"",""left"",[0,150],[106,106]]",diamond,red,hori,left,"[0,150]","[106,106]",left,1,,,,,,001,2025-03-18_10h12.13.060,SL_sali_41,2021.2.3,Win32,59.52380952,2.0484,,,61,0,61,0,1,,,,,,,,
,,"[""circle"",""red"",""hori"",""left"",[106,106],[-150,0]]",circle,red,hori,left,"[106,106]","[-150,0]",left,1,,,,,,001,2025-03-18_10h12.13.060,SL_sali_41,2021.2.3,Win32,59.52380952,0.6246,,,62,0,62,0,1,,,,,,,,
,,"[""circle"",""no_dis"",""vert"",""up"",[99999,99999],[0,-150]]",circle,no_dis,vert,up,"[99999,99999]","[0,-150]",up,1,,,,,,001,2025-03-18_10h12.13.060,SL_sali_41,2021.2.3,Win32,59.52380952,0.7093,,,63,0,63,0,1,,,,,,,,
,,"[""circle"",""red"",""hori"",""left"",[0,-150],[106,-106]]",circle,red,hori,left,"[0,-150]","[106,-106]",left,1,,,,,,001,2025-03-18_10h12.13.060,SL_sali_41,2021.2.3,Win32,59.52380952,0.7913,,,64,0,64,0,1,,,,,,,,
,,"[""diamond"",""red"",""vert"",""up"",[0,-150],[-106,-106]]",diamond,red,vert,up,"[0,-150]","[-106,-106]",up,1,,,,,,001,2025-03-18_10h12.13.060,SL_sali_41,2021.2.3,Win32,59.52380952,0.856,,,65,0,65,0,1,,,,,,,,
,,"[""diamond"",""no_dis"",""hori"",""left"",[99999,99999],[0,150]]",diamond,no_dis,hori,left,"[99999,99999]","[0,150]",left,1,,,,,,001,2025-03-18_10h12.13.060,SL_sali_41,2021.2.3,Win32,59.52380952,1.1035,,,66,0,66,0,1,,,,,,,,
,,"[""diamond"",""red"",""hori"",""left"",[-106,-106],[106,106]]",diamond,red,hori,left,"[-106,-106]","[106,106]",left,1,,,,,,001,2025-03-18_10h12.13.060,SL_sali_41,2021.2.3,Win32,59.52380952,1.2159,,,67,0,67,0,1,,,,,,,,
,,"[""circle"",""green"",""hori"",""left"",[106,106],[-106,106]]",circle,green,hori,left,"[106,106]","[-106,106]",up,0,,,,,,001,2025-03-18_10h12.13.060,SL_sali_41,2021.2.3,Win32,59.52380952,1.3499,,,68,0,68,0,1,,,,,,,,
,,"[""circle"",""no_dis"",""vert"",""up"",[99999,99999],[-106,106]]",circle,no_dis,vert,up,"[99999,99999]","[-106,106]",up,1,,,,,,001,2025-03-18_10h12.13.060,SL_sali_41,2021.2.3,Win32,59.52380952,1.5951,,,69,0,69,0,1,,,,,,,,
,,"[""diamond"",""red"",""vert"",""up"",[-106,106],[106,106]]",diamond,red,vert,up,"[-106,106]","[106,106]",up,1,,,,,,001,2025-03-18_10h12.13.060,SL_sali_41,2021.2.3,Win32,59.52380952,1.4931,,,70,0,70,0,1,,,,,,,,
,,"[""circle"",""red"",""hori"",""left"",[0,-150],[-150,0]]",circle,red,hori,left,"[0,-150]","[-150,0]",left,1,,,,,,001,2025-03-18_10h12.13.060,SL_sali_41,2021.2.3,Win32,59.52380952,1.5328,,,71,0,71,0,1,,,,,,,,
,,"[""diamond"",""green"",""hori"",""left"",[150,0],[0,150]]",diamond,green,hori,left,"[150,0]","[0,150]",up,0,,,,,,001,2025-03-18_10h12.13.060,SL_sali_41,2021.2.3,Win32,59.52380952,0.9355,,,72,0,72,0,1,,,,,,,,
,,"[""circle"",""red"",""vert"",""up"",[150,0],[-106,106]]",circle,red,vert,up,"[150,0]","[-106,106]",up,1,,,,,,001,2025-03-18_10h12.13.060,SL_sali_41,2021.2.3,Win32,59.52380952,1.279,,,73,0,73,0,1,,,,,,,,
,,"[""diamond"",""no_dis"",""hori"",""left"",[99999,99999],[150,0]]",diamond,no_dis,hori,left,"[99999,99999]","[150,0]",left,1,,,,,,001,2025-03-18_10h12.13.060,SL_sali_41,2021.2.3,Win32,59.52380952,0.7499,,,74,0,74,0,1,,,,,,,,
,,"[""diamond"",""green"",""vert"",""up"",[-106,-106],[-106,106]]",diamond,green,vert,up,"[-106,-106]","[-106,106]",up,1,,,,,,001,2025-03-18_10h12.13.060,SL_sali_41,2021.2.3,Win32,59.52380952,1.6158,,,75,0,75,0,1,,,,,,,,
,,"[""circle"",""no_dis"",""hori"",""left"",[99999,99999],[106,-106]]",circle,no_dis,hori,left,"[99999,99999]","[106,-106]",left,1,,,,,,001,2025-03-18_10h12.13.060,SL_sali_41,2021.2.3,Win32,59.52380952,0.7492,,,76,0,76,0,1,,,,,,,,
,,"[""diamond"",""red"",""vert"",""up"",[-106,106],[-150,0]]",diamond,red,vert,up,"[-106,106]","[-150,0]",up,1,,,,,,001,2025-03-18_10h12.13.060,SL_sali_41,2021.2.3,Win32,59.52380952,1.272,,,77,0,77,0,1,,,,,,,,
,,"[""diamond"",""green"",""vert"",""up"",[-106,106],[0,-150]]",diamond,green,vert,up,"[-106,106]","[0,-150]",up,1,,,,,,001,2025-03-18_10h12.13.060,SL_sali_41,2021.2.3,Win32,59.52380952,0.9956,,,78,0,78,0,1,,,,,,,,
,,"[""diamond"",""no_dis"",""vert"",""up"",[99999,99999],[106,-106]]",diamond,no_dis,vert,up,"[99999,99999]","[106,-106]",up,1,,,,,,001,2025-03-18_10h12.13.060,SL_sali_41,2021.2.3,Win32,59.52380952,0.7328,,,79,0,79,0,1,,,,,,,,
,,"[""diamond"",""green"",""vert"",""up"",[-106,106],[106,106]]",diamond,green,vert,up,"[-106,106]","[106,106]",up,1,,,,,,001,2025-03-18_10h12.13.060,SL_sali_41,2021.2.3,Win32,59.52380952,1.2161,,,80,0,80,0,1,,,,,,,,
,,"[""diamond"",""red"",""hori"",""left"",[-106,-106],[0,150]]",diamond,red,hori,left,"[-106,-106]","[0,150]",left,1,,,,,,001,2025-03-18_10h12.13.060,SL_sali_41,2021.2.3,Win32,59.52380952,1.1413,,,81,0,81,0,1,,,,,,,,
,,"[""circle"",""green"",""hori"",""left"",[150,0],[-150,0]]",circle,green,hori,left,"[150,0]","[-150,0]",left,1,,,,,,001,2025-03-18_10h12.13.060,SL_sali_41,2021.2.3,Win32,59.52380952,1.2892,,,82,0,82,0,1,,,,,,,,
,,"[""diamond"",""red"",""hori"",""left"",[-106,106],[150,0]]",diamond,red,hori,left,"[-106,106]","[150,0]",left,1,,,,,,001,2025-03-18_10h12.13.060,SL_sali_41,2021.2.3,Win32,59.52380952,1.0109,,,83,0,83,0,1,,,,,,,,
,,"[""circle"",""red"",""hori"",""left"",[150,0],[0,-150]]",circle,red,hori,left,"[150,0]","[0,-150]",up,0,,,,,,001,2025-03-18_10h12.13.060,SL_sali_41,2021.2.3,Win32,59.52380952,0.9363,,,84,0,84,0,1,,,,,,,,
,,"[""diamond"",""no_dis"",""hori"",""left"",[99999,99999],[0,-150]]",diamond,no_dis,hori,left,"[99999,99999]","[0,-150]",left,1,,,,,,001,2025-03-18_10h12.13.060,SL_sali_41,2021.2.3,Win32,59.52380952,0.7725,,,85,0,85,0,1,,,,,,,,
,,"[""diamond"",""no_dis"",""hori"",""left"",[99999,99999],[-106,106]]",diamond,no_dis,hori,left,"[99999,99999]","[-106,106]",left,1,,,,,,001,2025-03-18_10h12.13.060,SL_sali_41,2021.2.3,Win32,59.52380952,0.8348,,,86,0,86,0,1,,,,,,,,
,,"[""diamond"",""red"",""hori"",""left"",[0,150],[0,-150]]",diamond,red,hori,left,"[0,150]","[0,-150]",left,1,,,,,,001,2025-03-18_10h12.13.060,SL_sali_41,2021.2.3,Win32,59.52380952,1.0159,,,87,0,87,0,1,,,,,,,,
,,"[""circle"",""no_dis"",""hori"",""left"",[99999,99999],[-106,-106]]",circle,no_dis,hori,left,"[99999,99999]","[-106,-106]",left,1,,,,,,001,2025-03-18_10h12.13.060,SL_sali_41,2021.2.3,Win32,59.52380952,1.1155,,,88,0,88,0,1,,,,,,,,
,,"[""diamond"",""green"",""vert"",""up"",[0,150],[106,106]]",diamond,green,vert,up,"[0,150]","[106,106]",up,1,,,,,,001,2025-03-18_10h12.13.060,SL_sali_41,2021.2.3,Win32,59.52380952,0.999,,,89,0,89,0,1,,,,,,,,
,,"[""diamond"",""red"",""vert"",""up"",[-106,106],[0,150]]",diamond,red,vert,up,"[-106,106]","[0,150]",up,1,,,,,,001,2025-03-18_10h12.13.060,SL_sali_41,2021.2.3,Win32,59.52380952,1.0493,,,90,0,90,0,1,,,,,,,,
,,"[""diamond"",""green"",""hori"",""left"",[150,0],[106,-106]]",diamond,green,hori,left,"[150,0]","[106,-106]",left,1,,,,,,001,2025-03-18_10h12.13.060,SL_sali_41,2021.2.3,Win32,59.52380952,0.9432,,,91,0,91,0,1,,,,,,,,
,,"[""circle"",""green"",""hori"",""left"",[-106,106],[106,-106]]",circle,green,hori,left,"[-106,106]","[106,-106]",left,1,,,,,,001,2025-03-18_10h12.13.060,SL_sali_41,2021.2.3,Win32,59.52380952,1.2028,,,92,0,92,0,1,,,,,,,,
,,"[""diamond"",""no_dis"",""vert"",""up"",[99999,99999],[-106,-106]]",diamond,no_dis,vert,up,"[99999,99999]","[-106,-106]",up,1,,,,,,001,2025-03-18_10h12.13.060,SL_sali_41,2021.2.3,Win32,59.52380952,0.9492,,,93,0,93,0,1,,,,,,,,
,,"[""circle"",""no_dis"",""vert"",""up"",[99999,99999],[-106,-106]]",circle,no_dis,vert,up,"[99999,99999]","[-106,-106]",up,1,,,,,,001,2025-03-18_10h12.13.060,SL_sali_41,2021.2.3,Win32,59.52380952,1.0164,,,94,0,94,0,1,,,,,,,,
,,"[""diamond"",""red"",""vert"",""up"",[-106,106],[0,150]]",diamond,red,vert,up,"[-106,106]","[0,150]",left,0,,,,,,001,2025-03-18_10h12.13.060,SL_sali_41,2021.2.3,Win32,59.52380952,1.0995,,,95,0,95,0,1,,,,,,,,
,,"[""diamond"",""green"",""hori"",""left"",[150,0],[0,-150]]",diamond,green,hori,left,"[150,0]","[0,-150]",left,1,,,,,,001,2025-03-18_10h12.13.060,SL_sali_41,2021.2.3,Win32,59.52380952,1.0917,,,96,0,96,0,1,,,,,,,,
,,"[""diamond"",""red"",""vert"",""up"",[-106,106],[-150,0]]",diamond,red,vert,up,"[-106,106]","[-150,0]",up,1,,,,,,001,2025-03-18_10h12.13.060,SL_sali_41,2021.2.3,Win32,59.52380952,1.1517,,,97,0,97,0,1,,,,,,,,
,,"[""diamond"",""green"",""vert"",""up"",[-106,106],[106,106]]",diamond,green,vert,up,"[-106,106]","[106,106]",up,1,,,,,,001,2025-03-18_10h12.13.060,SL_sali_41,2021.2.3,Win32,59.52380952,0.8962,,,98,0,98,0,1,,,,,,,,
,,"[""circle"",""no_dis"",""vert"",""up"",[99999,99999],[-106,-106]]",circle,no_dis,vert,up,"[99999,99999]","[-106,-106]",up,1,,,,,,001,2025-03-18_10h12.13.060,SL_sali_41,2021.2.3,Win32,59.52380952,1.1131,,,99,0,99,0,1,,,,,,,,
,,"[""circle"",""red"",""vert"",""up"",[-106,-106],[150,0]]",circle,red,vert,up,"[-106,-106]","[150,0]",left,0,,,,,,001,2025-03-18_10h12.13.060,SL_sali_41,2021.2.3,Win32,59.52380952,1.0994,,,100,0,100,0,1,,,,,,,,
,,"[""circle"",""green"",""vert"",""up"",[-106,106],[0,-150]]",circle,green,vert,up,"[-106,106]","[0,-150]",up,1,,,,,,001,2025-03-18_10h12.13.060,SL_sali_41,2021.2.3,Win32,59.52380952,1.466,,,101,0,101,0,1,,,,,,,,
,,"[""diamond"",""no_dis"",""hori"",""left"",[99999,99999],[-106,106]]",diamond,no_dis,hori,left,"[99999,99999]","[-106,106]",left,1,,,,,,001,2025-03-18_10h12.13.060,SL_sali_41,2021.2.3,Win32,59.52380952,1.299,,,102,0,102,0,1,,,,,,,,
,,"[""circle"",""green"",""vert"",""up"",[106,-106],[0,-150]]",circle,green,vert,up,"[106,-106]","[0,-150]",left,0,,,,,,001,2025-03-18_10h12.13.060,SL_sali_41,2021.2.3,Win32,59.52380952,0.9018,,,103,0,103,0,1,,,,,,,,
,,"[""circle"",""no_dis"",""vert"",""up"",[99999,99999],[150,0]]",circle,no_dis,vert,up,"[99999,99999]","[150,0]",up,1,,,,,,001,2025-03-18_10h12.13.060,SL_sali_41,2021.2.3,Win32,59.52380952,0.8493,,,104,0,104,0,1,,,,,,,,
,,"[""circle"",""green"",""hori"",""left"",[-106,106],[-106,-106]]",circle,green,hori,left,"[-106,106]","[-106,-106]",left,1,,,,,,001,2025-03-18_10h12.13.060,SL_sali_41,2021.2.3,Win32,59.52380952,1.1717,,,105,0,105,0,1,,,,,,,,
,,"[""circle"",""red"",""vert"",""up"",[-150,0],[0,-150]]",circle,red,vert,up,"[-150,0]","[0,-150]",up,1,,,,,,001,2025-03-18_10h12.13.060,SL_sali_41,2021.2.3,Win32,59.52380952,1.2157,,,106,0,106,0,1,,,,,,,,
,,"[""circle"",""green"",""hori"",""left"",[0,-150],[-150,0]]",circle,green,hori,left,"[0,-150]","[-150,0]",left,1,,,,,,001,2025-03-18_10h12.13.060,SL_sali_41,2021.2.3,Win32,59.52380952,0.8735,,,107,0,107,0,1,,,,,,,,
,,"[""circle"",""green"",""vert"",""up"",[106,106],[106,-106]]",circle,green,vert,up,"[106,106]","[106,-106]",up,1,,,,,,001,2025-03-18_10h12.13.060,SL_sali_41,2021.2.3,Win32,59.52380952,0.8667,,,108,0,108,0,1,,,,,,,,
,,"[""circle"",""red"",""vert"",""up"",[0,150],[0,-150]]",circle,red,vert,up,"[0,150]","[0,-150]",up,1,,,,,,001,2025-03-18_10h12.13.060,SL_sali_41,2021.2.3,Win32,59.52380952,0.7829,,,109,0,109,0,1,,,,,,,,
,,"[""circle"",""no_dis"",""vert"",""up"",[99999,99999],[0,-150]]",circle,no_dis,vert,up,"[99999,99999]","[0,-150]",up,1,,,,,,001,2025-03-18_10h12.13.060,SL_sali_41,2021.2.3,Win32,59.52380952,0.5652,,,110,0,110,0,1,,,,,,,,
,,"[""diamond"",""green"",""vert"",""up"",[106,-106],[-106,106]]",diamond,green,vert,up,"[106,-106]","[-106,106]",up,1,,,,,,001,2025-03-18_10h12.13.060,SL_sali_41,2021.2.3,Win32,59.52380952,1.2215,,,111,0,111,0,1,,,,,,,,
,,"[""diamond"",""green"",""hori"",""left"",[150,0],[0,150]]",diamond,green,hori,left,"[150,0]","[0,150]",left,1,,,,,,001,2025-03-18_10h12.13.060,SL_sali_41,2021.2.3,Win32,59.52380952,1.4518,,,112,0,112,0,1,,,,,,,,
,,"[""diamond"",""red"",""vert"",""up"",[-106,106],[0,150]]",diamond,red,vert,up,"[-106,106]","[0,150]",up,1,,,,,,001,2025-03-18_10h12.13.060,SL_sali_41,2021.2.3,Win32,59.52380952,1.0825,,,113,0,113,0,1,,,,,,,,
,,"[""circle"",""no_dis"",""hori"",""left"",[99999,99999],[106,106]]",circle,no_dis,hori,left,"[99999,99999]","[106,106]",left,1,,,,,,001,2025-03-18_10h12.13.060,SL_sali_41,2021.2.3,Win32,59.52380952,1.172,,,114,0,114,0,1,,,,,,,,
,,"[""circle"",""no_dis"",""vert"",""up"",[99999,99999],[0,150]]",circle,no_dis,vert,up,"[99999,99999]","[0,150]",up,1,,,,,,001,2025-03-18_10h12.13.060,SL_sali_41,2021.2.3,Win32,59.52380952,0.7162,,,115,0,115,0,1,,,,,,,,
,,"[""diamond"",""green"",""vert"",""up"",[-106,-106],[-106,106]]",diamond,green,vert,up,"[-106,-106]","[-106,106]",up,1,,,,,,001,2025-03-18_10h12.13.060,SL_sali_41,2021.2.3,Win32,59.52380952,1.2511,,,116,0,116,0,1,,,,,,,,
,,"[""circle"",""no_dis"",""hori"",""left"",[99999,99999],[106,106]]",circle,no_dis,hori,left,"[99999,99999]","[106,106]",left,1,,,,,,001,2025-03-18_10h12.13.060,SL_sali_41,2021.2.3,Win32,59.52380952,1.1644,,,117,0,117,0,1,,,,,,,,
,,"[""circle"",""no_dis"",""vert"",""up"",[99999,99999],[-150,0]]",circle,no_dis,vert,up,"[99999,99999]","[-150,0]",up,1,,,,,,001,2025-03-18_10h12.13.060,SL_sali_41,2021.2.3,Win32,59.52380952,0.743,,,118,0,118,0,1,,,,,,,,
,,"[""diamond"",""no_dis"",""hori"",""left"",[99999,99999],[0,-150]]",diamond,no_dis,hori,left,"[99999,99999]","[0,-150]",left,1,,,,,,001,2025-03-18_10h12.13.060,SL_sali_41,2021.2.3,Win32,59.52380952,1.2028,,,119,0,119,0,1,,,,,,,,
,,"[""diamond"",""no_dis"",""vert"",""up"",[99999,99999],[106,106]]",diamond,no_dis,vert,up,"[99999,99999]","[106,106]",up,1,,,,,,001,2025-03-18_10h12.13.060,SL_sali_41,2021.2.3,Win32,59.52380952,0.7408,,,120,0,120,0,1,,,,,,,,
,,"[""diamond"",""green"",""hori"",""left"",[0,150],[106,-106]]",diamond,green,hori,left,"[0,150]","[106,-106]",left,1,,,,,,001,2025-03-18_10h12.13.060,SL_sali_41,2021.2.3,Win32,59.52380952,1.0172,,,121,0,121,0,1,,,,,,,,
,,"[""circle"",""red"",""hori"",""left"",[-150,0],[0,-150]]",circle,red,hori,left,"[-150,0]","[0,-150]",left,1,,,,,,001,2025-03-18_10h12.13.060,SL_sali_41,2021.2.3,Win32,59.52380952,1.0372,,,122,0,122,0,1,,,,,,,,
,,"[""circle"",""red"",""vert"",""up"",[106,-106],[-106,-106]]",circle,red,vert,up,"[106,-106]","[-106,-106]",up,1,,,,,,001,2025-03-18_10h12.13.060,SL_sali_41,2021.2.3,Win32,59.52380952,0.9663,,,123,0,123,0,1,,,,,,,,
,,"[""circle"",""green"",""vert"",""up"",[-106,106],[106,106]]",circle,green,vert,up,"[-106,106]","[106,106]",up,1,,,,,,001,2025-03-18_10h12.13.060,SL_sali_41,2021.2.3,Win32,59.52380952,0.8803,,,124,0,124,0,1,,,,,,,,
,,"[""circle"",""red"",""vert"",""up"",[-106,106],[106,106]]",circle,red,vert,up,"[-106,106]","[106,106]",up,1,,,,,,001,2025-03-18_10h12.13.060,SL_sali_41,2021.2.3,Win32,59.52380952,0.6356,,,125,0,125,0,1,,,,,,,,
,,"[""diamond"",""no_dis"",""vert"",""up"",[99999,99999],[-106,106]]",diamond,no_dis,vert,up,"[99999,99999]","[-106,106]",up,1,,,,,,001,2025-03-18_10h12.13.060,SL_sali_41,2021.2.3,Win32,59.52380952,1.3326,,,126,0,126,0,1,,,,,,,,
,,"[""circle"",""green"",""vert"",""up"",[-106,106],[-150,0]]",circle,green,vert,up,"[-106,106]","[-150,0]",up,1,,,,,,001,2025-03-18_10h12.13.060,SL_sali_41,2021.2.3,Win32,59.52380952,1.099,,,127,0,127,0,1,,,,,,,,
,,,,,,,,,,,,,,,,001,2025-03-18_10h12.13.060,SL_sali_41,2021.2.3,Win32,59.52380952,,,,,,,,,2,space,22.1018,1,0,1,0,1
,,"[""diamond"",""green"",""vert"",""up"",[-150,0],[0,-150]]",diamond,green,vert,up,"[-150,0]","[0,-150]",up,1,,,,,,001,2025-03-18_10h12.13.060,SL_sali_41,2021.2.3,Win32,59.52380952,1.0654,,,0,0,0,0,1,,,,,,,,
,,"[""diamond"",""no_dis"",""hori"",""left"",[99999,99999],[150,0]]",diamond,no_dis,hori,left,"[99999,99999]","[150,0]",left,1,,,,,,001,2025-03-18_10h12.13.060,SL_sali_41,2021.2.3,Win32,59.52380952,0.6559,,,1,0,1,0,1,,,,,,,,
,,"[""diamond"",""green"",""hori"",""left"",[-106,106],[0,150]]",diamond,green,hori,left,"[-106,106]","[0,150]",left,1,,,,,,001,2025-03-18_10h12.13.060,SL_sali_41,2021.2.3,Win32,59.52380952,0.8079,,,2,0,2,0,1,,,,,,,,
,,"[""circle"",""red"",""vert"",""up"",[-106,106],[106,106]]",circle,red,vert,up,"[-106,106]","[106,106]",up,1,,,,,,001,2025-03-18_10h12.13.060,SL_sali_41,2021.2.3,Win32,59.52380952,0.6459,,,3,0,3,0,1,,,,,,,,
,,"[""circle"",""red"",""hori"",""left"",[-150,0],[0,-150]]",circle,red,hori,left,"[-150,0]","[0,-150]",left,1,,,,,,001,2025-03-18_10h12.13.060,SL_sali_41,2021.2.3,Win32,59.52380952,0.8385,,,4,0,4,0,1,,,,,,,,
,,"[""diamond"",""red"",""hori"",""left"",[0,-150],[150,0]]",diamond,red,hori,left,"[0,-150]","[150,0]",left,1,,,,,,001,2025-03-18_10h12.13.060,SL_sali_41,2021.2.3,Win32,59.52380952,1.3165,,,5,0,5,0,1,,,,,,,,
,,"[""circle"",""green"",""hori"",""left"",[0,-150],[-150,0]]",circle,green,hori,left,"[0,-150]","[-150,0]",left,1,,,,,,001,2025-03-18_10h12.13.060,SL_sali_41,2021.2.3,Win32,59.52380952,1.0365,,,6,0,6,0,1,,,,,,,,
,,"[""diamond"",""red"",""vert"",""up"",[0,150],[-150,0]]",diamond,red,vert,up,"[0,150]","[-150,0]",up,1,,,,,,001,2025-03-18_10h12.13.060,SL_sali_41,2021.2.3,Win32,59.52380952,0.9497,,,7,0,7,0,1,,,,,,,,
,,"[""circle"",""no_dis"",""vert"",""up"",[99999,99999],[0,-150]]",circle,no_dis,vert,up,"[99999,99999]","[0,-150]",up,1,,,,,,001,2025-03-18_10h12.13.060,SL_sali_41,2021.2.3,Win32,59.52380952,1.3765,,,8,0,8,0,1,,,,,,,,
,,"[""circle"",""no_dis"",""hori"",""left"",[99999,99999],[0,150]]",circle,no_dis,hori,left,"[99999,99999]","[0,150]",left,1,,,,,,001,2025-03-18_10h12.13.060,SL_sali_41,2021.2.3,Win32,59.52380952,0.8863,,,9,0,9,0,1,,,,,,,,
,,"[""circle"",""green"",""hori"",""left"",[150,0],[-150,0]]",circle,green,hori,left,"[150,0]","[-150,0]",left,1,,,,,,001,2025-03-18_10h12.13.060,SL_sali_41,2021.2.3,Win32,59.52380952,0.8504,,,10,0,10,0,1,,,,,,,,
,,"[""circle"",""green"",""vert"",""up"",[106,106],[0,-150]]",circle,green,vert,up,"[106,106]","[0,-150]",up,1,,,,,,001,2025-03-18_10h12.13.060,SL_sali_41,2021.2.3,Win32,59.52380952,0.8943,,,11,0,11,0,1,,,,,,,,
,,"[""circle"",""green"",""vert"",""up"",[-106,106],[106,106]]",circle,green,vert,up,"[-106,106]","[106,106]",up,1,,,,,,001,2025-03-18_10h12.13.060,SL_sali_41,2021.2.3,Win32,59.52380952,0.6401,,,12,0,12,0,1,,,,,,,,
,,"[""circle"",""red"",""vert"",""up"",[-106,106],[106,106]]",circle,red,vert,up,"[-106,106]","[106,106]",up,1,,,,,,001,2025-03-18_10h12.13.060,SL_sali_41,2021.2.3,Win32,59.52380952,1.4719,,,13,0,13,0,1,,,,,,,,
,,"[""diamond"",""no_dis"",""vert"",""up"",[99999,99999],[0,-150]]",diamond,no_dis,vert,up,"[99999,99999]","[0,-150]",up,1,,,,,,001,2025-03-18_10h12.13.060,SL_sali_41,2021.2.3,Win32,59.52380952,0.9779,,,14,0,14,0,1,,,,,,,,
,,"[""diamond"",""green"",""hori"",""left"",[150,0],[0,150]]",diamond,green,hori,left,"[150,0]","[0,150]",left,1,,,,,,001,2025-03-18_10h12.13.060,SL_sali_41,2021.2.3,Win32,59.52380952,0.8567,,,15,0,15,0,1,,,,,,,,
,,"[""diamond"",""green"",""vert"",""up"",[-106,106],[0,-150]]",diamond,green,vert,up,"[-106,106]","[0,-150]",up,1,,,,,,001,2025-03-18_10h12.13.060,SL_sali_41,2021.2.3,Win32,59.52380952,1.0824,,,16,0,16,0,1,,,,,,,,
,,"[""diamond"",""red"",""hori"",""left"",[-106,106],[150,0]]",diamond,red,hori,left,"[-106,106]","[150,0]",left,1,,,,,,001,2025-03-18_10h12.13.060,SL_sali_41,2021.2.3,Win32,59.52380952,0.856,,,17,0,17,0,1,,,,,,,,
,,"[""diamond"",""green"",""hori"",""left"",[0,-150],[150,0]]",diamond,green,hori,left,"[0,-150]","[150,0]",left,1,,,,,,001,2025-03-18_10h12.13.060,SL_sali_41,2021.2.3,Win32,59.52380952,1.3578,,,18,0,18,0,1,,,,,,,,
,,"[""circle"",""green"",""vert"",""up"",[0,150],[106,106]]",circle,green,vert,up,"[0,150]","[106,106]",up,1,,,,,,001,2025-03-18_10h12.13.060,SL_sali_41,2021.2.3,Win32,59.52380952,2.3487,,,19,0,19,0,1,,,,,,,,
,,"[""diamond"",""no_dis"",""hori"",""left"",[99999,99999],[0,150]]",diamond,no_dis,hori,left,"[99999,99999]","[0,150]",left,1,,,,,,001,2025-03-18_10h12.13.060,SL_sali_41,2021.2.3,Win32,59.52380952,0.8657,,,20,0,20,0,1,,,,,,,,
,,"[""circle"",""no_dis"",""vert"",""up"",[99999,99999],[150,0]]",circle,no_dis,vert,up,"[99999,99999]","[150,0]",up,1,,,,,,001,2025-03-18_10h12.13.060,SL_sali_41,2021.2.3,Win32,59.52380952,1.2761,,,21,0,21,0,1,,,,,,,,
,,"[""circle"",""green"",""hori"",""left"",[106,106],[-106,106]]",circle,green,hori,left,"[106,106]","[-106,106]",left,1,,,,,,001,2025-03-18_10h12.13.060,SL_sali_41,2021.2.3,Win32,59.52380952,1.8669,,,22,0,22,0,1,,,,,,,,
,,"[""circle"",""green"",""vert"",""up"",[106,-106],[0,-150]]",circle,green,vert,up,"[106,-106]","[0,-150]",up,1,,,,,,001,2025-03-18_10h12.13.060,SL_sali_41,2021.2.3,Win32,59.52380952,1.0339,,,23,0,23,0,1,,,,,,,,
,,"[""diamond"",""green"",""vert"",""up"",[106,106],[0,-150]]",diamond,green,vert,up,"[106,106]","[0,-150]",left,0,,,,,,001,2025-03-18_10h12.13.060,SL_sali_41,2021.2.3,Win32,59.52380952,1.0325,,,24,0,24,0,1,,,,,,,,
,,"[""diamond"",""no_dis"",""hori"",""left"",[99999,99999],[-106,106]]",diamond,no_dis,hori,left,"[99999,99999]","[-106,106]",left,1,,,,,,001,2025-03-18_10h12.13.060,SL_sali_41,2021.2.3,Win32,59.52380952,0.9995,,,25,0,25,0,1,,,,,,,,
,,"[""circle"",""no_dis"",""hori"",""left"",[99999,99999],[106,106]]",circle,no_dis,hori,left,"[99999,99999]","[106,106]",left,1,,,,,,001,2025-03-18_10h12.13.060,SL_sali_41,2021.2.3,Win32,59.52380952,0.6499,,,26,0,26,0,1,,,,,,,,
,,"[""diamond"",""red"",""vert"",""up"",[-106,106],[0,150]]",diamond,red,vert,up,"[-106,106]","[0,150]",up,1,,,,,,001,2025-03-18_10h12.13.060,SL_sali_41,2021.2.3,Win32,59.52380952,1.0493,,,27,0,27,0,1,,,,,,,,
,,"[""circle"",""green"",""hori"",""left"",[-106,-106],[106,-106]]",circle,green,hori,left,"[-106,-106]","[106,-106]",left,1,,,,,,001,2025-03-18_10h12.13.060,SL_sali_41,2021.2.3,Win32,59.52380952,1.4826,,,28,0,28,0,1,,,,,,,,
,,"[""circle"",""red"",""vert"",""up"",[-106,106],[-106,-106]]",circle,red,vert,up,"[-106,106]","[-106,-106]",up,1,,,,,,001,2025-03-18_10h12.13.060,SL_sali_41,2021.2.3,Win32,59.52380952,0.7671,,,29,0,29,0,1,,,,,,,,
,,"[""diamond"",""green"",""vert"",""up"",[-106,106],[106,106]]",diamond,green,vert,up,"[-106,106]","[106,106]",up,1,,,,,,001,2025-03-18_10h12.13.060,SL_sali_41,2021.2.3,Win32,59.52380952,0.7419,,,30,0,30,0,1,,,,,,,,
,,"[""diamond"",""green"",""vert"",""up"",[-106,-106],[-106,106]]",diamond,green,vert,up,"[-106,-106]","[-106,106]",up,1,,,,,,001,2025-03-18_10h12.13.060,SL_sali_41,2021.2.3,Win32,59.52380952,0.9829,,,31,0,31,0,1,,,,,,,,
,,"[""circle"",""red"",""hori"",""left"",[0,-150],[106,-106]]",circle,red,hori,left,"[0,-150]","[106,-106]",left,1,,,,,,001,2025-03-18_10h12.13.060,SL_sali_41,2021.2.3,Win32,59.52380952,0.7406,,,32,0,32,0,1,,,,,,,,
,,"[""diamond"",""green"",""hori"",""left"",[150,0],[0,150]]",diamond,green,hori,left,"[150,0]","[0,150]",up,0,,,,,,001,2025-03-18_10h12.13.060,SL_sali_41,2021.2.3,Win32,59.52380952,0.7991,,,33,0,33,0,1,,,,,,,,
,,"[""circle"",""no_dis"",""hori"",""left"",[99999,99999],[106,-106]]",circle,no_dis,hori,left,"[99999,99999]","[106,-106]",left,1,,,,,,001,2025-03-18_10h12.13.060,SL_sali_41,2021.2.3,Win32,59.52380952,0.8351,,,34,0,34,0,1,,,,,,,,
,,"[""circle"",""red"",""vert"",""up"",[106,-106],[-106,-106]]",circle,red,vert,up,"[106,-106]","[-106,-106]",up,1,,,,,,001,2025-03-18_10h12.13.060,SL_sali_41,2021.2.3,Win32,59.52380952,1.1659,,,35,0,35,0,1,,,,,,,,
,,"[""circle"",""red"",""vert"",""up"",[-150,0],[-106,106]]",circle,red,vert,up,"[-150,0]","[-106,106]",up,1,,,,,,001,2025-03-18_10h12.13.060,SL_sali_41,2021.2.3,Win32,59.52380952,0.9661,,,36,0,36,0,1,,,,,,,,
,,"[""circle"",""no_dis"",""vert"",""up"",[99999,99999],[106,-106]]",circle,no_dis,vert,up,"[99999,99999]","[106,-106]",up,1,,,,,,001,2025-03-18_10h12.13.060,SL_sali_41,2021.2.3,Win32,59.52380952,0.6828,,,37,0,37,0,1,,,,,,,,
,,"[""circle"",""red"",""hori"",""left"",[106,-106],[0,-150]]",circle,red,hori,left,"[106,-106]","[0,-150]",left,1,,,,,,001,2025-03-18_10h12.13.060,SL_sali_41,2021.2.3,Win32,59.52380952,0.8131,,,38,0,38,0,1,,,,,,,,
,,"[""circle"",""red"",""vert"",""up"",[106,-106],[-106,-106]]",circle,red,vert,up,"[106,-106]","[-106,-106]",up,1,,,,,,001,2025-03-18_10h12.13.060,SL_sali_41,2021.2.3,Win32,59.52380952,0.795,,,39,0,39,0,1,,,,,,,,
,,"[""circle"",""red"",""vert"",""up"",[150,0],[-106,106]]",circle,red,vert,up,"[150,0]","[-106,106]",up,1,,,,,,001,2025-03-18_10h12.13.060,SL_sali_41,2021.2.3,Win32,59.52380952,0.6501,,,40,0,40,0,1,,,,,,,,
,,"[""diamond"",""no_dis"",""vert"",""up"",[99999,99999],[-150,0]]",diamond,no_dis,vert,up,"[99999,99999]","[-150,0]",up,1,,,,,,001,2025-03-18_10h12.13.060,SL_sali_41,2021.2.3,Win32,59.52380952,1.1271,,,41,0,41,0,1,,,,,,,,
,,"[""circle"",""red"",""vert"",""up"",[-106,-106],[150,0]]",circle,red,vert,up,"[-106,-106]","[150,0]",up,1,,,,,,001,2025-03-18_10h12.13.060,SL_sali_41,2021.2.3,Win32,59.52380952,1.2915,,,42,0,42,0,1,,,,,,,,
,,"[""diamond"",""red"",""hori"",""left"",[0,-150],[-150,0]]",diamond,red,hori,left,"[0,-150]","[-150,0]",left,1,,,,,,001,2025-03-18_10h12.13.060,SL_sali_41,2021.2.3,Win32,59.52380952,1.3406,,,43,0,43,0,1,,,,,,,,
,,"[""circle"",""green"",""hori"",""left"",[-106,106],[150,0]]",circle,green,hori,left,"[-106,106]","[150,0]",left,1,,,,,,001,2025-03-18_10h12.13.060,SL_sali_41,2021.2.3,Win32,59.52380952,1.7483,,,44,0,44,0,1,,,,,,,,
,,"[""circle"",""no_dis"",""vert"",""up"",[99999,99999],[0,150]]",circle,no_dis,vert,up,"[99999,99999]","[0,150]",up,1,,,,,,001,2025-03-18_10h12.13.060,SL_sali_41,2021.2.3,Win32,59.52380952,0.9827,,,45,0,45,0,1,,,,,,,,
,,"[""circle"",""no_dis"",""hori"",""left"",[99999,99999],[106,106]]",circle,no_dis,hori,left,"[99999,99999]","[106,106]",left,1,,,,,,001,2025-03-18_10h12.13.060,SL_sali_41,2021.2.3,Win32,59.52380952,0.6641,,,46,0,46,0,1,,,,,,,,
,,"[""diamond"",""green"",""hori"",""left"",[150,0],[0,-150]]",diamond,green,hori,left,"[150,0]","[0,-150]",left,1,,,,,,001,2025-03-18_10h12.13.060,SL_sali_41,2021.2.3,Win32,59.52380952,1.1746,,,47,0,47,0,1,,,,,,,,
,,"[""circle"",""green"",""hori"",""left"",[-150,0],[-106,-106]]",circle,green,hori,left,"[-150,0]","[-106,-106]",left,1,,,,,,001,2025-03-18_10h12.13.060,SL_sali_41,2021.2.3,Win32,59.52380952,1.4859,,,48,0,48,0,1,,,,,,,,
,,"[""diamond"",""green"",""vert"",""up"",[0,150],[106,106]]",diamond,green,vert,up,"[0,150]","[106,106]",up,1,,,,,,001,2025-03-18_10h12.13.060,SL_sali_41,2021.2.3,Win32,59.52380952,1.0657,,,49,0,49,0,1,,,,,,,,
,,"[""diamond"",""green"",""vert"",""up"",[106,-106],[-106,106]]",diamond,green,vert,up,"[106,-106]","[-106,106]",up,1,,,,,,001,2025-03-18_10h12.13.060,SL_sali_41,2021.2.3,Win32,59.52380952,0.6769,,,50,0,50,0,1,,,,,,,,
,,"[""diamond"",""no_dis"",""vert"",""up"",[99999,99999],[106,106]]",diamond,no_dis,vert,up,"[99999,99999]","[106,106]",up,1,,,,,,001,2025-03-18_10h12.13.060,SL_sali_41,2021.2.3,Win32,59.52380952,0.9131,,,51,0,51,0,1,,,,,,,,
,,"[""circle"",""no_dis"",""vert"",""up"",[99999,99999],[150,0]]",circle,no_dis,vert,up,"[99999,99999]","[150,0]",left,0,,,,,,001,2025-03-18_10h12.13.060,SL_sali_41,2021.2.3,Win32,59.52380952,0.9638,,,52,0,52,0,1,,,,,,,,
,,"[""diamond"",""red"",""vert"",""up"",[-106,106],[0,150]]",diamond,red,vert,up,"[-106,106]","[0,150]",up,1,,,,,,001,2025-03-18_10h12.13.060,SL_sali_41,2021.2.3,Win32,59.52380952,1.3182,,,53,0,53,0,1,,,,,,,,
,,"[""diamond"",""no_dis"",""hori"",""left"",[99999,99999],[0,150]]",diamond,no_dis,hori,left,"[99999,99999]","[0,150]",left,1,,,,,,001,2025-03-18_10h12.13.060,SL_sali_41,2021.2.3,Win32,59.52380952,1.135,,,54,0,54,0,1,,,,,,,,
,,"[""diamond"",""red"",""vert"",""up"",[-106,106],[106,106]]",diamond,red,vert,up,"[-106,106]","[106,106]",up,1,,,,,,001,2025-03-18_10h12.13.060,SL_sali_41,2021.2.3,Win32,59.52380952,0.716,,,55,0,55,0,1,,,,,,,,
,,"[""diamond"",""no_dis"",""hori"",""left"",[99999,99999],[0,-150]]",diamond,no_dis,hori,left,"[99999,99999]","[0,-150]",left,1,,,,,,001,2025-03-18_10h12.13.060,SL_sali_41,2021.2.3,Win32,59.52380952,1.2664,,,56,0,56,0,1,,,,,,,,
,,"[""diamond"",""no_dis"",""vert"",""up"",[99999,99999],[-106,-106]]",diamond,no_dis,vert,up,"[99999,99999]","[-106,-106]",up,1,,,,,,001,2025-03-18_10h12.13.060,SL_sali_41,2021.2.3,Win32,59.52380952,0.8661,,,57,0,57,0,1,,,,,,,,
,,"[""circle"",""red"",""hori"",""left"",[106,106],[-150,0]]",circle,red,hori,left,"[106,106]","[-150,0]",left,1,,,,,,001,2025-03-18_10h12.13.060,SL_sali_41,2021.2.3,Win32,59.52380952,1.273,,,58,0,58,0,1,,,,,,,,
,,"[""circle"",""red"",""hori"",""left"",[-106,106],[0,150]]",circle,red,hori,left,"[-106,106]","[0,150]",left,1,,,,,,001,2025-03-18_10h12.13.060,SL_sali_41,2021.2.3,Win32,59.52380952,1.0196,,,59,0,59,0,1,,,,,,,,
,,"[""diamond"",""no_dis"",""hori"",""left"",[99999,99999],[0,-150]]",diamond,no_dis,hori,left,"[99999,99999]","[0,-150]",left,1,,,,,,001,2025-03-18_10h12.13.060,SL_sali_41,2021.2.3,Win32,59.52380952,0.8535,,,60,0,60,0,1,,,,,,,,
,,"[""diamond"",""red"",""vert"",""up"",[-150,0],[106,-106]]",diamond,red,vert,up,"[-150,0]","[106,-106]",up,1,,,,,,001,2025-03-18_10h12.13.060,SL_sali_41,2021.2.3,Win32,59.52380952,0.8718,,,61,0,61,0,1,,,,,,,,
,,"[""circle"",""red"",""vert"",""up"",[106,-106],[150,0]]",circle,red,vert,up,"[106,-106]","[150,0]",up,1,,,,,,001,2025-03-18_10h12.13.060,SL_sali_41,2021.2.3,Win32,59.52380952,1.5767,,,62,0,62,0,1,,,,,,,,
,,"[""circle"",""green"",""hori"",""left"",[-106,106],[106,-106]]",circle,green,hori,left,"[-106,106]","[106,-106]",left,1,,,,,,001,2025-03-18_10h12.13.060,SL_sali_41,2021.2.3,Win32,59.52380952,2.4575,,,63,0,63,0,1,,,,,,,,
,,"[""diamond"",""green"",""hori"",""left"",[150,0],[106,-106]]",diamond,green,hori,left,"[150,0]","[106,-106]",left,1,,,,,,001,2025-03-18_10h12.13.060,SL_sali_41,2021.2.3,Win32,59.52380952,1.1007,,,64,0,64,0,1,,,,,,,,
,,"[""circle"",""green"",""hori"",""left"",[-106,106],[-106,-106]]",circle,green,hori,left,"[-106,106]","[-106,-106]",left,1,,,,,,001,2025-03-18_10h12.13.060,SL_sali_41,2021.2.3,Win32,59.52380952,1.6841,,,65,0,65,0,1,,,,,,,,
,,"[""diamond"",""red"",""hori"",""left"",[-106,106],[150,0]]",diamond,red,hori,left,"[-106,106]","[150,0]",left,1,,,,,,001,2025-03-18_10h12.13.060,SL_sali_41,2021.2.3,Win32,59.52380952,1.3373,,,66,0,66,0,1,,,,,,,,
,,"[""diamond"",""green"",""hori"",""left"",[-106,-106],[0,150]]",diamond,green,hori,left,"[-106,-106]","[0,150]",left,1,,,,,,001,2025-03-18_10h12.13.060,SL_sali_41,2021.2.3,Win32,59.52380952,0.9384,,,67,0,67,0,1,,,,,,,,
,,"[""circle"",""no_dis"",""vert"",""up"",[99999,99999],[-150,0]]",circle,no_dis,vert,up,"[99999,99999]","[-150,0]",up,1,,,,,,001,2025-03-18_10h12.13.060,SL_sali_41,2021.2.3,Win32,59.52380952,0.8002,,,68,0,68,0,1,,,,,,,,
,,"[""diamond"",""no_dis"",""hori"",""left"",[99999,99999],[-150,0]]",diamond,no_dis,hori,left,"[99999,99999]","[-150,0]",left,1,,,,,,001,2025-03-18_10h12.13.060,SL_sali_41,2021.2.3,Win32,59.52380952,0.906,,,69,0,69,0,1,,,,,,,,
,,"[""circle"",""green"",""vert"",""up"",[0,-150],[106,106]]",circle,green,vert,up,"[0,-150]","[106,106]",up,1,,,,,,001,2025-03-18_10h12.13.060,SL_sali_41,2021.2.3,Win32,59.52380952,1.1258,,,70,0,70,0,1,,,,,,,,
,,"[""circle"",""no_dis"",""hori"",""left"",[99999,99999],[106,106]]",circle,no_dis,hori,left,"[99999,99999]","[106,106]",left,1,,,,,,001,2025-03-18_10h12.13.060,SL_sali_41,2021.2.3,Win32,59.52380952,0.8767,,,71,0,71,0,1,,,,,,,,
,,"[""circle"",""green"",""vert"",""up"",[-106,106],[106,-106]]",circle,green,vert,up,"[-106,106]","[106,-106]",up,1,,,,,,001,2025-03-18_10h12.13.060,SL_sali_41,2021.2.3,Win32,59.52380952,0.7083,,,72,0,72,0,1,,,,,,,,
,,"[""diamond"",""red"",""hori"",""left"",[0,150],[0,-150]]",diamond,red,hori,left,"[0,150]","[0,-150]",left,1,,,,,,001,2025-03-18_10h12.13.060,SL_sali_41,2021.2.3,Win32,59.52380952,1.9907,,,73,0,73,0,1,,,,,,,,
,,"[""circle"",""red"",""vert"",""up"",[0,150],[0,-150]]",circle,red,vert,up,"[0,150]","[0,-150]",up,1,,,,,,001,2025-03-18_10h12.13.060,SL_sali_41,2021.2.3,Win32,59.52380952,1.5146,,,74,0,74,0,1,,,,,,,,
,,"[""diamond"",""no_dis"",""vert"",""up"",[99999,99999],[106,106]]",diamond,no_dis,vert,up,"[99999,99999]","[106,106]",left,0,,,,,,001,2025-03-18_10h12.13.060,SL_sali_41,2021.2.3,Win32,59.52380952,0.7917,,,75,0,75,0,1,,,,,,,,
,,"[""circle"",""red"",""hori"",""left"",[0,150],[-106,106]]",circle,red,hori,left,"[0,150]","[-106,106]",left,1,,,,,,001,2025-03-18_10h12.13.060,SL_sali_41,2021.2.3,Win32,59.52380952,1.2123,,,76,0,76,0,1,,,,,,,,
,,"[""diamond"",""red"",""vert"",""up"",[-106,106],[106,106]]",diamond,red,vert,up,"[-106,106]","[106,106]",up,1,,,,,,001,2025-03-18_10h12.13.060,SL_sali_41,2021.2.3,Win32,59.52380952,1.463,,,77,0,77,0,1,,,,,,,,
,,"[""diamond"",""green"",""hori"",""left"",[-106,106],[-106,-106]]",diamond,green,hori,left,"[-106,106]","[-106,-106]",left,1,,,,,,001,2025-03-18_10h12.13.060,SL_sali_41,2021.2.3,Win32,59.52380952,1.8241,,,78,0,78,0,1,,,,,,,,
,,"[""circle"",""no_dis"",""vert"",""up"",[99999,99999],[0,-150]]",circle,no_dis,vert,up,"[99999,99999]","[0,-150]",up,1,,,,,,001,2025-03-18_10h12.13.060,SL_sali_41,2021.2.3,Win32,59.52380952,1.1869,,,79,0,79,0,1,,,,,,,,
,,"[""diamond"",""red"",""vert"",""up"",[0,-150],[-106,-106]]",diamond,red,vert,up,"[0,-150]","[-106,-106]",up,1,,,,,,001,2025-03-18_10h12.13.060,SL_sali_41,2021.2.3,Win32,59.52380952,1.4961,,,80,0,80,0,1,,,,,,,,
,,"[""diamond"",""green"",""vert"",""up"",[106,106],[106,-106]]",diamond,green,vert,up,"[106,106]","[106,-106]",up,1,,,,,,001,2025-03-18_10h12.13.060,SL_sali_41,2021.2.3,Win32,59.52380952,1.0644,,,81,0,81,0,1,,,,,,,,
,,"[""diamond"",""red"",""vert"",""up"",[-106,106],[-150,0]]",diamond,red,vert,up,"[-106,106]","[-150,0]",up,1,,,,,,001,2025-03-18_10h12.13.060,SL_sali_41,2021.2.3,Win32,59.52380952,1.0873,,,82,0,82,0,1,,,,,,,,
,,"[""diamond"",""green"",""vert"",""up"",[-150,0],[0,150]]",diamond,green,vert,up,"[-150,0]","[0,150]",up,1,,,,,,001,2025-03-18_10h12.13.060,SL_sali_41,2021.2.3,Win32,59.52380952,0.8493,,,83,0,83,0,1,,,,,,,,
,,"[""diamond"",""red"",""hori"",""left"",[-106,-106],[106,106]]",diamond,red,hori,left,"[-106,-106]","[106,106]",left,1,,,,,,001,2025-03-18_10h12.13.060,SL_sali_41,2021.2.3,Win32,59.52380952,0.9631,,,84,0,84,0,1,,,,,,,,
,,"[""diamond"",""no_dis"",""hori"",""left"",[99999,99999],[-150,0]]",diamond,no_dis,hori,left,"[99999,99999]","[-150,0]",left,1,,,,,,001,2025-03-18_10h12.13.060,SL_sali_41,2021.2.3,Win32,59.52380952,0.6377,,,85,0,85,0,1,,,,,,,,
,,"[""circle"",""no_dis"",""vert"",""up"",[99999,99999],[-106,-106]]",circle,no_dis,vert,up,"[99999,99999]","[-106,-106]",up,1,,,,,,001,2025-03-18_10h12.13.060,SL_sali_41,2021.2.3,Win32,59.52380952,0.9324,,,86,0,86,0,1,,,,,,,,
,,"[""circle"",""green"",""vert"",""up"",[-106,106],[0,-150]]",circle,green,vert,up,"[-106,106]","[0,-150]",up,1,,,,,,001,2025-03-18_10h12.13.060,SL_sali_41,2021.2.3,Win32,59.52380952,0.6666,,,87,0,87,0,1,,,,,,,,
,,"[""circle"",""no_dis"",""hori"",""left"",[99999,99999],[106,-106]]",circle,no_dis,hori,left,"[99999,99999]","[106,-106]",left,1,,,,,,001,2025-03-18_10h12.13.060,SL_sali_41,2021.2.3,Win32,59.52380952,0.6412,,,88,0,88,0,1,,,,,,,,
,,"[""diamond"",""red"",""hori"",""left"",[0,150],[106,106]]",diamond,red,hori,left,"[0,150]","[106,106]",left,1,,,,,,001,2025-03-18_10h12.13.060,SL_sali_41,2021.2.3,Win32,59.52380952,1.0873,,,89,0,89,0,1,,,,,,,,
,,"[""circle"",""red"",""hori"",""left"",[-150,0],[150,0]]",circle,red,hori,left,"[-150,0]","[150,0]",left,1,,,,,,001,2025-03-18_10h12.13.060,SL_sali_41,2021.2.3,Win32,59.52380952,0.9642,,,90,0,90,0,1,,,,,,,,
,,"[""circle"",""no_dis"",""hori"",""left"",[99999,99999],[150,0]]",circle,no_dis,hori,left,"[99999,99999]","[150,0]",left,1,,,,,,001,2025-03-18_10h12.13.060,SL_sali_41,2021.2.3,Win32,59.52380952,0.5746,,,91,0,91,0,1,,,,,,,,
,,"[""circle"",""green"",""vert"",""up"",[-106,106],[-150,0]]",circle,green,vert,up,"[-106,106]","[-150,0]",up,1,,,,,,001,2025-03-18_10h12.13.060,SL_sali_41,2021.2.3,Win32,59.52380952,0.8853,,,92,0,92,0,1,,,,,,,,
,,"[""diamond"",""red"",""hori"",""left"",[106,-106],[150,0]]",diamond,red,hori,left,"[106,-106]","[150,0]",left,1,,,,,,001,2025-03-18_10h12.13.060,SL_sali_41,2021.2.3,Win32,59.52380952,0.6027,,,93,0,93,0,1,,,,,,,,
,,"[""diamond"",""red"",""hori"",""left"",[-106,106],[0,-150]]",diamond,red,hori,left,"[-106,106]","[0,-150]",left,1,,,,,,001,2025-03-18_10h12.13.060,SL_sali_41,2021.2.3,Win32,59.52380952,0.9846,,,94,0,94,0,1,,,,,,,,
,,"[""circle"",""green"",""vert"",""up"",[106,106],[106,-106]]",circle,green,vert,up,"[106,106]","[106,-106]",up,1,,,,,,001,2025-03-18_10h12.13.060,SL_sali_41,2021.2.3,Win32,59.52380952,1.4203,,,95,0,95,0,1,,,,,,,,
,,"[""circle"",""no_dis"",""hori"",""left"",[99999,99999],[-106,-106]]",circle,no_dis,hori,left,"[99999,99999]","[-106,-106]",left,1,,,,,,001,2025-03-18_10h12.13.060,SL_sali_41,2021.2.3,Win32,59.52380952,0.5946,,,96,0,96,0,1,,,,,,,,
,,"[""diamond"",""red"",""hori"",""left"",[-106,106],[106,-106]]",diamond,red,hori,left,"[-106,106]","[106,-106]",left,1,,,,,,001,2025-03-18_10h12.13.060,SL_sali_41,2021.2.3,Win32,59.52380952,1.3925,,,97,0,97,0,1,,,,,,,,
,,"[""diamond"",""red"",""vert"",""up"",[-106,106],[-150,0]]",diamond,red,vert,up,"[-106,106]","[-150,0]",up,1,,,,,,001,2025-03-18_10h12.13.060,SL_sali_41,2021.2.3,Win32,59.52380952,0.9021,,,98,0,98,0,1,,,,,,,,
,,"[""circle"",""green"",""hori"",""left"",[-106,106],[-150,0]]",circle,green,hori,left,"[-106,106]","[-150,0]",up,0,,,,,,001,2025-03-18_10h12.13.060,SL_sali_41,2021.2.3,Win32,59.52380952,1.0983,,,99,0,99,0,1,,,,,,,,
,,"[""diamond"",""no_dis"",""vert"",""up"",[99999,99999],[-106,106]]",diamond,no_dis,vert,up,"[99999,99999]","[-106,106]",up,1,,,,,,001,2025-03-18_10h12.13.060,SL_sali_41,2021.2.3,Win32,59.52380952,0.9916,,,100,0,100,0,1,,,,,,,,
,,"[""diamond"",""no_dis"",""vert"",""up"",[99999,99999],[106,-106]]",diamond,no_dis,vert,up,"[99999,99999]","[106,-106]",up,1,,,,,,001,2025-03-18_10h12.13.060,SL_sali_41,2021.2.3,Win32,59.52380952,0.7626,,,101,0,101,0,1,,,,,,,,
,,"[""circle"",""red"",""hori"",""left"",[106,106],[106,-106]]",circle,red,hori,left,"[106,106]","[106,-106]",left,1,,,,,,001,2025-03-18_10h12.13.060,SL_sali_41,2021.2.3,Win32,59.52380952,1.385,,,102,0,102,0,1,,,,,,,,
,,"[""circle"",""no_dis"",""hori"",""left"",[99999,99999],[-106,-106]]",circle,no_dis,hori,left,"[99999,99999]","[-106,-106]",left,1,,,,,,001,2025-03-18_10h12.13.060,SL_sali_41,2021.2.3,Win32,59.52380952,0.6818,,,103,0,103,0,1,,,,,,,,
,,"[""circle"",""red"",""vert"",""up"",[-150,0],[0,-150]]",circle,red,vert,up,"[-150,0]","[0,-150]",up,1,,,,,,001,2025-03-18_10h12.13.060,SL_sali_41,2021.2.3,Win32,59.52380952,0.6359,,,104,0,104,0,1,,,,,,,,
,,"[""circle"",""red"",""hori"",""left"",[150,0],[0,-150]]",circle,red,hori,left,"[150,0]","[0,-150]",left,1,,,,,,001,2025-03-18_10h12.13.060,SL_sali_41,2021.2.3,Win32,59.52380952,0.9283,,,105,0,105,0,1,,,,,,,,
,,"[""diamond"",""green"",""vert"",""up"",[-106,106],[106,106]]",diamond,green,vert,up,"[-106,106]","[106,106]",up,1,,,,,,001,2025-03-18_10h12.13.060,SL_sali_41,2021.2.3,Win32,59.52380952,0.8194,,,106,0,106,0,1,,,,,,,,
,,"[""circle"",""red"",""hori"",""left"",[-106,-106],[-106,106]]",circle,red,hori,left,"[-106,-106]","[-106,106]",left,1,,,,,,001,2025-03-18_10h12.13.060,SL_sali_41,2021.2.3,Win32,59.52380952,1.3919,,,107,0,107,0,1,,,,,,,,
,,"[""diamond"",""red"",""vert"",""up"",[-106,106],[0,150]]",diamond,red,vert,up,"[-106,106]","[0,150]",up,1,,,,,,001,2025-03-18_10h12.13.060,SL_sali_41,2021.2.3,Win32,59.52380952,1.0641,,,108,0,108,0,1,,,,,,,,
,,"[""diamond"",""green"",""hori"",""left"",[106,-106],[106,106]]",diamond,green,hori,left,"[106,-106]","[106,106]",left,1,,,,,,001,2025-03-18_10h12.13.060,SL_sali_41,2021.2.3,Win32,59.52380952,1.0821,,,109,0,109,0,1,,,,,,,,
,,"[""circle"",""green"",""vert"",""up"",[-106,106],[150,0]]",circle,green,vert,up,"[-106,106]","[150,0]",up,1,,,,,,001,2025-03-18_10h12.13.060,SL_sali_41,2021.2.3,Win32,59.52380952,0.7988,,,110,0,110,0,1,,,,,,,,
,,"[""diamond"",""no_dis"",""vert"",""up"",[99999,99999],[0,150]]",diamond,no_dis,vert,up,"[99999,99999]","[0,150]",up,1,,,,,,001,2025-03-18_10h12.13.060,SL_sali_41,2021.2.3,Win32,59.52380952,0.9926,,,111,0,111,0,1,,,,,,,,
,,"[""circle"",""red"",""hori"",""left"",[0,-150],[-150,0]]",circle,red,hori,left,"[0,-150]","[-150,0]",left,1,,,,,,001,2025-03-18_10h12.13.060,SL_sali_41,2021.2.3,Win32,59.52380952,1.1821,,,112,0,112,0,1,,,,,,,,
,,"[""circle"",""green"",""vert"",""up"",[106,106],[106,-106]]",circle,green,vert,up,"[106,106]","[106,-106]",up,1,,,,,,001,2025-03-18_10h12.13.060,SL_sali_41,2021.2.3,Win32,59.52380952,0.9004,,,113,0,113,0,1,,,,,,,,
,,"[""diamond"",""no_dis"",""hori"",""left"",[99999,99999],[-106,106]]",diamond,no_dis,hori,left,"[99999,99999]","[-106,106]",left,1,,,,,,001,2025-03-18_10h12.13.060,SL_sali_41,2021.2.3,Win32,59.52380952,1.1036,,,114,0,114,0,1,,,,,,,,
,,"[""diamond"",""red"",""vert"",""up"",[-106,106],[0,150]]",diamond,red,vert,up,"[-106,106]","[0,150]",up,1,,,,,,001,2025-03-18_10h12.13.060,SL_sali_41,2021.2.3,Win32,59.52380952,0.8296,,,115,0,115,0,1,,,,,,,,
,,"[""diamond"",""no_dis"",""vert"",""up"",[99999,99999],[106,-106]]",diamond,no_dis,vert,up,"[99999,99999]","[106,-106]",up,1,,,,,,001,2025-03-18_10h12.13.060,SL_sali_41,2021.2.3,Win32,59.52380952,0.5828,,,116,0,116,0,1,,,,,,,,
,,"[""circle"",""no_dis"",""vert"",""up"",[99999,99999],[-106,-106]]",circle,no_dis,vert,up,"[99999,99999]","[-106,-106]",up,1,,,,,,001,2025-03-18_10h12.13.060,SL_sali_41,2021.2.3,Win32,59.52380952,1.0093,,,117,0,117,0,1,,,,,,,,
,,"[""circle"",""green"",""hori"",""left"",[150,0],[-106,106]]",circle,green,hori,left,"[150,0]","[-106,106]",left,1,,,,,,001,2025-03-18_10h12.13.060,SL_sali_41,2021.2.3,Win32,59.52380952,0.8974,,,118,0,118,0,1,,,,,,,,
,,"[""diamond"",""green"",""hori"",""left"",[0,150],[106,-106]]",diamond,green,hori,left,"[0,150]","[106,-106]",up,0,,,,,,001,2025-03-18_10h12.13.060,SL_sali_41,2021.2.3,Win32,59.52380952,0.641,,,119,0,119,0,1,,,,,,,,
,,"[""circle"",""green"",""hori"",""left"",[-106,106],[-106,-106]]",circle,green,hori,left,"[-106,106]","[-106,-106]",left,1,,,,,,001,2025-03-18_10h12.13.060,SL_sali_41,2021.2.3,Win32,59.52380952,1.597,,,120,0,120,0,1,,,,,,,,
,,"[""diamond"",""green"",""vert"",""up"",[-106,-106],[-106,106]]",diamond,green,vert,up,"[-106,-106]","[-106,106]",up,1,,,,,,001,2025-03-18_10h12.13.060,SL_sali_41,2021.2.3,Win32,59.52380952,1.2385,,,121,0,121,0,1,,,,,,,,
,,"[""diamond"",""red"",""hori"",""left"",[-106,-106],[0,150]]",diamond,red,hori,left,"[-106,-106]","[0,150]",left,1,,,,,,001,2025-03-18_10h12.13.060,SL_sali_41,2021.2.3,Win32,59.52380952,1.1298,,,122,0,122,0,1,,,,,,,,
,,"[""diamond"",""no_dis"",""vert"",""up"",[99999,99999],[-150,0]]",diamond,no_dis,vert,up,"[99999,99999]","[-150,0]",up,1,,,,,,001,2025-03-18_10h12.13.060,SL_sali_41,2021.2.3,Win32,59.52380952,1.0085,,,123,0,123,0,1,,,,,,,,
,,"[""circle"",""no_dis"",""hori"",""left"",[99999,99999],[150,0]]",circle,no_dis,hori,left,"[99999,99999]","[150,0]",left,1,,,,,,001,2025-03-18_10h12.13.060,SL_sali_41,2021.2.3,Win32,59.52380952,1.1043,,,124,0,124,0,1,,,,,,,,
,,"[""diamond"",""no_dis"",""hori"",""left"",[99999,99999],[-106,106]]",diamond,no_dis,hori,left,"[99999,99999]","[-106,106]",left,1,,,,,,001,2025-03-18_10h12.13.060,SL_sali_41,2021.2.3,Win32,59.52380952,0.973,,,125,0,125,0,1,,,,,,,,
,,"[""diamond"",""green"",""hori"",""left"",[-106,106],[150,0]]",diamond,green,hori,left,"[-106,106]","[150,0]",left,1,,,,,,001,2025-03-18_10h12.13.060,SL_sali_41,2021.2.3,Win32,59.52380952,0.7473,,,126,0,126,0,1,,,,,,,,
,,"[""circle"",""no_dis"",""vert"",""up"",[99999,99999],[-106,106]]",circle,no_dis,vert,up,"[99999,99999]","[-106,106]",up,1,,,,,,001,2025-03-18_10h12.13.060,SL_sali_41,2021.2.3,Win32,59.52380952,1.9133,,,127,0,127,0,1,,,,,,,,
,,,,,,,,,,,,,,,,001,2025-03-18_10h12.13.060,SL_sali_41,2021.2.3,Win32,59.52380952,,,,,,,,,3,space,25.5867,2,0,2,0,1
,,"[""circle"",""green"",""hori"",""left"",[106,106],[-106,106]]",circle,green,hori,left,"[106,106]","[-106,106]",left,1,,,,,,001,2025-03-18_10h12.13.060,SL_sali_41,2021.2.3,Win32,59.52380952,1.2356,,,0,0,0,0,1,,,,,,,,
,,"[""circle"",""red"",""vert"",""up"",[106,-106],[-106,-106]]",circle,red,vert,up,"[106,-106]","[-106,-106]",up,1,,,,,,001,2025-03-18_10h12.13.060,SL_sali_41,2021.2.3,Win32,59.52380952,0.8779,,,1,0,1,0,1,,,,,,,,
,,"[""circle"",""red"",""hori"",""left"",[106,106],[-150,0]]",circle,red,hori,left,"[106,106]","[-150,0]",left,1,,,,,,001,2025-03-18_10h12.13.060,SL_sali_41,2021.2.3,Win32,59.52380952,0.782,,,2,0,2,0,1,,,,,,,,
,,"[""diamond"",""red"",""hori"",""left"",[-106,-106],[106,106]]",diamond,red,hori,left,"[-106,-106]","[106,106]",left,1,,,,,,001,2025-03-18_10h12.13.060,SL_sali_41,2021.2.3,Win32,59.52380952,1.1716,,,3,0,3,0,1,,,,,,,,
,,"[""circle"",""green"",""hori"",""left"",[-150,0],[-106,-106]]",circle,green,hori,left,"[-150,0]","[-106,-106]",left,1,,,,,,001,2025-03-18_10h12.13.060,SL_sali_41,2021.2.3,Win32,59.52380952,0.8541,,,4,0,4,0,1,,,,,,,,
,,"[""diamond"",""green"",""vert"",""up"",[-150,0],[0,-150]]",diamond,green,vert,up,"[-150,0]","[0,-150]",up,1,,,,,,001,2025-03-18_10h12.13.060,SL_sali_41,2021.2.3,Win32,59.52380952,1.0468,,,5,0,5,0,1,,,,,,,,
,,"[""diamond"",""red"",""vert"",""up"",[-106,106],[106,106]]",diamond,red,vert,up,"[-106,106]","[106,106]",left,0,,,,,,001,2025-03-18_10h12.13.060,SL_sali_41,2021.2.3,Win32,59.52380952,0.8331,,,6,0,6,0,1,,,,,,,,
,,"[""diamond"",""green"",""hori"",""left"",[106,-106],[106,106]]",diamond,green,hori,left,"[106,-106]","[106,106]",left,1,,,,,,001,2025-03-18_10h12.13.060,SL_sali_41,2021.2.3,Win32,59.52380952,0.807,,,7,0,7,0,1,,,,,,,,
,,"[""diamond"",""red"",""vert"",""up"",[-150,0],[106,-106]]",diamond,red,vert,up,"[-150,0]","[106,-106]",up,1,,,,,,001,2025-03-18_10h12.13.060,SL_sali_41,2021.2.3,Win32,59.52380952,1.0631,,,8,0,8,0,1,,,,,,,,
,,"[""circle"",""red"",""hori"",""left"",[106,106],[106,-106]]",circle,red,hori,left,"[106,106]","[106,-106]",up,0,,,,,,001,2025-03-18_10h12.13.060,SL_sali_41,2021.2.3,Win32,59.52380952,1.0044,,,9,0,9,0,1,,,,,,,,
,,"[""diamond"",""red"",""hori"",""left"",[-106,-106],[0,150]]",diamond,red,hori,left,"[-106,-106]","[0,150]",left,1,,,,,,001,2025-03-18_10h12.13.060,SL_sali_41,2021.2.3,Win32,59.52380952,1.0524,,,10,0,10,0,1,,,,,,,,
,,"[""circle"",""no_dis"",""hori"",""left"",[99999,99999],[106,-106]]",circle,no_dis,hori,left,"[99999,99999]","[106,-106]",left,1,,,,,,001,2025-03-18_10h12.13.060,SL_sali_41,2021.2.3,Win32,59.52380952,1.1082,,,11,0,11,0,1,,,,,,,,
,,"[""diamond"",""red"",""vert"",""up"",[-106,106],[-150,0]]",diamond,red,vert,up,"[-106,106]","[-150,0]",up,1,,,,,,001,2025-03-18_10h12.13.060,SL_sali_41,2021.2.3,Win32,59.52380952,1.4113,,,12,0,12,0,1,,,,,,,,
,,"[""diamond"",""green"",""vert"",""up"",[106,106],[106,-106]]",diamond,green,vert,up,"[106,106]","[106,-106]",up,1,,,,,,001,2025-03-18_10h12.13.060,SL_sali_41,2021.2.3,Win32,59.52380952,0.9994,,,13,0,13,0,1,,,,,,,,
,,"[""diamond"",""green"",""vert"",""up"",[-150,0],[0,150]]",diamond,green,vert,up,"[-150,0]","[0,150]",up,1,,,,,,001,2025-03-18_10h12.13.060,SL_sali_41,2021.2.3,Win32,59.52380952,0.7158,,,14,0,14,0,1,,,,,,,,
,,"[""diamond"",""green"",""hori"",""left"",[-106,106],[150,0]]",diamond,green,hori,left,"[-106,106]","[150,0]",left,1,,,,,,001,2025-03-18_10h12.13.060,SL_sali_41,2021.2.3,Win32,59.52380952,0.6834,,,15,0,15,0,1,,,,,,,,
,,"[""circle"",""red"",""vert"",""up"",[-106,-106],[150,0]]",circle,red,vert,up,"[-106,-106]","[150,0]",up,1,,,,,,001,2025-03-18_10h12.13.060,SL_sali_41,2021.2.3,Win32,59.52380952,0.8672,,,16,0,16,0,1,,,,,,,,
,,"[""circle"",""green"",""vert"",""up"",[106,106],[106,-106]]",circle,green,vert,up,"[106,106]","[106,-106]",up,1,,,,,,001,2025-03-18_10h12.13.060,SL_sali_41,2021.2.3,Win32,59.52380952,0.8336,,,17,0,17,0,1,,,,,,,,
,,"[""circle"",""green"",""hori"",""left"",[150,0],[-150,0]]",circle,green,hori,left,"[150,0]","[-150,0]",left,1,,,,,,001,2025-03-18_10h12.13.060,SL_sali_41,2021.2.3,Win32,59.52380952,0.7023,,,18,0,18,0,1,,,,,,,,
,,"[""circle"",""red"",""hori"",""left"",[-150,0],[0,-150]]",circle,red,hori,left,"[-150,0]","[0,-150]",left,1,,,,,,001,2025-03-18_10h12.13.060,SL_sali_41,2021.2.3,Win32,59.52380952,0.9325,,,19,0,19,0,1,,,,,,,,
,,"[""circle"",""red"",""vert"",""up"",[106,-106],[150,0]]",circle,red,vert,up,"[106,-106]","[150,0]",up,1,,,,,,001,2025-03-18_10h12.13.060,SL_sali_41,2021.2.3,Win32,59.52380952,1.1669,,,20,0,20,0,1,,,,,,,,
,,"[""circle"",""no_dis"",""vert"",""up"",[99999,99999],[-106,106]]",circle,no_dis,vert,up,"[99999,99999]","[-106,106]",up,1,,,,,,001,2025-03-18_10h12.13.060,SL_sali_41,2021.2.3,Win32,59.52380952,0.6782,,,21,0,21,0,1,,,,,,,,
,,"[""circle"",""red"",""vert"",""up"",[0,150],[0,-150]]",circle,red,vert,up,"[0,150]","[0,-150]",up,1,,,,,,001,2025-03-18_10h12.13.060,SL_sali_41,2021.2.3,Win32,59.52380952,0.7428,,,22,0,22,0,1,,,,,,,,
,,"[""diamond"",""red"",""hori"",""left"",[-106,106],[150,0]]",diamond,red,hori,left,"[-106,106]","[150,0]",up,0,,,,,,001,2025-03-18_10h12.13.060,SL_sali_41,2021.2.3,Win32,59.52380952,0.5328,,,23,0,23,0,1,,,,,,,,
,,"[""diamond"",""no_dis"",""vert"",""up"",[99999,99999],[106,-106]]",diamond,no_dis,vert,up,"[99999,99999]","[106,-106]",up,1,,,,,,001,2025-03-18_10h12.13.060,SL_sali_41,2021.2.3,Win32,59.52380952,0.6487,,,24,0,24,0,1,,,,,,,,
,,"[""circle"",""green"",""hori"",""left"",[150,0],[-106,106]]",circle,green,hori,left,"[150,0]","[-106,106]",up,0,,,,,,001,2025-03-18_10h12.13.060,SL_sali_41,2021.2.3,Win32,59.52380952,1.0162,,,25,0,25,0,1,,,,,,,,
,,"[""diamond"",""no_dis"",""vert"",""up"",[99999,99999],[106,106]]",diamond,no_dis,vert,up,"[99999,99999]","[106,106]",up,1,,,,,,001,2025-03-18_10h12.13.060,SL_sali_41,2021.2.3,Win32,59.52380952,1.1169,,,26,0,26,0,1,,,,,,,,
,,"[""diamond"",""red"",""vert"",""up"",[-106,106],[106,106]]",diamond,red,vert,up,"[-106,106]","[106,106]",up,1,,,,,,001,2025-03-18_10h12.13.060,SL_sali_41,2021.2.3,Win32,59.52380952,1.2494,,,27,0,27,0,1,,,,,,,,
,,"[""circle"",""green"",""vert"",""up"",[0,-150],[106,106]]",circle,green,vert,up,"[0,-150]","[106,106]",up,1,,,,,,001,2025-03-18_10h12.13.060,SL_sali_41,2021.2.3,Win32,59.52380952,1.0656,,,28,0,28,0,1,,,,,,,,
,,"[""diamond"",""green"",""vert"",""up"",[106,106],[0,-150]]",diamond,green,vert,up,"[106,106]","[0,-150]",up,1,,,,,,001,2025-03-18_10h12.13.060,SL_sali_41,2021.2.3,Win32,59.52380952,1.1562,,,29,0,29,0,1,,,,,,,,
,,"[""diamond"",""red"",""hori"",""left"",[-106,106],[106,-106]]",diamond,red,hori,left,"[-106,106]","[106,-106]",left,1,,,,,,001,2025-03-18_10h12.13.060,SL_sali_41,2021.2.3,Win32,59.52380952,0.7455,,,30,0,30,0,1,,,,,,,,
,,"[""diamond"",""no_dis"",""hori"",""left"",[99999,99999],[-106,106]]",diamond,no_dis,hori,left,"[99999,99999]","[-106,106]",left,1,,,,,,001,2025-03-18_10h12.13.060,SL_sali_41,2021.2.3,Win32,59.52380952,0.6204,,,31,0,31,0,1,,,,,,,,
,,"[""circle"",""red"",""hori"",""left"",[-106,-106],[-106,106]]",circle,red,hori,left,"[-106,-106]","[-106,106]",left,1,,,,,,001,2025-03-18_10h12.13.060,SL_sali_41,2021.2.3,Win32,59.52380952,1.0996,,,32,0,32,0,1,,,,,,,,
,,"[""circle"",""no_dis"",""vert"",""up"",[99999,99999],[-150,0]]",circle,no_dis,vert,up,"[99999,99999]","[-150,0]",up,1,,,,,,001,2025-03-18_10h12.13.060,SL_sali_41,2021.2.3,Win32,59.52380952,2.1651,,,33,0,33,0,1,,,,,,,,
,,"[""diamond"",""no_dis"",""hori"",""left"",[99999,99999],[0,150]]",diamond,no_dis,hori,left,"[99999,99999]","[0,150]",left,1,,,,,,001,2025-03-18_10h12.13.060,SL_sali_41,2021.2.3,Win32,59.52380952,0.8298,,,34,0,34,0,1,,,,,,,,
,,"[""circle"",""green"",""hori"",""left"",[-106,-106],[106,-106]]",circle,green,hori,left,"[-106,-106]","[106,-106]",left,1,,,,,,001,2025-03-18_10h12.13.060,SL_sali_41,2021.2.3,Win32,59.52380952,0.8166,,,35,0,35,0,1,,,,,,,,
,,"[""circle"",""green"",""hori"",""left"",[-106,106],[-150,0]]",circle,green,hori,left,"[-106,106]","[-150,0]",left,1,,,,,,001,2025-03-18_10h12.13.060,SL_sali_41,2021.2.3,Win32,59.52380952,0.7497,,,36,0,36,0,1,,,,,,,,
,,"[""diamond"",""green"",""vert"",""up"",[106,-106],[-106,106]]",diamond,green,vert,up,"[106,-106]","[-106,106]",up,1,,,,,,001,2025-03-18_10h12.13.060,SL_sali_41,2021.2.3,Win32,59.52380952,0.6537,,,37,0,37,0,1,,,,,,,,
,,"[""diamond"",""no_dis"",""vert"",""up"",[99999,99999],[106,106]]",diamond,no_dis,vert,up,"[99999,99999]","[106,106]",up,1,,,,,,001,2025-03-18_10h12.13.060,SL_sali_41,2021.2.3,Win32,59.52380952,0.8831,,,38,0,38,0,1,,,,,,,,
,,"[""circle"",""red"",""hori"",""left"",[0,-150],[106,-106]]",circle,red,hori,left,"[0,-150]","[106,-106]",left,1,,,,,,001,2025-03-18_10h12.13.060,SL_sali_41,2021.2.3,Win32,59.52380952,0.9736,,,39,0,39,0,1,,,,,,,,
,,"[""circle"",""no_dis"",""vert"",""up"",[99999,99999],[0,-150]]",circle,no_dis,vert,up,"[99999,99999]","[0,-150]",up,1,,,,,,001,2025-03-18_10h12.13.060,SL_sali_41,2021.2.3,Win32,59.52380952,0.7996,,,40,0,40,0,1,,,,,,,,
,,"[""diamond"",""no_dis"",""vert"",""up"",[99999,99999],[0,150]]",diamond,no_dis,vert,up,"[99999,99999]","[0,150]",left,0,,,,,,001,2025-03-18_10h12.13.060,SL_sali_41,2021.2.3,Win32,59.52380952,1.2158,,,41,0,41,0,1,,,,,,,,
,,"[""diamond"",""green"",""hori"",""left"",[-106,106],[0,150]]",diamond,green,hori,left,"[-106,106]","[0,150]",left,1,,,,,,001,2025-03-18_10h12.13.060,SL_sali_41,2021.2.3,Win32,59.52380952,0.9656,,,42,0,42,0,1,,,,,,,,
,,"[""diamond"",""red"",""vert"",""up"",[-106,106],[-150,0]]",diamond,red,vert,up,"[-106,106]","[-150,0]",up,1,,,,,,001,2025-03-18_10h12.13.060,SL_sali_41,2021.2.3,Win32,59.52380952,1.2328,,,43,0,43,0,1,,,,,,,,
,,"[""diamond"",""red"",""vert"",""up"",[0,150],[-150,0]]",diamond,red,vert,up,"[0,150]","[-150,0]",up,1,,,,,,001,2025-03-18_10h12.13.060,SL_sali_41,2021.2.3,Win32,59.52380952,0.9013,,,44,0,44,0,1,,,,,,,,
,,"[""diamond"",""red"",""vert"",""up"",[-106,106],[0,150]]",diamond,red,vert,up,"[-106,106]","[0,150]",up,1,,,,,,001,2025-03-18_10h12.13.060,SL_sali_41,2021.2.3,Win32,59.52380952,0.7271,,,45,0,45,0,1,,,,,,,,
,,"[""diamond"",""no_dis"",""hori"",""left"",[99999,99999],[0,-150]]",diamond,no_dis,hori,left,"[99999,99999]","[0,-150]",left,1,,,,,,001,2025-03-18_10h12.13.060,SL_sali_41,2021.2.3,Win32,59.52380952,0.7511,,,46,0,46,0,1,,,,,,,,
,,"[""circle"",""no_dis"",""hori"",""left"",[99999,99999],[106,106]]",circle,no_dis,hori,left,"[99999,99999]","[106,106]",left,1,,,,,,001,2025-03-18_10h12.13.060,SL_sali_41,2021.2.3,Win32,59.52380952,0.9016,,,47,0,47,0,1,,,,,,,,
,,"[""circle"",""green"",""vert"",""up"",[-106,106],[-150,0]]",circle,green,vert,up,"[-106,106]","[-150,0]",up,1,,,,,,001,2025-03-18_10h12.13.060,SL_sali_41,2021.2.3,Win32,59.52380952,1.1729,,,48,0,48,0,1,,,,,,,,
,,"[""circle"",""no_dis"",""hori"",""left"",[99999,99999],[0,150]]",circle,no_dis,hori,left,"[99999,99999]","[0,150]",up,0,,,,,,001,2025-03-18_10h12.13.060,SL_sali_41,2021.2.3,Win32,59.52380952,0.6227,,,49,0,49,0,1,,,,,,,,
,,"[""circle"",""red"",""vert"",""up"",[-150,0],[-106,106]]",circle,red,vert,up,"[-150,0]","[-106,106]",up,1,,,,,,001,2025-03-18_10h12.13.060,SL_sali_41,2021.2.3,Win32,59.52380952,0.8829,,,50,0,50,0,1,,,,,,,,
,,"[""circle"",""green"",""vert"",""up"",[106,106],[106,-106]]",circle,green,vert,up,"[106,106]","[106,-106]",up,1,,,,,,001,2025-03-18_10h12.13.060,SL_sali_41,2021.2.3,Win32,59.52380952,1.4368,,,51,0,51,0,1,,,,,,,,
,,"[""circle"",""green"",""vert"",""up"",[106,-106],[0,-150]]",circle,green,vert,up,"[106,-106]","[0,-150]",up,1,,,,,,001,2025-03-18_10h12.13.060,SL_sali_41,2021.2.3,Win32,59.52380952,1.2563,,,52,0,52,0,1,,,,,,,,
,,"[""diamond"",""green"",""hori"",""left"",[-106,-106],[0,150]]",diamond,green,hori,left,"[-106,-106]","[0,150]",left,1,,,,,,001,2025-03-18_10h12.13.060,SL_sali_41,2021.2.3,Win32,59.52380952,1.0499,,,53,0,53,0,1,,,,,,,,
,,"[""diamond"",""no_dis"",""hori"",""left"",[99999,99999],[0,150]]",diamond,no_dis,hori,left,"[99999,99999]","[0,150]",left,1,,,,,,001,2025-03-18_10h12.13.060,SL_sali_41,2021.2.3,Win32,59.52380952,0.9326,,,54,0,54,0,1,,,,,,,,
,,"[""circle"",""green"",""hori"",""left"",[-106,106],[150,0]]",circle,green,hori,left,"[-106,106]","[150,0]",left,1,,,,,,001,2025-03-18_10h12.13.060,SL_sali_41,2021.2.3,Win32,59.52380952,0.9054,,,55,0,55,0,1,,,,,,,,
,,"[""circle"",""red"",""hori"",""left"",[150,0],[0,-150]]",circle,red,hori,left,"[150,0]","[0,-150]",left,1,,,,,,001,2025-03-18_10h12.13.060,SL_sali_41,2021.2.3,Win32,59.52380952,1.3502,,,56,0,56,0,1,,,,,,,,
,,"[""circle"",""no_dis"",""hori"",""left"",[99999,99999],[106,-106]]",circle,no_dis,hori,left,"[99999,99999]","[106,-106]",left,1,,,,,,001,2025-03-18_10h12.13.060,SL_sali_41,2021.2.3,Win32,59.52380952,0.7446,,,57,0,57,0,1,,,,,,,,
,,"[""diamond"",""red"",""hori"",""left"",[0,-150],[-150,0]]",diamond,red,hori,left,"[0,-150]","[-150,0]",up,0,,,,,,001,2025-03-18_10h12.13.060,SL_sali_41,2021.2.3,Win32,59.52380952,0.797,,,58,0,58,0,1,,,,,,,,
,,"[""diamond"",""green"",""vert"",""up"",[-106,106],[106,106]]",diamond,green,vert,up,"[-106,106]","[106,106]",up,1,,,,,,001,2025-03-18_10h12.13.060,SL_sali_41,2021.2.3,Win32,59.52380952,0.7827,,,59,0,59,0,1,,,,,,,,
