﻿key_resp.keys,key_resp.rt,trial_para,tar_shape,dis_color_condi,tar_line,cor_resp,dis_loc,tar_loc,resp.keys,resp.corr,trials.thisRepN,trials.thisTrialN,trials.thisN,trials.thisIndex,trials.ran,participant,date,expName,psychopyVersion,OS,frameRate,resp.rt,key_resp_2.keys,key_resp_2.rt,trials_2.thisRepN,trials_2.thisTrialN,trials_2.thisN,trials_2.thisIndex,trials_2.ran,block_num,key_resp_3.keys,key_resp_3.rt,trials_3.thisRepN,trials_3.thisTrialN,trials_3.thisN,trials_3.thisIndex,trials_3.ran
space,13.3122,"[""circle"",""no_dis"",""hori"",""left"",[99999,99999],[150,0]]",circle,no_dis,hori,left,"[99999,99999]","[150,0]",,0,0,0,0,0,1,001,2025-03-11_12h46.03.374,SL_sali_41,2021.2.3,Win32,163.9344262,,,,,,,,,,,,,,,,
,,"[""diamond"",""no_dis"",""hori"",""left"",[99999,99999],[-106,-106]]",diamond,no_dis,hori,left,"[99999,99999]","[-106,-106]",,0,1,0,1,0,1,001,2025-03-11_12h46.03.374,SL_sali_41,2021.2.3,Win32,163.9344262,,,,,,,,,,,,,,,,
,,"[""diamond"",""green"",""vert"",""up"",[106,106],[106,-106]]",diamond,green,vert,up,"[106,106]","[106,-106]",,0,2,0,2,0,1,001,2025-03-11_12h46.03.374,SL_sali_41,2021.2.3,Win32,163.9344262,,,,,,,,,,,,,,,,
,,"[""diamond"",""green"",""hori"",""left"",[-106,-106],[0,-150]]",diamond,green,hori,left,"[-106,-106]","[0,-150]",,0,3,0,3,0,1,001,2025-03-11_12h46.03.374,SL_sali_41,2021.2.3,Win32,163.9344262,,,,,,,,,,,,,,,,
,,"[""diamond"",""no_dis"",""hori"",""left"",[99999,99999],[0,-150]]",diamond,no_dis,hori,left,"[99999,99999]","[0,-150]",,0,4,0,4,0,1,001,2025-03-11_12h46.03.374,SL_sali_41,2021.2.3,Win32,163.9344262,,,,,,,,,,,,,,,,
,,"[""diamond"",""red"",""hori"",""left"",[150,0],[-106,-106]]",diamond,red,hori,left,"[150,0]","[-106,-106]",left,1,5,0,5,0,1,001,2025-03-11_12h46.03.374,SL_sali_41,2021.2.3,Win32,163.9344262,2.5023,,,,,,,,,,,,,,,
,,"[""diamond"",""no_dis"",""vert"",""up"",[99999,99999],[-106,106]]",diamond,no_dis,vert,up,"[99999,99999]","[-106,106]",up,1,6,0,6,0,1,001,2025-03-11_12h46.03.374,SL_sali_41,2021.2.3,Win32,163.9344262,1.1278,,,,,,,,,,,,,,,
,,"[""diamond"",""red"",""vert"",""up"",[-150,0],[-106,106]]",diamond,red,vert,up,"[-150,0]","[-106,106]",left,0,7,0,7,0,1,001,2025-03-11_12h46.03.374,SL_sali_41,2021.2.3,Win32,163.9344262,1.2694,,,,,,,,,,,,,,,
,,"[""diamond"",""green"",""hori"",""left"",[-150,0],[0,-150]]",diamond,green,hori,left,"[-150,0]","[0,-150]",left,1,8,0,8,0,1,001,2025-03-11_12h46.03.374,SL_sali_41,2021.2.3,Win32,163.9344262,1.5027,,,,,,,,,,,,,,,
,,"[""diamond"",""green"",""hori"",""left"",[150,0],[-106,106]]",diamond,green,hori,left,"[150,0]","[-106,106]",left,1,9,0,9,0,1,001,2025-03-11_12h46.03.374,SL_sali_41,2021.2.3,Win32,163.9344262,1.0344,,,,,,,,,,,,,,,
,,"[""circle"",""no_dis"",""hori"",""left"",[99999,99999],[150,0]]",circle,no_dis,hori,left,"[99999,99999]","[150,0]",left,1,,,,,,001,2025-03-11_12h46.03.374,SL_sali_41,2021.2.3,Win32,163.9344262,1.5178,space,6.9922,0,0,0,0,1,,,,,,,,
,,"[""diamond"",""no_dis"",""hori"",""left"",[99999,99999],[-106,-106]]",diamond,no_dis,hori,left,"[99999,99999]","[-106,-106]",left,1,,,,,,001,2025-03-11_12h46.03.374,SL_sali_41,2021.2.3,Win32,163.9344262,1.5519,,,1,0,1,0,1,,,,,,,,
,,"[""diamond"",""green"",""vert"",""up"",[106,106],[106,-106]]",diamond,green,vert,up,"[106,106]","[106,-106]",left,0,,,,,,001,2025-03-11_12h46.03.374,SL_sali_41,2021.2.3,Win32,163.9344262,0.7455,,,2,0,2,0,1,,,,,,,,
,,"[""diamond"",""green"",""hori"",""left"",[-106,-106],[0,-150]]",diamond,green,hori,left,"[-106,-106]","[0,-150]",left,1,,,,,,001,2025-03-11_12h46.03.374,SL_sali_41,2021.2.3,Win32,163.9344262,1.4054,,,3,0,3,0,1,,,,,,,,
,,"[""diamond"",""no_dis"",""hori"",""left"",[99999,99999],[0,-150]]",diamond,no_dis,hori,left,"[99999,99999]","[0,-150]",left,1,,,,,,001,2025-03-11_12h46.03.374,SL_sali_41,2021.2.3,Win32,163.9344262,1.15,,,4,0,4,0,1,,,,,,,,
,,"[""diamond"",""red"",""hori"",""left"",[150,0],[-106,-106]]",diamond,red,hori,left,"[150,0]","[-106,-106]",left,1,,,,,,001,2025-03-11_12h46.03.374,SL_sali_41,2021.2.3,Win32,163.9344262,1.0667,,,5,0,5,0,1,,,,,,,,
,,"[""diamond"",""no_dis"",""vert"",""up"",[99999,99999],[-106,106]]",diamond,no_dis,vert,up,"[99999,99999]","[-106,106]",up,1,,,,,,001,2025-03-11_12h46.03.374,SL_sali_41,2021.2.3,Win32,163.9344262,1.1122,,,6,0,6,0,1,,,,,,,,
,,"[""diamond"",""red"",""vert"",""up"",[-150,0],[-106,106]]",diamond,red,vert,up,"[-150,0]","[-106,106]",up,1,,,,,,001,2025-03-11_12h46.03.374,SL_sali_41,2021.2.3,Win32,163.9344262,1.5218,,,7,0,7,0,1,,,,,,,,
,,"[""diamond"",""green"",""hori"",""left"",[-150,0],[0,-150]]",diamond,green,hori,left,"[-150,0]","[0,-150]",left,1,,,,,,001,2025-03-11_12h46.03.374,SL_sali_41,2021.2.3,Win32,163.9344262,1.9269,,,8,0,8,0,1,,,,,,,,
,,"[""diamond"",""green"",""hori"",""left"",[150,0],[-106,106]]",diamond,green,hori,left,"[150,0]","[-106,106]",left,1,,,,,,001,2025-03-11_12h46.03.374,SL_sali_41,2021.2.3,Win32,163.9344262,1.4568,,,9,0,9,0,1,,,,,,,,
,,"[""circle"",""green"",""vert"",""up"",[150,0],[-106,-106]]",circle,green,vert,up,"[150,0]","[-106,-106]",left,0,,,,,,001,2025-03-11_12h46.03.374,SL_sali_41,2021.2.3,Win32,163.9344262,2.3706,,,10,0,10,0,1,,,,,,,,
,,"[""diamond"",""green"",""vert"",""up"",[150,0],[0,150]]",diamond,green,vert,up,"[150,0]","[0,150]",up,1,,,,,,001,2025-03-11_12h46.03.374,SL_sali_41,2021.2.3,Win32,163.9344262,1.3097,,,11,0,11,0,1,,,,,,,,
,,"[""diamond"",""red"",""vert"",""up"",[106,-106],[150,0]]",diamond,red,vert,up,"[106,-106]","[150,0]",up,1,,,,,,001,2025-03-11_12h46.03.374,SL_sali_41,2021.2.3,Win32,163.9344262,0.9467,,,12,0,12,0,1,,,,,,,,
,,"[""circle"",""no_dis"",""hori"",""left"",[99999,99999],[-150,0]]",circle,no_dis,hori,left,"[99999,99999]","[-150,0]",left,1,,,,,,001,2025-03-11_12h46.03.374,SL_sali_41,2021.2.3,Win32,163.9344262,1.7946,,,13,0,13,0,1,,,,,,,,
,,"[""circle"",""red"",""vert"",""up"",[150,0],[106,106]]",circle,red,vert,up,"[150,0]","[106,106]",up,1,,,,,,001,2025-03-11_12h46.03.374,SL_sali_41,2021.2.3,Win32,163.9344262,1.067,,,14,0,14,0,1,,,,,,,,
,,"[""circle"",""green"",""vert"",""up"",[150,0],[106,106]]",circle,green,vert,up,"[150,0]","[106,106]",up,1,,,,,,001,2025-03-11_12h46.03.374,SL_sali_41,2021.2.3,Win32,163.9344262,1.0187,,,15,0,15,0,1,,,,,,,,
,,"[""circle"",""red"",""vert"",""up"",[0,150],[0,-150]]",circle,red,vert,up,"[0,150]","[0,-150]",up,1,,,,,,001,2025-03-11_12h46.03.374,SL_sali_41,2021.2.3,Win32,163.9344262,0.7821,,,16,0,16,0,1,,,,,,,,
,,"[""circle"",""red"",""vert"",""up"",[-106,-106],[106,106]]",circle,red,vert,up,"[-106,-106]","[106,106]",up,1,,,,,,001,2025-03-11_12h46.03.374,SL_sali_41,2021.2.3,Win32,163.9344262,1.0488,,,17,0,17,0,1,,,,,,,,
,,"[""circle"",""red"",""vert"",""up"",[150,0],[106,106]]",circle,red,vert,up,"[150,0]","[106,106]",up,1,,,,,,001,2025-03-11_12h46.03.374,SL_sali_41,2021.2.3,Win32,163.9344262,1.1108,,,18,0,18,0,1,,,,,,,,
,,"[""diamond"",""green"",""hori"",""left"",[0,-150],[106,106]]",diamond,green,hori,left,"[0,-150]","[106,106]",left,1,,,,,,001,2025-03-11_12h46.03.374,SL_sali_41,2021.2.3,Win32,163.9344262,1.1394,,,19,0,19,0,1,,,,,,,,
,,"[""circle"",""green"",""hori"",""left"",[150,0],[106,106]]",circle,green,hori,left,"[150,0]","[106,106]",left,1,,,,,,001,2025-03-11_12h46.03.374,SL_sali_41,2021.2.3,Win32,163.9344262,2.4796,,,20,0,20,0,1,,,,,,,,
,,"[""diamond"",""red"",""vert"",""up"",[0,-150],[106,106]]",diamond,red,vert,up,"[0,-150]","[106,106]",up,1,,,,,,001,2025-03-11_12h46.03.374,SL_sali_41,2021.2.3,Win32,163.9344262,1.2792,,,21,0,21,0,1,,,,,,,,
,,"[""diamond"",""green"",""hori"",""left"",[150,0],[106,-106]]",diamond,green,hori,left,"[150,0]","[106,-106]",left,1,,,,,,001,2025-03-11_12h46.03.374,SL_sali_41,2021.2.3,Win32,163.9344262,2.024,,,22,0,22,0,1,,,,,,,,
,,"[""circle"",""red"",""vert"",""up"",[150,0],[-106,-106]]",circle,red,vert,up,"[150,0]","[-106,-106]",up,1,,,,,,001,2025-03-11_12h46.03.374,SL_sali_41,2021.2.3,Win32,163.9344262,1.2973,,,23,0,23,0,1,,,,,,,,
,,"[""diamond"",""red"",""hori"",""left"",[150,0],[-106,-106]]",diamond,red,hori,left,"[150,0]","[-106,-106]",left,1,,,,,,001,2025-03-11_12h46.03.374,SL_sali_41,2021.2.3,Win32,163.9344262,2.0126,,,24,0,24,0,1,,,,,,,,
,,"[""diamond"",""green"",""vert"",""up"",[106,-106],[106,106]]",diamond,green,vert,up,"[106,-106]","[106,106]",up,1,,,,,,001,2025-03-11_12h46.03.374,SL_sali_41,2021.2.3,Win32,163.9344262,1.1939,,,25,0,25,0,1,,,,,,,,
,,"[""circle"",""no_dis"",""vert"",""up"",[99999,99999],[0,-150]]",circle,no_dis,vert,up,"[99999,99999]","[0,-150]",up,1,,,,,,001,2025-03-11_12h46.03.374,SL_sali_41,2021.2.3,Win32,163.9344262,0.9756,,,26,0,26,0,1,,,,,,,,
,,"[""diamond"",""no_dis"",""hori"",""left"",[99999,99999],[0,-150]]",diamond,no_dis,hori,left,"[99999,99999]","[0,-150]",up,0,,,,,,001,2025-03-11_12h46.03.374,SL_sali_41,2021.2.3,Win32,163.9344262,1.3585,,,27,0,27,0,1,,,,,,,,
,,"[""circle"",""green"",""hori"",""left"",[-106,106],[106,106]]",circle,green,hori,left,"[-106,106]","[106,106]",left,1,,,,,,001,2025-03-11_12h46.03.374,SL_sali_41,2021.2.3,Win32,163.9344262,1.4791,,,28,0,28,0,1,,,,,,,,
,,"[""diamond"",""green"",""vert"",""up"",[-106,106],[106,106]]",diamond,green,vert,up,"[-106,106]","[106,106]",up,1,,,,,,001,2025-03-11_12h46.03.374,SL_sali_41,2021.2.3,Win32,163.9344262,1.3811,,,29,0,29,0,1,,,,,,,,
,,"[""diamond"",""no_dis"",""hori"",""left"",[99999,99999],[106,-106]]",diamond,no_dis,hori,left,"[99999,99999]","[106,-106]",left,1,,,,,,001,2025-03-11_12h46.03.374,SL_sali_41,2021.2.3,Win32,163.9344262,2.8236,,,30,0,30,0,1,,,,,,,,
,,"[""diamond"",""red"",""hori"",""left"",[150,0],[-106,106]]",diamond,red,hori,left,"[150,0]","[-106,106]",left,1,,,,,,001,2025-03-11_12h46.03.374,SL_sali_41,2021.2.3,Win32,163.9344262,1.5212,,,31,0,31,0,1,,,,,,,,
,,"[""circle"",""no_dis"",""vert"",""up"",[99999,99999],[-106,106]]",circle,no_dis,vert,up,"[99999,99999]","[-106,106]",up,1,,,,,,001,2025-03-11_12h46.03.374,SL_sali_41,2021.2.3,Win32,163.9344262,1.2912,,,32,0,32,0,1,,,,,,,,
,,"[""diamond"",""green"",""vert"",""up"",[-106,-106],[0,150]]",diamond,green,vert,up,"[-106,-106]","[0,150]",left,0,,,,,,001,2025-03-11_12h46.03.374,SL_sali_41,2021.2.3,Win32,163.9344262,1.4628,,,33,0,33,0,1,,,,,,,,
,,"[""diamond"",""green"",""vert"",""up"",[-150,0],[0,150]]",diamond,green,vert,up,"[-150,0]","[0,150]",up,1,,,,,,001,2025-03-11_12h46.03.374,SL_sali_41,2021.2.3,Win32,163.9344262,1.1284,,,34,0,34,0,1,,,,,,,,
,,"[""circle"",""green"",""vert"",""up"",[-106,-106],[0,-150]]",circle,green,vert,up,"[-106,-106]","[0,-150]",up,1,,,,,,001,2025-03-11_12h46.03.374,SL_sali_41,2021.2.3,Win32,163.9344262,1.1273,,,35,0,35,0,1,,,,,,,,
,,"[""diamond"",""red"",""hori"",""left"",[106,106],[0,150]]",diamond,red,hori,left,"[106,106]","[0,150]",up,0,,,,,,001,2025-03-11_12h46.03.374,SL_sali_41,2021.2.3,Win32,163.9344262,1.1585,,,36,0,36,0,1,,,,,,,,
,,"[""circle"",""no_dis"",""hori"",""left"",[99999,99999],[150,0]]",circle,no_dis,hori,left,"[99999,99999]","[150,0]",left,1,,,,,,001,2025-03-11_12h46.03.374,SL_sali_41,2021.2.3,Win32,163.9344262,1.3243,,,37,0,37,0,1,,,,,,,,
,,"[""circle"",""no_dis"",""vert"",""up"",[99999,99999],[-150,0]]",circle,no_dis,vert,up,"[99999,99999]","[-150,0]",up,1,,,,,,001,2025-03-11_12h46.03.374,SL_sali_41,2021.2.3,Win32,163.9344262,1.0733,,,38,0,38,0,1,,,,,,,,
,,"[""circle"",""no_dis"",""hori"",""left"",[99999,99999],[150,0]]",circle,no_dis,hori,left,"[99999,99999]","[150,0]",left,1,,,,,,001,2025-03-11_12h46.03.374,SL_sali_41,2021.2.3,Win32,163.9344262,1.8604,,,39,0,39,0,1,,,,,,,,
,,"[""diamond"",""green"",""vert"",""up"",[150,0],[0,-150]]",diamond,green,vert,up,"[150,0]","[0,-150]",up,1,,,,,,001,2025-03-11_12h46.03.374,SL_sali_41,2021.2.3,Win32,163.9344262,0.9282,,,40,0,40,0,1,,,,,,,,
,,"[""diamond"",""red"",""hori"",""left"",[150,0],[-106,-106]]",diamond,red,hori,left,"[150,0]","[-106,-106]",left,1,,,,,,001,2025-03-11_12h46.03.374,SL_sali_41,2021.2.3,Win32,163.9344262,0.8973,,,41,0,41,0,1,,,,,,,,
,,"[""diamond"",""red"",""vert"",""up"",[0,150],[106,106]]",diamond,red,vert,up,"[0,150]","[106,106]",up,1,,,,,,001,2025-03-11_12h46.03.374,SL_sali_41,2021.2.3,Win32,163.9344262,1.7335,,,42,0,42,0,1,,,,,,,,
,,"[""circle"",""green"",""hori"",""left"",[0,-150],[-106,106]]",circle,green,hori,left,"[0,-150]","[-106,106]",left,1,,,,,,001,2025-03-11_12h46.03.374,SL_sali_41,2021.2.3,Win32,163.9344262,1.6853,,,43,0,43,0,1,,,,,,,,
,,"[""circle"",""green"",""hori"",""left"",[106,-106],[0,150]]",circle,green,hori,left,"[106,-106]","[0,150]",left,1,,,,,,001,2025-03-11_12h46.03.374,SL_sali_41,2021.2.3,Win32,163.9344262,1.2608,,,44,0,44,0,1,,,,,,,,
,,"[""circle"",""red"",""vert"",""up"",[150,0],[-106,-106]]",circle,red,vert,up,"[150,0]","[-106,-106]",up,1,,,,,,001,2025-03-11_12h46.03.374,SL_sali_41,2021.2.3,Win32,163.9344262,1.0613,,,45,0,45,0,1,,,,,,,,
,,"[""circle"",""no_dis"",""hori"",""left"",[99999,99999],[0,150]]",circle,no_dis,hori,left,"[99999,99999]","[0,150]",left,1,,,,,,001,2025-03-11_12h46.03.374,SL_sali_41,2021.2.3,Win32,163.9344262,2.151,,,46,0,46,0,1,,,,,,,,
,,"[""diamond"",""no_dis"",""vert"",""up"",[99999,99999],[106,106]]",diamond,no_dis,vert,up,"[99999,99999]","[106,106]",up,1,,,,,,001,2025-03-11_12h46.03.374,SL_sali_41,2021.2.3,Win32,163.9344262,1.4875,,,47,0,47,0,1,,,,,,,,
,,"[""circle"",""no_dis"",""vert"",""up"",[99999,99999],[0,150]]",circle,no_dis,vert,up,"[99999,99999]","[0,150]",up,1,,,,,,001,2025-03-11_12h46.03.374,SL_sali_41,2021.2.3,Win32,163.9344262,1.6671,,,48,0,48,0,1,,,,,,,,
,,"[""diamond"",""no_dis"",""vert"",""up"",[99999,99999],[150,0]]",diamond,no_dis,vert,up,"[99999,99999]","[150,0]",up,1,,,,,,001,2025-03-11_12h46.03.374,SL_sali_41,2021.2.3,Win32,163.9344262,1.1696,,,49,0,49,0,1,,,,,,,,
,,"[""circle"",""red"",""hori"",""left"",[0,-150],[-106,-106]]",circle,red,hori,left,"[0,-150]","[-106,-106]",left,1,,,,,,001,2025-03-11_12h46.03.374,SL_sali_41,2021.2.3,Win32,163.9344262,0.8856,,,50,0,50,0,1,,,,,,,,
,,"[""circle"",""green"",""vert"",""up"",[106,-106],[106,106]]",circle,green,vert,up,"[106,-106]","[106,106]",up,1,,,,,,001,2025-03-11_12h46.03.374,SL_sali_41,2021.2.3,Win32,163.9344262,0.7575,,,51,0,51,0,1,,,,,,,,
,,"[""diamond"",""no_dis"",""hori"",""left"",[99999,99999],[106,-106]]",diamond,no_dis,hori,left,"[99999,99999]","[106,-106]",left,1,,,,,,001,2025-03-11_12h46.03.374,SL_sali_41,2021.2.3,Win32,163.9344262,0.8672,,,52,0,52,0,1,,,,,,,,
,,"[""diamond"",""red"",""vert"",""up"",[150,0],[106,106]]",diamond,red,vert,up,"[150,0]","[106,106]",up,1,,,,,,001,2025-03-11_12h46.03.374,SL_sali_41,2021.2.3,Win32,163.9344262,1.8541,,,53,0,53,0,1,,,,,,,,
,,"[""diamond"",""red"",""vert"",""up"",[150,0],[-106,106]]",diamond,red,vert,up,"[150,0]","[-106,106]",up,1,,,,,,001,2025-03-11_12h46.03.374,SL_sali_41,2021.2.3,Win32,163.9344262,1.0179,,,54,0,54,0,1,,,,,,,,
,,"[""circle"",""no_dis"",""hori"",""left"",[99999,99999],[-106,106]]",circle,no_dis,hori,left,"[99999,99999]","[-106,106]",left,1,,,,,,001,2025-03-11_12h46.03.374,SL_sali_41,2021.2.3,Win32,163.9344262,0.6848,,,55,0,55,0,1,,,,,,,,
,,"[""circle"",""no_dis"",""vert"",""up"",[99999,99999],[-106,-106]]",circle,no_dis,vert,up,"[99999,99999]","[-106,-106]",up,1,,,,,,001,2025-03-11_12h46.03.374,SL_sali_41,2021.2.3,Win32,163.9344262,1.37,,,56,0,56,0,1,,,,,,,,
,,"[""circle"",""no_dis"",""vert"",""up"",[99999,99999],[-106,-106]]",circle,no_dis,vert,up,"[99999,99999]","[-106,-106]",up,1,,,,,,001,2025-03-11_12h46.03.374,SL_sali_41,2021.2.3,Win32,163.9344262,0.976,,,57,0,57,0,1,,,,,,,,
,,"[""diamond"",""red"",""hori"",""left"",[150,0],[0,-150]]",diamond,red,hori,left,"[150,0]","[0,-150]",left,1,,,,,,001,2025-03-11_12h46.03.374,SL_sali_41,2021.2.3,Win32,163.9344262,1.0787,,,58,0,58,0,1,,,,,,,,
,,"[""circle"",""red"",""hori"",""left"",[106,-106],[106,106]]",circle,red,hori,left,"[106,-106]","[106,106]",up,0,,,,,,001,2025-03-11_12h46.03.374,SL_sali_41,2021.2.3,Win32,163.9344262,0.6071,,,59,0,59,0,1,,,,,,,,
,,"[""diamond"",""red"",""hori"",""left"",[-150,0],[-106,-106]]",diamond,red,hori,left,"[-150,0]","[-106,-106]",left,1,,,,,,001,2025-03-11_12h46.03.374,SL_sali_41,2021.2.3,Win32,163.9344262,2.303,,,60,0,60,0,1,,,,,,,,
,,"[""diamond"",""no_dis"",""vert"",""up"",[99999,99999],[0,-150]]",diamond,no_dis,vert,up,"[99999,99999]","[0,-150]",up,1,,,,,,001,2025-03-11_12h46.03.374,SL_sali_41,2021.2.3,Win32,163.9344262,1.9459,,,61,0,61,0,1,,,,,,,,
,,"[""circle"",""red"",""vert"",""up"",[-150,0],[-106,106]]",circle,red,vert,up,"[-150,0]","[-106,106]",up,1,,,,,,001,2025-03-11_12h46.03.374,SL_sali_41,2021.2.3,Win32,163.9344262,1.8971,,,62,0,62,0,1,,,,,,,,
,,"[""diamond"",""no_dis"",""vert"",""up"",[99999,99999],[106,106]]",diamond,no_dis,vert,up,"[99999,99999]","[106,106]",up,1,,,,,,001,2025-03-11_12h46.03.374,SL_sali_41,2021.2.3,Win32,163.9344262,1.1636,,,63,0,63,0,1,,,,,,,,
,,"[""diamond"",""no_dis"",""hori"",""left"",[99999,99999],[0,-150]]",diamond,no_dis,hori,left,"[99999,99999]","[0,-150]",up,0,,,,,,001,2025-03-11_12h46.03.374,SL_sali_41,2021.2.3,Win32,163.9344262,0.77,,,64,0,64,0,1,,,,,,,,
,,"[""diamond"",""red"",""hori"",""left"",[-150,0],[106,-106]]",diamond,red,hori,left,"[-150,0]","[106,-106]",left,1,,,,,,001,2025-03-11_12h46.03.374,SL_sali_41,2021.2.3,Win32,163.9344262,1.2915,,,65,0,65,0,1,,,,,,,,
,,"[""circle"",""green"",""vert"",""up"",[150,0],[0,-150]]",circle,green,vert,up,"[150,0]","[0,-150]",up,1,,,,,,001,2025-03-11_12h46.03.374,SL_sali_41,2021.2.3,Win32,163.9344262,1.2747,,,66,0,66,0,1,,,,,,,,
,,"[""circle"",""red"",""hori"",""left"",[-150,0],[0,150]]",circle,red,hori,left,"[-150,0]","[0,150]",left,1,,,,,,001,2025-03-11_12h46.03.374,SL_sali_41,2021.2.3,Win32,163.9344262,1.743,,,67,0,67,0,1,,,,,,,,
,,"[""diamond"",""no_dis"",""hori"",""left"",[99999,99999],[-150,0]]",diamond,no_dis,hori,left,"[99999,99999]","[-150,0]",left,1,,,,,,001,2025-03-11_12h46.03.374,SL_sali_41,2021.2.3,Win32,163.9344262,1.7588,,,68,0,68,0,1,,,,,,,,
,,"[""circle"",""no_dis"",""vert"",""up"",[99999,99999],[106,-106]]",circle,no_dis,vert,up,"[99999,99999]","[106,-106]",left,0,,,,,,001,2025-03-11_12h46.03.374,SL_sali_41,2021.2.3,Win32,163.9344262,0.8545,,,69,0,69,0,1,,,,,,,,
,,"[""circle"",""red"",""hori"",""left"",[106,106],[-106,106]]",circle,red,hori,left,"[106,106]","[-106,106]",left,1,,,,,,001,2025-03-11_12h46.03.374,SL_sali_41,2021.2.3,Win32,163.9344262,1.1244,,,70,0,70,0,1,,,,,,,,
,,"[""diamond"",""no_dis"",""vert"",""up"",[99999,99999],[-106,-106]]",diamond,no_dis,vert,up,"[99999,99999]","[-106,-106]",up,1,,,,,,001,2025-03-11_12h46.03.374,SL_sali_41,2021.2.3,Win32,163.9344262,1.31,,,71,0,71,0,1,,,,,,,,
,,"[""circle"",""green"",""vert"",""up"",[106,-106],[106,106]]",circle,green,vert,up,"[106,-106]","[106,106]",left,0,,,,,,001,2025-03-11_12h46.03.374,SL_sali_41,2021.2.3,Win32,163.9344262,1.3694,,,72,0,72,0,1,,,,,,,,
,,"[""circle"",""red"",""hori"",""left"",[106,106],[150,0]]",circle,red,hori,left,"[106,106]","[150,0]",left,1,,,,,,001,2025-03-11_12h46.03.374,SL_sali_41,2021.2.3,Win32,163.9344262,1.2429,,,73,0,73,0,1,,,,,,,,
,,"[""diamond"",""green"",""vert"",""up"",[150,0],[-106,-106]]",diamond,green,vert,up,"[150,0]","[-106,-106]",up,1,,,,,,001,2025-03-11_12h46.03.374,SL_sali_41,2021.2.3,Win32,163.9344262,2.1572,,,74,0,74,0,1,,,,,,,,
,,"[""circle"",""no_dis"",""vert"",""up"",[99999,99999],[106,106]]",circle,no_dis,vert,up,"[99999,99999]","[106,106]",up,1,,,,,,001,2025-03-11_12h46.03.374,SL_sali_41,2021.2.3,Win32,163.9344262,1.747,,,75,0,75,0,1,,,,,,,,
,,"[""diamond"",""green"",""vert"",""up"",[-106,106],[150,0]]",diamond,green,vert,up,"[-106,106]","[150,0]",up,1,,,,,,001,2025-03-11_12h46.03.374,SL_sali_41,2021.2.3,Win32,163.9344262,1.4624,,,76,0,76,0,1,,,,,,,,
,,"[""diamond"",""red"",""hori"",""left"",[150,0],[-106,-106]]",diamond,red,hori,left,"[150,0]","[-106,-106]",up,0,,,,,,001,2025-03-11_12h46.03.374,SL_sali_41,2021.2.3,Win32,163.9344262,1.8187,,,77,0,77,0,1,,,,,,,,
,,"[""diamond"",""red"",""hori"",""left"",[150,0],[0,150]]",diamond,red,hori,left,"[150,0]","[0,150]",left,1,,,,,,001,2025-03-11_12h46.03.374,SL_sali_41,2021.2.3,Win32,163.9344262,0.7609,,,78,0,78,0,1,,,,,,,,
,,"[""circle"",""green"",""hori"",""left"",[106,106],[0,150]]",circle,green,hori,left,"[106,106]","[0,150]",left,1,,,,,,001,2025-03-11_12h46.03.374,SL_sali_41,2021.2.3,Win32,163.9344262,1.275,,,79,0,79,0,1,,,,,,,,
,,"[""circle"",""no_dis"",""hori"",""left"",[99999,99999],[0,150]]",circle,no_dis,hori,left,"[99999,99999]","[0,150]",left,1,,,,,,001,2025-03-11_12h46.03.374,SL_sali_41,2021.2.3,Win32,163.9344262,1.7097,,,80,0,80,0,1,,,,,,,,
,,"[""circle"",""green"",""vert"",""up"",[0,150],[106,-106]]",circle,green,vert,up,"[0,150]","[106,-106]",up,1,,,,,,001,2025-03-11_12h46.03.374,SL_sali_41,2021.2.3,Win32,163.9344262,1.2181,,,81,0,81,0,1,,,,,,,,
,,"[""circle"",""red"",""vert"",""up"",[0,150],[106,-106]]",circle,red,vert,up,"[0,150]","[106,-106]",up,1,,,,,,001,2025-03-11_12h46.03.374,SL_sali_41,2021.2.3,Win32,163.9344262,1.2192,,,82,0,82,0,1,,,,,,,,
,,"[""diamond"",""green"",""vert"",""up"",[-106,-106],[-106,106]]",diamond,green,vert,up,"[-106,-106]","[-106,106]",up,1,,,,,,001,2025-03-11_12h46.03.374,SL_sali_41,2021.2.3,Win32,163.9344262,2.77,,,83,0,83,0,1,,,,,,,,
,,"[""diamond"",""red"",""vert"",""up"",[150,0],[106,106]]",diamond,red,vert,up,"[150,0]","[106,106]",up,1,,,,,,001,2025-03-11_12h46.03.374,SL_sali_41,2021.2.3,Win32,163.9344262,1.6144,,,84,0,84,0,1,,,,,,,,
,,"[""diamond"",""red"",""vert"",""up"",[0,150],[106,106]]",diamond,red,vert,up,"[0,150]","[106,106]",up,1,,,,,,001,2025-03-11_12h46.03.374,SL_sali_41,2021.2.3,Win32,163.9344262,1.7886,,,85,0,85,0,1,,,,,,,,
,,"[""diamond"",""red"",""vert"",""up"",[0,150],[106,-106]]",diamond,red,vert,up,"[0,150]","[106,-106]",up,1,,,,,,001,2025-03-11_12h46.03.374,SL_sali_41,2021.2.3,Win32,163.9344262,1.7582,,,86,0,86,0,1,,,,,,,,
,,"[""diamond"",""green"",""hori"",""left"",[-106,106],[106,106]]",diamond,green,hori,left,"[-106,106]","[106,106]",left,1,,,,,,001,2025-03-11_12h46.03.374,SL_sali_41,2021.2.3,Win32,163.9344262,1.2602,,,87,0,87,0,1,,,,,,,,
,,"[""diamond"",""green"",""vert"",""up"",[-106,-106],[150,0]]",diamond,green,vert,up,"[-106,-106]","[150,0]",up,1,,,,,,001,2025-03-11_12h46.03.374,SL_sali_41,2021.2.3,Win32,163.9344262,0.8304,,,88,0,88,0,1,,,,,,,,
,,"[""circle"",""green"",""hori"",""left"",[150,0],[106,-106]]",circle,green,hori,left,"[150,0]","[106,-106]",left,1,,,,,,001,2025-03-11_12h46.03.374,SL_sali_41,2021.2.3,Win32,163.9344262,1.2126,,,89,0,89,0,1,,,,,,,,
,,"[""diamond"",""green"",""hori"",""left"",[106,106],[150,0]]",diamond,green,hori,left,"[106,106]","[150,0]",left,1,,,,,,001,2025-03-11_12h46.03.374,SL_sali_41,2021.2.3,Win32,163.9344262,1.382,,,90,0,90,0,1,,,,,,,,
,,"[""circle"",""red"",""vert"",""up"",[150,0],[-150,0]]",circle,red,vert,up,"[150,0]","[-150,0]",left,0,,,,,,001,2025-03-11_12h46.03.374,SL_sali_41,2021.2.3,Win32,163.9344262,1.7215,,,91,0,91,0,1,,,,,,,,
,,"[""circle"",""green"",""hori"",""left"",[106,106],[-150,0]]",circle,green,hori,left,"[106,106]","[-150,0]",left,1,,,,,,001,2025-03-11_12h46.03.374,SL_sali_41,2021.2.3,Win32,163.9344262,0.8845,,,92,0,92,0,1,,,,,,,,
,,"[""circle"",""red"",""vert"",""up"",[0,150],[-106,-106]]",circle,red,vert,up,"[0,150]","[-106,-106]",up,1,,,,,,001,2025-03-11_12h46.03.374,SL_sali_41,2021.2.3,Win32,163.9344262,1.4909,,,93,0,93,0,1,,,,,,,,
,,"[""circle"",""green"",""vert"",""up"",[-150,0],[106,-106]]",circle,green,vert,up,"[-150,0]","[106,-106]",up,1,,,,,,001,2025-03-11_12h46.03.374,SL_sali_41,2021.2.3,Win32,163.9344262,1.164,,,94,0,94,0,1,,,,,,,,
,,"[""diamond"",""no_dis"",""vert"",""up"",[99999,99999],[-106,-106]]",diamond,no_dis,vert,up,"[99999,99999]","[-106,-106]",up,1,,,,,,001,2025-03-11_12h46.03.374,SL_sali_41,2021.2.3,Win32,163.9344262,1.475,,,95,0,95,0,1,,,,,,,,
,,"[""diamond"",""no_dis"",""vert"",""up"",[99999,99999],[106,-106]]",diamond,no_dis,vert,up,"[99999,99999]","[106,-106]",up,1,,,,,,001,2025-03-11_12h46.03.374,SL_sali_41,2021.2.3,Win32,163.9344262,1.4903,,,96,0,96,0,1,,,,,,,,
,,"[""circle"",""green"",""vert"",""up"",[150,0],[-106,-106]]",circle,green,vert,up,"[150,0]","[-106,-106]",up,1,,,,,,001,2025-03-11_12h46.03.374,SL_sali_41,2021.2.3,Win32,163.9344262,1.0962,,,97,0,97,0,1,,,,,,,,
,,"[""diamond"",""green"",""hori"",""left"",[-106,106],[0,-150]]",diamond,green,hori,left,"[-106,106]","[0,-150]",left,1,,,,,,001,2025-03-11_12h46.03.374,SL_sali_41,2021.2.3,Win32,163.9344262,2.018,,,98,0,98,0,1,,,,,,,,
,,"[""circle"",""green"",""vert"",""up"",[-106,106],[150,0]]",circle,green,vert,up,"[-106,106]","[150,0]",up,1,,,,,,001,2025-03-11_12h46.03.374,SL_sali_41,2021.2.3,Win32,163.9344262,1.1287,,,99,0,99,0,1,,,,,,,,
,,"[""circle"",""red"",""hori"",""left"",[-106,-106],[106,-106]]",circle,red,hori,left,"[-106,-106]","[106,-106]",left,1,,,,,,001,2025-03-11_12h46.03.374,SL_sali_41,2021.2.3,Win32,163.9344262,1.0551,,,100,0,100,0,1,,,,,,,,
,,"[""diamond"",""no_dis"",""vert"",""up"",[99999,99999],[-106,106]]",diamond,no_dis,vert,up,"[99999,99999]","[-106,106]",up,1,,,,,,001,2025-03-11_12h46.03.374,SL_sali_41,2021.2.3,Win32,163.9344262,1.7464,,,101,0,101,0,1,,,,,,,,
,,"[""diamond"",""green"",""hori"",""left"",[150,0],[-106,-106]]",diamond,green,hori,left,"[150,0]","[-106,-106]",left,1,,,,,,001,2025-03-11_12h46.03.374,SL_sali_41,2021.2.3,Win32,163.9344262,1.1939,,,102,0,102,0,1,,,,,,,,
,,"[""circle"",""green"",""hori"",""left"",[-106,106],[-150,0]]",circle,green,hori,left,"[-106,106]","[-150,0]",left,1,,,,,,001,2025-03-11_12h46.03.374,SL_sali_41,2021.2.3,Win32,163.9344262,0.7785,,,103,0,103,0,1,,,,,,,,
,,"[""diamond"",""green"",""hori"",""left"",[150,0],[0,150]]",diamond,green,hori,left,"[150,0]","[0,150]",left,1,,,,,,001,2025-03-11_12h46.03.374,SL_sali_41,2021.2.3,Win32,163.9344262,0.9939,,,104,0,104,0,1,,,,,,,,
,,"[""diamond"",""no_dis"",""hori"",""left"",[99999,99999],[106,106]]",diamond,no_dis,hori,left,"[99999,99999]","[106,106]",left,1,,,,,,001,2025-03-11_12h46.03.374,SL_sali_41,2021.2.3,Win32,163.9344262,1.497,,,105,0,105,0,1,,,,,,,,
,,"[""diamond"",""green"",""hori"",""left"",[150,0],[106,-106]]",diamond,green,hori,left,"[150,0]","[106,-106]",left,1,,,,,,001,2025-03-11_12h46.03.374,SL_sali_41,2021.2.3,Win32,163.9344262,1.0829,,,106,0,106,0,1,,,,,,,,
,,"[""circle"",""red"",""hori"",""left"",[106,106],[0,-150]]",circle,red,hori,left,"[106,106]","[0,-150]",left,1,,,,,,001,2025-03-11_12h46.03.374,SL_sali_41,2021.2.3,Win32,163.9344262,1.8792,,,107,0,107,0,1,,,,,,,,
,,"[""circle"",""no_dis"",""hori"",""left"",[99999,99999],[106,106]]",circle,no_dis,hori,left,"[99999,99999]","[106,106]",left,1,,,,,,001,2025-03-11_12h46.03.374,SL_sali_41,2021.2.3,Win32,163.9344262,1.8966,,,108,0,108,0,1,,,,,,,,
,,"[""circle"",""no_dis"",""hori"",""left"",[99999,99999],[-106,106]]",circle,no_dis,hori,left,"[99999,99999]","[-106,106]",left,1,,,,,,001,2025-03-11_12h46.03.374,SL_sali_41,2021.2.3,Win32,163.9344262,1.2808,,,109,0,109,0,1,,,,,,,,
,,"[""diamond"",""no_dis"",""hori"",""left"",[99999,99999],[0,150]]",diamond,no_dis,hori,left,"[99999,99999]","[0,150]",left,1,,,,,,001,2025-03-11_12h46.03.374,SL_sali_41,2021.2.3,Win32,163.9344262,1.0302,,,110,0,110,0,1,,,,,,,,
,,"[""circle"",""red"",""hori"",""left"",[-106,-106],[0,150]]",circle,red,hori,left,"[-106,-106]","[0,150]",left,1,,,,,,001,2025-03-11_12h46.03.374,SL_sali_41,2021.2.3,Win32,163.9344262,1.5094,,,111,0,111,0,1,,,,,,,,
,,"[""diamond"",""red"",""vert"",""up"",[0,-150],[106,106]]",diamond,red,vert,up,"[0,-150]","[106,106]",up,1,,,,,,001,2025-03-11_12h46.03.374,SL_sali_41,2021.2.3,Win32,163.9344262,0.9771,,,112,0,112,0,1,,,,,,,,
,,"[""circle"",""green"",""hori"",""left"",[0,-150],[106,-106]]",circle,green,hori,left,"[0,-150]","[106,-106]",left,1,,,,,,001,2025-03-11_12h46.03.374,SL_sali_41,2021.2.3,Win32,163.9344262,0.9764,,,113,0,113,0,1,,,,,,,,
,,"[""diamond"",""no_dis"",""vert"",""up"",[99999,99999],[150,0]]",diamond,no_dis,vert,up,"[99999,99999]","[150,0]",up,1,,,,,,001,2025-03-11_12h46.03.374,SL_sali_41,2021.2.3,Win32,163.9344262,1.1532,,,114,0,114,0,1,,,,,,,,
,,"[""diamond"",""no_dis"",""hori"",""left"",[99999,99999],[-150,0]]",diamond,no_dis,hori,left,"[99999,99999]","[-150,0]",left,1,,,,,,001,2025-03-11_12h46.03.374,SL_sali_41,2021.2.3,Win32,163.9344262,2.0115,,,115,0,115,0,1,,,,,,,,
,,"[""circle"",""green"",""hori"",""left"",[150,0],[-150,0]]",circle,green,hori,left,"[150,0]","[-150,0]",left,1,,,,,,001,2025-03-11_12h46.03.374,SL_sali_41,2021.2.3,Win32,163.9344262,0.7517,,,116,0,116,0,1,,,,,,,,
,,"[""circle"",""red"",""hori"",""left"",[106,-106],[150,0]]",circle,red,hori,left,"[106,-106]","[150,0]",left,1,,,,,,001,2025-03-11_12h46.03.374,SL_sali_41,2021.2.3,Win32,163.9344262,0.6336,,,117,0,117,0,1,,,,,,,,
,,"[""circle"",""no_dis"",""vert"",""up"",[99999,99999],[106,-106]]",circle,no_dis,vert,up,"[99999,99999]","[106,-106]",up,1,,,,,,001,2025-03-11_12h46.03.374,SL_sali_41,2021.2.3,Win32,163.9344262,0.8486,,,118,0,118,0,1,,,,,,,,
,,"[""circle"",""no_dis"",""hori"",""left"",[99999,99999],[-150,0]]",circle,no_dis,hori,left,"[99999,99999]","[-150,0]",left,1,,,,,,001,2025-03-11_12h46.03.374,SL_sali_41,2021.2.3,Win32,163.9344262,0.6718,,,119,0,119,0,1,,,,,,,,
,,"[""circle"",""green"",""vert"",""up"",[0,150],[-150,0]]",circle,green,vert,up,"[0,150]","[-150,0]",left,0,,,,,,001,2025-03-11_12h46.03.374,SL_sali_41,2021.2.3,Win32,163.9344262,0.7514,,,120,0,120,0,1,,,,,,,,
,,"[""circle"",""red"",""hori"",""left"",[106,-106],[0,150]]",circle,red,hori,left,"[106,-106]","[0,150]",left,1,,,,,,001,2025-03-11_12h46.03.374,SL_sali_41,2021.2.3,Win32,163.9344262,0.9959,,,121,0,121,0,1,,,,,,,,
,,"[""circle"",""green"",""hori"",""left"",[-106,106],[150,0]]",circle,green,hori,left,"[-106,106]","[150,0]",left,1,,,,,,001,2025-03-11_12h46.03.374,SL_sali_41,2021.2.3,Win32,163.9344262,1.0563,,,122,0,122,0,1,,,,,,,,
,,"[""circle"",""no_dis"",""vert"",""up"",[99999,99999],[0,150]]",circle,no_dis,vert,up,"[99999,99999]","[0,150]",up,1,,,,,,001,2025-03-11_12h46.03.374,SL_sali_41,2021.2.3,Win32,163.9344262,0.5819,,,123,0,123,0,1,,,,,,,,
,,"[""circle"",""red"",""vert"",""up"",[0,-150],[-150,0]]",circle,red,vert,up,"[0,-150]","[-150,0]",left,0,,,,,,001,2025-03-11_12h46.03.374,SL_sali_41,2021.2.3,Win32,163.9344262,0.7275,,,124,0,124,0,1,,,,,,,,
,,"[""diamond"",""red"",""vert"",""up"",[150,0],[106,-106]]",diamond,red,vert,up,"[150,0]","[106,-106]",up,1,,,,,,001,2025-03-11_12h46.03.374,SL_sali_41,2021.2.3,Win32,163.9344262,0.9093,,,125,0,125,0,1,,,,,,,,
,,"[""circle"",""red"",""hori"",""left"",[0,-150],[106,106]]",circle,red,hori,left,"[0,-150]","[106,106]",left,1,,,,,,001,2025-03-11_12h46.03.374,SL_sali_41,2021.2.3,Win32,163.9344262,0.7096,,,126,0,126,0,1,,,,,,,,
,,"[""diamond"",""red"",""hori"",""left"",[150,0],[0,-150]]",diamond,red,hori,left,"[150,0]","[0,-150]",left,1,,,,,,001,2025-03-11_12h46.03.374,SL_sali_41,2021.2.3,Win32,163.9344262,0.7935,,,127,0,127,0,1,,,,,,,,
,,,,,,,,,,,,,,,,001,2025-03-11_12h46.03.374,SL_sali_41,2021.2.3,Win32,163.9344262,,,,,,,,,1,space,84.7048,0,0,0,0,1
,,"[""diamond"",""no_dis"",""vert"",""up"",[99999,99999],[150,0]]",diamond,no_dis,vert,up,"[99999,99999]","[150,0]",up,1,,,,,,001,2025-03-11_12h46.03.374,SL_sali_41,2021.2.3,Win32,163.9344262,1.2874,,,0,0,0,0,1,,,,,,,,
,,"[""diamond"",""green"",""hori"",""left"",[-106,106],[106,106]]",diamond,green,hori,left,"[-106,106]","[106,106]",up,0,,,,,,001,2025-03-11_12h46.03.374,SL_sali_41,2021.2.3,Win32,163.9344262,0.824,,,1,0,1,0,1,,,,,,,,
,,"[""circle"",""red"",""vert"",""up"",[150,0],[106,106]]",circle,red,vert,up,"[150,0]","[106,106]",up,1,,,,,,001,2025-03-11_12h46.03.374,SL_sali_41,2021.2.3,Win32,163.9344262,1.2067,,,2,0,2,0,1,,,,,,,,
,,"[""circle"",""no_dis"",""hori"",""left"",[99999,99999],[-106,106]]",circle,no_dis,hori,left,"[99999,99999]","[-106,106]",left,1,,,,,,001,2025-03-11_12h46.03.374,SL_sali_41,2021.2.3,Win32,163.9344262,0.8488,,,3,0,3,0,1,,,,,,,,
,,"[""diamond"",""red"",""hori"",""left"",[150,0],[-106,-106]]",diamond,red,hori,left,"[150,0]","[-106,-106]",left,1,,,,,,001,2025-03-11_12h46.03.374,SL_sali_41,2021.2.3,Win32,163.9344262,1.4243,,,4,0,4,0,1,,,,,,,,
,,"[""circle"",""no_dis"",""vert"",""up"",[99999,99999],[106,-106]]",circle,no_dis,vert,up,"[99999,99999]","[106,-106]",up,1,,,,,,001,2025-03-11_12h46.03.374,SL_sali_41,2021.2.3,Win32,163.9344262,1.0388,,,5,0,5,0,1,,,,,,,,
,,"[""diamond"",""green"",""vert"",""up"",[-150,0],[0,150]]",diamond,green,vert,up,"[-150,0]","[0,150]",up,1,,,,,,001,2025-03-11_12h46.03.374,SL_sali_41,2021.2.3,Win32,163.9344262,1.115,,,6,0,6,0,1,,,,,,,,
,,"[""circle"",""no_dis"",""hori"",""left"",[99999,99999],[150,0]]",circle,no_dis,hori,left,"[99999,99999]","[150,0]",left,1,,,,,,001,2025-03-11_12h46.03.374,SL_sali_41,2021.2.3,Win32,163.9344262,0.8699,,,7,0,7,0,1,,,,,,,,
,,"[""diamond"",""no_dis"",""vert"",""up"",[99999,99999],[106,-106]]",diamond,no_dis,vert,up,"[99999,99999]","[106,-106]",up,1,,,,,,001,2025-03-11_12h46.03.374,SL_sali_41,2021.2.3,Win32,163.9344262,0.8883,,,8,0,8,0,1,,,,,,,,
,,"[""circle"",""red"",""hori"",""left"",[0,-150],[106,106]]",circle,red,hori,left,"[0,-150]","[106,106]",left,1,,,,,,001,2025-03-11_12h46.03.374,SL_sali_41,2021.2.3,Win32,163.9344262,1.0632,,,9,0,9,0,1,,,,,,,,
,,"[""circle"",""green"",""hori"",""left"",[150,0],[-150,0]]",circle,green,hori,left,"[150,0]","[-150,0]",left,1,,,,,,001,2025-03-11_12h46.03.374,SL_sali_41,2021.2.3,Win32,163.9344262,0.7267,,,10,0,10,0,1,,,,,,,,
,,"[""diamond"",""no_dis"",""vert"",""up"",[99999,99999],[-106,-106]]",diamond,no_dis,vert,up,"[99999,99999]","[-106,-106]",left,0,,,,,,001,2025-03-11_12h46.03.374,SL_sali_41,2021.2.3,Win32,163.9344262,0.9393,,,11,0,11,0,1,,,,,,,,
,,"[""diamond"",""no_dis"",""hori"",""left"",[99999,99999],[106,-106]]",diamond,no_dis,hori,left,"[99999,99999]","[106,-106]",left,1,,,,,,001,2025-03-11_12h46.03.374,SL_sali_41,2021.2.3,Win32,163.9344262,1.0318,,,12,0,12,0,1,,,,,,,,
,,"[""circle"",""red"",""hori"",""left"",[-106,-106],[106,-106]]",circle,red,hori,left,"[-106,-106]","[106,-106]",left,1,,,,,,001,2025-03-11_12h46.03.374,SL_sali_41,2021.2.3,Win32,163.9344262,1.0059,,,13,0,13,0,1,,,,,,,,
,,"[""diamond"",""green"",""vert"",""up"",[-106,-106],[150,0]]",diamond,green,vert,up,"[-106,-106]","[150,0]",up,1,,,,,,001,2025-03-11_12h46.03.374,SL_sali_41,2021.2.3,Win32,163.9344262,1.2626,,,14,0,14,0,1,,,,,,,,
,,"[""diamond"",""red"",""vert"",""up"",[0,150],[106,-106]]",diamond,red,vert,up,"[0,150]","[106,-106]",up,1,,,,,,001,2025-03-11_12h46.03.374,SL_sali_41,2021.2.3,Win32,163.9344262,1.3042,,,15,0,15,0,1,,,,,,,,
,,"[""circle"",""no_dis"",""hori"",""left"",[99999,99999],[106,106]]",circle,no_dis,hori,left,"[99999,99999]","[106,106]",left,1,,,,,,001,2025-03-11_12h46.03.374,SL_sali_41,2021.2.3,Win32,163.9344262,0.743,,,16,0,16,0,1,,,,,,,,
,,"[""diamond"",""red"",""hori"",""left"",[-150,0],[-106,-106]]",diamond,red,hori,left,"[-150,0]","[-106,-106]",left,1,,,,,,001,2025-03-11_12h46.03.374,SL_sali_41,2021.2.3,Win32,163.9344262,1.505,,,17,0,17,0,1,,,,,,,,
,,"[""circle"",""green"",""vert"",""up"",[0,150],[106,-106]]",circle,green,vert,up,"[0,150]","[106,-106]",up,1,,,,,,001,2025-03-11_12h46.03.374,SL_sali_41,2021.2.3,Win32,163.9344262,1.0609,,,18,0,18,0,1,,,,,,,,
,,"[""circle"",""green"",""hori"",""left"",[106,-106],[0,150]]",circle,green,hori,left,"[106,-106]","[0,150]",left,1,,,,,,001,2025-03-11_12h46.03.374,SL_sali_41,2021.2.3,Win32,163.9344262,1.8058,,,19,0,19,0,1,,,,,,,,
,,"[""diamond"",""no_dis"",""vert"",""up"",[99999,99999],[-106,106]]",diamond,no_dis,vert,up,"[99999,99999]","[-106,106]",up,1,,,,,,001,2025-03-11_12h46.03.374,SL_sali_41,2021.2.3,Win32,163.9344262,1.0182,,,20,0,20,0,1,,,,,,,,
,,"[""circle"",""red"",""hori"",""left"",[-150,0],[0,150]]",circle,red,hori,left,"[-150,0]","[0,150]",left,1,,,,,,001,2025-03-11_12h46.03.374,SL_sali_41,2021.2.3,Win32,163.9344262,1.8662,,,21,0,21,0,1,,,,,,,,
,,"[""circle"",""red"",""vert"",""up"",[0,150],[-106,-106]]",circle,red,vert,up,"[0,150]","[-106,-106]",up,1,,,,,,001,2025-03-11_12h46.03.374,SL_sali_41,2021.2.3,Win32,163.9344262,0.7821,,,22,0,22,0,1,,,,,,,,
,,"[""diamond"",""green"",""hori"",""left"",[150,0],[106,-106]]",diamond,green,hori,left,"[150,0]","[106,-106]",left,1,,,,,,001,2025-03-11_12h46.03.374,SL_sali_41,2021.2.3,Win32,163.9344262,2.2437,,,23,0,23,0,1,,,,,,,,
,,"[""circle"",""no_dis"",""vert"",""up"",[99999,99999],[106,106]]",circle,no_dis,vert,up,"[99999,99999]","[106,106]",,0,,,,,,001,2025-03-11_12h46.03.374,SL_sali_41,2021.2.3,Win32,163.9344262,,,,24,0,24,0,1,,,,,,,,
,,"[""diamond"",""no_dis"",""vert"",""up"",[99999,99999],[-106,106]]",diamond,no_dis,vert,up,"[99999,99999]","[-106,106]",up,1,,,,,,001,2025-03-11_12h46.03.374,SL_sali_41,2021.2.3,Win32,163.9344262,1.031,,,25,0,25,0,1,,,,,,,,
,,"[""circle"",""green"",""hori"",""left"",[150,0],[106,106]]",circle,green,hori,left,"[150,0]","[106,106]",left,1,,,,,,001,2025-03-11_12h46.03.374,SL_sali_41,2021.2.3,Win32,163.9344262,1.6969,,,26,0,26,0,1,,,,,,,,
,,"[""circle"",""red"",""vert"",""up"",[150,0],[106,106]]",circle,red,vert,up,"[150,0]","[106,106]",up,1,,,,,,001,2025-03-11_12h46.03.374,SL_sali_41,2021.2.3,Win32,163.9344262,1.3336,,,27,0,27,0,1,,,,,,,,
,,"[""circle"",""green"",""vert"",""up"",[106,-106],[106,106]]",circle,green,vert,up,"[106,-106]","[106,106]",up,1,,,,,,001,2025-03-11_12h46.03.374,SL_sali_41,2021.2.3,Win32,163.9344262,1.5034,,,28,0,28,0,1,,,,,,,,
,,"[""diamond"",""red"",""vert"",""up"",[150,0],[-106,106]]",diamond,red,vert,up,"[150,0]","[-106,106]",up,1,,,,,,001,2025-03-11_12h46.03.374,SL_sali_41,2021.2.3,Win32,163.9344262,1.0196,,,29,0,29,0,1,,,,,,,,
,,"[""circle"",""red"",""vert"",""up"",[0,150],[106,-106]]",circle,red,vert,up,"[0,150]","[106,-106]",up,1,,,,,,001,2025-03-11_12h46.03.374,SL_sali_41,2021.2.3,Win32,163.9344262,1.007,,,30,0,30,0,1,,,,,,,,
,,"[""diamond"",""no_dis"",""hori"",""left"",[99999,99999],[0,-150]]",diamond,no_dis,hori,left,"[99999,99999]","[0,-150]",left,1,,,,,,001,2025-03-11_12h46.03.374,SL_sali_41,2021.2.3,Win32,163.9344262,1.2609,,,31,0,31,0,1,,,,,,,,
,,"[""diamond"",""green"",""hori"",""left"",[150,0],[-106,106]]",diamond,green,hori,left,"[150,0]","[-106,106]",left,1,,,,,,001,2025-03-11_12h46.03.374,SL_sali_41,2021.2.3,Win32,163.9344262,1.1705,,,32,0,32,0,1,,,,,,,,
,,"[""circle"",""red"",""hori"",""left"",[-106,-106],[0,150]]",circle,red,hori,left,"[-106,-106]","[0,150]",left,1,,,,,,001,2025-03-11_12h46.03.374,SL_sali_41,2021.2.3,Win32,163.9344262,1.7154,,,33,0,33,0,1,,,,,,,,
,,"[""diamond"",""green"",""vert"",""up"",[150,0],[0,-150]]",diamond,green,vert,up,"[150,0]","[0,-150]",up,1,,,,,,001,2025-03-11_12h46.03.374,SL_sali_41,2021.2.3,Win32,163.9344262,1.0437,,,34,0,34,0,1,,,,,,,,
,,"[""diamond"",""no_dis"",""vert"",""up"",[99999,99999],[106,106]]",diamond,no_dis,vert,up,"[99999,99999]","[106,106]",up,1,,,,,,001,2025-03-11_12h46.03.374,SL_sali_41,2021.2.3,Win32,163.9344262,0.9712,,,35,0,35,0,1,,,,,,,,
,,"[""diamond"",""red"",""hori"",""left"",[150,0],[0,-150]]",diamond,red,hori,left,"[150,0]","[0,-150]",left,1,,,,,,001,2025-03-11_12h46.03.374,SL_sali_41,2021.2.3,Win32,163.9344262,0.82,,,36,0,36,0,1,,,,,,,,
,,"[""circle"",""green"",""hori"",""left"",[-106,106],[106,106]]",circle,green,hori,left,"[-106,106]","[106,106]",up,0,,,,,,001,2025-03-11_12h46.03.374,SL_sali_41,2021.2.3,Win32,163.9344262,0.9756,,,37,0,37,0,1,,,,,,,,
,,"[""diamond"",""red"",""hori"",""left"",[150,0],[-106,-106]]",diamond,red,hori,left,"[150,0]","[-106,-106]",left,1,,,,,,001,2025-03-11_12h46.03.374,SL_sali_41,2021.2.3,Win32,163.9344262,1.4667,,,38,0,38,0,1,,,,,,,,
,,"[""circle"",""no_dis"",""vert"",""up"",[99999,99999],[-150,0]]",circle,no_dis,vert,up,"[99999,99999]","[-150,0]",up,1,,,,,,001,2025-03-11_12h46.03.374,SL_sali_41,2021.2.3,Win32,163.9344262,1.4849,,,39,0,39,0,1,,,,,,,,
,,"[""diamond"",""no_dis"",""hori"",""left"",[99999,99999],[-150,0]]",diamond,no_dis,hori,left,"[99999,99999]","[-150,0]",left,1,,,,,,001,2025-03-11_12h46.03.374,SL_sali_41,2021.2.3,Win32,163.9344262,0.7833,,,40,0,40,0,1,,,,,,,,
,,"[""circle"",""no_dis"",""hori"",""left"",[99999,99999],[-150,0]]",circle,no_dis,hori,left,"[99999,99999]","[-150,0]",left,1,,,,,,001,2025-03-11_12h46.03.374,SL_sali_41,2021.2.3,Win32,163.9344262,0.812,,,41,0,41,0,1,,,,,,,,
,,"[""circle"",""green"",""hori"",""left"",[-106,106],[150,0]]",circle,green,hori,left,"[-106,106]","[150,0]",left,1,,,,,,001,2025-03-11_12h46.03.374,SL_sali_41,2021.2.3,Win32,163.9344262,1.0563,,,42,0,42,0,1,,,,,,,,
,,"[""circle"",""red"",""hori"",""left"",[0,-150],[-106,-106]]",circle,red,hori,left,"[0,-150]","[-106,-106]",left,1,,,,,,001,2025-03-11_12h46.03.374,SL_sali_41,2021.2.3,Win32,163.9344262,1.7756,,,43,0,43,0,1,,,,,,,,
,,"[""diamond"",""red"",""vert"",""up"",[106,-106],[150,0]]",diamond,red,vert,up,"[106,-106]","[150,0]",up,1,,,,,,001,2025-03-11_12h46.03.374,SL_sali_41,2021.2.3,Win32,163.9344262,1.5902,,,44,0,44,0,1,,,,,,,,
,,"[""circle"",""green"",""hori"",""left"",[0,-150],[106,-106]]",circle,green,hori,left,"[0,-150]","[106,-106]",left,1,,,,,,001,2025-03-11_12h46.03.374,SL_sali_41,2021.2.3,Win32,163.9344262,0.7578,,,45,0,45,0,1,,,,,,,,
,,"[""circle"",""no_dis"",""vert"",""up"",[99999,99999],[-106,-106]]",circle,no_dis,vert,up,"[99999,99999]","[-106,-106]",up,1,,,,,,001,2025-03-11_12h46.03.374,SL_sali_41,2021.2.3,Win32,163.9344262,0.8793,,,46,0,46,0,1,,,,,,,,
,,"[""circle"",""red"",""hori"",""left"",[106,106],[150,0]]",circle,red,hori,left,"[106,106]","[150,0]",left,1,,,,,,001,2025-03-11_12h46.03.374,SL_sali_41,2021.2.3,Win32,163.9344262,1.7151,,,47,0,47,0,1,,,,,,,,
,,"[""diamond"",""green"",""vert"",""up"",[-106,-106],[-106,106]]",diamond,green,vert,up,"[-106,-106]","[-106,106]",up,1,,,,,,001,2025-03-11_12h46.03.374,SL_sali_41,2021.2.3,Win32,163.9344262,1.1651,,,48,0,48,0,1,,,,,,,,
,,"[""diamond"",""no_dis"",""hori"",""left"",[99999,99999],[-150,0]]",diamond,no_dis,hori,left,"[99999,99999]","[-150,0]",left,1,,,,,,001,2025-03-11_12h46.03.374,SL_sali_41,2021.2.3,Win32,163.9344262,0.722,,,49,0,49,0,1,,,,,,,,
,,"[""circle"",""no_dis"",""vert"",""up"",[99999,99999],[-106,-106]]",circle,no_dis,vert,up,"[99999,99999]","[-106,-106]",up,1,,,,,,001,2025-03-11_12h46.03.374,SL_sali_41,2021.2.3,Win32,163.9344262,2.0778,,,50,0,50,0,1,,,,,,,,
,,"[""diamond"",""red"",""hori"",""left"",[150,0],[0,150]]",diamond,red,hori,left,"[150,0]","[0,150]",up,0,,,,,,001,2025-03-11_12h46.03.374,SL_sali_41,2021.2.3,Win32,163.9344262,1.1029,,,51,0,51,0,1,,,,,,,,
,,"[""circle"",""red"",""hori"",""left"",[106,106],[0,-150]]",circle,red,hori,left,"[106,106]","[0,-150]",left,1,,,,,,001,2025-03-11_12h46.03.374,SL_sali_41,2021.2.3,Win32,163.9344262,1.1897,,,52,0,52,0,1,,,,,,,,
,,"[""circle"",""red"",""vert"",""up"",[150,0],[-150,0]]",circle,red,vert,up,"[150,0]","[-150,0]",up,1,,,,,,001,2025-03-11_12h46.03.374,SL_sali_41,2021.2.3,Win32,163.9344262,0.8261,,,53,0,53,0,1,,,,,,,,
,,"[""circle"",""no_dis"",""hori"",""left"",[99999,99999],[0,150]]",circle,no_dis,hori,left,"[99999,99999]","[0,150]",left,1,,,,,,001,2025-03-11_12h46.03.374,SL_sali_41,2021.2.3,Win32,163.9344262,0.8579,,,54,0,54,0,1,,,,,,,,
,,"[""diamond"",""green"",""vert"",""up"",[-106,106],[106,106]]",diamond,green,vert,up,"[-106,106]","[106,106]",up,1,,,,,,001,2025-03-11_12h46.03.374,SL_sali_41,2021.2.3,Win32,163.9344262,1.2531,,,55,0,55,0,1,,,,,,,,
,,"[""diamond"",""no_dis"",""hori"",""left"",[99999,99999],[106,-106]]",diamond,no_dis,hori,left,"[99999,99999]","[106,-106]",left,1,,,,,,001,2025-03-11_12h46.03.374,SL_sali_41,2021.2.3,Win32,163.9344262,1.0178,,,56,0,56,0,1,,,,,,,,
,,"[""circle"",""green"",""hori"",""left"",[-106,106],[-150,0]]",circle,green,hori,left,"[-106,106]","[-150,0]",left,1,,,,,,001,2025-03-11_12h46.03.374,SL_sali_41,2021.2.3,Win32,163.9344262,0.8069,,,57,0,57,0,1,,,,,,,,
,,"[""diamond"",""green"",""vert"",""up"",[106,106],[106,-106]]",diamond,green,vert,up,"[106,106]","[106,-106]",up,1,,,,,,001,2025-03-11_12h46.03.374,SL_sali_41,2021.2.3,Win32,163.9344262,1.6119,,,58,0,58,0,1,,,,,,,,
,,"[""diamond"",""no_dis"",""hori"",""left"",[99999,99999],[-106,-106]]",diamond,no_dis,hori,left,"[99999,99999]","[-106,-106]",left,1,,,,,,001,2025-03-11_12h46.03.374,SL_sali_41,2021.2.3,Win32,163.9344262,1.2011,,,59,0,59,0,1,,,,,,,,
,,"[""circle"",""red"",""hori"",""left"",[106,-106],[0,150]]",circle,red,hori,left,"[106,-106]","[0,150]",left,1,,,,,,001,2025-03-11_12h46.03.374,SL_sali_41,2021.2.3,Win32,163.9344262,1.1471,,,60,0,60,0,1,,,,,,,,
,,"[""diamond"",""red"",""vert"",""up"",[0,-150],[106,106]]",diamond,red,vert,up,"[0,-150]","[106,106]",left,0,,,,,,001,2025-03-11_12h46.03.374,SL_sali_41,2021.2.3,Win32,163.9344262,0.7386,,,61,0,61,0,1,,,,,,,,
,,"[""circle"",""red"",""vert"",""up"",[150,0],[-106,-106]]",circle,red,vert,up,"[150,0]","[-106,-106]",up,1,,,,,,001,2025-03-11_12h46.03.374,SL_sali_41,2021.2.3,Win32,163.9344262,1.0905,,,62,0,62,0,1,,,,,,,,
,,"[""circle"",""green"",""vert"",""up"",[150,0],[-106,-106]]",circle,green,vert,up,"[150,0]","[-106,-106]",up,1,,,,,,001,2025-03-11_12h46.03.374,SL_sali_41,2021.2.3,Win32,163.9344262,0.7517,,,63,0,63,0,1,,,,,,,,
,,"[""circle"",""green"",""hori"",""left"",[0,-150],[-106,106]]",circle,green,hori,left,"[0,-150]","[-106,106]",left,1,,,,,,001,2025-03-11_12h46.03.374,SL_sali_41,2021.2.3,Win32,163.9344262,0.8637,,,64,0,64,0,1,,,,,,,,
,,"[""diamond"",""red"",""vert"",""up"",[0,150],[106,106]]",diamond,red,vert,up,"[0,150]","[106,106]",up,1,,,,,,001,2025-03-11_12h46.03.374,SL_sali_41,2021.2.3,Win32,163.9344262,1.225,,,65,0,65,0,1,,,,,,,,
,,"[""circle"",""no_dis"",""vert"",""up"",[99999,99999],[0,-150]]",circle,no_dis,vert,up,"[99999,99999]","[0,-150]",up,1,,,,,,001,2025-03-11_12h46.03.374,SL_sali_41,2021.2.3,Win32,163.9344262,2.1277,,,66,0,66,0,1,,,,,,,,
,,"[""diamond"",""red"",""hori"",""left"",[150,0],[-106,-106]]",diamond,red,hori,left,"[150,0]","[-106,-106]",left,1,,,,,,001,2025-03-11_12h46.03.374,SL_sali_41,2021.2.3,Win32,163.9344262,2.2303,,,67,0,67,0,1,,,,,,,,
,,"[""diamond"",""green"",""vert"",""up"",[-106,106],[150,0]]",diamond,green,vert,up,"[-106,106]","[150,0]",up,1,,,,,,001,2025-03-11_12h46.03.374,SL_sali_41,2021.2.3,Win32,163.9344262,1.1399,,,68,0,68,0,1,,,,,,,,
,,"[""circle"",""green"",""hori"",""left"",[150,0],[106,-106]]",circle,green,hori,left,"[150,0]","[106,-106]",left,1,,,,,,001,2025-03-11_12h46.03.374,SL_sali_41,2021.2.3,Win32,163.9344262,1.2615,,,69,0,69,0,1,,,,,,,,
,,"[""diamond"",""red"",""hori"",""left"",[150,0],[0,-150]]",diamond,red,hori,left,"[150,0]","[0,-150]",left,1,,,,,,001,2025-03-11_12h46.03.374,SL_sali_41,2021.2.3,Win32,163.9344262,1.2972,,,70,0,70,0,1,,,,,,,,
,,"[""diamond"",""red"",""vert"",""up"",[150,0],[106,106]]",diamond,red,vert,up,"[150,0]","[106,106]",up,1,,,,,,001,2025-03-11_12h46.03.374,SL_sali_41,2021.2.3,Win32,163.9344262,0.7883,,,71,0,71,0,1,,,,,,,,
,,"[""diamond"",""red"",""vert"",""up"",[150,0],[106,106]]",diamond,red,vert,up,"[150,0]","[106,106]",up,1,,,,,,001,2025-03-11_12h46.03.374,SL_sali_41,2021.2.3,Win32,163.9344262,0.8137,,,72,0,72,0,1,,,,,,,,
,,"[""circle"",""green"",""vert"",""up"",[150,0],[-106,-106]]",circle,green,vert,up,"[150,0]","[-106,-106]",left,0,,,,,,001,2025-03-11_12h46.03.374,SL_sali_41,2021.2.3,Win32,163.9344262,0.6007,,,73,0,73,0,1,,,,,,,,
,,"[""diamond"",""red"",""hori"",""left"",[106,106],[0,150]]",diamond,red,hori,left,"[106,106]","[0,150]",left,1,,,,,,001,2025-03-11_12h46.03.374,SL_sali_41,2021.2.3,Win32,163.9344262,1.4484,,,74,0,74,0,1,,,,,,,,
,,"[""diamond"",""red"",""hori"",""left"",[-150,0],[106,-106]]",diamond,red,hori,left,"[-150,0]","[106,-106]",up,0,,,,,,001,2025-03-11_12h46.03.374,SL_sali_41,2021.2.3,Win32,163.9344262,1.2519,,,75,0,75,0,1,,,,,,,,
,,"[""circle"",""red"",""vert"",""up"",[-106,-106],[106,106]]",circle,red,vert,up,"[-106,-106]","[106,106]",up,1,,,,,,001,2025-03-11_12h46.03.374,SL_sali_41,2021.2.3,Win32,163.9344262,1.7266,,,76,0,76,0,1,,,,,,,,
,,"[""diamond"",""no_dis"",""hori"",""left"",[99999,99999],[0,150]]",diamond,no_dis,hori,left,"[99999,99999]","[0,150]",left,1,,,,,,001,2025-03-11_12h46.03.374,SL_sali_41,2021.2.3,Win32,163.9344262,2.4618,,,77,0,77,0,1,,,,,,,,
,,"[""diamond"",""green"",""vert"",""up"",[-106,-106],[0,150]]",diamond,green,vert,up,"[-106,-106]","[0,150]",up,1,,,,,,001,2025-03-11_12h46.03.374,SL_sali_41,2021.2.3,Win32,163.9344262,2.3763,,,78,0,78,0,1,,,,,,,,
,,"[""circle"",""no_dis"",""vert"",""up"",[99999,99999],[0,150]]",circle,no_dis,vert,up,"[99999,99999]","[0,150]",up,1,,,,,,001,2025-03-11_12h46.03.374,SL_sali_41,2021.2.3,Win32,163.9344262,1.9011,,,79,0,79,0,1,,,,,,,,
,,"[""diamond"",""no_dis"",""vert"",""up"",[99999,99999],[106,106]]",diamond,no_dis,vert,up,"[99999,99999]","[106,106]",up,1,,,,,,001,2025-03-11_12h46.03.374,SL_sali_41,2021.2.3,Win32,163.9344262,0.8786,,,80,0,80,0,1,,,,,,,,
,,"[""diamond"",""green"",""hori"",""left"",[-106,106],[0,-150]]",diamond,green,hori,left,"[-106,106]","[0,-150]",left,1,,,,,,001,2025-03-11_12h46.03.374,SL_sali_41,2021.2.3,Win32,163.9344262,0.9724,,,81,0,81,0,1,,,,,,,,
,,"[""circle"",""red"",""vert"",""up"",[0,150],[0,-150]]",circle,red,vert,up,"[0,150]","[0,-150]",up,1,,,,,,001,2025-03-11_12h46.03.374,SL_sali_41,2021.2.3,Win32,163.9344262,1.9036,,,82,0,82,0,1,,,,,,,,
,,"[""circle"",""no_dis"",""hori"",""left"",[99999,99999],[-106,106]]",circle,no_dis,hori,left,"[99999,99999]","[-106,106]",left,1,,,,,,001,2025-03-11_12h46.03.374,SL_sali_41,2021.2.3,Win32,163.9344262,0.7857,,,83,0,83,0,1,,,,,,,,
,,"[""circle"",""no_dis"",""hori"",""left"",[99999,99999],[-150,0]]",circle,no_dis,hori,left,"[99999,99999]","[-150,0]",left,1,,,,,,001,2025-03-11_12h46.03.374,SL_sali_41,2021.2.3,Win32,163.9344262,1.1947,,,84,0,84,0,1,,,,,,,,
,,"[""circle"",""no_dis"",""hori"",""left"",[99999,99999],[150,0]]",circle,no_dis,hori,left,"[99999,99999]","[150,0]",left,1,,,,,,001,2025-03-11_12h46.03.374,SL_sali_41,2021.2.3,Win32,163.9344262,0.662,,,85,0,85,0,1,,,,,,,,
,,"[""diamond"",""green"",""hori"",""left"",[0,-150],[106,106]]",diamond,green,hori,left,"[0,-150]","[106,106]",left,1,,,,,,001,2025-03-11_12h46.03.374,SL_sali_41,2021.2.3,Win32,163.9344262,2.5333,,,86,0,86,0,1,,,,,,,,
,,"[""diamond"",""green"",""hori"",""left"",[-150,0],[0,-150]]",diamond,green,hori,left,"[-150,0]","[0,-150]",left,1,,,,,,001,2025-03-11_12h46.03.374,SL_sali_41,2021.2.3,Win32,163.9344262,1.0188,,,87,0,87,0,1,,,,,,,,
,,"[""circle"",""green"",""hori"",""left"",[106,106],[-150,0]]",circle,green,hori,left,"[106,106]","[-150,0]",left,1,,,,,,001,2025-03-11_12h46.03.374,SL_sali_41,2021.2.3,Win32,163.9344262,0.9854,,,88,0,88,0,1,,,,,,,,
,,"[""circle"",""green"",""vert"",""up"",[106,-106],[106,106]]",circle,green,vert,up,"[106,-106]","[106,106]",up,1,,,,,,001,2025-03-11_12h46.03.374,SL_sali_41,2021.2.3,Win32,163.9344262,1.1038,,,89,0,89,0,1,,,,,,,,
,,"[""diamond"",""green"",""hori"",""left"",[106,106],[150,0]]",diamond,green,hori,left,"[106,106]","[150,0]",left,1,,,,,,001,2025-03-11_12h46.03.374,SL_sali_41,2021.2.3,Win32,163.9344262,1.3147,,,90,0,90,0,1,,,,,,,,
,,"[""circle"",""red"",""hori"",""left"",[106,-106],[106,106]]",circle,red,hori,left,"[106,-106]","[106,106]",left,1,,,,,,001,2025-03-11_12h46.03.374,SL_sali_41,2021.2.3,Win32,163.9344262,1.1696,,,91,0,91,0,1,,,,,,,,
,,"[""diamond"",""green"",""hori"",""left"",[150,0],[0,150]]",diamond,green,hori,left,"[150,0]","[0,150]",left,1,,,,,,001,2025-03-11_12h46.03.374,SL_sali_41,2021.2.3,Win32,163.9344262,0.9833,,,92,0,92,0,1,,,,,,,,
,,"[""diamond"",""green"",""vert"",""up"",[150,0],[-106,-106]]",diamond,green,vert,up,"[150,0]","[-106,-106]",up,1,,,,,,001,2025-03-11_12h46.03.374,SL_sali_41,2021.2.3,Win32,163.9344262,0.8128,,,93,0,93,0,1,,,,,,,,
,,"[""diamond"",""red"",""vert"",""up"",[0,-150],[106,106]]",diamond,red,vert,up,"[0,-150]","[106,106]",up,1,,,,,,001,2025-03-11_12h46.03.374,SL_sali_41,2021.2.3,Win32,163.9344262,0.9827,,,94,0,94,0,1,,,,,,,,
,,"[""circle"",""red"",""vert"",""up"",[0,-150],[-150,0]]",circle,red,vert,up,"[0,-150]","[-150,0]",up,1,,,,,,001,2025-03-11_12h46.03.374,SL_sali_41,2021.2.3,Win32,163.9344262,1.2264,,,95,0,95,0,1,,,,,,,,
,,"[""circle"",""green"",""vert"",""up"",[-150,0],[106,-106]]",circle,green,vert,up,"[-150,0]","[106,-106]",up,1,,,,,,001,2025-03-11_12h46.03.374,SL_sali_41,2021.2.3,Win32,163.9344262,0.9039,,,96,0,96,0,1,,,,,,,,
,,"[""circle"",""red"",""hori"",""left"",[106,106],[-106,106]]",circle,red,hori,left,"[106,106]","[-106,106]",left,1,,,,,,001,2025-03-11_12h46.03.374,SL_sali_41,2021.2.3,Win32,163.9344262,1.218,,,97,0,97,0,1,,,,,,,,
,,"[""diamond"",""no_dis"",""vert"",""up"",[99999,99999],[150,0]]",diamond,no_dis,vert,up,"[99999,99999]","[150,0]",up,1,,,,,,001,2025-03-11_12h46.03.374,SL_sali_41,2021.2.3,Win32,163.9344262,1.1951,,,98,0,98,0,1,,,,,,,,
,,"[""diamond"",""no_dis"",""hori"",""left"",[99999,99999],[0,-150]]",diamond,no_dis,hori,left,"[99999,99999]","[0,-150]",left,1,,,,,,001,2025-03-11_12h46.03.374,SL_sali_41,2021.2.3,Win32,163.9344262,1.7519,,,99,0,99,0,1,,,,,,,,
,,"[""diamond"",""red"",""hori"",""left"",[150,0],[-106,106]]",diamond,red,hori,left,"[150,0]","[-106,106]",left,1,,,,,,001,2025-03-11_12h46.03.374,SL_sali_41,2021.2.3,Win32,163.9344262,0.725,,,100,0,100,0,1,,,,,,,,
,,"[""diamond"",""no_dis"",""hori"",""left"",[99999,99999],[0,-150]]",diamond,no_dis,hori,left,"[99999,99999]","[0,-150]",left,1,,,,,,001,2025-03-11_12h46.03.374,SL_sali_41,2021.2.3,Win32,163.9344262,1.4368,,,101,0,101,0,1,,,,,,,,
,,"[""circle"",""no_dis"",""vert"",""up"",[99999,99999],[0,150]]",circle,no_dis,vert,up,"[99999,99999]","[0,150]",up,1,,,,,,001,2025-03-11_12h46.03.374,SL_sali_41,2021.2.3,Win32,163.9344262,1.6011,,,102,0,102,0,1,,,,,,,,
,,"[""circle"",""red"",""vert"",""up"",[150,0],[-106,-106]]",circle,red,vert,up,"[150,0]","[-106,-106]",up,1,,,,,,001,2025-03-11_12h46.03.374,SL_sali_41,2021.2.3,Win32,163.9344262,1.1997,,,103,0,103,0,1,,,,,,,,
,,"[""diamond"",""green"",""hori"",""left"",[150,0],[106,-106]]",diamond,green,hori,left,"[150,0]","[106,-106]",left,1,,,,,,001,2025-03-11_12h46.03.374,SL_sali_41,2021.2.3,Win32,163.9344262,1.5168,,,104,0,104,0,1,,,,,,,,
,,"[""diamond"",""green"",""vert"",""up"",[150,0],[0,150]]",diamond,green,vert,up,"[150,0]","[0,150]",up,1,,,,,,001,2025-03-11_12h46.03.374,SL_sali_41,2021.2.3,Win32,163.9344262,1.5715,,,105,0,105,0,1,,,,,,,,
,,"[""diamond"",""green"",""hori"",""left"",[-106,-106],[0,-150]]",diamond,green,hori,left,"[-106,-106]","[0,-150]",left,1,,,,,,001,2025-03-11_12h46.03.374,SL_sali_41,2021.2.3,Win32,163.9344262,1.0688,,,106,0,106,0,1,,,,,,,,
,,"[""diamond"",""red"",""hori"",""left"",[150,0],[-106,-106]]",diamond,red,hori,left,"[150,0]","[-106,-106]",left,1,,,,,,001,2025-03-11_12h46.03.374,SL_sali_41,2021.2.3,Win32,163.9344262,1.3653,,,107,0,107,0,1,,,,,,,,
,,"[""circle"",""red"",""hori"",""left"",[106,-106],[150,0]]",circle,red,hori,left,"[106,-106]","[150,0]",left,1,,,,,,001,2025-03-11_12h46.03.374,SL_sali_41,2021.2.3,Win32,163.9344262,1.1945,,,108,0,108,0,1,,,,,,,,
,,"[""diamond"",""no_dis"",""hori"",""left"",[99999,99999],[106,106]]",diamond,no_dis,hori,left,"[99999,99999]","[106,106]",left,1,,,,,,001,2025-03-11_12h46.03.374,SL_sali_41,2021.2.3,Win32,163.9344262,1.692,,,109,0,109,0,1,,,,,,,,
,,"[""circle"",""no_dis"",""hori"",""left"",[99999,99999],[150,0]]",circle,no_dis,hori,left,"[99999,99999]","[150,0]",left,1,,,,,,001,2025-03-11_12h46.03.374,SL_sali_41,2021.2.3,Win32,163.9344262,1.0909,,,110,0,110,0,1,,,,,,,,
,,"[""diamond"",""red"",""vert"",""up"",[-150,0],[-106,106]]",diamond,red,vert,up,"[-150,0]","[-106,106]",up,1,,,,,,001,2025-03-11_12h46.03.374,SL_sali_41,2021.2.3,Win32,163.9344262,1.5032,,,111,0,111,0,1,,,,,,,,
,,"[""diamond"",""no_dis"",""vert"",""up"",[99999,99999],[0,-150]]",diamond,no_dis,vert,up,"[99999,99999]","[0,-150]",up,1,,,,,,001,2025-03-11_12h46.03.374,SL_sali_41,2021.2.3,Win32,163.9344262,1.7169,,,112,0,112,0,1,,,,,,,,
,,"[""circle"",""red"",""vert"",""up"",[-150,0],[-106,106]]",circle,red,vert,up,"[-150,0]","[-106,106]",up,1,,,,,,001,2025-03-11_12h46.03.374,SL_sali_41,2021.2.3,Win32,163.9344262,2.6612,,,113,0,113,0,1,,,,,,,,
,,"[""diamond"",""green"",""vert"",""up"",[106,-106],[106,106]]",diamond,green,vert,up,"[106,-106]","[106,106]",up,1,,,,,,001,2025-03-11_12h46.03.374,SL_sali_41,2021.2.3,Win32,163.9344262,1.8659,,,114,0,114,0,1,,,,,,,,
,,"[""circle"",""no_dis"",""vert"",""up"",[99999,99999],[106,-106]]",circle,no_dis,vert,up,"[99999,99999]","[106,-106]",up,1,,,,,,001,2025-03-11_12h46.03.374,SL_sali_41,2021.2.3,Win32,163.9344262,1.487,,,115,0,115,0,1,,,,,,,,
,,"[""circle"",""green"",""vert"",""up"",[150,0],[0,-150]]",circle,green,vert,up,"[150,0]","[0,-150]",up,1,,,,,,001,2025-03-11_12h46.03.374,SL_sali_41,2021.2.3,Win32,163.9344262,0.7811,,,116,0,116,0,1,,,,,,,,
,,"[""diamond"",""red"",""vert"",""up"",[150,0],[106,-106]]",diamond,red,vert,up,"[150,0]","[106,-106]",up,1,,,,,,001,2025-03-11_12h46.03.374,SL_sali_41,2021.2.3,Win32,163.9344262,1.2789,,,117,0,117,0,1,,,,,,,,
,,"[""diamond"",""no_dis"",""vert"",""up"",[99999,99999],[-106,-106]]",diamond,no_dis,vert,up,"[99999,99999]","[-106,-106]",,0,,,,,,001,2025-03-11_12h46.03.374,SL_sali_41,2021.2.3,Win32,163.9344262,,,,118,0,118,0,1,,,,,,,,
,,"[""diamond"",""red"",""vert"",""up"",[0,150],[106,106]]",diamond,red,vert,up,"[0,150]","[106,106]",up,1,,,,,,001,2025-03-11_12h46.03.374,SL_sali_41,2021.2.3,Win32,163.9344262,1.3272,,,119,0,119,0,1,,,,,,,,
,,"[""circle"",""green"",""vert"",""up"",[-106,106],[150,0]]",circle,green,vert,up,"[-106,106]","[150,0]",up,1,,,,,,001,2025-03-11_12h46.03.374,SL_sali_41,2021.2.3,Win32,163.9344262,2.0973,,,120,0,120,0,1,,,,,,,,
,,"[""circle"",""no_dis"",""hori"",""left"",[99999,99999],[0,150]]",circle,no_dis,hori,left,"[99999,99999]","[0,150]",up,0,,,,,,001,2025-03-11_12h46.03.374,SL_sali_41,2021.2.3,Win32,163.9344262,1.4252,,,121,0,121,0,1,,,,,,,,
,,"[""circle"",""green"",""vert"",""up"",[-106,-106],[0,-150]]",circle,green,vert,up,"[-106,-106]","[0,-150]",up,1,,,,,,001,2025-03-11_12h46.03.374,SL_sali_41,2021.2.3,Win32,163.9344262,1.3213,,,122,0,122,0,1,,,,,,,,
,,"[""circle"",""green"",""hori"",""left"",[106,106],[0,150]]",circle,green,hori,left,"[106,106]","[0,150]",left,1,,,,,,001,2025-03-11_12h46.03.374,SL_sali_41,2021.2.3,Win32,163.9344262,1.1115,,,123,0,123,0,1,,,,,,,,
,,"[""circle"",""no_dis"",""vert"",""up"",[99999,99999],[-106,106]]",circle,no_dis,vert,up,"[99999,99999]","[-106,106]",up,1,,,,,,001,2025-03-11_12h46.03.374,SL_sali_41,2021.2.3,Win32,163.9344262,0.9089,,,124,0,124,0,1,,,,,,,,
,,"[""circle"",""green"",""vert"",""up"",[0,150],[-150,0]]",circle,green,vert,up,"[0,150]","[-150,0]",up,1,,,,,,001,2025-03-11_12h46.03.374,SL_sali_41,2021.2.3,Win32,163.9344262,0.8562,,,125,0,125,0,1,,,,,,,,
,,"[""circle"",""green"",""vert"",""up"",[150,0],[106,106]]",circle,green,vert,up,"[150,0]","[106,106]",up,1,,,,,,001,2025-03-11_12h46.03.374,SL_sali_41,2021.2.3,Win32,163.9344262,0.6543,,,126,0,126,0,1,,,,,,,,
,,"[""diamond"",""green"",""hori"",""left"",[150,0],[-106,-106]]",diamond,green,hori,left,"[150,0]","[-106,-106]",left,1,,,,,,001,2025-03-11_12h46.03.374,SL_sali_41,2021.2.3,Win32,163.9344262,1.4118,,,127,0,127,0,1,,,,,,,,
,,,,,,,,,,,,,,,,001,2025-03-11_12h46.03.374,SL_sali_41,2021.2.3,Win32,163.9344262,,,,,,,,,2,space,112.7971,1,0,1,0,1
,,"[""circle"",""green"",""hori"",""left"",[0,-150],[-106,106]]",circle,green,hori,left,"[0,-150]","[-106,106]",left,1,,,,,,001,2025-03-11_12h46.03.374,SL_sali_41,2021.2.3,Win32,163.9344262,1.5594,,,0,0,0,0,1,,,,,,,,
,,"[""circle"",""no_dis"",""vert"",""up"",[99999,99999],[-106,-106]]",circle,no_dis,vert,up,"[99999,99999]","[-106,-106]",up,1,,,,,,001,2025-03-11_12h46.03.374,SL_sali_41,2021.2.3,Win32,163.9344262,0.6917,,,1,0,1,0,1,,,,,,,,
,,"[""circle"",""green"",""vert"",""up"",[106,-106],[106,106]]",circle,green,vert,up,"[106,-106]","[106,106]",up,1,,,,,,001,2025-03-11_12h46.03.374,SL_sali_41,2021.2.3,Win32,163.9344262,0.631,,,2,0,2,0,1,,,,,,,,
,,"[""circle"",""green"",""vert"",""up"",[150,0],[106,106]]",circle,green,vert,up,"[150,0]","[106,106]",up,1,,,,,,001,2025-03-11_12h46.03.374,SL_sali_41,2021.2.3,Win32,163.9344262,1.0881,,,3,0,3,0,1,,,,,,,,
,,"[""diamond"",""no_dis"",""hori"",""left"",[99999,99999],[-106,-106]]",diamond,no_dis,hori,left,"[99999,99999]","[-106,-106]",left,1,,,,,,001,2025-03-11_12h46.03.374,SL_sali_41,2021.2.3,Win32,163.9344262,1.4006,,,4,0,4,0,1,,,,,,,,
,,"[""diamond"",""red"",""hori"",""left"",[-150,0],[106,-106]]",diamond,red,hori,left,"[-150,0]","[106,-106]",left,1,,,,,,001,2025-03-11_12h46.03.374,SL_sali_41,2021.2.3,Win32,163.9344262,0.9598,,,5,0,5,0,1,,,,,,,,
,,"[""diamond"",""no_dis"",""hori"",""left"",[99999,99999],[106,-106]]",diamond,no_dis,hori,left,"[99999,99999]","[106,-106]",left,1,,,,,,001,2025-03-11_12h46.03.374,SL_sali_41,2021.2.3,Win32,163.9344262,1.397,,,6,0,6,0,1,,,,,,,,
,,"[""diamond"",""red"",""vert"",""up"",[106,-106],[150,0]]",diamond,red,vert,up,"[106,-106]","[150,0]",up,1,,,,,,001,2025-03-11_12h46.03.374,SL_sali_41,2021.2.3,Win32,163.9344262,1.2492,,,7,0,7,0,1,,,,,,,,
,,"[""diamond"",""no_dis"",""vert"",""up"",[99999,99999],[-106,106]]",diamond,no_dis,vert,up,"[99999,99999]","[-106,106]",up,1,,,,,,001,2025-03-11_12h46.03.374,SL_sali_41,2021.2.3,Win32,163.9344262,0.706,,,8,0,8,0,1,,,,,,,,
,,"[""circle"",""green"",""hori"",""left"",[150,0],[-150,0]]",circle,green,hori,left,"[150,0]","[-150,0]",left,1,,,,,,001,2025-03-11_12h46.03.374,SL_sali_41,2021.2.3,Win32,163.9344262,0.8788,,,9,0,9,0,1,,,,,,,,
,,"[""circle"",""red"",""hori"",""left"",[-150,0],[0,150]]",circle,red,hori,left,"[-150,0]","[0,150]",left,1,,,,,,001,2025-03-11_12h46.03.374,SL_sali_41,2021.2.3,Win32,163.9344262,1.0305,,,10,0,10,0,1,,,,,,,,
,,"[""diamond"",""red"",""vert"",""up"",[0,150],[106,-106]]",diamond,red,vert,up,"[0,150]","[106,-106]",up,1,,,,,,001,2025-03-11_12h46.03.374,SL_sali_41,2021.2.3,Win32,163.9344262,0.8607,,,11,0,11,0,1,,,,,,,,
,,"[""diamond"",""green"",""hori"",""left"",[-106,106],[0,-150]]",diamond,green,hori,left,"[-106,106]","[0,-150]",left,1,,,,,,001,2025-03-11_12h46.03.374,SL_sali_41,2021.2.3,Win32,163.9344262,1.1387,,,12,0,12,0,1,,,,,,,,
,,"[""diamond"",""no_dis"",""hori"",""left"",[99999,99999],[0,150]]",diamond,no_dis,hori,left,"[99999,99999]","[0,150]",left,1,,,,,,001,2025-03-11_12h46.03.374,SL_sali_41,2021.2.3,Win32,163.9344262,0.7606,,,13,0,13,0,1,,,,,,,,
,,"[""diamond"",""green"",""hori"",""left"",[150,0],[-106,106]]",diamond,green,hori,left,"[150,0]","[-106,106]",left,1,,,,,,001,2025-03-11_12h46.03.374,SL_sali_41,2021.2.3,Win32,163.9344262,0.9649,,,14,0,14,0,1,,,,,,,,
,,"[""diamond"",""red"",""vert"",""up"",[-150,0],[-106,106]]",diamond,red,vert,up,"[-150,0]","[-106,106]",up,1,,,,,,001,2025-03-11_12h46.03.374,SL_sali_41,2021.2.3,Win32,163.9344262,1.0015,,,15,0,15,0,1,,,,,,,,
,,"[""diamond"",""green"",""vert"",""up"",[150,0],[-106,-106]]",diamond,green,vert,up,"[150,0]","[-106,-106]",up,1,,,,,,001,2025-03-11_12h46.03.374,SL_sali_41,2021.2.3,Win32,163.9344262,0.9152,,,16,0,16,0,1,,,,,,,,
,,"[""diamond"",""red"",""vert"",""up"",[0,150],[106,106]]",diamond,red,vert,up,"[0,150]","[106,106]",up,1,,,,,,001,2025-03-11_12h46.03.374,SL_sali_41,2021.2.3,Win32,163.9344262,0.7129,,,17,0,17,0,1,,,,,,,,
,,"[""diamond"",""no_dis"",""hori"",""left"",[99999,99999],[0,-150]]",diamond,no_dis,hori,left,"[99999,99999]","[0,-150]",left,1,,,,,,001,2025-03-11_12h46.03.374,SL_sali_41,2021.2.3,Win32,163.9344262,0.7828,,,18,0,18,0,1,,,,,,,,
,,"[""circle"",""green"",""vert"",""up"",[0,150],[106,-106]]",circle,green,vert,up,"[0,150]","[106,-106]",up,1,,,,,,001,2025-03-11_12h46.03.374,SL_sali_41,2021.2.3,Win32,163.9344262,0.9987,,,19,0,19,0,1,,,,,,,,
,,"[""diamond"",""no_dis"",""vert"",""up"",[99999,99999],[106,106]]",diamond,no_dis,vert,up,"[99999,99999]","[106,106]",up,1,,,,,,001,2025-03-11_12h46.03.374,SL_sali_41,2021.2.3,Win32,163.9344262,0.8375,,,20,0,20,0,1,,,,,,,,
,,"[""circle"",""green"",""vert"",""up"",[0,150],[-150,0]]",circle,green,vert,up,"[0,150]","[-150,0]",up,1,,,,,,001,2025-03-11_12h46.03.374,SL_sali_41,2021.2.3,Win32,163.9344262,1.0609,,,21,0,21,0,1,,,,,,,,
,,"[""circle"",""no_dis"",""vert"",""up"",[99999,99999],[0,150]]",circle,no_dis,vert,up,"[99999,99999]","[0,150]",up,1,,,,,,001,2025-03-11_12h46.03.374,SL_sali_41,2021.2.3,Win32,163.9344262,0.6724,,,22,0,22,0,1,,,,,,,,
,,"[""circle"",""red"",""vert"",""up"",[0,150],[0,-150]]",circle,red,vert,up,"[0,150]","[0,-150]",up,1,,,,,,001,2025-03-11_12h46.03.374,SL_sali_41,2021.2.3,Win32,163.9344262,0.939,,,23,0,23,0,1,,,,,,,,
,,"[""diamond"",""red"",""hori"",""left"",[106,106],[0,150]]",diamond,red,hori,left,"[106,106]","[0,150]",left,1,,,,,,001,2025-03-11_12h46.03.374,SL_sali_41,2021.2.3,Win32,163.9344262,0.7836,,,24,0,24,0,1,,,,,,,,
,,"[""circle"",""no_dis"",""vert"",""up"",[99999,99999],[0,150]]",circle,no_dis,vert,up,"[99999,99999]","[0,150]",up,1,,,,,,001,2025-03-11_12h46.03.374,SL_sali_41,2021.2.3,Win32,163.9344262,1.4066,,,25,0,25,0,1,,,,,,,,
,,"[""diamond"",""red"",""vert"",""up"",[150,0],[106,106]]",diamond,red,vert,up,"[150,0]","[106,106]",up,1,,,,,,001,2025-03-11_12h46.03.374,SL_sali_41,2021.2.3,Win32,163.9344262,0.7422,,,26,0,26,0,1,,,,,,,,
,,"[""circle"",""no_dis"",""hori"",""left"",[99999,99999],[150,0]]",circle,no_dis,hori,left,"[99999,99999]","[150,0]",left,1,,,,,,001,2025-03-11_12h46.03.374,SL_sali_41,2021.2.3,Win32,163.9344262,0.7155,,,27,0,27,0,1,,,,,,,,
,,"[""circle"",""green"",""vert"",""up"",[-150,0],[106,-106]]",circle,green,vert,up,"[-150,0]","[106,-106]",up,1,,,,,,001,2025-03-11_12h46.03.374,SL_sali_41,2021.2.3,Win32,163.9344262,0.94,,,28,0,28,0,1,,,,,,,,
,,"[""circle"",""green"",""hori"",""left"",[106,106],[-150,0]]",circle,green,hori,left,"[106,106]","[-150,0]",left,1,,,,,,001,2025-03-11_12h46.03.374,SL_sali_41,2021.2.3,Win32,163.9344262,0.7376,,,29,0,29,0,1,,,,,,,,
,,"[""diamond"",""red"",""hori"",""left"",[150,0],[-106,-106]]",diamond,red,hori,left,"[150,0]","[-106,-106]",left,1,,,,,,001,2025-03-11_12h46.03.374,SL_sali_41,2021.2.3,Win32,163.9344262,1.2065,,,30,0,30,0,1,,,,,,,,
,,"[""diamond"",""green"",""vert"",""up"",[-106,106],[150,0]]",diamond,green,vert,up,"[-106,106]","[150,0]",up,1,,,,,,001,2025-03-11_12h46.03.374,SL_sali_41,2021.2.3,Win32,163.9344262,1.8439,,,31,0,31,0,1,,,,,,,,
,,"[""diamond"",""no_dis"",""vert"",""up"",[99999,99999],[150,0]]",diamond,no_dis,vert,up,"[99999,99999]","[150,0]",up,1,,,,,,001,2025-03-11_12h46.03.374,SL_sali_41,2021.2.3,Win32,163.9344262,1.6065,,,32,0,32,0,1,,,,,,,,
,,"[""diamond"",""green"",""hori"",""left"",[150,0],[106,-106]]",diamond,green,hori,left,"[150,0]","[106,-106]",left,1,,,,,,001,2025-03-11_12h46.03.374,SL_sali_41,2021.2.3,Win32,163.9344262,1.0065,,,33,0,33,0,1,,,,,,,,
,,"[""diamond"",""green"",""hori"",""left"",[-106,-106],[0,-150]]",diamond,green,hori,left,"[-106,-106]","[0,-150]",left,1,,,,,,001,2025-03-11_12h46.03.374,SL_sali_41,2021.2.3,Win32,163.9344262,0.9762,,,34,0,34,0,1,,,,,,,,
,,"[""circle"",""red"",""hori"",""left"",[0,-150],[-106,-106]]",circle,red,hori,left,"[0,-150]","[-106,-106]",left,1,,,,,,001,2025-03-11_12h46.03.374,SL_sali_41,2021.2.3,Win32,163.9344262,0.758,,,35,0,35,0,1,,,,,,,,
,,"[""diamond"",""no_dis"",""hori"",""left"",[99999,99999],[0,-150]]",diamond,no_dis,hori,left,"[99999,99999]","[0,-150]",left,1,,,,,,001,2025-03-11_12h46.03.374,SL_sali_41,2021.2.3,Win32,163.9344262,1.0813,,,36,0,36,0,1,,,,,,,,
,,"[""diamond"",""green"",""vert"",""up"",[106,106],[106,-106]]",diamond,green,vert,up,"[106,106]","[106,-106]",up,1,,,,,,001,2025-03-11_12h46.03.374,SL_sali_41,2021.2.3,Win32,163.9344262,0.9638,,,37,0,37,0,1,,,,,,,,
,,"[""circle"",""red"",""hori"",""left"",[106,106],[150,0]]",circle,red,hori,left,"[106,106]","[150,0]",left,1,,,,,,001,2025-03-11_12h46.03.374,SL_sali_41,2021.2.3,Win32,163.9344262,0.8617,,,38,0,38,0,1,,,,,,,,
,,"[""diamond"",""no_dis"",""vert"",""up"",[99999,99999],[106,-106]]",diamond,no_dis,vert,up,"[99999,99999]","[106,-106]",up,1,,,,,,001,2025-03-11_12h46.03.374,SL_sali_41,2021.2.3,Win32,163.9344262,1.0357,,,39,0,39,0,1,,,,,,,,
,,"[""circle"",""red"",""hori"",""left"",[106,-106],[106,106]]",circle,red,hori,left,"[106,-106]","[106,106]",left,1,,,,,,001,2025-03-11_12h46.03.374,SL_sali_41,2021.2.3,Win32,163.9344262,1.0666,,,40,0,40,0,1,,,,,,,,
,,"[""circle"",""red"",""hori"",""left"",[106,106],[-106,106]]",circle,red,hori,left,"[106,106]","[-106,106]",left,1,,,,,,001,2025-03-11_12h46.03.374,SL_sali_41,2021.2.3,Win32,163.9344262,0.8564,,,41,0,41,0,1,,,,,,,,
,,"[""circle"",""red"",""hori"",""left"",[0,-150],[106,106]]",circle,red,hori,left,"[0,-150]","[106,106]",left,1,,,,,,001,2025-03-11_12h46.03.374,SL_sali_41,2021.2.3,Win32,163.9344262,0.7543,,,42,0,42,0,1,,,,,,,,
,,"[""diamond"",""no_dis"",""vert"",""up"",[99999,99999],[-106,-106]]",diamond,no_dis,vert,up,"[99999,99999]","[-106,-106]",up,1,,,,,,001,2025-03-11_12h46.03.374,SL_sali_41,2021.2.3,Win32,163.9344262,0.6918,,,43,0,43,0,1,,,,,,,,
,,"[""diamond"",""red"",""vert"",""up"",[150,0],[106,-106]]",diamond,red,vert,up,"[150,0]","[106,-106]",up,1,,,,,,001,2025-03-11_12h46.03.374,SL_sali_41,2021.2.3,Win32,163.9344262,0.9328,,,44,0,44,0,1,,,,,,,,
,,"[""circle"",""red"",""hori"",""left"",[106,-106],[0,150]]",circle,red,hori,left,"[106,-106]","[0,150]",up,0,,,,,,001,2025-03-11_12h46.03.374,SL_sali_41,2021.2.3,Win32,163.9344262,1.0793,,,45,0,45,0,1,,,,,,,,
,,"[""diamond"",""no_dis"",""hori"",""left"",[99999,99999],[-150,0]]",diamond,no_dis,hori,left,"[99999,99999]","[-150,0]",left,1,,,,,,001,2025-03-11_12h46.03.374,SL_sali_41,2021.2.3,Win32,163.9344262,1.1759,,,46,0,46,0,1,,,,,,,,
,,"[""circle"",""red"",""vert"",""up"",[150,0],[106,106]]",circle,red,vert,up,"[150,0]","[106,106]",up,1,,,,,,001,2025-03-11_12h46.03.374,SL_sali_41,2021.2.3,Win32,163.9344262,0.7336,,,47,0,47,0,1,,,,,,,,
,,"[""circle"",""no_dis"",""hori"",""left"",[99999,99999],[150,0]]",circle,no_dis,hori,left,"[99999,99999]","[150,0]",left,1,,,,,,001,2025-03-11_12h46.03.374,SL_sali_41,2021.2.3,Win32,163.9344262,0.6433,,,48,0,48,0,1,,,,,,,,
,,"[""circle"",""green"",""hori"",""left"",[-106,106],[150,0]]",circle,green,hori,left,"[-106,106]","[150,0]",left,1,,,,,,001,2025-03-11_12h46.03.374,SL_sali_41,2021.2.3,Win32,163.9344262,0.7245,,,49,0,49,0,1,,,,,,,,
,,"[""circle"",""red"",""vert"",""up"",[-150,0],[-106,106]]",circle,red,vert,up,"[-150,0]","[-106,106]",up,1,,,,,,001,2025-03-11_12h46.03.374,SL_sali_41,2021.2.3,Win32,163.9344262,0.8124,,,50,0,50,0,1,,,,,,,,
,,"[""diamond"",""no_dis"",""hori"",""left"",[99999,99999],[0,-150]]",diamond,no_dis,hori,left,"[99999,99999]","[0,-150]",left,1,,,,,,001,2025-03-11_12h46.03.374,SL_sali_41,2021.2.3,Win32,163.9344262,0.7282,,,51,0,51,0,1,,,,,,,,
,,"[""circle"",""no_dis"",""hori"",""left"",[99999,99999],[-150,0]]",circle,no_dis,hori,left,"[99999,99999]","[-150,0]",left,1,,,,,,001,2025-03-11_12h46.03.374,SL_sali_41,2021.2.3,Win32,163.9344262,0.636,,,52,0,52,0,1,,,,,,,,
,,"[""diamond"",""no_dis"",""vert"",""up"",[99999,99999],[106,106]]",diamond,no_dis,vert,up,"[99999,99999]","[106,106]",up,1,,,,,,001,2025-03-11_12h46.03.374,SL_sali_41,2021.2.3,Win32,163.9344262,0.7267,,,53,0,53,0,1,,,,,,,,
,,"[""diamond"",""green"",""vert"",""up"",[-106,106],[106,106]]",diamond,green,vert,up,"[-106,106]","[106,106]",up,1,,,,,,001,2025-03-11_12h46.03.374,SL_sali_41,2021.2.3,Win32,163.9344262,1.3892,,,54,0,54,0,1,,,,,,,,
,,"[""diamond"",""no_dis"",""hori"",""left"",[99999,99999],[106,-106]]",diamond,no_dis,hori,left,"[99999,99999]","[106,-106]",left,1,,,,,,001,2025-03-11_12h46.03.374,SL_sali_41,2021.2.3,Win32,163.9344262,0.6565,,,55,0,55,0,1,,,,,,,,
,,"[""diamond"",""red"",""vert"",""up"",[150,0],[106,106]]",diamond,red,vert,up,"[150,0]","[106,106]",up,1,,,,,,001,2025-03-11_12h46.03.374,SL_sali_41,2021.2.3,Win32,163.9344262,1.2377,,,56,0,56,0,1,,,,,,,,
,,"[""diamond"",""no_dis"",""vert"",""up"",[99999,99999],[-106,106]]",diamond,no_dis,vert,up,"[99999,99999]","[-106,106]",up,1,,,,,,001,2025-03-11_12h46.03.374,SL_sali_41,2021.2.3,Win32,163.9344262,1.067,,,57,0,57,0,1,,,,,,,,
,,"[""diamond"",""red"",""hori"",""left"",[150,0],[-106,-106]]",diamond,red,hori,left,"[150,0]","[-106,-106]",left,1,,,,,,001,2025-03-11_12h46.03.374,SL_sali_41,2021.2.3,Win32,163.9344262,0.8316,,,58,0,58,0,1,,,,,,,,
,,"[""circle"",""no_dis"",""vert"",""up"",[99999,99999],[106,-106]]",circle,no_dis,vert,up,"[99999,99999]","[106,-106]",up,1,,,,,,001,2025-03-11_12h46.03.374,SL_sali_41,2021.2.3,Win32,163.9344262,1.0226,,,59,0,59,0,1,,,,,,,,
,,"[""circle"",""green"",""hori"",""left"",[106,-106],[0,150]]",circle,green,hori,left,"[106,-106]","[0,150]",left,1,,,,,,001,2025-03-11_12h46.03.374,SL_sali_41,2021.2.3,Win32,163.9344262,0.897,,,60,0,60,0,1,,,,,,,,
,,"[""diamond"",""green"",""vert"",""up"",[-106,-106],[0,150]]",diamond,green,vert,up,"[-106,-106]","[0,150]",up,1,,,,,,001,2025-03-11_12h46.03.374,SL_sali_41,2021.2.3,Win32,163.9344262,1.2523,,,61,0,61,0,1,,,,,,,,
,,"[""circle"",""green"",""hori"",""left"",[-106,106],[-150,0]]",circle,green,hori,left,"[-106,106]","[-150,0]",left,1,,,,,,001,2025-03-11_12h46.03.374,SL_sali_41,2021.2.3,Win32,163.9344262,0.7467,,,62,0,62,0,1,,,,,,,,
,,"[""diamond"",""red"",""hori"",""left"",[150,0],[0,150]]",diamond,red,hori,left,"[150,0]","[0,150]",left,1,,,,,,001,2025-03-11_12h46.03.374,SL_sali_41,2021.2.3,Win32,163.9344262,0.8732,,,63,0,63,0,1,,,,,,,,
,,"[""diamond"",""green"",""hori"",""left"",[150,0],[106,-106]]",diamond,green,hori,left,"[150,0]","[106,-106]",left,1,,,,,,001,2025-03-11_12h46.03.374,SL_sali_41,2021.2.3,Win32,163.9344262,0.8815,,,64,0,64,0,1,,,,,,,,
,,"[""circle"",""no_dis"",""hori"",""left"",[99999,99999],[-106,106]]",circle,no_dis,hori,left,"[99999,99999]","[-106,106]",left,1,,,,,,001,2025-03-11_12h46.03.374,SL_sali_41,2021.2.3,Win32,163.9344262,0.6507,,,65,0,65,0,1,,,,,,,,
,,"[""diamond"",""red"",""hori"",""left"",[150,0],[0,-150]]",diamond,red,hori,left,"[150,0]","[0,-150]",left,1,,,,,,001,2025-03-11_12h46.03.374,SL_sali_41,2021.2.3,Win32,163.9344262,0.7094,,,66,0,66,0,1,,,,,,,,
,,"[""diamond"",""green"",""vert"",""up"",[-150,0],[0,150]]",diamond,green,vert,up,"[-150,0]","[0,150]",up,1,,,,,,001,2025-03-11_12h46.03.374,SL_sali_41,2021.2.3,Win32,163.9344262,0.9268,,,67,0,67,0,1,,,,,,,,
,,"[""diamond"",""red"",""hori"",""left"",[150,0],[-106,-106]]",diamond,red,hori,left,"[150,0]","[-106,-106]",left,1,,,,,,001,2025-03-11_12h46.03.374,SL_sali_41,2021.2.3,Win32,163.9344262,0.9225,,,68,0,68,0,1,,,,,,,,
,,"[""circle"",""red"",""vert"",""up"",[150,0],[-106,-106]]",circle,red,vert,up,"[150,0]","[-106,-106]",up,1,,,,,,001,2025-03-11_12h46.03.374,SL_sali_41,2021.2.3,Win32,163.9344262,0.898,,,69,0,69,0,1,,,,,,,,
,,"[""circle"",""red"",""vert"",""up"",[150,0],[-150,0]]",circle,red,vert,up,"[150,0]","[-150,0]",up,1,,,,,,001,2025-03-11_12h46.03.374,SL_sali_41,2021.2.3,Win32,163.9344262,0.6919,,,70,0,70,0,1,,,,,,,,
,,"[""diamond"",""red"",""hori"",""left"",[150,0],[0,-150]]",diamond,red,hori,left,"[150,0]","[0,-150]",left,1,,,,,,001,2025-03-11_12h46.03.374,SL_sali_41,2021.2.3,Win32,163.9344262,0.6216,,,71,0,71,0,1,,,,,,,,
,,"[""diamond"",""no_dis"",""vert"",""up"",[99999,99999],[-106,-106]]",diamond,no_dis,vert,up,"[99999,99999]","[-106,-106]",up,1,,,,,,001,2025-03-11_12h46.03.374,SL_sali_41,2021.2.3,Win32,163.9344262,0.6093,,,72,0,72,0,1,,,,,,,,
,,"[""circle"",""no_dis"",""vert"",""up"",[99999,99999],[106,-106]]",circle,no_dis,vert,up,"[99999,99999]","[106,-106]",up,1,,,,,,001,2025-03-11_12h46.03.374,SL_sali_41,2021.2.3,Win32,163.9344262,0.8539,,,73,0,73,0,1,,,,,,,,
,,"[""circle"",""no_dis"",""vert"",""up"",[99999,99999],[-106,-106]]",circle,no_dis,vert,up,"[99999,99999]","[-106,-106]",up,1,,,,,,001,2025-03-11_12h46.03.374,SL_sali_41,2021.2.3,Win32,163.9344262,0.6301,,,74,0,74,0,1,,,,,,,,
,,"[""diamond"",""red"",""vert"",""up"",[0,150],[106,106]]",diamond,red,vert,up,"[0,150]","[106,106]",up,1,,,,,,001,2025-03-11_12h46.03.374,SL_sali_41,2021.2.3,Win32,163.9344262,0.8282,,,75,0,75,0,1,,,,,,,,
,,"[""circle"",""no_dis"",""hori"",""left"",[99999,99999],[150,0]]",circle,no_dis,hori,left,"[99999,99999]","[150,0]",left,1,,,,,,001,2025-03-11_12h46.03.374,SL_sali_41,2021.2.3,Win32,163.9344262,0.7823,,,76,0,76,0,1,,,,,,,,
,,"[""diamond"",""red"",""vert"",""up"",[0,-150],[106,106]]",diamond,red,vert,up,"[0,-150]","[106,106]",up,1,,,,,,001,2025-03-11_12h46.03.374,SL_sali_41,2021.2.3,Win32,163.9344262,0.861,,,77,0,77,0,1,,,,,,,,
,,"[""diamond"",""green"",""vert"",""up"",[106,-106],[106,106]]",diamond,green,vert,up,"[106,-106]","[106,106]",up,1,,,,,,001,2025-03-11_12h46.03.374,SL_sali_41,2021.2.3,Win32,163.9344262,0.6987,,,78,0,78,0,1,,,,,,,,
,,"[""circle"",""no_dis"",""hori"",""left"",[99999,99999],[-150,0]]",circle,no_dis,hori,left,"[99999,99999]","[-150,0]",left,1,,,,,,001,2025-03-11_12h46.03.374,SL_sali_41,2021.2.3,Win32,163.9344262,0.7455,,,79,0,79,0,1,,,,,,,,
,,"[""circle"",""red"",""hori"",""left"",[-106,-106],[0,150]]",circle,red,hori,left,"[-106,-106]","[0,150]",left,1,,,,,,001,2025-03-11_12h46.03.374,SL_sali_41,2021.2.3,Win32,163.9344262,0.5999,,,80,0,80,0,1,,,,,,,,
,,"[""diamond"",""green"",""hori"",""left"",[-106,106],[106,106]]",diamond,green,hori,left,"[-106,106]","[106,106]",left,1,,,,,,001,2025-03-11_12h46.03.374,SL_sali_41,2021.2.3,Win32,163.9344262,0.8874,,,81,0,81,0,1,,,,,,,,
,,"[""circle"",""no_dis"",""hori"",""left"",[99999,99999],[106,106]]",circle,no_dis,hori,left,"[99999,99999]","[106,106]",left,1,,,,,,001,2025-03-11_12h46.03.374,SL_sali_41,2021.2.3,Win32,163.9344262,0.6794,,,82,0,82,0,1,,,,,,,,
,,"[""diamond"",""red"",""vert"",""up"",[0,-150],[106,106]]",diamond,red,vert,up,"[0,-150]","[106,106]",up,1,,,,,,001,2025-03-11_12h46.03.374,SL_sali_41,2021.2.3,Win32,163.9344262,0.5393,,,83,0,83,0,1,,,,,,,,
,,"[""diamond"",""green"",""vert"",""up"",[-106,-106],[150,0]]",diamond,green,vert,up,"[-106,-106]","[150,0]",up,1,,,,,,001,2025-03-11_12h46.03.374,SL_sali_41,2021.2.3,Win32,163.9344262,0.8009,,,84,0,84,0,1,,,,,,,,
,,"[""circle"",""no_dis"",""hori"",""left"",[99999,99999],[-106,106]]",circle,no_dis,hori,left,"[99999,99999]","[-106,106]",left,1,,,,,,001,2025-03-11_12h46.03.374,SL_sali_41,2021.2.3,Win32,163.9344262,1.1221,,,85,0,85,0,1,,,,,,,,
,,"[""circle"",""green"",""vert"",""up"",[150,0],[-106,-106]]",circle,green,vert,up,"[150,0]","[-106,-106]",up,1,,,,,,001,2025-03-11_12h46.03.374,SL_sali_41,2021.2.3,Win32,163.9344262,0.6575,,,86,0,86,0,1,,,,,,,,
,,"[""circle"",""green"",""hori"",""left"",[-106,106],[106,106]]",circle,green,hori,left,"[-106,106]","[106,106]",left,1,,,,,,001,2025-03-11_12h46.03.374,SL_sali_41,2021.2.3,Win32,163.9344262,0.8734,,,87,0,87,0,1,,,,,,,,
,,"[""diamond"",""no_dis"",""hori"",""left"",[99999,99999],[-150,0]]",diamond,no_dis,hori,left,"[99999,99999]","[-150,0]",left,1,,,,,,001,2025-03-11_12h46.03.374,SL_sali_41,2021.2.3,Win32,163.9344262,0.6007,,,88,0,88,0,1,,,,,,,,
,,"[""diamond"",""red"",""vert"",""up"",[150,0],[-106,106]]",diamond,red,vert,up,"[150,0]","[-106,106]",up,1,,,,,,001,2025-03-11_12h46.03.374,SL_sali_41,2021.2.3,Win32,163.9344262,0.9403,,,89,0,89,0,1,,,,,,,,
,,"[""circle"",""green"",""vert"",""up"",[-106,-106],[0,-150]]",circle,green,vert,up,"[-106,-106]","[0,-150]",up,1,,,,,,001,2025-03-11_12h46.03.374,SL_sali_41,2021.2.3,Win32,163.9344262,0.868,,,90,0,90,0,1,,,,,,,,
,,"[""circle"",""green"",""hori"",""left"",[0,-150],[106,-106]]",circle,green,hori,left,"[0,-150]","[106,-106]",left,1,,,,,,001,2025-03-11_12h46.03.374,SL_sali_41,2021.2.3,Win32,163.9344262,0.6194,,,91,0,91,0,1,,,,,,,,
,,"[""circle"",""green"",""vert"",""up"",[150,0],[-106,-106]]",circle,green,vert,up,"[150,0]","[-106,-106]",up,1,,,,,,001,2025-03-11_12h46.03.374,SL_sali_41,2021.2.3,Win32,163.9344262,0.71,,,92,0,92,0,1,,,,,,,,
,,"[""diamond"",""green"",""vert"",""up"",[150,0],[0,150]]",diamond,green,vert,up,"[150,0]","[0,150]",up,1,,,,,,001,2025-03-11_12h46.03.374,SL_sali_41,2021.2.3,Win32,163.9344262,0.9031,,,93,0,93,0,1,,,,,,,,
,,"[""circle"",""red"",""vert"",""up"",[-106,-106],[106,106]]",circle,red,vert,up,"[-106,-106]","[106,106]",up,1,,,,,,001,2025-03-11_12h46.03.374,SL_sali_41,2021.2.3,Win32,163.9344262,0.6487,,,94,0,94,0,1,,,,,,,,
,,"[""diamond"",""green"",""hori"",""left"",[150,0],[-106,-106]]",diamond,green,hori,left,"[150,0]","[-106,-106]",left,1,,,,,,001,2025-03-11_12h46.03.374,SL_sali_41,2021.2.3,Win32,163.9344262,0.8016,,,95,0,95,0,1,,,,,,,,
,,"[""circle"",""no_dis"",""vert"",""up"",[99999,99999],[-150,0]]",circle,no_dis,vert,up,"[99999,99999]","[-150,0]",up,1,,,,,,001,2025-03-11_12h46.03.374,SL_sali_41,2021.2.3,Win32,163.9344262,0.6322,,,96,0,96,0,1,,,,,,,,
,,"[""circle"",""red"",""vert"",""up"",[150,0],[106,106]]",circle,red,vert,up,"[150,0]","[106,106]",up,1,,,,,,001,2025-03-11_12h46.03.374,SL_sali_41,2021.2.3,Win32,163.9344262,0.5482,,,97,0,97,0,1,,,,,,,,
,,"[""circle"",""no_dis"",""vert"",""up"",[99999,99999],[106,106]]",circle,no_dis,vert,up,"[99999,99999]","[106,106]",up,1,,,,,,001,2025-03-11_12h46.03.374,SL_sali_41,2021.2.3,Win32,163.9344262,0.4914,,,98,0,98,0,1,,,,,,,,
,,"[""circle"",""green"",""vert"",""up"",[106,-106],[106,106]]",circle,green,vert,up,"[106,-106]","[106,106]",up,1,,,,,,001,2025-03-11_12h46.03.374,SL_sali_41,2021.2.3,Win32,163.9344262,0.5167,,,99,0,99,0,1,,,,,,,,
,,"[""diamond"",""green"",""hori"",""left"",[150,0],[0,150]]",diamond,green,hori,left,"[150,0]","[0,150]",left,1,,,,,,001,2025-03-11_12h46.03.374,SL_sali_41,2021.2.3,Win32,163.9344262,0.8469,,,100,0,100,0,1,,,,,,,,
,,"[""diamond"",""green"",""vert"",""up"",[150,0],[0,-150]]",diamond,green,vert,up,"[150,0]","[0,-150]",up,1,,,,,,001,2025-03-11_12h46.03.374,SL_sali_41,2021.2.3,Win32,163.9344262,0.9397,,,101,0,101,0,1,,,,,,,,
,,"[""circle"",""green"",""vert"",""up"",[150,0],[0,-150]]",circle,green,vert,up,"[150,0]","[0,-150]",up,1,,,,,,001,2025-03-11_12h46.03.374,SL_sali_41,2021.2.3,Win32,163.9344262,0.7811,,,102,0,102,0,1,,,,,,,,
,,"[""circle"",""red"",""vert"",""up"",[0,-150],[-150,0]]",circle,red,vert,up,"[0,-150]","[-150,0]",up,1,,,,,,001,2025-03-11_12h46.03.374,SL_sali_41,2021.2.3,Win32,163.9344262,1.1423,,,103,0,103,0,1,,,,,,,,
,,"[""circle"",""red"",""hori"",""left"",[106,-106],[150,0]]",circle,red,hori,left,"[106,-106]","[150,0]",up,0,,,,,,001,2025-03-11_12h46.03.374,SL_sali_41,2021.2.3,Win32,163.9344262,0.7271,,,104,0,104,0,1,,,,,,,,
,,"[""circle"",""no_dis"",""vert"",""up"",[99999,99999],[0,-150]]",circle,no_dis,vert,up,"[99999,99999]","[0,-150]",up,1,,,,,,001,2025-03-11_12h46.03.374,SL_sali_41,2021.2.3,Win32,163.9344262,0.8495,,,105,0,105,0,1,,,,,,,,
,,"[""diamond"",""no_dis"",""hori"",""left"",[99999,99999],[106,106]]",diamond,no_dis,hori,left,"[99999,99999]","[106,106]",left,1,,,,,,001,2025-03-11_12h46.03.374,SL_sali_41,2021.2.3,Win32,163.9344262,0.8996,,,106,0,106,0,1,,,,,,,,
,,"[""circle"",""red"",""hori"",""left"",[106,106],[0,-150]]",circle,red,hori,left,"[106,106]","[0,-150]",left,1,,,,,,001,2025-03-11_12h46.03.374,SL_sali_41,2021.2.3,Win32,163.9344262,1.5944,,,107,0,107,0,1,,,,,,,,
,,"[""diamond"",""green"",""hori"",""left"",[-150,0],[0,-150]]",diamond,green,hori,left,"[-150,0]","[0,-150]",left,1,,,,,,001,2025-03-11_12h46.03.374,SL_sali_41,2021.2.3,Win32,163.9344262,1.5333,,,108,0,108,0,1,,,,,,,,
,,"[""circle"",""red"",""vert"",""up"",[0,150],[-106,-106]]",circle,red,vert,up,"[0,150]","[-106,-106]",up,1,,,,,,001,2025-03-11_12h46.03.374,SL_sali_41,2021.2.3,Win32,163.9344262,0.801,,,109,0,109,0,1,,,,,,,,
,,"[""circle"",""no_dis"",""hori"",""left"",[99999,99999],[0,150]]",circle,no_dis,hori,left,"[99999,99999]","[0,150]",left,1,,,,,,001,2025-03-11_12h46.03.374,SL_sali_41,2021.2.3,Win32,163.9344262,1.0801,,,110,0,110,0,1,,,,,,,,
,,"[""circle"",""red"",""vert"",""up"",[150,0],[-106,-106]]",circle,red,vert,up,"[150,0]","[-106,-106]",up,1,,,,,,001,2025-03-11_12h46.03.374,SL_sali_41,2021.2.3,Win32,163.9344262,0.6359,,,111,0,111,0,1,,,,,,,,
,,"[""circle"",""no_dis"",""hori"",""left"",[99999,99999],[0,150]]",circle,no_dis,hori,left,"[99999,99999]","[0,150]",left,1,,,,,,001,2025-03-11_12h46.03.374,SL_sali_41,2021.2.3,Win32,163.9344262,0.6907,,,112,0,112,0,1,,,,,,,,
,,"[""circle"",""red"",""hori"",""left"",[-106,-106],[106,-106]]",circle,red,hori,left,"[-106,-106]","[106,-106]",left,1,,,,,,001,2025-03-11_12h46.03.374,SL_sali_41,2021.2.3,Win32,163.9344262,0.874,,,113,0,113,0,1,,,,,,,,
,,"[""diamond"",""green"",""vert"",""up"",[-106,-106],[-106,106]]",diamond,green,vert,up,"[-106,-106]","[-106,106]",up,1,,,,,,001,2025-03-11_12h46.03.374,SL_sali_41,2021.2.3,Win32,163.9344262,1.0858,,,114,0,114,0,1,,,,,,,,
,,"[""circle"",""green"",""hori"",""left"",[106,106],[0,150]]",circle,green,hori,left,"[106,106]","[0,150]",left,1,,,,,,001,2025-03-11_12h46.03.374,SL_sali_41,2021.2.3,Win32,163.9344262,0.7152,,,115,0,115,0,1,,,,,,,,
,,"[""circle"",""no_dis"",""vert"",""up"",[99999,99999],[-106,106]]",circle,no_dis,vert,up,"[99999,99999]","[-106,106]",up,1,,,,,,001,2025-03-11_12h46.03.374,SL_sali_41,2021.2.3,Win32,163.9344262,0.6883,,,116,0,116,0,1,,,,,,,,
,,"[""diamond"",""red"",""hori"",""left"",[-150,0],[-106,-106]]",diamond,red,hori,left,"[-150,0]","[-106,-106]",left,1,,,,,,001,2025-03-11_12h46.03.374,SL_sali_41,2021.2.3,Win32,163.9344262,0.9905,,,117,0,117,0,1,,,,,,,,
,,"[""circle"",""green"",""hori"",""left"",[150,0],[106,-106]]",circle,green,hori,left,"[150,0]","[106,-106]",left,1,,,,,,001,2025-03-11_12h46.03.374,SL_sali_41,2021.2.3,Win32,163.9344262,0.6964,,,118,0,118,0,1,,,,,,,,
,,"[""diamond"",""no_dis"",""vert"",""up"",[99999,99999],[150,0]]",diamond,no_dis,vert,up,"[99999,99999]","[150,0]",up,1,,,,,,001,2025-03-11_12h46.03.374,SL_sali_41,2021.2.3,Win32,163.9344262,1.0034,,,119,0,119,0,1,,,,,,,,
,,"[""circle"",""red"",""vert"",""up"",[0,150],[106,-106]]",circle,red,vert,up,"[0,150]","[106,-106]",up,1,,,,,,001,2025-03-11_12h46.03.374,SL_sali_41,2021.2.3,Win32,163.9344262,0.7576,,,120,0,120,0,1,,,,,,,,
,,"[""diamond"",""red"",""hori"",""left"",[150,0],[-106,-106]]",diamond,red,hori,left,"[150,0]","[-106,-106]",left,1,,,,,,001,2025-03-11_12h46.03.374,SL_sali_41,2021.2.3,Win32,163.9344262,1.1066,,,121,0,121,0,1,,,,,,,,
,,"[""diamond"",""green"",""hori"",""left"",[0,-150],[106,106]]",diamond,green,hori,left,"[0,-150]","[106,106]",left,1,,,,,,001,2025-03-11_12h46.03.374,SL_sali_41,2021.2.3,Win32,163.9344262,0.9691,,,122,0,122,0,1,,,,,,,,
,,"[""diamond"",""red"",""hori"",""left"",[150,0],[-106,106]]",diamond,red,hori,left,"[150,0]","[-106,106]",left,1,,,,,,001,2025-03-11_12h46.03.374,SL_sali_41,2021.2.3,Win32,163.9344262,0.6675,,,123,0,123,0,1,,,,,,,,
,,"[""diamond"",""no_dis"",""vert"",""up"",[99999,99999],[0,-150]]",diamond,no_dis,vert,up,"[99999,99999]","[0,-150]",up,1,,,,,,001,2025-03-11_12h46.03.374,SL_sali_41,2021.2.3,Win32,163.9344262,1.0362,,,124,0,124,0,1,,,,,,,,
,,"[""diamond"",""green"",""hori"",""left"",[106,106],[150,0]]",diamond,green,hori,left,"[106,106]","[150,0]",left,1,,,,,,001,2025-03-11_12h46.03.374,SL_sali_41,2021.2.3,Win32,163.9344262,1.0324,,,125,0,125,0,1,,,,,,,,
,,"[""circle"",""green"",""vert"",""up"",[-106,106],[150,0]]",circle,green,vert,up,"[-106,106]","[150,0]",up,1,,,,,,001,2025-03-11_12h46.03.374,SL_sali_41,2021.2.3,Win32,163.9344262,0.8904,,,126,0,126,0,1,,,,,,,,
,,"[""circle"",""green"",""hori"",""left"",[150,0],[106,106]]",circle,green,hori,left,"[150,0]","[106,106]",left,1,,,,,,001,2025-03-11_12h46.03.374,SL_sali_41,2021.2.3,Win32,163.9344262,1.2242,,,127,0,127,0,1,,,,,,,,
,,,,,,,,,,,,,,,,001,2025-03-11_12h46.03.374,SL_sali_41,2021.2.3,Win32,163.9344262,,,,,,,,,3,space,127.9458,2,0,2,0,1
,,"[""diamond"",""red"",""vert"",""up"",[0,-150],[106,106]]",diamond,red,vert,up,"[0,-150]","[106,106]",up,1,,,,,,001,2025-03-11_12h46.03.374,SL_sali_41,2021.2.3,Win32,163.9344262,1.6128,,,0,0,0,0,1,,,,,,,,
,,"[""diamond"",""green"",""hori"",""left"",[-106,106],[0,-150]]",diamond,green,hori,left,"[-106,106]","[0,-150]",left,1,,,,,,001,2025-03-11_12h46.03.374,SL_sali_41,2021.2.3,Win32,163.9344262,0.733,,,1,0,1,0,1,,,,,,,,
,,"[""circle"",""green"",""vert"",""up"",[-106,106],[150,0]]",circle,green,vert,up,"[-106,106]","[150,0]",up,1,,,,,,001,2025-03-11_12h46.03.374,SL_sali_41,2021.2.3,Win32,163.9344262,0.8739,,,2,0,2,0,1,,,,,,,,
,,"[""diamond"",""green"",""hori"",""left"",[150,0],[-106,-106]]",diamond,green,hori,left,"[150,0]","[-106,-106]",left,1,,,,,,001,2025-03-11_12h46.03.374,SL_sali_41,2021.2.3,Win32,163.9344262,0.764,,,3,0,3,0,1,,,,,,,,
,,"[""circle"",""red"",""hori"",""left"",[106,-106],[150,0]]",circle,red,hori,left,"[106,-106]","[150,0]",left,1,,,,,,001,2025-03-11_12h46.03.374,SL_sali_41,2021.2.3,Win32,163.9344262,0.7886,,,4,0,4,0,1,,,,,,,,
,,"[""circle"",""no_dis"",""hori"",""left"",[99999,99999],[106,106]]",circle,no_dis,hori,left,"[99999,99999]","[106,106]",left,1,,,,,,001,2025-03-11_12h46.03.374,SL_sali_41,2021.2.3,Win32,163.9344262,0.613,,,5,0,5,0,1,,,,,,,,
,,"[""circle"",""green"",""hori"",""left"",[150,0],[106,-106]]",circle,green,hori,left,"[150,0]","[106,-106]",left,1,,,,,,001,2025-03-11_12h46.03.374,SL_sali_41,2021.2.3,Win32,163.9344262,0.6665,,,6,0,6,0,1,,,,,,,,
,,"[""diamond"",""red"",""hori"",""left"",[150,0],[0,-150]]",diamond,red,hori,left,"[150,0]","[0,-150]",left,1,,,,,,001,2025-03-11_12h46.03.374,SL_sali_41,2021.2.3,Win32,163.9344262,0.9491,,,7,0,7,0,1,,,,,,,,
,,"[""circle"",""red"",""hori"",""left"",[106,106],[150,0]]",circle,red,hori,left,"[106,106]","[150,0]",left,1,,,,,,001,2025-03-11_12h46.03.374,SL_sali_41,2021.2.3,Win32,163.9344262,1.028,,,8,0,8,0,1,,,,,,,,
,,"[""diamond"",""green"",""vert"",""up"",[-106,-106],[150,0]]",diamond,green,vert,up,"[-106,-106]","[150,0]",left,0,,,,,,001,2025-03-11_12h46.03.374,SL_sali_41,2021.2.3,Win32,163.9344262,1.2788,,,9,0,9,0,1,,,,,,,,
,,"[""circle"",""green"",""vert"",""up"",[0,150],[-150,0]]",circle,green,vert,up,"[0,150]","[-150,0]",up,1,,,,,,001,2025-03-11_12h46.03.374,SL_sali_41,2021.2.3,Win32,163.9344262,1.146,,,10,0,10,0,1,,,,,,,,
,,"[""circle"",""red"",""vert"",""up"",[150,0],[-106,-106]]",circle,red,vert,up,"[150,0]","[-106,-106]",up,1,,,,,,001,2025-03-11_12h46.03.374,SL_sali_41,2021.2.3,Win32,163.9344262,0.6069,,,11,0,11,0,1,,,,,,,,
,,"[""circle"",""red"",""vert"",""up"",[0,150],[0,-150]]",circle,red,vert,up,"[0,150]","[0,-150]",up,1,,,,,,001,2025-03-11_12h46.03.374,SL_sali_41,2021.2.3,Win32,163.9344262,0.7593,,,12,0,12,0,1,,,,,,,,
,,"[""diamond"",""green"",""vert"",""up"",[-106,106],[150,0]]",diamond,green,vert,up,"[-106,106]","[150,0]",up,1,,,,,,001,2025-03-11_12h46.03.374,SL_sali_41,2021.2.3,Win32,163.9344262,0.9753,,,13,0,13,0,1,,,,,,,,
,,"[""circle"",""no_dis"",""hori"",""left"",[99999,99999],[150,0]]",circle,no_dis,hori,left,"[99999,99999]","[150,0]",left,1,,,,,,001,2025-03-11_12h46.03.374,SL_sali_41,2021.2.3,Win32,163.9344262,0.691,,,14,0,14,0,1,,,,,,,,
,,"[""circle"",""green"",""hori"",""left"",[-106,106],[150,0]]",circle,green,hori,left,"[-106,106]","[150,0]",left,1,,,,,,001,2025-03-11_12h46.03.374,SL_sali_41,2021.2.3,Win32,163.9344262,0.8366,,,15,0,15,0,1,,,,,,,,
,,"[""circle"",""no_dis"",""hori"",""left"",[99999,99999],[-150,0]]",circle,no_dis,hori,left,"[99999,99999]","[-150,0]",left,1,,,,,,001,2025-03-11_12h46.03.374,SL_sali_41,2021.2.3,Win32,163.9344262,0.5894,,,16,0,16,0,1,,,,,,,,
,,"[""circle"",""green"",""hori"",""left"",[0,-150],[-106,106]]",circle,green,hori,left,"[0,-150]","[-106,106]",left,1,,,,,,001,2025-03-11_12h46.03.374,SL_sali_41,2021.2.3,Win32,163.9344262,0.9396,,,17,0,17,0,1,,,,,,,,
,,"[""diamond"",""red"",""vert"",""up"",[150,0],[106,106]]",diamond,red,vert,up,"[150,0]","[106,106]",up,1,,,,,,001,2025-03-11_12h46.03.374,SL_sali_41,2021.2.3,Win32,163.9344262,1.325,,,18,0,18,0,1,,,,,,,,
,,"[""diamond"",""red"",""vert"",""up"",[106,-106],[150,0]]",diamond,red,vert,up,"[106,-106]","[150,0]",up,1,,,,,,001,2025-03-11_12h46.03.374,SL_sali_41,2021.2.3,Win32,163.9344262,0.9335,,,19,0,19,0,1,,,,,,,,
,,"[""diamond"",""no_dis"",""hori"",""left"",[99999,99999],[106,106]]",diamond,no_dis,hori,left,"[99999,99999]","[106,106]",left,1,,,,,,001,2025-03-11_12h46.03.374,SL_sali_41,2021.2.3,Win32,163.9344262,0.7886,,,20,0,20,0,1,,,,,,,,
,,"[""circle"",""green"",""vert"",""up"",[106,-106],[106,106]]",circle,green,vert,up,"[106,-106]","[106,106]",up,1,,,,,,001,2025-03-11_12h46.03.374,SL_sali_41,2021.2.3,Win32,163.9344262,0.9091,,,21,0,21,0,1,,,,,,,,
,,"[""diamond"",""red"",""hori"",""left"",[150,0],[0,150]]",diamond,red,hori,left,"[150,0]","[0,150]",left,1,,,,,,001,2025-03-11_12h46.03.374,SL_sali_41,2021.2.3,Win32,163.9344262,0.9091,,,22,0,22,0,1,,,,,,,,
,,"[""diamond"",""no_dis"",""vert"",""up"",[99999,99999],[106,-106]]",diamond,no_dis,vert,up,"[99999,99999]","[106,-106]",up,1,,,,,,001,2025-03-11_12h46.03.374,SL_sali_41,2021.2.3,Win32,163.9344262,0.6436,,,23,0,23,0,1,,,,,,,,
,,"[""circle"",""red"",""hori"",""left"",[-106,-106],[106,-106]]",circle,red,hori,left,"[-106,-106]","[106,-106]",left,1,,,,,,001,2025-03-11_12h46.03.374,SL_sali_41,2021.2.3,Win32,163.9344262,0.9041,,,24,0,24,0,1,,,,,,,,
,,"[""diamond"",""red"",""vert"",""up"",[-150,0],[-106,106]]",diamond,red,vert,up,"[-150,0]","[-106,106]",up,1,,,,,,001,2025-03-11_12h46.03.374,SL_sali_41,2021.2.3,Win32,163.9344262,0.8124,,,25,0,25,0,1,,,,,,,,
,,"[""diamond"",""no_dis"",""vert"",""up"",[99999,99999],[-106,-106]]",diamond,no_dis,vert,up,"[99999,99999]","[-106,-106]",up,1,,,,,,001,2025-03-11_12h46.03.374,SL_sali_41,2021.2.3,Win32,163.9344262,1.0281,,,26,0,26,0,1,,,,,,,,
,,"[""diamond"",""red"",""vert"",""up"",[150,0],[106,-106]]",diamond,red,vert,up,"[150,0]","[106,-106]",up,1,,,,,,001,2025-03-11_12h46.03.374,SL_sali_41,2021.2.3,Win32,163.9344262,0.9527,,,27,0,27,0,1,,,,,,,,
,,"[""circle"",""no_dis"",""vert"",""up"",[99999,99999],[0,150]]",circle,no_dis,vert,up,"[99999,99999]","[0,150]",up,1,,,,,,001,2025-03-11_12h46.03.374,SL_sali_41,2021.2.3,Win32,163.9344262,1.1272,,,28,0,28,0,1,,,,,,,,
,,"[""circle"",""no_dis"",""hori"",""left"",[99999,99999],[150,0]]",circle,no_dis,hori,left,"[99999,99999]","[150,0]",left,1,,,,,,001,2025-03-11_12h46.03.374,SL_sali_41,2021.2.3,Win32,163.9344262,0.691,,,29,0,29,0,1,,,,,,,,
,,"[""diamond"",""no_dis"",""vert"",""up"",[99999,99999],[150,0]]",diamond,no_dis,vert,up,"[99999,99999]","[150,0]",up,1,,,,,,001,2025-03-11_12h46.03.374,SL_sali_41,2021.2.3,Win32,163.9344262,0.6851,,,30,0,30,0,1,,,,,,,,
,,"[""circle"",""green"",""hori"",""left"",[-106,106],[106,106]]",circle,green,hori,left,"[-106,106]","[106,106]",left,1,,,,,,001,2025-03-11_12h46.03.374,SL_sali_41,2021.2.3,Win32,163.9344262,0.8912,,,31,0,31,0,1,,,,,,,,
,,"[""circle"",""no_dis"",""vert"",""up"",[99999,99999],[-150,0]]",circle,no_dis,vert,up,"[99999,99999]","[-150,0]",up,1,,,,,,001,2025-03-11_12h46.03.374,SL_sali_41,2021.2.3,Win32,163.9344262,0.7269,,,32,0,32,0,1,,,,,,,,
,,"[""circle"",""no_dis"",""vert"",""up"",[99999,99999],[-106,-106]]",circle,no_dis,vert,up,"[99999,99999]","[-106,-106]",up,1,,,,,,001,2025-03-11_12h46.03.374,SL_sali_41,2021.2.3,Win32,163.9344262,0.7664,,,33,0,33,0,1,,,,,,,,
,,"[""circle"",""no_dis"",""vert"",""up"",[99999,99999],[106,106]]",circle,no_dis,vert,up,"[99999,99999]","[106,106]",up,1,,,,,,001,2025-03-11_12h46.03.374,SL_sali_41,2021.2.3,Win32,163.9344262,0.6683,,,34,0,34,0,1,,,,,,,,
,,"[""diamond"",""green"",""hori"",""left"",[150,0],[106,-106]]",diamond,green,hori,left,"[150,0]","[106,-106]",left,1,,,,,,001,2025-03-11_12h46.03.374,SL_sali_41,2021.2.3,Win32,163.9344262,1.0347,,,35,0,35,0,1,,,,,,,,
,,"[""circle"",""green"",""vert"",""up"",[150,0],[-106,-106]]",circle,green,vert,up,"[150,0]","[-106,-106]",up,1,,,,,,001,2025-03-11_12h46.03.374,SL_sali_41,2021.2.3,Win32,163.9344262,0.6513,,,36,0,36,0,1,,,,,,,,
,,"[""circle"",""green"",""hori"",""left"",[-106,106],[-150,0]]",circle,green,hori,left,"[-106,106]","[-150,0]",left,1,,,,,,001,2025-03-11_12h46.03.374,SL_sali_41,2021.2.3,Win32,163.9344262,0.9577,,,37,0,37,0,1,,,,,,,,
,,"[""circle"",""red"",""vert"",""up"",[0,-150],[-150,0]]",circle,red,vert,up,"[0,-150]","[-150,0]",up,1,,,,,,001,2025-03-11_12h46.03.374,SL_sali_41,2021.2.3,Win32,163.9344262,0.8807,,,38,0,38,0,1,,,,,,,,
,,"[""circle"",""green"",""hori"",""left"",[0,-150],[106,-106]]",circle,green,hori,left,"[0,-150]","[106,-106]",left,1,,,,,,001,2025-03-11_12h46.03.374,SL_sali_41,2021.2.3,Win32,163.9344262,0.6874,,,39,0,39,0,1,,,,,,,,
,,"[""circle"",""no_dis"",""hori"",""left"",[99999,99999],[-106,106]]",circle,no_dis,hori,left,"[99999,99999]","[-106,106]",left,1,,,,,,001,2025-03-11_12h46.03.374,SL_sali_41,2021.2.3,Win32,163.9344262,0.6129,,,40,0,40,0,1,,,,,,,,
,,"[""diamond"",""red"",""hori"",""left"",[150,0],[-106,-106]]",diamond,red,hori,left,"[150,0]","[-106,-106]",left,1,,,,,,001,2025-03-11_12h46.03.374,SL_sali_41,2021.2.3,Win32,163.9344262,1.1014,,,41,0,41,0,1,,,,,,,,
,,"[""circle"",""no_dis"",""vert"",""up"",[99999,99999],[-106,106]]",circle,no_dis,vert,up,"[99999,99999]","[-106,106]",up,1,,,,,,001,2025-03-11_12h46.03.374,SL_sali_41,2021.2.3,Win32,163.9344262,0.7586,,,42,0,42,0,1,,,,,,,,
,,"[""circle"",""red"",""hori"",""left"",[106,-106],[0,150]]",circle,red,hori,left,"[106,-106]","[0,150]",left,1,,,,,,001,2025-03-11_12h46.03.374,SL_sali_41,2021.2.3,Win32,163.9344262,0.8302,,,43,0,43,0,1,,,,,,,,
,,"[""diamond"",""red"",""hori"",""left"",[150,0],[-106,-106]]",diamond,red,hori,left,"[150,0]","[-106,-106]",left,1,,,,,,001,2025-03-11_12h46.03.374,SL_sali_41,2021.2.3,Win32,163.9344262,1.0658,,,44,0,44,0,1,,,,,,,,
,,"[""diamond"",""red"",""hori"",""left"",[-150,0],[106,-106]]",diamond,red,hori,left,"[-150,0]","[106,-106]",left,1,,,,,,001,2025-03-11_12h46.03.374,SL_sali_41,2021.2.3,Win32,163.9344262,0.9275,,,45,0,45,0,1,,,,,,,,
,,"[""circle"",""red"",""hori"",""left"",[106,-106],[106,106]]",circle,red,hori,left,"[106,-106]","[106,106]",left,1,,,,,,001,2025-03-11_12h46.03.374,SL_sali_41,2021.2.3,Win32,163.9344262,0.9114,,,46,0,46,0,1,,,,,,,,
,,"[""diamond"",""green"",""hori"",""left"",[106,106],[150,0]]",diamond,green,hori,left,"[106,106]","[150,0]",left,1,,,,,,001,2025-03-11_12h46.03.374,SL_sali_41,2021.2.3,Win32,163.9344262,0.9402,,,47,0,47,0,1,,,,,,,,
,,"[""circle"",""red"",""hori"",""left"",[0,-150],[-106,-106]]",circle,red,hori,left,"[0,-150]","[-106,-106]",left,1,,,,,,001,2025-03-11_12h46.03.374,SL_sali_41,2021.2.3,Win32,163.9344262,0.7782,,,48,0,48,0,1,,,,,,,,
,,"[""circle"",""green"",""vert"",""up"",[-106,-106],[0,-150]]",circle,green,vert,up,"[-106,-106]","[0,-150]",left,0,,,,,,001,2025-03-11_12h46.03.374,SL_sali_41,2021.2.3,Win32,163.9344262,0.6389,,,49,0,49,0,1,,,,,,,,
,,"[""diamond"",""red"",""hori"",""left"",[150,0],[-106,-106]]",diamond,red,hori,left,"[150,0]","[-106,-106]",left,1,,,,,,001,2025-03-11_12h46.03.374,SL_sali_41,2021.2.3,Win32,163.9344262,0.7179,,,50,0,50,0,1,,,,,,,,
,,"[""circle"",""no_dis"",""hori"",""left"",[99999,99999],[0,150]]",circle,no_dis,hori,left,"[99999,99999]","[0,150]",left,1,,,,,,001,2025-03-11_12h46.03.374,SL_sali_41,2021.2.3,Win32,163.9344262,0.6001,,,51,0,51,0,1,,,,,,,,
,,"[""circle"",""red"",""vert"",""up"",[0,150],[106,-106]]",circle,red,vert,up,"[0,150]","[106,-106]",up,1,,,,,,001,2025-03-11_12h46.03.374,SL_sali_41,2021.2.3,Win32,163.9344262,0.7524,,,52,0,52,0,1,,,,,,,,
,,"[""diamond"",""no_dis"",""hori"",""left"",[99999,99999],[-106,-106]]",diamond,no_dis,hori,left,"[99999,99999]","[-106,-106]",left,1,,,,,,001,2025-03-11_12h46.03.374,SL_sali_41,2021.2.3,Win32,163.9344262,0.637,,,53,0,53,0,1,,,,,,,,
,,"[""diamond"",""red"",""vert"",""up"",[0,150],[106,106]]",diamond,red,vert,up,"[0,150]","[106,106]",up,1,,,,,,001,2025-03-11_12h46.03.374,SL_sali_41,2021.2.3,Win32,163.9344262,0.8851,,,54,0,54,0,1,,,,,,,,
,,"[""circle"",""no_dis"",""hori"",""left"",[99999,99999],[-106,106]]",circle,no_dis,hori,left,"[99999,99999]","[-106,106]",left,1,,,,,,001,2025-03-11_12h46.03.374,SL_sali_41,2021.2.3,Win32,163.9344262,0.5953,,,55,0,55,0,1,,,,,,,,
,,"[""circle"",""red"",""vert"",""up"",[150,0],[-150,0]]",circle,red,vert,up,"[150,0]","[-150,0]",up,1,,,,,,001,2025-03-11_12h46.03.374,SL_sali_41,2021.2.3,Win32,163.9344262,0.7042,,,56,0,56,0,1,,,,,,,,
,,"[""diamond"",""no_dis"",""vert"",""up"",[99999,99999],[106,106]]",diamond,no_dis,vert,up,"[99999,99999]","[106,106]",up,1,,,,,,001,2025-03-11_12h46.03.374,SL_sali_41,2021.2.3,Win32,163.9344262,0.7678,,,57,0,57,0,1,,,,,,,,
,,"[""diamond"",""green"",""vert"",""up"",[-106,-106],[-106,106]]",diamond,green,vert,up,"[-106,-106]","[-106,106]",up,1,,,,,,001,2025-03-11_12h46.03.374,SL_sali_41,2021.2.3,Win32,163.9344262,0.8061,,,58,0,58,0,1,,,,,,,,
,,"[""circle"",""green"",""vert"",""up"",[-150,0],[106,-106]]",circle,green,vert,up,"[-150,0]","[106,-106]",left,0,,,,,,001,2025-03-11_12h46.03.374,SL_sali_41,2021.2.3,Win32,163.9344262,0.9149,,,59,0,59,0,1,,,,,,,,
,,"[""circle"",""no_dis"",""vert"",""up"",[99999,99999],[0,-150]]",circle,no_dis,vert,up,"[99999,99999]","[0,-150]",up,1,,,,,,001,2025-03-11_12h46.03.374,SL_sali_41,2021.2.3,Win32,163.9344262,0.728,,,60,0,60,0,1,,,,,,,,
