﻿key_resp.keys,key_resp.rt,trial_para,tar_shape,dis_color_condi,tar_line,cor_resp,dis_loc,tar_loc,resp.keys,resp.corr,resp.rt,trials.thisRepN,trials.thisTrialN,trials.thisN,trials.thisIndex,trials.ran,participant,date,expName,psychopyVersion,OS,frameRate,key_resp_2.keys,key_resp_2.rt,trials_2.thisRepN,trials_2.thisTrialN,trials_2.thisN,trials_2.thisIndex,trials_2.ran,block_num,key_resp_3.keys,key_resp_3.rt,trials_3.thisRepN,trials_3.thisTrialN,trials_3.thisN,trials_3.thisIndex,trials_3.ran
space,186.218,"[""circle"",""green"",""vert"",""up"",[-106,-106],[150,0]]",circle,green,vert,up,"[-106,-106]","[150,0]",left,0,2.673,0,0,0,0,1,001,2025-03-10_21h58.29.479,SL_sali_41,2021.2.3,Win32,60.0240096,,,,,,,,,,,,,,,
,,"[""diamond"",""green"",""hori"",""left"",[-150,0],[-106,-106]]",diamond,green,hori,left,"[-150,0]","[-106,-106]",left,1,2.687,1,0,1,0,1,001,2025-03-10_21h58.29.479,SL_sali_41,2021.2.3,Win32,60.0240096,,,,,,,,,,,,,,,
,,"[""diamond"",""green"",""vert"",""up"",[0,150],[150,0]]",diamond,green,vert,up,"[0,150]","[150,0]",,0,,2,0,2,0,1,001,2025-03-10_21h58.29.479,SL_sali_41,2021.2.3,Win32,60.0240096,,,,,,,,,,,,,,,
,,"[""circle"",""green"",""vert"",""up"",[-106,-106],[-106,106]]",circle,green,vert,up,"[-106,-106]","[-106,106]",,0,,3,0,3,0,1,001,2025-03-10_21h58.29.479,SL_sali_41,2021.2.3,Win32,60.0240096,,,,,,,,,,,,,,,
,,"[""circle"",""green"",""hori"",""left"",[-106,-106],[-106,106]]",circle,green,hori,left,"[-106,-106]","[-106,106]",left,1,1.72,4,0,4,0,1,001,2025-03-10_21h58.29.479,SL_sali_41,2021.2.3,Win32,60.0240096,,,,,,,,,,,,,,,
,,"[""circle"",""red"",""vert"",""up"",[106,-106],[0,-150]]",circle,red,vert,up,"[106,-106]","[0,-150]",up,1,2.153,5,0,5,0,1,001,2025-03-10_21h58.29.479,SL_sali_41,2021.2.3,Win32,60.0240096,,,,,,,,,,,,,,,
,,"[""diamond"",""no_dis"",""vert"",""up"",[99999,99999],[-106,-106]]",diamond,no_dis,vert,up,"[99999,99999]","[-106,-106]",up,1,1.905,6,0,6,0,1,001,2025-03-10_21h58.29.479,SL_sali_41,2021.2.3,Win32,60.0240096,,,,,,,,,,,,,,,
,,"[""diamond"",""green"",""hori"",""left"",[0,-150],[0,150]]",diamond,green,hori,left,"[0,-150]","[0,150]",up,0,2.757,7,0,7,0,1,001,2025-03-10_21h58.29.479,SL_sali_41,2021.2.3,Win32,60.0240096,,,,,,,,,,,,,,,
,,"[""circle"",""green"",""vert"",""up"",[-106,-106],[0,150]]",circle,green,vert,up,"[-106,-106]","[0,150]",up,1,1.908,8,0,8,0,1,001,2025-03-10_21h58.29.479,SL_sali_41,2021.2.3,Win32,60.0240096,,,,,,,,,,,,,,,
,,"[""diamond"",""green"",""hori"",""left"",[-106,106],[-106,-106]]",diamond,green,hori,left,"[-106,106]","[-106,-106]",left,1,1.459,9,0,9,0,1,001,2025-03-10_21h58.29.479,SL_sali_41,2021.2.3,Win32,60.0240096,,,,,,,,,,,,,,,
,,"[""circle"",""green"",""vert"",""up"",[-106,-106],[150,0]]",circle,green,vert,up,"[-106,-106]","[150,0]",up,1,2.357,,,,,,001,2025-03-10_21h58.29.479,SL_sali_41,2021.2.3,Win32,60.0240096,space,167.316,0,0,0,0,1,,,,,,,,
,,"[""diamond"",""green"",""hori"",""left"",[-150,0],[-106,-106]]",diamond,green,hori,left,"[-150,0]","[-106,-106]",left,1,1.626,,,,,,001,2025-03-10_21h58.29.479,SL_sali_41,2021.2.3,Win32,60.0240096,,,1,0,1,0,1,,,,,,,,
,,"[""diamond"",""green"",""vert"",""up"",[0,150],[150,0]]",diamond,green,vert,up,"[0,150]","[150,0]",up,1,2.008,,,,,,001,2025-03-10_21h58.29.479,SL_sali_41,2021.2.3,Win32,60.0240096,,,2,0,2,0,1,,,,,,,,
,,"[""circle"",""green"",""vert"",""up"",[-106,-106],[-106,106]]",circle,green,vert,up,"[-106,-106]","[-106,106]",up,1,1.56,,,,,,001,2025-03-10_21h58.29.479,SL_sali_41,2021.2.3,Win32,60.0240096,,,3,0,3,0,1,,,,,,,,
,,"[""circle"",""green"",""hori"",""left"",[-106,-106],[-106,106]]",circle,green,hori,left,"[-106,-106]","[-106,106]",left,1,1.327,,,,,,001,2025-03-10_21h58.29.479,SL_sali_41,2021.2.3,Win32,60.0240096,,,4,0,4,0,1,,,,,,,,
,,"[""circle"",""red"",""vert"",""up"",[106,-106],[0,-150]]",circle,red,vert,up,"[106,-106]","[0,-150]",up,1,1.331,,,,,,001,2025-03-10_21h58.29.479,SL_sali_41,2021.2.3,Win32,60.0240096,,,5,0,5,0,1,,,,,,,,
,,"[""diamond"",""no_dis"",""vert"",""up"",[99999,99999],[-106,-106]]",diamond,no_dis,vert,up,"[99999,99999]","[-106,-106]",up,1,1.528,,,,,,001,2025-03-10_21h58.29.479,SL_sali_41,2021.2.3,Win32,60.0240096,,,6,0,6,0,1,,,,,,,,
,,"[""diamond"",""green"",""hori"",""left"",[0,-150],[0,150]]",diamond,green,hori,left,"[0,-150]","[0,150]",left,1,1.248,,,,,,001,2025-03-10_21h58.29.479,SL_sali_41,2021.2.3,Win32,60.0240096,,,7,0,7,0,1,,,,,,,,
,,"[""circle"",""green"",""vert"",""up"",[-106,-106],[0,150]]",circle,green,vert,up,"[-106,-106]","[0,150]",up,1,1.07,,,,,,001,2025-03-10_21h58.29.479,SL_sali_41,2021.2.3,Win32,60.0240096,,,8,0,8,0,1,,,,,,,,
,,"[""diamond"",""green"",""hori"",""left"",[-106,106],[-106,-106]]",diamond,green,hori,left,"[-106,106]","[-106,-106]",left,1,1.346,,,,,,001,2025-03-10_21h58.29.479,SL_sali_41,2021.2.3,Win32,60.0240096,,,9,0,9,0,1,,,,,,,,
,,"[""diamond"",""no_dis"",""hori"",""left"",[99999,99999],[150,0]]",diamond,no_dis,hori,left,"[99999,99999]","[150,0]",left,1,1.629,,,,,,001,2025-03-10_21h58.29.479,SL_sali_41,2021.2.3,Win32,60.0240096,,,10,0,10,0,1,,,,,,,,
,,"[""diamond"",""no_dis"",""hori"",""left"",[99999,99999],[106,106]]",diamond,no_dis,hori,left,"[99999,99999]","[106,106]",left,1,1.567,,,,,,001,2025-03-10_21h58.29.479,SL_sali_41,2021.2.3,Win32,60.0240096,,,11,0,11,0,1,,,,,,,,
,,"[""diamond"",""red"",""hori"",""left"",[0,150],[-106,106]]",diamond,red,hori,left,"[0,150]","[-106,106]",left,1,1.483,,,,,,001,2025-03-10_21h58.29.479,SL_sali_41,2021.2.3,Win32,60.0240096,,,12,0,12,0,1,,,,,,,,
,,"[""diamond"",""red"",""hori"",""left"",[0,150],[0,-150]]",diamond,red,hori,left,"[0,150]","[0,-150]",left,1,0.87,,,,,,001,2025-03-10_21h58.29.479,SL_sali_41,2021.2.3,Win32,60.0240096,,,13,0,13,0,1,,,,,,,,
,,"[""diamond"",""no_dis"",""hori"",""left"",[99999,99999],[0,150]]",diamond,no_dis,hori,left,"[99999,99999]","[0,150]",left,1,0.893,,,,,,001,2025-03-10_21h58.29.479,SL_sali_41,2021.2.3,Win32,60.0240096,,,14,0,14,0,1,,,,,,,,
,,"[""diamond"",""red"",""vert"",""up"",[150,0],[-106,-106]]",diamond,red,vert,up,"[150,0]","[-106,-106]",up,1,1.382,,,,,,001,2025-03-10_21h58.29.479,SL_sali_41,2021.2.3,Win32,60.0240096,,,15,0,15,0,1,,,,,,,,
,,"[""diamond"",""red"",""hori"",""left"",[-106,-106],[106,-106]]",diamond,red,hori,left,"[-106,-106]","[106,-106]",left,1,1.181,,,,,,001,2025-03-10_21h58.29.479,SL_sali_41,2021.2.3,Win32,60.0240096,,,16,0,16,0,1,,,,,,,,
,,"[""circle"",""red"",""hori"",""left"",[-106,-106],[-106,106]]",circle,red,hori,left,"[-106,-106]","[-106,106]",left,1,0.794,,,,,,001,2025-03-10_21h58.29.479,SL_sali_41,2021.2.3,Win32,60.0240096,,,17,0,17,0,1,,,,,,,,
,,"[""diamond"",""red"",""hori"",""left"",[0,-150],[150,0]]",diamond,red,hori,left,"[0,-150]","[150,0]",left,1,0.898,,,,,,001,2025-03-10_21h58.29.479,SL_sali_41,2021.2.3,Win32,60.0240096,,,18,0,18,0,1,,,,,,,,
,,"[""circle"",""green"",""vert"",""up"",[150,0],[0,-150]]",circle,green,vert,up,"[150,0]","[0,-150]",up,1,1.188,,,,,,001,2025-03-10_21h58.29.479,SL_sali_41,2021.2.3,Win32,60.0240096,,,19,0,19,0,1,,,,,,,,
,,"[""circle"",""no_dis"",""vert"",""up"",[99999,99999],[106,-106]]",circle,no_dis,vert,up,"[99999,99999]","[106,-106]",up,1,1.179,,,,,,001,2025-03-10_21h58.29.479,SL_sali_41,2021.2.3,Win32,60.0240096,,,20,0,20,0,1,,,,,,,,
,,"[""diamond"",""green"",""vert"",""up"",[-106,-106],[0,150]]",diamond,green,vert,up,"[-106,-106]","[0,150]",up,1,1.525,,,,,,001,2025-03-10_21h58.29.479,SL_sali_41,2021.2.3,Win32,60.0240096,,,21,0,21,0,1,,,,,,,,
,,"[""diamond"",""no_dis"",""hori"",""left"",[99999,99999],[-150,0]]",diamond,no_dis,hori,left,"[99999,99999]","[-150,0]",left,1,0.755,,,,,,001,2025-03-10_21h58.29.479,SL_sali_41,2021.2.3,Win32,60.0240096,,,22,0,22,0,1,,,,,,,,
,,"[""circle"",""red"",""hori"",""left"",[0,-150],[106,106]]",circle,red,hori,left,"[0,-150]","[106,106]",up,0,0.801,,,,,,001,2025-03-10_21h58.29.479,SL_sali_41,2021.2.3,Win32,60.0240096,,,23,0,23,0,1,,,,,,,,
,,"[""circle"",""green"",""hori"",""left"",[-106,-106],[106,106]]",circle,green,hori,left,"[-106,-106]","[106,106]",left,1,1.117,,,,,,001,2025-03-10_21h58.29.479,SL_sali_41,2021.2.3,Win32,60.0240096,,,24,0,24,0,1,,,,,,,,
,,"[""circle"",""no_dis"",""vert"",""up"",[99999,99999],[0,150]]",circle,no_dis,vert,up,"[99999,99999]","[0,150]",up,1,0.999,,,,,,001,2025-03-10_21h58.29.479,SL_sali_41,2021.2.3,Win32,60.0240096,,,25,0,25,0,1,,,,,,,,
,,"[""diamond"",""red"",""hori"",""left"",[106,106],[0,150]]",diamond,red,hori,left,"[106,106]","[0,150]",left,1,1.315,,,,,,001,2025-03-10_21h58.29.479,SL_sali_41,2021.2.3,Win32,60.0240096,,,26,0,26,0,1,,,,,,,,
,,"[""diamond"",""no_dis"",""vert"",""up"",[99999,99999],[106,-106]]",diamond,no_dis,vert,up,"[99999,99999]","[106,-106]",up,1,1.205,,,,,,001,2025-03-10_21h58.29.479,SL_sali_41,2021.2.3,Win32,60.0240096,,,27,0,27,0,1,,,,,,,,
,,"[""diamond"",""red"",""vert"",""up"",[106,-106],[106,106]]",diamond,red,vert,up,"[106,-106]","[106,106]",up,1,1.171,,,,,,001,2025-03-10_21h58.29.479,SL_sali_41,2021.2.3,Win32,60.0240096,,,28,0,28,0,1,,,,,,,,
,,"[""circle"",""red"",""vert"",""up"",[-106,-106],[150,0]]",circle,red,vert,up,"[-106,-106]","[150,0]",up,1,1.099,,,,,,001,2025-03-10_21h58.29.479,SL_sali_41,2021.2.3,Win32,60.0240096,,,29,0,29,0,1,,,,,,,,
,,"[""circle"",""red"",""hori"",""left"",[150,0],[106,106]]",circle,red,hori,left,"[150,0]","[106,106]",left,1,1.331,,,,,,001,2025-03-10_21h58.29.479,SL_sali_41,2021.2.3,Win32,60.0240096,,,30,0,30,0,1,,,,,,,,
,,"[""diamond"",""green"",""vert"",""up"",[150,0],[-106,106]]",diamond,green,vert,up,"[150,0]","[-106,106]",up,1,1.167,,,,,,001,2025-03-10_21h58.29.479,SL_sali_41,2021.2.3,Win32,60.0240096,,,31,0,31,0,1,,,,,,,,
,,"[""diamond"",""no_dis"",""vert"",""up"",[99999,99999],[-150,0]]",diamond,no_dis,vert,up,"[99999,99999]","[-150,0]",up,1,0.992,,,,,,001,2025-03-10_21h58.29.479,SL_sali_41,2021.2.3,Win32,60.0240096,,,32,0,32,0,1,,,,,,,,
,,"[""circle"",""green"",""vert"",""up"",[-106,106],[106,106]]",circle,green,vert,up,"[-106,106]","[106,106]",up,1,1.177,,,,,,001,2025-03-10_21h58.29.479,SL_sali_41,2021.2.3,Win32,60.0240096,,,33,0,33,0,1,,,,,,,,
,,"[""circle"",""green"",""vert"",""up"",[150,0],[0,150]]",circle,green,vert,up,"[150,0]","[0,150]",up,1,1.213,,,,,,001,2025-03-10_21h58.29.479,SL_sali_41,2021.2.3,Win32,60.0240096,,,34,0,34,0,1,,,,,,,,
,,"[""circle"",""no_dis"",""hori"",""left"",[99999,99999],[-150,0]]",circle,no_dis,hori,left,"[99999,99999]","[-150,0]",left,1,0.859,,,,,,001,2025-03-10_21h58.29.479,SL_sali_41,2021.2.3,Win32,60.0240096,,,35,0,35,0,1,,,,,,,,
,,"[""circle"",""red"",""vert"",""up"",[-106,-106],[0,-150]]",circle,red,vert,up,"[-106,-106]","[0,-150]",up,1,1.862,,,,,,001,2025-03-10_21h58.29.479,SL_sali_41,2021.2.3,Win32,60.0240096,,,36,0,36,0,1,,,,,,,,
,,"[""circle"",""green"",""hori"",""left"",[150,0],[106,106]]",circle,green,hori,left,"[150,0]","[106,106]",left,1,1.113,,,,,,001,2025-03-10_21h58.29.479,SL_sali_41,2021.2.3,Win32,60.0240096,,,37,0,37,0,1,,,,,,,,
,,"[""circle"",""red"",""hori"",""left"",[0,150],[106,106]]",circle,red,hori,left,"[0,150]","[106,106]",left,1,0.779,,,,,,001,2025-03-10_21h58.29.479,SL_sali_41,2021.2.3,Win32,60.0240096,,,38,0,38,0,1,,,,,,,,
,,"[""diamond"",""green"",""vert"",""up"",[106,106],[-106,106]]",diamond,green,vert,up,"[106,106]","[-106,106]",up,1,1.472,,,,,,001,2025-03-10_21h58.29.479,SL_sali_41,2021.2.3,Win32,60.0240096,,,39,0,39,0,1,,,,,,,,
,,"[""circle"",""red"",""vert"",""up"",[0,150],[106,-106]]",circle,red,vert,up,"[0,150]","[106,-106]",up,1,1.117,,,,,,001,2025-03-10_21h58.29.479,SL_sali_41,2021.2.3,Win32,60.0240096,,,40,0,40,0,1,,,,,,,,
,,"[""circle"",""green"",""hori"",""left"",[-106,-106],[0,-150]]",circle,green,hori,left,"[-106,-106]","[0,-150]",left,1,0.955,,,,,,001,2025-03-10_21h58.29.479,SL_sali_41,2021.2.3,Win32,60.0240096,,,41,0,41,0,1,,,,,,,,
,,"[""diamond"",""green"",""vert"",""up"",[-106,-106],[-106,106]]",diamond,green,vert,up,"[-106,-106]","[-106,106]",left,0,0.832,,,,,,001,2025-03-10_21h58.29.479,SL_sali_41,2021.2.3,Win32,60.0240096,,,42,0,42,0,1,,,,,,,,
,,"[""diamond"",""red"",""hori"",""left"",[-106,106],[-150,0]]",diamond,red,hori,left,"[-106,106]","[-150,0]",left,1,1.373,,,,,,001,2025-03-10_21h58.29.479,SL_sali_41,2021.2.3,Win32,60.0240096,,,43,0,43,0,1,,,,,,,,
,,"[""circle"",""green"",""hori"",""left"",[106,-106],[0,150]]",circle,green,hori,left,"[106,-106]","[0,150]",left,1,1.983,,,,,,001,2025-03-10_21h58.29.479,SL_sali_41,2021.2.3,Win32,60.0240096,,,44,0,44,0,1,,,,,,,,
,,"[""diamond"",""green"",""hori"",""left"",[106,-106],[0,150]]",diamond,green,hori,left,"[106,-106]","[0,150]",left,1,1.432,,,,,,001,2025-03-10_21h58.29.479,SL_sali_41,2021.2.3,Win32,60.0240096,,,45,0,45,0,1,,,,,,,,
,,"[""circle"",""red"",""vert"",""up"",[106,106],[0,150]]",circle,red,vert,up,"[106,106]","[0,150]",left,0,1.096,,,,,,001,2025-03-10_21h58.29.479,SL_sali_41,2021.2.3,Win32,60.0240096,,,46,0,46,0,1,,,,,,,,
,,"[""circle"",""green"",""vert"",""up"",[106,106],[150,0]]",circle,green,vert,up,"[106,106]","[150,0]",up,1,0.93,,,,,,001,2025-03-10_21h58.29.479,SL_sali_41,2021.2.3,Win32,60.0240096,,,47,0,47,0,1,,,,,,,,
,,"[""diamond"",""red"",""vert"",""up"",[-150,0],[106,-106]]",diamond,red,vert,up,"[-150,0]","[106,-106]",left,0,0.969,,,,,,001,2025-03-10_21h58.29.479,SL_sali_41,2021.2.3,Win32,60.0240096,,,48,0,48,0,1,,,,,,,,
,,"[""circle"",""no_dis"",""hori"",""left"",[99999,99999],[-150,0]]",circle,no_dis,hori,left,"[99999,99999]","[-150,0]",left,1,0.792,,,,,,001,2025-03-10_21h58.29.479,SL_sali_41,2021.2.3,Win32,60.0240096,,,49,0,49,0,1,,,,,,,,
,,"[""circle"",""no_dis"",""hori"",""left"",[99999,99999],[0,-150]]",circle,no_dis,hori,left,"[99999,99999]","[0,-150]",left,1,1.327,,,,,,001,2025-03-10_21h58.29.479,SL_sali_41,2021.2.3,Win32,60.0240096,,,50,0,50,0,1,,,,,,,,
,,"[""circle"",""no_dis"",""hori"",""left"",[99999,99999],[106,106]]",circle,no_dis,hori,left,"[99999,99999]","[106,106]",left,1,1.396,,,,,,001,2025-03-10_21h58.29.479,SL_sali_41,2021.2.3,Win32,60.0240096,,,51,0,51,0,1,,,,,,,,
,,"[""circle"",""red"",""vert"",""up"",[-106,-106],[150,0]]",circle,red,vert,up,"[-106,-106]","[150,0]",up,1,1.036,,,,,,001,2025-03-10_21h58.29.479,SL_sali_41,2021.2.3,Win32,60.0240096,,,52,0,52,0,1,,,,,,,,
,,"[""circle"",""red"",""hori"",""left"",[0,150],[150,0]]",circle,red,hori,left,"[0,150]","[150,0]",left,1,0.903,,,,,,001,2025-03-10_21h58.29.479,SL_sali_41,2021.2.3,Win32,60.0240096,,,53,0,53,0,1,,,,,,,,
,,"[""circle"",""no_dis"",""vert"",""up"",[99999,99999],[150,0]]",circle,no_dis,vert,up,"[99999,99999]","[150,0]",up,1,0.877,,,,,,001,2025-03-10_21h58.29.479,SL_sali_41,2021.2.3,Win32,60.0240096,,,54,0,54,0,1,,,,,,,,
,,"[""diamond"",""green"",""vert"",""up"",[0,150],[-150,0]]",diamond,green,vert,up,"[0,150]","[-150,0]",up,1,1.167,,,,,,001,2025-03-10_21h58.29.479,SL_sali_41,2021.2.3,Win32,60.0240096,,,55,0,55,0,1,,,,,,,,
,,"[""diamond"",""no_dis"",""hori"",""left"",[99999,99999],[0,-150]]",diamond,no_dis,hori,left,"[99999,99999]","[0,-150]",left,1,0.973,,,,,,001,2025-03-10_21h58.29.479,SL_sali_41,2021.2.3,Win32,60.0240096,,,56,0,56,0,1,,,,,,,,
,,"[""diamond"",""green"",""hori"",""left"",[-106,-106],[150,0]]",diamond,green,hori,left,"[-106,-106]","[150,0]",left,1,0.994,,,,,,001,2025-03-10_21h58.29.479,SL_sali_41,2021.2.3,Win32,60.0240096,,,57,0,57,0,1,,,,,,,,
,,"[""diamond"",""no_dis"",""vert"",""up"",[99999,99999],[0,-150]]",diamond,no_dis,vert,up,"[99999,99999]","[0,-150]",up,1,1.233,,,,,,001,2025-03-10_21h58.29.479,SL_sali_41,2021.2.3,Win32,60.0240096,,,58,0,58,0,1,,,,,,,,
,,"[""circle"",""red"",""vert"",""up"",[0,150],[106,-106]]",circle,red,vert,up,"[0,150]","[106,-106]",up,1,1.344,,,,,,001,2025-03-10_21h58.29.479,SL_sali_41,2021.2.3,Win32,60.0240096,,,59,0,59,0,1,,,,,,,,
,,"[""diamond"",""green"",""hori"",""left"",[-150,0],[0,-150]]",diamond,green,hori,left,"[-150,0]","[0,-150]",left,1,1.471,,,,,,001,2025-03-10_21h58.29.479,SL_sali_41,2021.2.3,Win32,60.0240096,,,60,0,60,0,1,,,,,,,,
,,"[""diamond"",""red"",""hori"",""left"",[-106,-106],[-106,106]]",diamond,red,hori,left,"[-106,-106]","[-106,106]",left,1,1.64,,,,,,001,2025-03-10_21h58.29.479,SL_sali_41,2021.2.3,Win32,60.0240096,,,61,0,61,0,1,,,,,,,,
,,"[""diamond"",""no_dis"",""vert"",""up"",[99999,99999],[106,106]]",diamond,no_dis,vert,up,"[99999,99999]","[106,106]",up,1,0.829,,,,,,001,2025-03-10_21h58.29.479,SL_sali_41,2021.2.3,Win32,60.0240096,,,62,0,62,0,1,,,,,,,,
,,"[""circle"",""green"",""hori"",""left"",[106,-106],[-106,106]]",circle,green,hori,left,"[106,-106]","[-106,106]",left,1,1.327,,,,,,001,2025-03-10_21h58.29.479,SL_sali_41,2021.2.3,Win32,60.0240096,,,63,0,63,0,1,,,,,,,,
,,"[""diamond"",""no_dis"",""vert"",""up"",[99999,99999],[-106,-106]]",diamond,no_dis,vert,up,"[99999,99999]","[-106,-106]",up,1,1.098,,,,,,001,2025-03-10_21h58.29.479,SL_sali_41,2021.2.3,Win32,60.0240096,,,64,0,64,0,1,,,,,,,,
,,"[""diamond"",""red"",""vert"",""up"",[-106,106],[106,-106]]",diamond,red,vert,up,"[-106,106]","[106,-106]",up,1,0.991,,,,,,001,2025-03-10_21h58.29.479,SL_sali_41,2021.2.3,Win32,60.0240096,,,65,0,65,0,1,,,,,,,,
,,"[""diamond"",""red"",""vert"",""up"",[-106,106],[0,150]]",diamond,red,vert,up,"[-106,106]","[0,150]",up,1,1.472,,,,,,001,2025-03-10_21h58.29.479,SL_sali_41,2021.2.3,Win32,60.0240096,,,66,0,66,0,1,,,,,,,,
,,"[""circle"",""no_dis"",""vert"",""up"",[99999,99999],[0,150]]",circle,no_dis,vert,up,"[99999,99999]","[0,150]",up,1,1.511,,,,,,001,2025-03-10_21h58.29.479,SL_sali_41,2021.2.3,Win32,60.0240096,,,67,0,67,0,1,,,,,,,,
,,"[""diamond"",""red"",""vert"",""up"",[-106,106],[106,106]]",diamond,red,vert,up,"[-106,106]","[106,106]",up,1,1.084,,,,,,001,2025-03-10_21h58.29.479,SL_sali_41,2021.2.3,Win32,60.0240096,,,68,0,68,0,1,,,,,,,,
,,"[""circle"",""no_dis"",""vert"",""up"",[99999,99999],[106,106]]",circle,no_dis,vert,up,"[99999,99999]","[106,106]",left,0,1.675,,,,,,001,2025-03-10_21h58.29.479,SL_sali_41,2021.2.3,Win32,60.0240096,,,69,0,69,0,1,,,,,,,,
,,"[""circle"",""red"",""vert"",""up"",[-150,0],[0,150]]",circle,red,vert,up,"[-150,0]","[0,150]",up,1,0.766,,,,,,001,2025-03-10_21h58.29.479,SL_sali_41,2021.2.3,Win32,60.0240096,,,70,0,70,0,1,,,,,,,,
,,"[""circle"",""red"",""hori"",""left"",[-106,-106],[150,0]]",circle,red,hori,left,"[-106,-106]","[150,0]",left,1,1.281,,,,,,001,2025-03-10_21h58.29.479,SL_sali_41,2021.2.3,Win32,60.0240096,,,71,0,71,0,1,,,,,,,,
,,"[""diamond"",""green"",""hori"",""left"",[-106,-106],[0,-150]]",diamond,green,hori,left,"[-106,-106]","[0,-150]",left,1,1.067,,,,,,001,2025-03-10_21h58.29.479,SL_sali_41,2021.2.3,Win32,60.0240096,,,72,0,72,0,1,,,,,,,,
,,"[""diamond"",""no_dis"",""hori"",""left"",[99999,99999],[-106,106]]",diamond,no_dis,hori,left,"[99999,99999]","[-106,106]",left,1,1.416,,,,,,001,2025-03-10_21h58.29.479,SL_sali_41,2021.2.3,Win32,60.0240096,,,73,0,73,0,1,,,,,,,,
,,"[""diamond"",""red"",""vert"",""up"",[-106,-106],[0,150]]",diamond,red,vert,up,"[-106,-106]","[0,150]",up,1,0.997,,,,,,001,2025-03-10_21h58.29.479,SL_sali_41,2021.2.3,Win32,60.0240096,,,74,0,74,0,1,,,,,,,,
,,"[""circle"",""green"",""vert"",""up"",[-106,-106],[106,-106]]",circle,green,vert,up,"[-106,-106]","[106,-106]",up,1,0.977,,,,,,001,2025-03-10_21h58.29.479,SL_sali_41,2021.2.3,Win32,60.0240096,,,75,0,75,0,1,,,,,,,,
,,"[""circle"",""red"",""hori"",""left"",[-106,-106],[0,-150]]",circle,red,hori,left,"[-106,-106]","[0,-150]",left,1,0.936,,,,,,001,2025-03-10_21h58.29.479,SL_sali_41,2021.2.3,Win32,60.0240096,,,76,0,76,0,1,,,,,,,,
,,"[""circle"",""green"",""vert"",""up"",[-150,0],[0,-150]]",circle,green,vert,up,"[-150,0]","[0,-150]",up,1,1.103,,,,,,001,2025-03-10_21h58.29.479,SL_sali_41,2021.2.3,Win32,60.0240096,,,77,0,77,0,1,,,,,,,,
,,"[""diamond"",""no_dis"",""vert"",""up"",[99999,99999],[0,150]]",diamond,no_dis,vert,up,"[99999,99999]","[0,150]",up,1,0.812,,,,,,001,2025-03-10_21h58.29.479,SL_sali_41,2021.2.3,Win32,60.0240096,,,78,0,78,0,1,,,,,,,,
,,"[""circle"",""red"",""vert"",""up"",[-106,-106],[0,150]]",circle,red,vert,up,"[-106,-106]","[0,150]",up,1,0.883,,,,,,001,2025-03-10_21h58.29.479,SL_sali_41,2021.2.3,Win32,60.0240096,,,79,0,79,0,1,,,,,,,,
,,"[""circle"",""red"",""vert"",""up"",[106,-106],[-106,106]]",circle,red,vert,up,"[106,-106]","[-106,106]",up,1,1.15,,,,,,001,2025-03-10_21h58.29.479,SL_sali_41,2021.2.3,Win32,60.0240096,,,80,0,80,0,1,,,,,,,,
,,"[""diamond"",""green"",""hori"",""left"",[-106,-106],[0,150]]",diamond,green,hori,left,"[-106,-106]","[0,150]",left,1,0.9,,,,,,001,2025-03-10_21h58.29.479,SL_sali_41,2021.2.3,Win32,60.0240096,,,81,0,81,0,1,,,,,,,,
,,"[""circle"",""green"",""vert"",""up"",[-106,-106],[0,-150]]",circle,green,vert,up,"[-106,-106]","[0,-150]",up,1,1.782,,,,,,001,2025-03-10_21h58.29.479,SL_sali_41,2021.2.3,Win32,60.0240096,,,82,0,82,0,1,,,,,,,,
,,"[""diamond"",""red"",""vert"",""up"",[-106,-106],[0,-150]]",diamond,red,vert,up,"[-106,-106]","[0,-150]",left,0,1.14,,,,,,001,2025-03-10_21h58.29.479,SL_sali_41,2021.2.3,Win32,60.0240096,,,83,0,83,0,1,,,,,,,,
,,"[""circle"",""green"",""hori"",""left"",[106,106],[-106,106]]",circle,green,hori,left,"[106,106]","[-106,106]",left,1,1.111,,,,,,001,2025-03-10_21h58.29.479,SL_sali_41,2021.2.3,Win32,60.0240096,,,84,0,84,0,1,,,,,,,,
,,"[""diamond"",""no_dis"",""hori"",""left"",[99999,99999],[-150,0]]",diamond,no_dis,hori,left,"[99999,99999]","[-150,0]",left,1,1.246,,,,,,001,2025-03-10_21h58.29.479,SL_sali_41,2021.2.3,Win32,60.0240096,,,85,0,85,0,1,,,,,,,,
,,"[""diamond"",""green"",""vert"",""up"",[-106,-106],[150,0]]",diamond,green,vert,up,"[-106,-106]","[150,0]",up,1,1.164,,,,,,001,2025-03-10_21h58.29.479,SL_sali_41,2021.2.3,Win32,60.0240096,,,86,0,86,0,1,,,,,,,,
,,"[""circle"",""green"",""vert"",""up"",[-150,0],[0,-150]]",circle,green,vert,up,"[-150,0]","[0,-150]",up,1,1.029,,,,,,001,2025-03-10_21h58.29.479,SL_sali_41,2021.2.3,Win32,60.0240096,,,87,0,87,0,1,,,,,,,,
,,"[""diamond"",""green"",""vert"",""up"",[0,-150],[106,-106]]",diamond,green,vert,up,"[0,-150]","[106,-106]",up,1,1.323,,,,,,001,2025-03-10_21h58.29.479,SL_sali_41,2021.2.3,Win32,60.0240096,,,88,0,88,0,1,,,,,,,,
,,"[""circle"",""no_dis"",""vert"",""up"",[99999,99999],[106,-106]]",circle,no_dis,vert,up,"[99999,99999]","[106,-106]",up,1,0.782,,,,,,001,2025-03-10_21h58.29.479,SL_sali_41,2021.2.3,Win32,60.0240096,,,89,0,89,0,1,,,,,,,,
,,"[""circle"",""red"",""hori"",""left"",[-150,0],[106,106]]",circle,red,hori,left,"[-150,0]","[106,106]",left,1,0.679,,,,,,001,2025-03-10_21h58.29.479,SL_sali_41,2021.2.3,Win32,60.0240096,,,90,0,90,0,1,,,,,,,,
,,"[""circle"",""red"",""hori"",""left"",[-106,-106],[0,150]]",circle,red,hori,left,"[-106,-106]","[0,150]",left,1,0.83,,,,,,001,2025-03-10_21h58.29.479,SL_sali_41,2021.2.3,Win32,60.0240096,,,91,0,91,0,1,,,,,,,,
,,"[""diamond"",""green"",""vert"",""up"",[0,-150],[0,150]]",diamond,green,vert,up,"[0,-150]","[0,150]",up,1,1.563,,,,,,001,2025-03-10_21h58.29.479,SL_sali_41,2021.2.3,Win32,60.0240096,,,92,0,92,0,1,,,,,,,,
,,"[""diamond"",""green"",""vert"",""up"",[150,0],[106,106]]",diamond,green,vert,up,"[150,0]","[106,106]",up,1,1.94,,,,,,001,2025-03-10_21h58.29.479,SL_sali_41,2021.2.3,Win32,60.0240096,,,93,0,93,0,1,,,,,,,,
,,"[""diamond"",""green"",""hori"",""left"",[-106,-106],[-150,0]]",diamond,green,hori,left,"[-106,-106]","[-150,0]",left,1,1.68,,,,,,001,2025-03-10_21h58.29.479,SL_sali_41,2021.2.3,Win32,60.0240096,,,94,0,94,0,1,,,,,,,,
,,"[""circle"",""no_dis"",""hori"",""left"",[99999,99999],[-106,106]]",circle,no_dis,hori,left,"[99999,99999]","[-106,106]",up,0,1.363,,,,,,001,2025-03-10_21h58.29.479,SL_sali_41,2021.2.3,Win32,60.0240096,,,95,0,95,0,1,,,,,,,,
,,"[""circle"",""no_dis"",""vert"",""up"",[99999,99999],[106,106]]",circle,no_dis,vert,up,"[99999,99999]","[106,106]",up,1,1.498,,,,,,001,2025-03-10_21h58.29.479,SL_sali_41,2021.2.3,Win32,60.0240096,,,96,0,96,0,1,,,,,,,,
,,"[""circle"",""no_dis"",""vert"",""up"",[99999,99999],[150,0]]",circle,no_dis,vert,up,"[99999,99999]","[150,0]",up,1,1.343,,,,,,001,2025-03-10_21h58.29.479,SL_sali_41,2021.2.3,Win32,60.0240096,,,97,0,97,0,1,,,,,,,,
,,"[""circle"",""no_dis"",""hori"",""left"",[99999,99999],[150,0]]",circle,no_dis,hori,left,"[99999,99999]","[150,0]",left,1,0.985,,,,,,001,2025-03-10_21h58.29.479,SL_sali_41,2021.2.3,Win32,60.0240096,,,98,0,98,0,1,,,,,,,,
,,"[""diamond"",""no_dis"",""hori"",""left"",[99999,99999],[-106,106]]",diamond,no_dis,hori,left,"[99999,99999]","[-106,106]",left,1,0.97,,,,,,001,2025-03-10_21h58.29.479,SL_sali_41,2021.2.3,Win32,60.0240096,,,99,0,99,0,1,,,,,,,,
,,"[""diamond"",""green"",""hori"",""left"",[106,106],[-106,106]]",diamond,green,hori,left,"[106,106]","[-106,106]",left,1,2.286,,,,,,001,2025-03-10_21h58.29.479,SL_sali_41,2021.2.3,Win32,60.0240096,,,100,0,100,0,1,,,,,,,,
,,"[""circle"",""no_dis"",""hori"",""left"",[99999,99999],[150,0]]",circle,no_dis,hori,left,"[99999,99999]","[150,0]",left,1,0.778,,,,,,001,2025-03-10_21h58.29.479,SL_sali_41,2021.2.3,Win32,60.0240096,,,101,0,101,0,1,,,,,,,,
,,"[""circle"",""no_dis"",""vert"",""up"",[99999,99999],[-106,-106]]",circle,no_dis,vert,up,"[99999,99999]","[-106,-106]",up,1,1.229,,,,,,001,2025-03-10_21h58.29.479,SL_sali_41,2021.2.3,Win32,60.0240096,,,102,0,102,0,1,,,,,,,,
,,"[""circle"",""green"",""hori"",""left"",[0,-150],[-150,0]]",circle,green,hori,left,"[0,-150]","[-150,0]",left,1,0.859,,,,,,001,2025-03-10_21h58.29.479,SL_sali_41,2021.2.3,Win32,60.0240096,,,103,0,103,0,1,,,,,,,,
,,"[""diamond"",""no_dis"",""vert"",""up"",[99999,99999],[0,-150]]",diamond,no_dis,vert,up,"[99999,99999]","[0,-150]",up,1,1.323,,,,,,001,2025-03-10_21h58.29.479,SL_sali_41,2021.2.3,Win32,60.0240096,,,104,0,104,0,1,,,,,,,,
,,"[""diamond"",""no_dis"",""hori"",""left"",[99999,99999],[-106,106]]",diamond,no_dis,hori,left,"[99999,99999]","[-106,106]",left,1,1.306,,,,,,001,2025-03-10_21h58.29.479,SL_sali_41,2021.2.3,Win32,60.0240096,,,105,0,105,0,1,,,,,,,,
,,"[""diamond"",""no_dis"",""hori"",""left"",[99999,99999],[0,-150]]",diamond,no_dis,hori,left,"[99999,99999]","[0,-150]",left,1,1.009,,,,,,001,2025-03-10_21h58.29.479,SL_sali_41,2021.2.3,Win32,60.0240096,,,106,0,106,0,1,,,,,,,,
,,"[""diamond"",""green"",""hori"",""left"",[150,0],[0,-150]]",diamond,green,hori,left,"[150,0]","[0,-150]",left,1,1.381,,,,,,001,2025-03-10_21h58.29.479,SL_sali_41,2021.2.3,Win32,60.0240096,,,107,0,107,0,1,,,,,,,,
,,"[""diamond"",""red"",""hori"",""left"",[0,-150],[-150,0]]",diamond,red,hori,left,"[0,-150]","[-150,0]",up,0,0.954,,,,,,001,2025-03-10_21h58.29.479,SL_sali_41,2021.2.3,Win32,60.0240096,,,108,0,108,0,1,,,,,,,,
,,"[""diamond"",""red"",""vert"",""up"",[-106,106],[0,-150]]",diamond,red,vert,up,"[-106,106]","[0,-150]",up,1,1.34,,,,,,001,2025-03-10_21h58.29.479,SL_sali_41,2021.2.3,Win32,60.0240096,,,109,0,109,0,1,,,,,,,,
,,"[""circle"",""no_dis"",""hori"",""left"",[99999,99999],[106,-106]]",circle,no_dis,hori,left,"[99999,99999]","[106,-106]",left,1,1.401,,,,,,001,2025-03-10_21h58.29.479,SL_sali_41,2021.2.3,Win32,60.0240096,,,110,0,110,0,1,,,,,,,,
,,"[""diamond"",""red"",""hori"",""left"",[106,106],[-106,106]]",diamond,red,hori,left,"[106,106]","[-106,106]",left,1,1.105,,,,,,001,2025-03-10_21h58.29.479,SL_sali_41,2021.2.3,Win32,60.0240096,,,111,0,111,0,1,,,,,,,,
,,"[""circle"",""green"",""hori"",""left"",[-106,-106],[106,-106]]",circle,green,hori,left,"[-106,-106]","[106,-106]",left,1,1.258,,,,,,001,2025-03-10_21h58.29.479,SL_sali_41,2021.2.3,Win32,60.0240096,,,112,0,112,0,1,,,,,,,,
,,"[""circle"",""red"",""vert"",""up"",[106,-106],[-106,-106]]",circle,red,vert,up,"[106,-106]","[-106,-106]",up,1,1.076,,,,,,001,2025-03-10_21h58.29.479,SL_sali_41,2021.2.3,Win32,60.0240096,,,113,0,113,0,1,,,,,,,,
,,"[""circle"",""no_dis"",""vert"",""up"",[99999,99999],[-106,106]]",circle,no_dis,vert,up,"[99999,99999]","[-106,106]",up,1,2.116,,,,,,001,2025-03-10_21h58.29.479,SL_sali_41,2021.2.3,Win32,60.0240096,,,114,0,114,0,1,,,,,,,,
,,"[""diamond"",""red"",""hori"",""left"",[-106,-106],[0,150]]",diamond,red,hori,left,"[-106,-106]","[0,150]",left,1,2.875,,,,,,001,2025-03-10_21h58.29.479,SL_sali_41,2021.2.3,Win32,60.0240096,,,115,0,115,0,1,,,,,,,,
,,"[""circle"",""red"",""hori"",""left"",[-106,106],[106,-106]]",circle,red,hori,left,"[-106,106]","[106,-106]",left,1,1.261,,,,,,001,2025-03-10_21h58.29.479,SL_sali_41,2021.2.3,Win32,60.0240096,,,116,0,116,0,1,,,,,,,,
,,"[""diamond"",""no_dis"",""vert"",""up"",[99999,99999],[-106,-106]]",diamond,no_dis,vert,up,"[99999,99999]","[-106,-106]",up,1,1.083,,,,,,001,2025-03-10_21h58.29.479,SL_sali_41,2021.2.3,Win32,60.0240096,,,117,0,117,0,1,,,,,,,,
,,"[""circle"",""red"",""hori"",""left"",[0,-150],[0,150]]",circle,red,hori,left,"[0,-150]","[0,150]",left,1,1.185,,,,,,001,2025-03-10_21h58.29.479,SL_sali_41,2021.2.3,Win32,60.0240096,,,118,0,118,0,1,,,,,,,,
,,"[""circle"",""no_dis"",""hori"",""left"",[99999,99999],[-106,-106]]",circle,no_dis,hori,left,"[99999,99999]","[-106,-106]",left,1,0.686,,,,,,001,2025-03-10_21h58.29.479,SL_sali_41,2021.2.3,Win32,60.0240096,,,119,0,119,0,1,,,,,,,,
,,"[""circle"",""no_dis"",""hori"",""left"",[99999,99999],[0,150]]",circle,no_dis,hori,left,"[99999,99999]","[0,150]",left,1,0.7,,,,,,001,2025-03-10_21h58.29.479,SL_sali_41,2021.2.3,Win32,60.0240096,,,120,0,120,0,1,,,,,,,,
,,"[""diamond"",""red"",""hori"",""left"",[-106,-106],[-150,0]]",diamond,red,hori,left,"[-106,-106]","[-150,0]",left,1,1.326,,,,,,001,2025-03-10_21h58.29.479,SL_sali_41,2021.2.3,Win32,60.0240096,,,121,0,121,0,1,,,,,,,,
,,"[""diamond"",""red"",""vert"",""up"",[-106,-106],[106,-106]]",diamond,red,vert,up,"[-106,-106]","[106,-106]",left,0,1.011,,,,,,001,2025-03-10_21h58.29.479,SL_sali_41,2021.2.3,Win32,60.0240096,,,122,0,122,0,1,,,,,,,,
,,"[""circle"",""green"",""hori"",""left"",[106,-106],[-106,-106]]",circle,green,hori,left,"[106,-106]","[-106,-106]",left,1,1.019,,,,,,001,2025-03-10_21h58.29.479,SL_sali_41,2021.2.3,Win32,60.0240096,,,123,0,123,0,1,,,,,,,,
,,"[""diamond"",""green"",""vert"",""up"",[106,106],[0,150]]",diamond,green,vert,up,"[106,106]","[0,150]",up,1,1.326,,,,,,001,2025-03-10_21h58.29.479,SL_sali_41,2021.2.3,Win32,60.0240096,,,124,0,124,0,1,,,,,,,,
,,"[""diamond"",""red"",""vert"",""up"",[-150,0],[0,150]]",diamond,red,vert,up,"[-150,0]","[0,150]",up,1,1.405,,,,,,001,2025-03-10_21h58.29.479,SL_sali_41,2021.2.3,Win32,60.0240096,,,125,0,125,0,1,,,,,,,,
,,"[""diamond"",""no_dis"",""vert"",""up"",[99999,99999],[106,-106]]",diamond,no_dis,vert,up,"[99999,99999]","[106,-106]",up,1,0.906,,,,,,001,2025-03-10_21h58.29.479,SL_sali_41,2021.2.3,Win32,60.0240096,,,126,0,126,0,1,,,,,,,,
,,"[""circle"",""green"",""hori"",""left"",[-106,-106],[106,106]]",circle,green,hori,left,"[-106,-106]","[106,106]",up,0,0.843,,,,,,001,2025-03-10_21h58.29.479,SL_sali_41,2021.2.3,Win32,60.0240096,,,127,0,127,0,1,,,,,,,,
,,,,,,,,,,,,,,,,,001,2025-03-10_21h58.29.479,SL_sali_41,2021.2.3,Win32,60.0240096,,,,,,,,1,space,121.486,0,0,0,0,1
,,"[""circle"",""green"",""vert"",""up"",[-106,106],[106,106]]",circle,green,vert,up,"[-106,106]","[106,106]",up,1,1.646,,,,,,001,2025-03-10_21h58.29.479,SL_sali_41,2021.2.3,Win32,60.0240096,,,0,0,0,0,1,,,,,,,,
,,"[""circle"",""red"",""hori"",""left"",[150,0],[106,106]]",circle,red,hori,left,"[150,0]","[106,106]",left,1,1.926,,,,,,001,2025-03-10_21h58.29.479,SL_sali_41,2021.2.3,Win32,60.0240096,,,1,0,1,0,1,,,,,,,,
,,"[""diamond"",""green"",""hori"",""left"",[-150,0],[-106,-106]]",diamond,green,hori,left,"[-150,0]","[-106,-106]",left,1,1.411,,,,,,001,2025-03-10_21h58.29.479,SL_sali_41,2021.2.3,Win32,60.0240096,,,2,0,2,0,1,,,,,,,,
,,"[""diamond"",""red"",""hori"",""left"",[-106,-106],[0,150]]",diamond,red,hori,left,"[-106,-106]","[0,150]",left,1,1.032,,,,,,001,2025-03-10_21h58.29.479,SL_sali_41,2021.2.3,Win32,60.0240096,,,3,0,3,0,1,,,,,,,,
,,"[""circle"",""red"",""vert"",""up"",[106,106],[0,150]]",circle,red,vert,up,"[106,106]","[0,150]",up,1,1.464,,,,,,001,2025-03-10_21h58.29.479,SL_sali_41,2021.2.3,Win32,60.0240096,,,4,0,4,0,1,,,,,,,,
,,"[""circle"",""green"",""vert"",""up"",[106,106],[150,0]]",circle,green,vert,up,"[106,106]","[150,0]",up,1,0.802,,,,,,001,2025-03-10_21h58.29.479,SL_sali_41,2021.2.3,Win32,60.0240096,,,5,0,5,0,1,,,,,,,,
,,"[""diamond"",""no_dis"",""vert"",""up"",[99999,99999],[106,-106]]",diamond,no_dis,vert,up,"[99999,99999]","[106,-106]",up,1,2.201,,,,,,001,2025-03-10_21h58.29.479,SL_sali_41,2021.2.3,Win32,60.0240096,,,6,0,6,0,1,,,,,,,,
,,"[""diamond"",""red"",""hori"",""left"",[0,150],[-106,106]]",diamond,red,hori,left,"[0,150]","[-106,106]",left,1,1.717,,,,,,001,2025-03-10_21h58.29.479,SL_sali_41,2021.2.3,Win32,60.0240096,,,7,0,7,0,1,,,,,,,,
,,"[""diamond"",""red"",""vert"",""up"",[-106,-106],[0,-150]]",diamond,red,vert,up,"[-106,-106]","[0,-150]",up,1,1.442,,,,,,001,2025-03-10_21h58.29.479,SL_sali_41,2021.2.3,Win32,60.0240096,,,8,0,8,0,1,,,,,,,,
,,"[""diamond"",""green"",""hori"",""left"",[-150,0],[0,-150]]",diamond,green,hori,left,"[-150,0]","[0,-150]",left,1,1.3,,,,,,001,2025-03-10_21h58.29.479,SL_sali_41,2021.2.3,Win32,60.0240096,,,9,0,9,0,1,,,,,,,,
,,"[""circle"",""no_dis"",""vert"",""up"",[99999,99999],[0,150]]",circle,no_dis,vert,up,"[99999,99999]","[0,150]",up,1,0.83,,,,,,001,2025-03-10_21h58.29.479,SL_sali_41,2021.2.3,Win32,60.0240096,,,10,0,10,0,1,,,,,,,,
,,"[""diamond"",""no_dis"",""vert"",""up"",[99999,99999],[-106,-106]]",diamond,no_dis,vert,up,"[99999,99999]","[-106,-106]",up,1,1.11,,,,,,001,2025-03-10_21h58.29.479,SL_sali_41,2021.2.3,Win32,60.0240096,,,11,0,11,0,1,,,,,,,,
,,"[""diamond"",""no_dis"",""hori"",""left"",[99999,99999],[-106,106]]",diamond,no_dis,hori,left,"[99999,99999]","[-106,106]",left,1,1.256,,,,,,001,2025-03-10_21h58.29.479,SL_sali_41,2021.2.3,Win32,60.0240096,,,12,0,12,0,1,,,,,,,,
,,"[""circle"",""no_dis"",""vert"",""up"",[99999,99999],[0,150]]",circle,no_dis,vert,up,"[99999,99999]","[0,150]",up,1,1.325,,,,,,001,2025-03-10_21h58.29.479,SL_sali_41,2021.2.3,Win32,60.0240096,,,13,0,13,0,1,,,,,,,,
,,"[""circle"",""green"",""hori"",""left"",[-106,-106],[106,106]]",circle,green,hori,left,"[-106,-106]","[106,106]",left,1,1.496,,,,,,001,2025-03-10_21h58.29.479,SL_sali_41,2021.2.3,Win32,60.0240096,,,14,0,14,0,1,,,,,,,,
,,"[""circle"",""no_dis"",""vert"",""up"",[99999,99999],[-106,106]]",circle,no_dis,vert,up,"[99999,99999]","[-106,106]",left,0,1.716,,,,,,001,2025-03-10_21h58.29.479,SL_sali_41,2021.2.3,Win32,60.0240096,,,15,0,15,0,1,,,,,,,,
,,"[""circle"",""green"",""vert"",""up"",[-106,-106],[106,-106]]",circle,green,vert,up,"[-106,-106]","[106,-106]",left,0,1.252,,,,,,001,2025-03-10_21h58.29.479,SL_sali_41,2021.2.3,Win32,60.0240096,,,16,0,16,0,1,,,,,,,,
,,"[""diamond"",""green"",""vert"",""up"",[0,150],[150,0]]",diamond,green,vert,up,"[0,150]","[150,0]",up,1,0.992,,,,,,001,2025-03-10_21h58.29.479,SL_sali_41,2021.2.3,Win32,60.0240096,,,17,0,17,0,1,,,,,,,,
,,"[""circle"",""green"",""vert"",""up"",[-106,-106],[150,0]]",circle,green,vert,up,"[-106,-106]","[150,0]",up,1,1.141,,,,,,001,2025-03-10_21h58.29.479,SL_sali_41,2021.2.3,Win32,60.0240096,,,18,0,18,0,1,,,,,,,,
,,"[""circle"",""green"",""vert"",""up"",[150,0],[0,150]]",circle,green,vert,up,"[150,0]","[0,150]",up,1,1.001,,,,,,001,2025-03-10_21h58.29.479,SL_sali_41,2021.2.3,Win32,60.0240096,,,19,0,19,0,1,,,,,,,,
,,"[""diamond"",""red"",""hori"",""left"",[106,106],[0,150]]",diamond,red,hori,left,"[106,106]","[0,150]",left,1,1.297,,,,,,001,2025-03-10_21h58.29.479,SL_sali_41,2021.2.3,Win32,60.0240096,,,20,0,20,0,1,,,,,,,,
,,"[""diamond"",""green"",""hori"",""left"",[-106,-106],[0,-150]]",diamond,green,hori,left,"[-106,-106]","[0,-150]",left,1,1.241,,,,,,001,2025-03-10_21h58.29.479,SL_sali_41,2021.2.3,Win32,60.0240096,,,21,0,21,0,1,,,,,,,,
,,"[""circle"",""red"",""vert"",""up"",[-150,0],[0,150]]",circle,red,vert,up,"[-150,0]","[0,150]",left,0,1.297,,,,,,001,2025-03-10_21h58.29.479,SL_sali_41,2021.2.3,Win32,60.0240096,,,22,0,22,0,1,,,,,,,,
,,"[""diamond"",""red"",""hori"",""left"",[-106,-106],[106,-106]]",diamond,red,hori,left,"[-106,-106]","[106,-106]",left,1,1.707,,,,,,001,2025-03-10_21h58.29.479,SL_sali_41,2021.2.3,Win32,60.0240096,,,23,0,23,0,1,,,,,,,,
,,"[""diamond"",""red"",""hori"",""left"",[-106,-106],[-150,0]]",diamond,red,hori,left,"[-106,-106]","[-150,0]",left,1,1.091,,,,,,001,2025-03-10_21h58.29.479,SL_sali_41,2021.2.3,Win32,60.0240096,,,24,0,24,0,1,,,,,,,,
,,"[""diamond"",""red"",""vert"",""up"",[-106,106],[0,-150]]",diamond,red,vert,up,"[-106,106]","[0,-150]",up,1,1.058,,,,,,001,2025-03-10_21h58.29.479,SL_sali_41,2021.2.3,Win32,60.0240096,,,25,0,25,0,1,,,,,,,,
,,"[""diamond"",""red"",""hori"",""left"",[-106,-106],[-106,106]]",diamond,red,hori,left,"[-106,-106]","[-106,106]",left,1,0.939,,,,,,001,2025-03-10_21h58.29.479,SL_sali_41,2021.2.3,Win32,60.0240096,,,26,0,26,0,1,,,,,,,,
,,"[""circle"",""green"",""hori"",""left"",[-106,-106],[106,106]]",circle,green,hori,left,"[-106,-106]","[106,106]",left,1,1.651,,,,,,001,2025-03-10_21h58.29.479,SL_sali_41,2021.2.3,Win32,60.0240096,,,27,0,27,0,1,,,,,,,,
,,"[""diamond"",""green"",""hori"",""left"",[106,106],[-106,106]]",diamond,green,hori,left,"[106,106]","[-106,106]",left,1,1.251,,,,,,001,2025-03-10_21h58.29.479,SL_sali_41,2021.2.3,Win32,60.0240096,,,28,0,28,0,1,,,,,,,,
,,"[""circle"",""red"",""vert"",""up"",[-106,-106],[150,0]]",circle,red,vert,up,"[-106,-106]","[150,0]",up,1,1.464,,,,,,001,2025-03-10_21h58.29.479,SL_sali_41,2021.2.3,Win32,60.0240096,,,29,0,29,0,1,,,,,,,,
,,"[""diamond"",""no_dis"",""vert"",""up"",[99999,99999],[106,-106]]",diamond,no_dis,vert,up,"[99999,99999]","[106,-106]",up,1,1.209,,,,,,001,2025-03-10_21h58.29.479,SL_sali_41,2021.2.3,Win32,60.0240096,,,30,0,30,0,1,,,,,,,,
,,"[""diamond"",""green"",""hori"",""left"",[106,-106],[0,150]]",diamond,green,hori,left,"[106,-106]","[0,150]",left,1,1.06,,,,,,001,2025-03-10_21h58.29.479,SL_sali_41,2021.2.3,Win32,60.0240096,,,31,0,31,0,1,,,,,,,,
,,"[""diamond"",""no_dis"",""vert"",""up"",[99999,99999],[-106,-106]]",diamond,no_dis,vert,up,"[99999,99999]","[-106,-106]",up,1,1.206,,,,,,001,2025-03-10_21h58.29.479,SL_sali_41,2021.2.3,Win32,60.0240096,,,32,0,32,0,1,,,,,,,,
,,"[""diamond"",""red"",""vert"",""up"",[106,-106],[106,106]]",diamond,red,vert,up,"[106,-106]","[106,106]",up,1,1.052,,,,,,001,2025-03-10_21h58.29.479,SL_sali_41,2021.2.3,Win32,60.0240096,,,33,0,33,0,1,,,,,,,,
,,"[""diamond"",""no_dis"",""vert"",""up"",[99999,99999],[106,106]]",diamond,no_dis,vert,up,"[99999,99999]","[106,106]",up,1,0.778,,,,,,001,2025-03-10_21h58.29.479,SL_sali_41,2021.2.3,Win32,60.0240096,,,34,0,34,0,1,,,,,,,,
,,"[""circle"",""no_dis"",""hori"",""left"",[99999,99999],[106,-106]]",circle,no_dis,hori,left,"[99999,99999]","[106,-106]",left,1,1.43,,,,,,001,2025-03-10_21h58.29.479,SL_sali_41,2021.2.3,Win32,60.0240096,,,35,0,35,0,1,,,,,,,,
,,"[""diamond"",""green"",""vert"",""up"",[106,106],[0,150]]",diamond,green,vert,up,"[106,106]","[0,150]",up,1,1.53,,,,,,001,2025-03-10_21h58.29.479,SL_sali_41,2021.2.3,Win32,60.0240096,,,36,0,36,0,1,,,,,,,,
,,"[""circle"",""green"",""hori"",""left"",[-106,-106],[106,-106]]",circle,green,hori,left,"[-106,-106]","[106,-106]",left,1,1.322,,,,,,001,2025-03-10_21h58.29.479,SL_sali_41,2021.2.3,Win32,60.0240096,,,37,0,37,0,1,,,,,,,,
,,"[""circle"",""no_dis"",""hori"",""left"",[99999,99999],[150,0]]",circle,no_dis,hori,left,"[99999,99999]","[150,0]",left,1,0.789,,,,,,001,2025-03-10_21h58.29.479,SL_sali_41,2021.2.3,Win32,60.0240096,,,38,0,38,0,1,,,,,,,,
,,"[""circle"",""green"",""hori"",""left"",[150,0],[106,106]]",circle,green,hori,left,"[150,0]","[106,106]",left,1,1.069,,,,,,001,2025-03-10_21h58.29.479,SL_sali_41,2021.2.3,Win32,60.0240096,,,39,0,39,0,1,,,,,,,,
,,"[""circle"",""no_dis"",""vert"",""up"",[99999,99999],[150,0]]",circle,no_dis,vert,up,"[99999,99999]","[150,0]",up,1,0.767,,,,,,001,2025-03-10_21h58.29.479,SL_sali_41,2021.2.3,Win32,60.0240096,,,40,0,40,0,1,,,,,,,,
,,"[""diamond"",""red"",""vert"",""up"",[-106,106],[0,150]]",diamond,red,vert,up,"[-106,106]","[0,150]",left,0,1.292,,,,,,001,2025-03-10_21h58.29.479,SL_sali_41,2021.2.3,Win32,60.0240096,,,41,0,41,0,1,,,,,,,,
,,"[""circle"",""red"",""hori"",""left"",[-106,-106],[-106,106]]",circle,red,hori,left,"[-106,-106]","[-106,106]",left,1,2.599,,,,,,001,2025-03-10_21h58.29.479,SL_sali_41,2021.2.3,Win32,60.0240096,,,42,0,42,0,1,,,,,,,,
,,"[""diamond"",""red"",""hori"",""left"",[106,106],[-106,106]]",diamond,red,hori,left,"[106,106]","[-106,106]",left,1,1.364,,,,,,001,2025-03-10_21h58.29.479,SL_sali_41,2021.2.3,Win32,60.0240096,,,43,0,43,0,1,,,,,,,,
,,"[""circle"",""red"",""vert"",""up"",[0,150],[106,-106]]",circle,red,vert,up,"[0,150]","[106,-106]",up,1,1.111,,,,,,001,2025-03-10_21h58.29.479,SL_sali_41,2021.2.3,Win32,60.0240096,,,44,0,44,0,1,,,,,,,,
,,"[""circle"",""green"",""hori"",""left"",[106,106],[-106,106]]",circle,green,hori,left,"[106,106]","[-106,106]",left,1,1.495,,,,,,001,2025-03-10_21h58.29.479,SL_sali_41,2021.2.3,Win32,60.0240096,,,45,0,45,0,1,,,,,,,,
,,"[""circle"",""red"",""hori"",""left"",[-106,-106],[150,0]]",circle,red,hori,left,"[-106,-106]","[150,0]",,0,,,,,,,001,2025-03-10_21h58.29.479,SL_sali_41,2021.2.3,Win32,60.0240096,,,46,0,46,0,1,,,,,,,,
,,"[""circle"",""no_dis"",""vert"",""up"",[99999,99999],[-106,-106]]",circle,no_dis,vert,up,"[99999,99999]","[-106,-106]",up,1,1.065,,,,,,001,2025-03-10_21h58.29.479,SL_sali_41,2021.2.3,Win32,60.0240096,,,47,0,47,0,1,,,,,,,,
,,"[""circle"",""red"",""vert"",""up"",[-106,-106],[150,0]]",circle,red,vert,up,"[-106,-106]","[150,0]",up,1,0.897,,,,,,001,2025-03-10_21h58.29.479,SL_sali_41,2021.2.3,Win32,60.0240096,,,48,0,48,0,1,,,,,,,,
,,"[""circle"",""green"",""hori"",""left"",[106,-106],[-106,-106]]",circle,green,hori,left,"[106,-106]","[-106,-106]",left,1,0.814,,,,,,001,2025-03-10_21h58.29.479,SL_sali_41,2021.2.3,Win32,60.0240096,,,49,0,49,0,1,,,,,,,,
,,"[""diamond"",""green"",""vert"",""up"",[-106,-106],[-106,106]]",diamond,green,vert,up,"[-106,-106]","[-106,106]",left,0,0.968,,,,,,001,2025-03-10_21h58.29.479,SL_sali_41,2021.2.3,Win32,60.0240096,,,50,0,50,0,1,,,,,,,,
,,"[""diamond"",""no_dis"",""vert"",""up"",[99999,99999],[0,-150]]",diamond,no_dis,vert,up,"[99999,99999]","[0,-150]",up,1,1.024,,,,,,001,2025-03-10_21h58.29.479,SL_sali_41,2021.2.3,Win32,60.0240096,,,51,0,51,0,1,,,,,,,,
,,"[""circle"",""no_dis"",""hori"",""left"",[99999,99999],[106,106]]",circle,no_dis,hori,left,"[99999,99999]","[106,106]",up,0,1.419,,,,,,001,2025-03-10_21h58.29.479,SL_sali_41,2021.2.3,Win32,60.0240096,,,52,0,52,0,1,,,,,,,,
,,"[""circle"",""green"",""vert"",""up"",[150,0],[0,-150]]",circle,green,vert,up,"[150,0]","[0,-150]",up,1,1.477,,,,,,001,2025-03-10_21h58.29.479,SL_sali_41,2021.2.3,Win32,60.0240096,,,53,0,53,0,1,,,,,,,,
,,"[""diamond"",""green"",""vert"",""up"",[-106,-106],[150,0]]",diamond,green,vert,up,"[-106,-106]","[150,0]",up,1,1.441,,,,,,001,2025-03-10_21h58.29.479,SL_sali_41,2021.2.3,Win32,60.0240096,,,54,0,54,0,1,,,,,,,,
,,"[""circle"",""green"",""vert"",""up"",[-106,-106],[0,150]]",circle,green,vert,up,"[-106,-106]","[0,150]",up,1,1.435,,,,,,001,2025-03-10_21h58.29.479,SL_sali_41,2021.2.3,Win32,60.0240096,,,55,0,55,0,1,,,,,,,,
,,"[""diamond"",""red"",""vert"",""up"",[-106,106],[106,-106]]",diamond,red,vert,up,"[-106,106]","[106,-106]",up,1,1.198,,,,,,001,2025-03-10_21h58.29.479,SL_sali_41,2021.2.3,Win32,60.0240096,,,56,0,56,0,1,,,,,,,,
,,"[""circle"",""red"",""hori"",""left"",[0,150],[106,106]]",circle,red,hori,left,"[0,150]","[106,106]",left,1,1.845,,,,,,001,2025-03-10_21h58.29.479,SL_sali_41,2021.2.3,Win32,60.0240096,,,57,0,57,0,1,,,,,,,,
,,"[""circle"",""no_dis"",""hori"",""left"",[99999,99999],[0,-150]]",circle,no_dis,hori,left,"[99999,99999]","[0,-150]",left,1,0.866,,,,,,001,2025-03-10_21h58.29.479,SL_sali_41,2021.2.3,Win32,60.0240096,,,58,0,58,0,1,,,,,,,,
,,"[""circle"",""green"",""hori"",""left"",[106,-106],[-106,106]]",circle,green,hori,left,"[106,-106]","[-106,106]",left,1,1.382,,,,,,001,2025-03-10_21h58.29.479,SL_sali_41,2021.2.3,Win32,60.0240096,,,59,0,59,0,1,,,,,,,,
,,"[""circle"",""red"",""hori"",""left"",[0,-150],[106,106]]",circle,red,hori,left,"[0,-150]","[106,106]",left,1,1.161,,,,,,001,2025-03-10_21h58.29.479,SL_sali_41,2021.2.3,Win32,60.0240096,,,60,0,60,0,1,,,,,,,,
,,"[""diamond"",""red"",""hori"",""left"",[0,150],[0,-150]]",diamond,red,hori,left,"[0,150]","[0,-150]",left,1,1.058,,,,,,001,2025-03-10_21h58.29.479,SL_sali_41,2021.2.3,Win32,60.0240096,,,61,0,61,0,1,,,,,,,,
,,"[""diamond"",""red"",""vert"",""up"",[150,0],[-106,-106]]",diamond,red,vert,up,"[150,0]","[-106,-106]",up,1,1.448,,,,,,001,2025-03-10_21h58.29.479,SL_sali_41,2021.2.3,Win32,60.0240096,,,62,0,62,0,1,,,,,,,,
,,"[""diamond"",""no_dis"",""vert"",""up"",[99999,99999],[-106,-106]]",diamond,no_dis,vert,up,"[99999,99999]","[-106,-106]",up,1,0.927,,,,,,001,2025-03-10_21h58.29.479,SL_sali_41,2021.2.3,Win32,60.0240096,,,63,0,63,0,1,,,,,,,,
,,"[""circle"",""no_dis"",""hori"",""left"",[99999,99999],[-150,0]]",circle,no_dis,hori,left,"[99999,99999]","[-150,0]",left,1,0.976,,,,,,001,2025-03-10_21h58.29.479,SL_sali_41,2021.2.3,Win32,60.0240096,,,64,0,64,0,1,,,,,,,,
,,"[""diamond"",""no_dis"",""vert"",""up"",[99999,99999],[0,150]]",diamond,no_dis,vert,up,"[99999,99999]","[0,150]",up,1,0.629,,,,,,001,2025-03-10_21h58.29.479,SL_sali_41,2021.2.3,Win32,60.0240096,,,65,0,65,0,1,,,,,,,,
,,"[""circle"",""red"",""hori"",""left"",[0,-150],[0,150]]",circle,red,hori,left,"[0,-150]","[0,150]",left,1,0.729,,,,,,001,2025-03-10_21h58.29.479,SL_sali_41,2021.2.3,Win32,60.0240096,,,66,0,66,0,1,,,,,,,,
,,"[""circle"",""green"",""vert"",""up"",[-106,-106],[0,-150]]",circle,green,vert,up,"[-106,-106]","[0,-150]",up,1,1.132,,,,,,001,2025-03-10_21h58.29.479,SL_sali_41,2021.2.3,Win32,60.0240096,,,67,0,67,0,1,,,,,,,,
,,"[""circle"",""red"",""vert"",""up"",[0,150],[106,-106]]",circle,red,vert,up,"[0,150]","[106,-106]",up,1,1.442,,,,,,001,2025-03-10_21h58.29.479,SL_sali_41,2021.2.3,Win32,60.0240096,,,68,0,68,0,1,,,,,,,,
,,"[""diamond"",""green"",""hori"",""left"",[-106,106],[-106,-106]]",diamond,green,hori,left,"[-106,106]","[-106,-106]",left,1,1.597,,,,,,001,2025-03-10_21h58.29.479,SL_sali_41,2021.2.3,Win32,60.0240096,,,69,0,69,0,1,,,,,,,,
,,"[""diamond"",""red"",""vert"",""up"",[-106,-106],[106,-106]]",diamond,red,vert,up,"[-106,-106]","[106,-106]",up,1,1.118,,,,,,001,2025-03-10_21h58.29.479,SL_sali_41,2021.2.3,Win32,60.0240096,,,70,0,70,0,1,,,,,,,,
,,"[""circle"",""green"",""vert"",""up"",[-150,0],[0,-150]]",circle,green,vert,up,"[-150,0]","[0,-150]",up,1,1.552,,,,,,001,2025-03-10_21h58.29.479,SL_sali_41,2021.2.3,Win32,60.0240096,,,71,0,71,0,1,,,,,,,,
,,"[""diamond"",""no_dis"",""hori"",""left"",[99999,99999],[0,-150]]",diamond,no_dis,hori,left,"[99999,99999]","[0,-150]",left,1,0.88,,,,,,001,2025-03-10_21h58.29.479,SL_sali_41,2021.2.3,Win32,60.0240096,,,72,0,72,0,1,,,,,,,,
,,"[""diamond"",""green"",""vert"",""up"",[-106,-106],[0,150]]",diamond,green,vert,up,"[-106,-106]","[0,150]",up,1,0.859,,,,,,001,2025-03-10_21h58.29.479,SL_sali_41,2021.2.3,Win32,60.0240096,,,73,0,73,0,1,,,,,,,,
,,"[""diamond"",""green"",""hori"",""left"",[-106,-106],[150,0]]",diamond,green,hori,left,"[-106,-106]","[150,0]",left,1,0.956,,,,,,001,2025-03-10_21h58.29.479,SL_sali_41,2021.2.3,Win32,60.0240096,,,74,0,74,0,1,,,,,,,,
,,"[""diamond"",""red"",""vert"",""up"",[-150,0],[0,150]]",diamond,red,vert,up,"[-150,0]","[0,150]",up,1,0.932,,,,,,001,2025-03-10_21h58.29.479,SL_sali_41,2021.2.3,Win32,60.0240096,,,75,0,75,0,1,,,,,,,,
,,"[""circle"",""red"",""vert"",""up"",[106,-106],[-106,-106]]",circle,red,vert,up,"[106,-106]","[-106,-106]",up,1,1.811,,,,,,001,2025-03-10_21h58.29.479,SL_sali_41,2021.2.3,Win32,60.0240096,,,76,0,76,0,1,,,,,,,,
,,"[""circle"",""green"",""vert"",""up"",[-150,0],[0,-150]]",circle,green,vert,up,"[-150,0]","[0,-150]",up,1,0.897,,,,,,001,2025-03-10_21h58.29.479,SL_sali_41,2021.2.3,Win32,60.0240096,,,77,0,77,0,1,,,,,,,,
,,"[""diamond"",""no_dis"",""vert"",""up"",[99999,99999],[0,-150]]",diamond,no_dis,vert,up,"[99999,99999]","[0,-150]",up,1,0.709,,,,,,001,2025-03-10_21h58.29.479,SL_sali_41,2021.2.3,Win32,60.0240096,,,78,0,78,0,1,,,,,,,,
,,"[""diamond"",""green"",""vert"",""up"",[106,106],[-106,106]]",diamond,green,vert,up,"[106,106]","[-106,106]",up,1,0.954,,,,,,001,2025-03-10_21h58.29.479,SL_sali_41,2021.2.3,Win32,60.0240096,,,79,0,79,0,1,,,,,,,,
,,"[""circle"",""no_dis"",""hori"",""left"",[99999,99999],[150,0]]",circle,no_dis,hori,left,"[99999,99999]","[150,0]",left,1,0.666,,,,,,001,2025-03-10_21h58.29.479,SL_sali_41,2021.2.3,Win32,60.0240096,,,80,0,80,0,1,,,,,,,,
,,"[""diamond"",""green"",""hori"",""left"",[150,0],[0,-150]]",diamond,green,hori,left,"[150,0]","[0,-150]",left,1,1.559,,,,,,001,2025-03-10_21h58.29.479,SL_sali_41,2021.2.3,Win32,60.0240096,,,81,0,81,0,1,,,,,,,,
,,"[""diamond"",""no_dis"",""hori"",""left"",[99999,99999],[-150,0]]",diamond,no_dis,hori,left,"[99999,99999]","[-150,0]",left,1,0.694,,,,,,001,2025-03-10_21h58.29.479,SL_sali_41,2021.2.3,Win32,60.0240096,,,82,0,82,0,1,,,,,,,,
,,"[""diamond"",""no_dis"",""hori"",""left"",[99999,99999],[-150,0]]",diamond,no_dis,hori,left,"[99999,99999]","[-150,0]",left,1,0.593,,,,,,001,2025-03-10_21h58.29.479,SL_sali_41,2021.2.3,Win32,60.0240096,,,83,0,83,0,1,,,,,,,,
,,"[""diamond"",""no_dis"",""hori"",""left"",[99999,99999],[-106,106]]",diamond,no_dis,hori,left,"[99999,99999]","[-106,106]",left,1,0.732,,,,,,001,2025-03-10_21h58.29.479,SL_sali_41,2021.2.3,Win32,60.0240096,,,84,0,84,0,1,,,,,,,,
,,"[""circle"",""no_dis"",""vert"",""up"",[99999,99999],[106,-106]]",circle,no_dis,vert,up,"[99999,99999]","[106,-106]",up,1,0.876,,,,,,001,2025-03-10_21h58.29.479,SL_sali_41,2021.2.3,Win32,60.0240096,,,85,0,85,0,1,,,,,,,,
,,"[""circle"",""red"",""hori"",""left"",[-106,106],[106,-106]]",circle,red,hori,left,"[-106,106]","[106,-106]",left,1,1.083,,,,,,001,2025-03-10_21h58.29.479,SL_sali_41,2021.2.3,Win32,60.0240096,,,86,0,86,0,1,,,,,,,,
,,"[""diamond"",""no_dis"",""hori"",""left"",[99999,99999],[-106,106]]",diamond,no_dis,hori,left,"[99999,99999]","[-106,106]",left,1,0.554,,,,,,001,2025-03-10_21h58.29.479,SL_sali_41,2021.2.3,Win32,60.0240096,,,87,0,87,0,1,,,,,,,,
,,"[""diamond"",""green"",""hori"",""left"",[-106,-106],[0,150]]",diamond,green,hori,left,"[-106,-106]","[0,150]",left,1,0.897,,,,,,001,2025-03-10_21h58.29.479,SL_sali_41,2021.2.3,Win32,60.0240096,,,88,0,88,0,1,,,,,,,,
,,"[""circle"",""no_dis"",""vert"",""up"",[99999,99999],[106,-106]]",circle,no_dis,vert,up,"[99999,99999]","[106,-106]",up,1,1.108,,,,,,001,2025-03-10_21h58.29.479,SL_sali_41,2021.2.3,Win32,60.0240096,,,89,0,89,0,1,,,,,,,,
,,"[""diamond"",""red"",""vert"",""up"",[-150,0],[106,-106]]",diamond,red,vert,up,"[-150,0]","[106,-106]",up,1,1.732,,,,,,001,2025-03-10_21h58.29.479,SL_sali_41,2021.2.3,Win32,60.0240096,,,90,0,90,0,1,,,,,,,,
,,"[""circle"",""red"",""vert"",""up"",[106,-106],[-106,106]]",circle,red,vert,up,"[106,-106]","[-106,106]",left,0,0.848,,,,,,001,2025-03-10_21h58.29.479,SL_sali_41,2021.2.3,Win32,60.0240096,,,91,0,91,0,1,,,,,,,,
,,"[""circle"",""green"",""vert"",""up"",[-106,-106],[-106,106]]",circle,green,vert,up,"[-106,-106]","[-106,106]",up,1,0.945,,,,,,001,2025-03-10_21h58.29.479,SL_sali_41,2021.2.3,Win32,60.0240096,,,92,0,92,0,1,,,,,,,,
,,"[""circle"",""no_dis"",""hori"",""left"",[99999,99999],[-150,0]]",circle,no_dis,hori,left,"[99999,99999]","[-150,0]",left,1,0.783,,,,,,001,2025-03-10_21h58.29.479,SL_sali_41,2021.2.3,Win32,60.0240096,,,93,0,93,0,1,,,,,,,,
,,"[""circle"",""red"",""vert"",""up"",[-106,-106],[0,-150]]",circle,red,vert,up,"[-106,-106]","[0,-150]",up,1,0.827,,,,,,001,2025-03-10_21h58.29.479,SL_sali_41,2021.2.3,Win32,60.0240096,,,94,0,94,0,1,,,,,,,,
,,"[""diamond"",""red"",""vert"",""up"",[-106,106],[106,106]]",diamond,red,vert,up,"[-106,106]","[106,106]",up,1,1.231,,,,,,001,2025-03-10_21h58.29.479,SL_sali_41,2021.2.3,Win32,60.0240096,,,95,0,95,0,1,,,,,,,,
,,"[""diamond"",""green"",""vert"",""up"",[0,-150],[106,-106]]",diamond,green,vert,up,"[0,-150]","[106,-106]",up,1,2.287,,,,,,001,2025-03-10_21h58.29.479,SL_sali_41,2021.2.3,Win32,60.0240096,,,96,0,96,0,1,,,,,,,,
,,"[""circle"",""red"",""vert"",""up"",[106,-106],[0,-150]]",circle,red,vert,up,"[106,-106]","[0,-150]",up,1,1.708,,,,,,001,2025-03-10_21h58.29.479,SL_sali_41,2021.2.3,Win32,60.0240096,,,97,0,97,0,1,,,,,,,,
,,"[""circle"",""no_dis"",""hori"",""left"",[99999,99999],[-106,106]]",circle,no_dis,hori,left,"[99999,99999]","[-106,106]",left,1,0.933,,,,,,001,2025-03-10_21h58.29.479,SL_sali_41,2021.2.3,Win32,60.0240096,,,98,0,98,0,1,,,,,,,,
,,"[""circle"",""no_dis"",""vert"",""up"",[99999,99999],[106,106]]",circle,no_dis,vert,up,"[99999,99999]","[106,106]",up,1,0.838,,,,,,001,2025-03-10_21h58.29.479,SL_sali_41,2021.2.3,Win32,60.0240096,,,99,0,99,0,1,,,,,,,,
,,"[""diamond"",""red"",""hori"",""left"",[0,-150],[-150,0]]",diamond,red,hori,left,"[0,-150]","[-150,0]",left,1,0.88,,,,,,001,2025-03-10_21h58.29.479,SL_sali_41,2021.2.3,Win32,60.0240096,,,100,0,100,0,1,,,,,,,,
,,"[""diamond"",""no_dis"",""hori"",""left"",[99999,99999],[0,-150]]",diamond,no_dis,hori,left,"[99999,99999]","[0,-150]",left,1,0.777,,,,,,001,2025-03-10_21h58.29.479,SL_sali_41,2021.2.3,Win32,60.0240096,,,101,0,101,0,1,,,,,,,,
,,"[""diamond"",""red"",""hori"",""left"",[-106,106],[-150,0]]",diamond,red,hori,left,"[-106,106]","[-150,0]",left,1,1.06,,,,,,001,2025-03-10_21h58.29.479,SL_sali_41,2021.2.3,Win32,60.0240096,,,102,0,102,0,1,,,,,,,,
,,"[""circle"",""red"",""vert"",""up"",[-106,-106],[0,150]]",circle,red,vert,up,"[-106,-106]","[0,150]",up,1,0.65,,,,,,001,2025-03-10_21h58.29.479,SL_sali_41,2021.2.3,Win32,60.0240096,,,103,0,103,0,1,,,,,,,,
,,"[""diamond"",""green"",""vert"",""up"",[150,0],[106,106]]",diamond,green,vert,up,"[150,0]","[106,106]",up,1,1.569,,,,,,001,2025-03-10_21h58.29.479,SL_sali_41,2021.2.3,Win32,60.0240096,,,104,0,104,0,1,,,,,,,,
,,"[""circle"",""red"",""hori"",""left"",[0,150],[150,0]]",circle,red,hori,left,"[0,150]","[150,0]",left,1,1.099,,,,,,001,2025-03-10_21h58.29.479,SL_sali_41,2021.2.3,Win32,60.0240096,,,105,0,105,0,1,,,,,,,,
,,"[""circle"",""green"",""hori"",""left"",[-106,-106],[-106,106]]",circle,green,hori,left,"[-106,-106]","[-106,106]",left,1,1.743,,,,,,001,2025-03-10_21h58.29.479,SL_sali_41,2021.2.3,Win32,60.0240096,,,106,0,106,0,1,,,,,,,,
,,"[""diamond"",""green"",""hori"",""left"",[-106,-106],[-150,0]]",diamond,green,hori,left,"[-106,-106]","[-150,0]",left,1,0.984,,,,,,001,2025-03-10_21h58.29.479,SL_sali_41,2021.2.3,Win32,60.0240096,,,107,0,107,0,1,,,,,,,,
,,"[""circle"",""red"",""hori"",""left"",[-106,-106],[0,150]]",circle,red,hori,left,"[-106,-106]","[0,150]",left,1,0.703,,,,,,001,2025-03-10_21h58.29.479,SL_sali_41,2021.2.3,Win32,60.0240096,,,108,0,108,0,1,,,,,,,,
,,"[""circle"",""no_dis"",""hori"",""left"",[99999,99999],[-106,-106]]",circle,no_dis,hori,left,"[99999,99999]","[-106,-106]",left,1,0.683,,,,,,001,2025-03-10_21h58.29.479,SL_sali_41,2021.2.3,Win32,60.0240096,,,109,0,109,0,1,,,,,,,,
,,"[""diamond"",""green"",""hori"",""left"",[0,-150],[0,150]]",diamond,green,hori,left,"[0,-150]","[0,150]",left,1,0.861,,,,,,001,2025-03-10_21h58.29.479,SL_sali_41,2021.2.3,Win32,60.0240096,,,110,0,110,0,1,,,,,,,,
,,"[""diamond"",""green"",""vert"",""up"",[150,0],[-106,106]]",diamond,green,vert,up,"[150,0]","[-106,106]",up,1,0.907,,,,,,001,2025-03-10_21h58.29.479,SL_sali_41,2021.2.3,Win32,60.0240096,,,111,0,111,0,1,,,,,,,,
,,"[""circle"",""red"",""hori"",""left"",[-150,0],[106,106]]",circle,red,hori,left,"[-150,0]","[106,106]",left,1,0.898,,,,,,001,2025-03-10_21h58.29.479,SL_sali_41,2021.2.3,Win32,60.0240096,,,112,0,112,0,1,,,,,,,,
,,"[""circle"",""no_dis"",""vert"",""up"",[99999,99999],[150,0]]",circle,no_dis,vert,up,"[99999,99999]","[150,0]",up,1,1.112,,,,,,001,2025-03-10_21h58.29.479,SL_sali_41,2021.2.3,Win32,60.0240096,,,113,0,113,0,1,,,,,,,,
,,"[""diamond"",""no_dis"",""hori"",""left"",[99999,99999],[0,150]]",diamond,no_dis,hori,left,"[99999,99999]","[0,150]",left,1,0.694,,,,,,001,2025-03-10_21h58.29.479,SL_sali_41,2021.2.3,Win32,60.0240096,,,114,0,114,0,1,,,,,,,,
,,"[""diamond"",""no_dis"",""hori"",""left"",[99999,99999],[106,106]]",diamond,no_dis,hori,left,"[99999,99999]","[106,106]",left,1,0.79,,,,,,001,2025-03-10_21h58.29.479,SL_sali_41,2021.2.3,Win32,60.0240096,,,115,0,115,0,1,,,,,,,,
,,"[""circle"",""no_dis"",""vert"",""up"",[99999,99999],[106,106]]",circle,no_dis,vert,up,"[99999,99999]","[106,106]",left,0,0.594,,,,,,001,2025-03-10_21h58.29.479,SL_sali_41,2021.2.3,Win32,60.0240096,,,116,0,116,0,1,,,,,,,,
,,"[""diamond"",""no_dis"",""vert"",""up"",[99999,99999],[-150,0]]",diamond,no_dis,vert,up,"[99999,99999]","[-150,0]",up,1,1.034,,,,,,001,2025-03-10_21h58.29.479,SL_sali_41,2021.2.3,Win32,60.0240096,,,117,0,117,0,1,,,,,,,,
,,"[""diamond"",""green"",""vert"",""up"",[0,150],[-150,0]]",diamond,green,vert,up,"[0,150]","[-150,0]",up,1,0.998,,,,,,001,2025-03-10_21h58.29.479,SL_sali_41,2021.2.3,Win32,60.0240096,,,118,0,118,0,1,,,,,,,,
,,"[""diamond"",""no_dis"",""hori"",""left"",[99999,99999],[150,0]]",diamond,no_dis,hori,left,"[99999,99999]","[150,0]",left,1,0.816,,,,,,001,2025-03-10_21h58.29.479,SL_sali_41,2021.2.3,Win32,60.0240096,,,119,0,119,0,1,,,,,,,,
,,"[""circle"",""red"",""hori"",""left"",[-106,-106],[0,-150]]",circle,red,hori,left,"[-106,-106]","[0,-150]",left,1,1.295,,,,,,001,2025-03-10_21h58.29.479,SL_sali_41,2021.2.3,Win32,60.0240096,,,120,0,120,0,1,,,,,,,,
,,"[""circle"",""no_dis"",""hori"",""left"",[99999,99999],[0,150]]",circle,no_dis,hori,left,"[99999,99999]","[0,150]",left,1,0.828,,,,,,001,2025-03-10_21h58.29.479,SL_sali_41,2021.2.3,Win32,60.0240096,,,121,0,121,0,1,,,,,,,,
,,"[""circle"",""green"",""hori"",""left"",[106,-106],[0,150]]",circle,green,hori,left,"[106,-106]","[0,150]",left,1,0.597,,,,,,001,2025-03-10_21h58.29.479,SL_sali_41,2021.2.3,Win32,60.0240096,,,122,0,122,0,1,,,,,,,,
,,"[""diamond"",""red"",""hori"",""left"",[0,-150],[150,0]]",diamond,red,hori,left,"[0,-150]","[150,0]",left,1,1.144,,,,,,001,2025-03-10_21h58.29.479,SL_sali_41,2021.2.3,Win32,60.0240096,,,123,0,123,0,1,,,,,,,,
,,"[""diamond"",""green"",""vert"",""up"",[0,-150],[0,150]]",diamond,green,vert,up,"[0,-150]","[0,150]",up,1,0.651,,,,,,001,2025-03-10_21h58.29.479,SL_sali_41,2021.2.3,Win32,60.0240096,,,124,0,124,0,1,,,,,,,,
,,"[""circle"",""green"",""hori"",""left"",[-106,-106],[0,-150]]",circle,green,hori,left,"[-106,-106]","[0,-150]",left,1,0.957,,,,,,001,2025-03-10_21h58.29.479,SL_sali_41,2021.2.3,Win32,60.0240096,,,125,0,125,0,1,,,,,,,,
,,"[""diamond"",""red"",""vert"",""up"",[-106,-106],[0,150]]",diamond,red,vert,up,"[-106,-106]","[0,150]",up,1,0.859,,,,,,001,2025-03-10_21h58.29.479,SL_sali_41,2021.2.3,Win32,60.0240096,,,126,0,126,0,1,,,,,,,,
,,"[""circle"",""green"",""hori"",""left"",[0,-150],[-150,0]]",circle,green,hori,left,"[0,-150]","[-150,0]",left,1,1.462,,,,,,001,2025-03-10_21h58.29.479,SL_sali_41,2021.2.3,Win32,60.0240096,,,127,0,127,0,1,,,,,,,,
,,,,,,,,,,,,,,,,,001,2025-03-10_21h58.29.479,SL_sali_41,2021.2.3,Win32,60.0240096,,,,,,,,2,space,114.553,1,0,1,0,1
,,"[""circle"",""red"",""vert"",""up"",[0,150],[106,-106]]",circle,red,vert,up,"[0,150]","[106,-106]",up,1,2.278,,,,,,001,2025-03-10_21h58.29.479,SL_sali_41,2021.2.3,Win32,60.0240096,,,0,0,0,0,1,,,,,,,,
,,"[""circle"",""red"",""vert"",""up"",[0,150],[106,-106]]",circle,red,vert,up,"[0,150]","[106,-106]",up,1,1.611,,,,,,001,2025-03-10_21h58.29.479,SL_sali_41,2021.2.3,Win32,60.0240096,,,1,0,1,0,1,,,,,,,,
,,"[""circle"",""no_dis"",""hori"",""left"",[99999,99999],[150,0]]",circle,no_dis,hori,left,"[99999,99999]","[150,0]",left,1,0.783,,,,,,001,2025-03-10_21h58.29.479,SL_sali_41,2021.2.3,Win32,60.0240096,,,2,0,2,0,1,,,,,,,,
,,"[""diamond"",""green"",""hori"",""left"",[150,0],[0,-150]]",diamond,green,hori,left,"[150,0]","[0,-150]",left,1,0.971,,,,,,001,2025-03-10_21h58.29.479,SL_sali_41,2021.2.3,Win32,60.0240096,,,3,0,3,0,1,,,,,,,,
,,"[""circle"",""red"",""hori"",""left"",[-106,-106],[0,-150]]",circle,red,hori,left,"[-106,-106]","[0,-150]",left,1,0.75,,,,,,001,2025-03-10_21h58.29.479,SL_sali_41,2021.2.3,Win32,60.0240096,,,4,0,4,0,1,,,,,,,,
,,"[""circle"",""red"",""hori"",""left"",[-106,106],[106,-106]]",circle,red,hori,left,"[-106,106]","[106,-106]",left,1,0.729,,,,,,001,2025-03-10_21h58.29.479,SL_sali_41,2021.2.3,Win32,60.0240096,,,5,0,5,0,1,,,,,,,,
,,"[""diamond"",""no_dis"",""vert"",""up"",[99999,99999],[-150,0]]",diamond,no_dis,vert,up,"[99999,99999]","[-150,0]",up,1,0.844,,,,,,001,2025-03-10_21h58.29.479,SL_sali_41,2021.2.3,Win32,60.0240096,,,6,0,6,0,1,,,,,,,,
,,"[""diamond"",""green"",""hori"",""left"",[-150,0],[-106,-106]]",diamond,green,hori,left,"[-150,0]","[-106,-106]",left,1,1.109,,,,,,001,2025-03-10_21h58.29.479,SL_sali_41,2021.2.3,Win32,60.0240096,,,7,0,7,0,1,,,,,,,,
,,"[""circle"",""no_dis"",""hori"",""left"",[99999,99999],[0,150]]",circle,no_dis,hori,left,"[99999,99999]","[0,150]",left,1,0.693,,,,,,001,2025-03-10_21h58.29.479,SL_sali_41,2021.2.3,Win32,60.0240096,,,8,0,8,0,1,,,,,,,,
,,"[""circle"",""red"",""hori"",""left"",[-106,-106],[150,0]]",circle,red,hori,left,"[-106,-106]","[150,0]",left,1,0.686,,,,,,001,2025-03-10_21h58.29.479,SL_sali_41,2021.2.3,Win32,60.0240096,,,9,0,9,0,1,,,,,,,,
,,"[""circle"",""no_dis"",""hori"",""left"",[99999,99999],[-150,0]]",circle,no_dis,hori,left,"[99999,99999]","[-150,0]",left,1,0.644,,,,,,001,2025-03-10_21h58.29.479,SL_sali_41,2021.2.3,Win32,60.0240096,,,10,0,10,0,1,,,,,,,,
,,"[""diamond"",""red"",""hori"",""left"",[-106,106],[-150,0]]",diamond,red,hori,left,"[-106,106]","[-150,0]",left,1,1.059,,,,,,001,2025-03-10_21h58.29.479,SL_sali_41,2021.2.3,Win32,60.0240096,,,11,0,11,0,1,,,,,,,,
,,"[""diamond"",""green"",""hori"",""left"",[-106,106],[-106,-106]]",diamond,green,hori,left,"[-106,106]","[-106,-106]",left,1,0.773,,,,,,001,2025-03-10_21h58.29.479,SL_sali_41,2021.2.3,Win32,60.0240096,,,12,0,12,0,1,,,,,,,,
,,"[""circle"",""green"",""vert"",""up"",[-106,-106],[106,-106]]",circle,green,vert,up,"[-106,-106]","[106,-106]",up,1,0.662,,,,,,001,2025-03-10_21h58.29.479,SL_sali_41,2021.2.3,Win32,60.0240096,,,13,0,13,0,1,,,,,,,,
,,"[""diamond"",""red"",""vert"",""up"",[-106,106],[106,-106]]",diamond,red,vert,up,"[-106,106]","[106,-106]",up,1,1.317,,,,,,001,2025-03-10_21h58.29.479,SL_sali_41,2021.2.3,Win32,60.0240096,,,14,0,14,0,1,,,,,,,,
,,"[""circle"",""red"",""vert"",""up"",[106,106],[0,150]]",circle,red,vert,up,"[106,106]","[0,150]",up,1,0.829,,,,,,001,2025-03-10_21h58.29.479,SL_sali_41,2021.2.3,Win32,60.0240096,,,15,0,15,0,1,,,,,,,,
,,"[""circle"",""red"",""hori"",""left"",[-106,-106],[-106,106]]",circle,red,hori,left,"[-106,-106]","[-106,106]",left,1,1.335,,,,,,001,2025-03-10_21h58.29.479,SL_sali_41,2021.2.3,Win32,60.0240096,,,16,0,16,0,1,,,,,,,,
,,"[""diamond"",""no_dis"",""hori"",""left"",[99999,99999],[0,-150]]",diamond,no_dis,hori,left,"[99999,99999]","[0,-150]",left,1,0.865,,,,,,001,2025-03-10_21h58.29.479,SL_sali_41,2021.2.3,Win32,60.0240096,,,17,0,17,0,1,,,,,,,,
,,"[""diamond"",""green"",""hori"",""left"",[106,-106],[0,150]]",diamond,green,hori,left,"[106,-106]","[0,150]",left,1,0.913,,,,,,001,2025-03-10_21h58.29.479,SL_sali_41,2021.2.3,Win32,60.0240096,,,18,0,18,0,1,,,,,,,,
,,"[""diamond"",""red"",""vert"",""up"",[106,-106],[106,106]]",diamond,red,vert,up,"[106,-106]","[106,106]",up,1,1.582,,,,,,001,2025-03-10_21h58.29.479,SL_sali_41,2021.2.3,Win32,60.0240096,,,19,0,19,0,1,,,,,,,,
,,"[""circle"",""no_dis"",""vert"",""up"",[99999,99999],[106,-106]]",circle,no_dis,vert,up,"[99999,99999]","[106,-106]",up,1,0.877,,,,,,001,2025-03-10_21h58.29.479,SL_sali_41,2021.2.3,Win32,60.0240096,,,20,0,20,0,1,,,,,,,,
,,"[""diamond"",""no_dis"",""hori"",""left"",[99999,99999],[-106,106]]",diamond,no_dis,hori,left,"[99999,99999]","[-106,106]",up,0,1.021,,,,,,001,2025-03-10_21h58.29.479,SL_sali_41,2021.2.3,Win32,60.0240096,,,21,0,21,0,1,,,,,,,,
,,"[""diamond"",""green"",""vert"",""up"",[150,0],[-106,106]]",diamond,green,vert,up,"[150,0]","[-106,106]",up,1,2.007,,,,,,001,2025-03-10_21h58.29.479,SL_sali_41,2021.2.3,Win32,60.0240096,,,22,0,22,0,1,,,,,,,,
,,"[""circle"",""green"",""vert"",""up"",[-106,106],[106,106]]",circle,green,vert,up,"[-106,106]","[106,106]",up,1,0.845,,,,,,001,2025-03-10_21h58.29.479,SL_sali_41,2021.2.3,Win32,60.0240096,,,23,0,23,0,1,,,,,,,,
,,"[""diamond"",""no_dis"",""hori"",""left"",[99999,99999],[-106,106]]",diamond,no_dis,hori,left,"[99999,99999]","[-106,106]",left,1,0.764,,,,,,001,2025-03-10_21h58.29.479,SL_sali_41,2021.2.3,Win32,60.0240096,,,24,0,24,0,1,,,,,,,,
,,"[""diamond"",""green"",""vert"",""up"",[0,150],[150,0]]",diamond,green,vert,up,"[0,150]","[150,0]",up,1,0.956,,,,,,001,2025-03-10_21h58.29.479,SL_sali_41,2021.2.3,Win32,60.0240096,,,25,0,25,0,1,,,,,,,,
,,"[""circle"",""green"",""vert"",""up"",[-106,-106],[0,150]]",circle,green,vert,up,"[-106,-106]","[0,150]",up,1,1.379,,,,,,001,2025-03-10_21h58.29.479,SL_sali_41,2021.2.3,Win32,60.0240096,,,26,0,26,0,1,,,,,,,,
,,"[""diamond"",""green"",""vert"",""up"",[0,-150],[106,-106]]",diamond,green,vert,up,"[0,-150]","[106,-106]",up,1,0.947,,,,,,001,2025-03-10_21h58.29.479,SL_sali_41,2021.2.3,Win32,60.0240096,,,27,0,27,0,1,,,,,,,,
,,"[""diamond"",""green"",""hori"",""left"",[-106,-106],[0,-150]]",diamond,green,hori,left,"[-106,-106]","[0,-150]",left,1,0.951,,,,,,001,2025-03-10_21h58.29.479,SL_sali_41,2021.2.3,Win32,60.0240096,,,28,0,28,0,1,,,,,,,,
,,"[""diamond"",""green"",""vert"",""up"",[-106,-106],[150,0]]",diamond,green,vert,up,"[-106,-106]","[150,0]",left,0,0.98,,,,,,001,2025-03-10_21h58.29.479,SL_sali_41,2021.2.3,Win32,60.0240096,,,29,0,29,0,1,,,,,,,,
,,"[""circle"",""no_dis"",""hori"",""left"",[99999,99999],[-106,-106]]",circle,no_dis,hori,left,"[99999,99999]","[-106,-106]",left,1,0.713,,,,,,001,2025-03-10_21h58.29.479,SL_sali_41,2021.2.3,Win32,60.0240096,,,30,0,30,0,1,,,,,,,,
,,"[""diamond"",""red"",""vert"",""up"",[-106,106],[106,106]]",diamond,red,vert,up,"[-106,106]","[106,106]",up,1,1.209,,,,,,001,2025-03-10_21h58.29.479,SL_sali_41,2021.2.3,Win32,60.0240096,,,31,0,31,0,1,,,,,,,,
,,"[""diamond"",""red"",""hori"",""left"",[0,-150],[-150,0]]",diamond,red,hori,left,"[0,-150]","[-150,0]",left,1,0.827,,,,,,001,2025-03-10_21h58.29.479,SL_sali_41,2021.2.3,Win32,60.0240096,,,32,0,32,0,1,,,,,,,,
,,"[""circle"",""green"",""vert"",""up"",[106,106],[150,0]]",circle,green,vert,up,"[106,106]","[150,0]",up,1,0.877,,,,,,001,2025-03-10_21h58.29.479,SL_sali_41,2021.2.3,Win32,60.0240096,,,33,0,33,0,1,,,,,,,,
,,"[""diamond"",""no_dis"",""hori"",""left"",[99999,99999],[-150,0]]",diamond,no_dis,hori,left,"[99999,99999]","[-150,0]",left,1,0.757,,,,,,001,2025-03-10_21h58.29.479,SL_sali_41,2021.2.3,Win32,60.0240096,,,34,0,34,0,1,,,,,,,,
,,"[""diamond"",""no_dis"",""vert"",""up"",[99999,99999],[106,-106]]",diamond,no_dis,vert,up,"[99999,99999]","[106,-106]",up,1,0.893,,,,,,001,2025-03-10_21h58.29.479,SL_sali_41,2021.2.3,Win32,60.0240096,,,35,0,35,0,1,,,,,,,,
,,"[""circle"",""green"",""hori"",""left"",[-106,-106],[106,-106]]",circle,green,hori,left,"[-106,-106]","[106,-106]",left,1,0.824,,,,,,001,2025-03-10_21h58.29.479,SL_sali_41,2021.2.3,Win32,60.0240096,,,36,0,36,0,1,,,,,,,,
,,"[""diamond"",""no_dis"",""hori"",""left"",[99999,99999],[150,0]]",diamond,no_dis,hori,left,"[99999,99999]","[150,0]",left,1,0.879,,,,,,001,2025-03-10_21h58.29.479,SL_sali_41,2021.2.3,Win32,60.0240096,,,37,0,37,0,1,,,,,,,,
,,"[""diamond"",""red"",""vert"",""up"",[150,0],[-106,-106]]",diamond,red,vert,up,"[150,0]","[-106,-106]",up,1,1.425,,,,,,001,2025-03-10_21h58.29.479,SL_sali_41,2021.2.3,Win32,60.0240096,,,38,0,38,0,1,,,,,,,,
,,"[""diamond"",""red"",""hori"",""left"",[106,106],[0,150]]",diamond,red,hori,left,"[106,106]","[0,150]",left,1,0.842,,,,,,001,2025-03-10_21h58.29.479,SL_sali_41,2021.2.3,Win32,60.0240096,,,39,0,39,0,1,,,,,,,,
,,"[""circle"",""green"",""vert"",""up"",[-150,0],[0,-150]]",circle,green,vert,up,"[-150,0]","[0,-150]",up,1,1.016,,,,,,001,2025-03-10_21h58.29.479,SL_sali_41,2021.2.3,Win32,60.0240096,,,40,0,40,0,1,,,,,,,,
,,"[""diamond"",""no_dis"",""vert"",""up"",[99999,99999],[-106,-106]]",diamond,no_dis,vert,up,"[99999,99999]","[-106,-106]",up,1,1.365,,,,,,001,2025-03-10_21h58.29.479,SL_sali_41,2021.2.3,Win32,60.0240096,,,41,0,41,0,1,,,,,,,,
,,"[""diamond"",""red"",""hori"",""left"",[-106,-106],[-150,0]]",diamond,red,hori,left,"[-106,-106]","[-150,0]",left,1,1.344,,,,,,001,2025-03-10_21h58.29.479,SL_sali_41,2021.2.3,Win32,60.0240096,,,42,0,42,0,1,,,,,,,,
,,"[""circle"",""no_dis"",""hori"",""left"",[99999,99999],[-106,106]]",circle,no_dis,hori,left,"[99999,99999]","[-106,106]",left,1,1.358,,,,,,001,2025-03-10_21h58.29.479,SL_sali_41,2021.2.3,Win32,60.0240096,,,43,0,43,0,1,,,,,,,,
,,"[""diamond"",""green"",""hori"",""left"",[-106,-106],[150,0]]",diamond,green,hori,left,"[-106,-106]","[150,0]",left,1,0.908,,,,,,001,2025-03-10_21h58.29.479,SL_sali_41,2021.2.3,Win32,60.0240096,,,44,0,44,0,1,,,,,,,,
,,"[""diamond"",""no_dis"",""vert"",""up"",[99999,99999],[0,150]]",diamond,no_dis,vert,up,"[99999,99999]","[0,150]",up,1,0.732,,,,,,001,2025-03-10_21h58.29.479,SL_sali_41,2021.2.3,Win32,60.0240096,,,45,0,45,0,1,,,,,,,,
,,"[""circle"",""red"",""hori"",""left"",[150,0],[106,106]]",circle,red,hori,left,"[150,0]","[106,106]",left,1,1.013,,,,,,001,2025-03-10_21h58.29.479,SL_sali_41,2021.2.3,Win32,60.0240096,,,46,0,46,0,1,,,,,,,,
,,"[""diamond"",""no_dis"",""vert"",""up"",[99999,99999],[0,-150]]",diamond,no_dis,vert,up,"[99999,99999]","[0,-150]",up,1,1.191,,,,,,001,2025-03-10_21h58.29.479,SL_sali_41,2021.2.3,Win32,60.0240096,,,47,0,47,0,1,,,,,,,,
,,"[""circle"",""green"",""hori"",""left"",[-106,-106],[106,106]]",circle,green,hori,left,"[-106,-106]","[106,106]",left,1,0.728,,,,,,001,2025-03-10_21h58.29.479,SL_sali_41,2021.2.3,Win32,60.0240096,,,48,0,48,0,1,,,,,,,,
,,"[""circle"",""no_dis"",""hori"",""left"",[99999,99999],[150,0]]",circle,no_dis,hori,left,"[99999,99999]","[150,0]",left,1,1.277,,,,,,001,2025-03-10_21h58.29.479,SL_sali_41,2021.2.3,Win32,60.0240096,,,49,0,49,0,1,,,,,,,,
,,"[""diamond"",""no_dis"",""vert"",""up"",[99999,99999],[-106,-106]]",diamond,no_dis,vert,up,"[99999,99999]","[-106,-106]",up,1,1.144,,,,,,001,2025-03-10_21h58.29.479,SL_sali_41,2021.2.3,Win32,60.0240096,,,50,0,50,0,1,,,,,,,,
,,"[""circle"",""green"",""vert"",""up"",[-106,-106],[150,0]]",circle,green,vert,up,"[-106,-106]","[150,0]",up,1,0.782,,,,,,001,2025-03-10_21h58.29.479,SL_sali_41,2021.2.3,Win32,60.0240096,,,51,0,51,0,1,,,,,,,,
,,"[""diamond"",""red"",""vert"",""up"",[-150,0],[0,150]]",diamond,red,vert,up,"[-150,0]","[0,150]",up,1,1.041,,,,,,001,2025-03-10_21h58.29.479,SL_sali_41,2021.2.3,Win32,60.0240096,,,52,0,52,0,1,,,,,,,,
,,"[""diamond"",""no_dis"",""hori"",""left"",[99999,99999],[-150,0]]",diamond,no_dis,hori,left,"[99999,99999]","[-150,0]",left,1,0.967,,,,,,001,2025-03-10_21h58.29.479,SL_sali_41,2021.2.3,Win32,60.0240096,,,53,0,53,0,1,,,,,,,,
,,"[""circle"",""green"",""hori"",""left"",[106,106],[-106,106]]",circle,green,hori,left,"[106,106]","[-106,106]",left,1,0.832,,,,,,001,2025-03-10_21h58.29.479,SL_sali_41,2021.2.3,Win32,60.0240096,,,54,0,54,0,1,,,,,,,,
,,"[""circle"",""green"",""vert"",""up"",[150,0],[0,-150]]",circle,green,vert,up,"[150,0]","[0,-150]",up,1,1.362,,,,,,001,2025-03-10_21h58.29.479,SL_sali_41,2021.2.3,Win32,60.0240096,,,55,0,55,0,1,,,,,,,,
,,"[""diamond"",""red"",""hori"",""left"",[-106,-106],[106,-106]]",diamond,red,hori,left,"[-106,-106]","[106,-106]",left,1,1.142,,,,,,001,2025-03-10_21h58.29.479,SL_sali_41,2021.2.3,Win32,60.0240096,,,56,0,56,0,1,,,,,,,,
,,"[""circle"",""red"",""hori"",""left"",[0,150],[106,106]]",circle,red,hori,left,"[0,150]","[106,106]",left,1,0.994,,,,,,001,2025-03-10_21h58.29.479,SL_sali_41,2021.2.3,Win32,60.0240096,,,57,0,57,0,1,,,,,,,,
,,"[""diamond"",""no_dis"",""vert"",""up"",[99999,99999],[-106,-106]]",diamond,no_dis,vert,up,"[99999,99999]","[-106,-106]",up,1,1.005,,,,,,001,2025-03-10_21h58.29.479,SL_sali_41,2021.2.3,Win32,60.0240096,,,58,0,58,0,1,,,,,,,,
,,"[""diamond"",""green"",""vert"",""up"",[0,-150],[0,150]]",diamond,green,vert,up,"[0,-150]","[0,150]",up,1,1.712,,,,,,001,2025-03-10_21h58.29.479,SL_sali_41,2021.2.3,Win32,60.0240096,,,59,0,59,0,1,,,,,,,,
,,"[""diamond"",""no_dis"",""hori"",""left"",[99999,99999],[-106,106]]",diamond,no_dis,hori,left,"[99999,99999]","[-106,106]",left,1,1.762,,,,,,001,2025-03-10_21h58.29.479,SL_sali_41,2021.2.3,Win32,60.0240096,,,60,0,60,0,1,,,,,,,,
,,"[""circle"",""red"",""hori"",""left"",[0,-150],[0,150]]",circle,red,hori,left,"[0,-150]","[0,150]",up,0,0.877,,,,,,001,2025-03-10_21h58.29.479,SL_sali_41,2021.2.3,Win32,60.0240096,,,61,0,61,0,1,,,,,,,,
,,"[""diamond"",""red"",""hori"",""left"",[0,150],[0,-150]]",diamond,red,hori,left,"[0,150]","[0,-150]",left,1,0.768,,,,,,001,2025-03-10_21h58.29.479,SL_sali_41,2021.2.3,Win32,60.0240096,,,62,0,62,0,1,,,,,,,,
,,"[""circle"",""red"",""vert"",""up"",[-106,-106],[0,-150]]",circle,red,vert,up,"[-106,-106]","[0,-150]",up,1,0.918,,,,,,001,2025-03-10_21h58.29.479,SL_sali_41,2021.2.3,Win32,60.0240096,,,63,0,63,0,1,,,,,,,,
,,"[""diamond"",""green"",""vert"",""up"",[150,0],[106,106]]",diamond,green,vert,up,"[150,0]","[106,106]",up,1,1.17,,,,,,001,2025-03-10_21h58.29.479,SL_sali_41,2021.2.3,Win32,60.0240096,,,64,0,64,0,1,,,,,,,,
,,"[""diamond"",""red"",""vert"",""up"",[-106,-106],[0,-150]]",diamond,red,vert,up,"[-106,-106]","[0,-150]",up,1,0.892,,,,,,001,2025-03-10_21h58.29.479,SL_sali_41,2021.2.3,Win32,60.0240096,,,65,0,65,0,1,,,,,,,,
,,"[""circle"",""green"",""hori"",""left"",[106,-106],[0,150]]",circle,green,hori,left,"[106,-106]","[0,150]",left,1,0.932,,,,,,001,2025-03-10_21h58.29.479,SL_sali_41,2021.2.3,Win32,60.0240096,,,66,0,66,0,1,,,,,,,,
,,"[""circle"",""red"",""vert"",""up"",[-150,0],[0,150]]",circle,red,vert,up,"[-150,0]","[0,150]",up,1,1.102,,,,,,001,2025-03-10_21h58.29.479,SL_sali_41,2021.2.3,Win32,60.0240096,,,67,0,67,0,1,,,,,,,,
,,"[""diamond"",""red"",""hori"",""left"",[106,106],[-106,106]]",diamond,red,hori,left,"[106,106]","[-106,106]",left,1,1.594,,,,,,001,2025-03-10_21h58.29.479,SL_sali_41,2021.2.3,Win32,60.0240096,,,68,0,68,0,1,,,,,,,,
,,"[""circle"",""no_dis"",""vert"",""up"",[99999,99999],[150,0]]",circle,no_dis,vert,up,"[99999,99999]","[150,0]",up,1,0.781,,,,,,001,2025-03-10_21h58.29.479,SL_sali_41,2021.2.3,Win32,60.0240096,,,69,0,69,0,1,,,,,,,,
,,"[""diamond"",""red"",""vert"",""up"",[-106,-106],[106,-106]]",diamond,red,vert,up,"[-106,-106]","[106,-106]",left,0,1.093,,,,,,001,2025-03-10_21h58.29.479,SL_sali_41,2021.2.3,Win32,60.0240096,,,70,0,70,0,1,,,,,,,,
,,"[""diamond"",""no_dis"",""hori"",""left"",[99999,99999],[0,150]]",diamond,no_dis,hori,left,"[99999,99999]","[0,150]",left,1,0.682,,,,,,001,2025-03-10_21h58.29.479,SL_sali_41,2021.2.3,Win32,60.0240096,,,71,0,71,0,1,,,,,,,,
,,"[""circle"",""no_dis"",""vert"",""up"",[99999,99999],[0,150]]",circle,no_dis,vert,up,"[99999,99999]","[0,150]",up,1,1.626,,,,,,001,2025-03-10_21h58.29.479,SL_sali_41,2021.2.3,Win32,60.0240096,,,72,0,72,0,1,,,,,,,,
,,"[""circle"",""no_dis"",""hori"",""left"",[99999,99999],[-150,0]]",circle,no_dis,hori,left,"[99999,99999]","[-150,0]",left,1,0.834,,,,,,001,2025-03-10_21h58.29.479,SL_sali_41,2021.2.3,Win32,60.0240096,,,73,0,73,0,1,,,,,,,,
,,"[""diamond"",""red"",""vert"",""up"",[-106,106],[0,-150]]",diamond,red,vert,up,"[-106,106]","[0,-150]",up,1,1.858,,,,,,001,2025-03-10_21h58.29.479,SL_sali_41,2021.2.3,Win32,60.0240096,,,74,0,74,0,1,,,,,,,,
,,"[""circle"",""no_dis"",""vert"",""up"",[99999,99999],[106,-106]]",circle,no_dis,vert,up,"[99999,99999]","[106,-106]",up,1,1.479,,,,,,001,2025-03-10_21h58.29.479,SL_sali_41,2021.2.3,Win32,60.0240096,,,75,0,75,0,1,,,,,,,,
,,"[""diamond"",""green"",""vert"",""up"",[0,150],[-150,0]]",diamond,green,vert,up,"[0,150]","[-150,0]",up,1,0.898,,,,,,001,2025-03-10_21h58.29.479,SL_sali_41,2021.2.3,Win32,60.0240096,,,76,0,76,0,1,,,,,,,,
,,"[""circle"",""red"",""vert"",""up"",[-106,-106],[0,150]]",circle,red,vert,up,"[-106,-106]","[0,150]",up,1,1.35,,,,,,001,2025-03-10_21h58.29.479,SL_sali_41,2021.2.3,Win32,60.0240096,,,77,0,77,0,1,,,,,,,,
,,"[""circle"",""red"",""vert"",""up"",[106,-106],[-106,-106]]",circle,red,vert,up,"[106,-106]","[-106,-106]",up,1,1.749,,,,,,001,2025-03-10_21h58.29.479,SL_sali_41,2021.2.3,Win32,60.0240096,,,78,0,78,0,1,,,,,,,,
,,"[""diamond"",""red"",""hori"",""left"",[0,-150],[150,0]]",diamond,red,hori,left,"[0,-150]","[150,0]",left,1,1.509,,,,,,001,2025-03-10_21h58.29.479,SL_sali_41,2021.2.3,Win32,60.0240096,,,79,0,79,0,1,,,,,,,,
,,"[""diamond"",""no_dis"",""vert"",""up"",[99999,99999],[0,-150]]",diamond,no_dis,vert,up,"[99999,99999]","[0,-150]",up,1,0.908,,,,,,001,2025-03-10_21h58.29.479,SL_sali_41,2021.2.3,Win32,60.0240096,,,80,0,80,0,1,,,,,,,,
,,"[""diamond"",""green"",""vert"",""up"",[106,106],[-106,106]]",diamond,green,vert,up,"[106,106]","[-106,106]",up,1,1.123,,,,,,001,2025-03-10_21h58.29.479,SL_sali_41,2021.2.3,Win32,60.0240096,,,81,0,81,0,1,,,,,,,,
,,"[""circle"",""green"",""hori"",""left"",[-106,-106],[106,106]]",circle,green,hori,left,"[-106,-106]","[106,106]",left,1,1.072,,,,,,001,2025-03-10_21h58.29.479,SL_sali_41,2021.2.3,Win32,60.0240096,,,82,0,82,0,1,,,,,,,,
,,"[""diamond"",""red"",""vert"",""up"",[-106,106],[0,150]]",diamond,red,vert,up,"[-106,106]","[0,150]",up,1,1.872,,,,,,001,2025-03-10_21h58.29.479,SL_sali_41,2021.2.3,Win32,60.0240096,,,83,0,83,0,1,,,,,,,,
,,"[""circle"",""green"",""vert"",""up"",[-106,-106],[-106,106]]",circle,green,vert,up,"[-106,-106]","[-106,106]",up,1,0.808,,,,,,001,2025-03-10_21h58.29.479,SL_sali_41,2021.2.3,Win32,60.0240096,,,84,0,84,0,1,,,,,,,,
,,"[""diamond"",""red"",""hori"",""left"",[-106,-106],[0,150]]",diamond,red,hori,left,"[-106,-106]","[0,150]",left,1,1.181,,,,,,001,2025-03-10_21h58.29.479,SL_sali_41,2021.2.3,Win32,60.0240096,,,85,0,85,0,1,,,,,,,,
,,"[""circle"",""green"",""vert"",""up"",[150,0],[0,150]]",circle,green,vert,up,"[150,0]","[0,150]",up,1,0.814,,,,,,001,2025-03-10_21h58.29.479,SL_sali_41,2021.2.3,Win32,60.0240096,,,86,0,86,0,1,,,,,,,,
,,"[""circle"",""red"",""vert"",""up"",[106,-106],[0,-150]]",circle,red,vert,up,"[106,-106]","[0,-150]",up,1,1.277,,,,,,001,2025-03-10_21h58.29.479,SL_sali_41,2021.2.3,Win32,60.0240096,,,87,0,87,0,1,,,,,,,,
,,"[""diamond"",""green"",""hori"",""left"",[106,106],[-106,106]]",diamond,green,hori,left,"[106,106]","[-106,106]",left,1,1.241,,,,,,001,2025-03-10_21h58.29.479,SL_sali_41,2021.2.3,Win32,60.0240096,,,88,0,88,0,1,,,,,,,,
,,"[""circle"",""green"",""hori"",""left"",[-106,-106],[-106,106]]",circle,green,hori,left,"[-106,-106]","[-106,106]",left,1,1.183,,,,,,001,2025-03-10_21h58.29.479,SL_sali_41,2021.2.3,Win32,60.0240096,,,89,0,89,0,1,,,,,,,,
,,"[""diamond"",""red"",""hori"",""left"",[0,150],[-106,106]]",diamond,red,hori,left,"[0,150]","[-106,106]",left,1,0.877,,,,,,001,2025-03-10_21h58.29.479,SL_sali_41,2021.2.3,Win32,60.0240096,,,90,0,90,0,1,,,,,,,,
,,"[""diamond"",""no_dis"",""vert"",""up"",[99999,99999],[106,106]]",diamond,no_dis,vert,up,"[99999,99999]","[106,106]",up,1,0.77,,,,,,001,2025-03-10_21h58.29.479,SL_sali_41,2021.2.3,Win32,60.0240096,,,91,0,91,0,1,,,,,,,,
,,"[""circle"",""green"",""hori"",""left"",[-106,-106],[0,-150]]",circle,green,hori,left,"[-106,-106]","[0,-150]",left,1,2.251,,,,,,001,2025-03-10_21h58.29.479,SL_sali_41,2021.2.3,Win32,60.0240096,,,92,0,92,0,1,,,,,,,,
,,"[""circle"",""green"",""hori"",""left"",[150,0],[106,106]]",circle,green,hori,left,"[150,0]","[106,106]",up,0,0.686,,,,,,001,2025-03-10_21h58.29.479,SL_sali_41,2021.2.3,Win32,60.0240096,,,93,0,93,0,1,,,,,,,,
,,"[""circle"",""no_dis"",""vert"",""up"",[99999,99999],[150,0]]",circle,no_dis,vert,up,"[99999,99999]","[150,0]",up,1,0.765,,,,,,001,2025-03-10_21h58.29.479,SL_sali_41,2021.2.3,Win32,60.0240096,,,94,0,94,0,1,,,,,,,,
,,"[""circle"",""no_dis"",""vert"",""up"",[99999,99999],[106,106]]",circle,no_dis,vert,up,"[99999,99999]","[106,106]",up,1,0.863,,,,,,001,2025-03-10_21h58.29.479,SL_sali_41,2021.2.3,Win32,60.0240096,,,95,0,95,0,1,,,,,,,,
,,"[""diamond"",""green"",""hori"",""left"",[0,-150],[0,150]]",diamond,green,hori,left,"[0,-150]","[0,150]",left,1,0.64,,,,,,001,2025-03-10_21h58.29.479,SL_sali_41,2021.2.3,Win32,60.0240096,,,96,0,96,0,1,,,,,,,,
,,"[""diamond"",""green"",""hori"",""left"",[-106,-106],[0,150]]",diamond,green,hori,left,"[-106,-106]","[0,150]",left,1,0.993,,,,,,001,2025-03-10_21h58.29.479,SL_sali_41,2021.2.3,Win32,60.0240096,,,97,0,97,0,1,,,,,,,,
,,"[""circle"",""green"",""hori"",""left"",[106,-106],[-106,-106]]",circle,green,hori,left,"[106,-106]","[-106,-106]",left,1,0.899,,,,,,001,2025-03-10_21h58.29.479,SL_sali_41,2021.2.3,Win32,60.0240096,,,98,0,98,0,1,,,,,,,,
,,"[""circle"",""red"",""vert"",""up"",[106,-106],[-106,106]]",circle,red,vert,up,"[106,-106]","[-106,106]",up,1,0.86,,,,,,001,2025-03-10_21h58.29.479,SL_sali_41,2021.2.3,Win32,60.0240096,,,99,0,99,0,1,,,,,,,,
,,"[""diamond"",""no_dis"",""hori"",""left"",[99999,99999],[0,-150]]",diamond,no_dis,hori,left,"[99999,99999]","[0,-150]",left,1,1.108,,,,,,001,2025-03-10_21h58.29.479,SL_sali_41,2021.2.3,Win32,60.0240096,,,100,0,100,0,1,,,,,,,,
,,"[""diamond"",""no_dis"",""hori"",""left"",[99999,99999],[106,106]]",diamond,no_dis,hori,left,"[99999,99999]","[106,106]",left,1,1.26,,,,,,001,2025-03-10_21h58.29.479,SL_sali_41,2021.2.3,Win32,60.0240096,,,101,0,101,0,1,,,,,,,,
,,"[""circle"",""green"",""vert"",""up"",[-106,-106],[0,-150]]",circle,green,vert,up,"[-106,-106]","[0,-150]",up,1,0.966,,,,,,001,2025-03-10_21h58.29.479,SL_sali_41,2021.2.3,Win32,60.0240096,,,102,0,102,0,1,,,,,,,,
,,"[""circle"",""no_dis"",""hori"",""left"",[99999,99999],[106,106]]",circle,no_dis,hori,left,"[99999,99999]","[106,106]",left,1,0.73,,,,,,001,2025-03-10_21h58.29.479,SL_sali_41,2021.2.3,Win32,60.0240096,,,103,0,103,0,1,,,,,,,,
,,"[""circle"",""red"",""hori"",""left"",[0,-150],[106,106]]",circle,red,hori,left,"[0,-150]","[106,106]",left,1,0.57,,,,,,001,2025-03-10_21h58.29.479,SL_sali_41,2021.2.3,Win32,60.0240096,,,104,0,104,0,1,,,,,,,,
,,"[""circle"",""no_dis"",""vert"",""up"",[99999,99999],[0,150]]",circle,no_dis,vert,up,"[99999,99999]","[0,150]",up,1,0.56,,,,,,001,2025-03-10_21h58.29.479,SL_sali_41,2021.2.3,Win32,60.0240096,,,105,0,105,0,1,,,,,,,,
,,"[""circle"",""no_dis"",""hori"",""left"",[99999,99999],[0,-150]]",circle,no_dis,hori,left,"[99999,99999]","[0,-150]",left,1,0.68,,,,,,001,2025-03-10_21h58.29.479,SL_sali_41,2021.2.3,Win32,60.0240096,,,106,0,106,0,1,,,,,,,,
,,"[""circle"",""red"",""vert"",""up"",[-106,-106],[150,0]]",circle,red,vert,up,"[-106,-106]","[150,0]",up,1,0.729,,,,,,001,2025-03-10_21h58.29.479,SL_sali_41,2021.2.3,Win32,60.0240096,,,107,0,107,0,1,,,,,,,,
,,"[""diamond"",""red"",""vert"",""up"",[-106,-106],[0,150]]",diamond,red,vert,up,"[-106,-106]","[0,150]",up,1,0.847,,,,,,001,2025-03-10_21h58.29.479,SL_sali_41,2021.2.3,Win32,60.0240096,,,108,0,108,0,1,,,,,,,,
,,"[""diamond"",""red"",""hori"",""left"",[-106,-106],[-106,106]]",diamond,red,hori,left,"[-106,-106]","[-106,106]",left,1,0.741,,,,,,001,2025-03-10_21h58.29.479,SL_sali_41,2021.2.3,Win32,60.0240096,,,109,0,109,0,1,,,,,,,,
,,"[""diamond"",""green"",""hori"",""left"",[-106,-106],[-150,0]]",diamond,green,hori,left,"[-106,-106]","[-150,0]",left,1,0.762,,,,,,001,2025-03-10_21h58.29.479,SL_sali_41,2021.2.3,Win32,60.0240096,,,110,0,110,0,1,,,,,,,,
,,"[""circle"",""green"",""hori"",""left"",[106,-106],[-106,106]]",circle,green,hori,left,"[106,-106]","[-106,106]",left,1,0.627,,,,,,001,2025-03-10_21h58.29.479,SL_sali_41,2021.2.3,Win32,60.0240096,,,111,0,111,0,1,,,,,,,,
,,"[""circle"",""green"",""vert"",""up"",[-150,0],[0,-150]]",circle,green,vert,up,"[-150,0]","[0,-150]",up,1,0.878,,,,,,001,2025-03-10_21h58.29.479,SL_sali_41,2021.2.3,Win32,60.0240096,,,112,0,112,0,1,,,,,,,,
,,"[""diamond"",""green"",""vert"",""up"",[-106,-106],[-106,106]]",diamond,green,vert,up,"[-106,-106]","[-106,106]",up,1,1.524,,,,,,001,2025-03-10_21h58.29.479,SL_sali_41,2021.2.3,Win32,60.0240096,,,113,0,113,0,1,,,,,,,,
,,"[""circle"",""red"",""hori"",""left"",[0,150],[150,0]]",circle,red,hori,left,"[0,150]","[150,0]",left,1,0.827,,,,,,001,2025-03-10_21h58.29.479,SL_sali_41,2021.2.3,Win32,60.0240096,,,114,0,114,0,1,,,,,,,,
,,"[""diamond"",""red"",""vert"",""up"",[-150,0],[106,-106]]",diamond,red,vert,up,"[-150,0]","[106,-106]",up,1,1.424,,,,,,001,2025-03-10_21h58.29.479,SL_sali_41,2021.2.3,Win32,60.0240096,,,115,0,115,0,1,,,,,,,,
,,"[""circle"",""no_dis"",""vert"",""up"",[99999,99999],[106,106]]",circle,no_dis,vert,up,"[99999,99999]","[106,106]",left,0,1.309,,,,,,001,2025-03-10_21h58.29.479,SL_sali_41,2021.2.3,Win32,60.0240096,,,116,0,116,0,1,,,,,,,,
,,"[""circle"",""no_dis"",""vert"",""up"",[99999,99999],[-106,-106]]",circle,no_dis,vert,up,"[99999,99999]","[-106,-106]",up,1,1.582,,,,,,001,2025-03-10_21h58.29.479,SL_sali_41,2021.2.3,Win32,60.0240096,,,117,0,117,0,1,,,,,,,,
,,"[""circle"",""red"",""hori"",""left"",[-150,0],[106,106]]",circle,red,hori,left,"[-150,0]","[106,106]",left,1,0.815,,,,,,001,2025-03-10_21h58.29.479,SL_sali_41,2021.2.3,Win32,60.0240096,,,118,0,118,0,1,,,,,,,,
,,"[""circle"",""red"",""hori"",""left"",[-106,-106],[0,150]]",circle,red,hori,left,"[-106,-106]","[0,150]",left,1,0.678,,,,,,001,2025-03-10_21h58.29.479,SL_sali_41,2021.2.3,Win32,60.0240096,,,119,0,119,0,1,,,,,,,,
,,"[""circle"",""no_dis"",""hori"",""left"",[99999,99999],[106,-106]]",circle,no_dis,hori,left,"[99999,99999]","[106,-106]",left,1,0.663,,,,,,001,2025-03-10_21h58.29.479,SL_sali_41,2021.2.3,Win32,60.0240096,,,120,0,120,0,1,,,,,,,,
,,"[""diamond"",""green"",""hori"",""left"",[-150,0],[0,-150]]",diamond,green,hori,left,"[-150,0]","[0,-150]",up,0,0.939,,,,,,001,2025-03-10_21h58.29.479,SL_sali_41,2021.2.3,Win32,60.0240096,,,121,0,121,0,1,,,,,,,,
,,"[""circle"",""no_dis"",""vert"",""up"",[99999,99999],[-106,106]]",circle,no_dis,vert,up,"[99999,99999]","[-106,106]",up,1,0.882,,,,,,001,2025-03-10_21h58.29.479,SL_sali_41,2021.2.3,Win32,60.0240096,,,122,0,122,0,1,,,,,,,,
,,"[""circle"",""green"",""hori"",""left"",[0,-150],[-150,0]]",circle,green,hori,left,"[0,-150]","[-150,0]",left,1,0.961,,,,,,001,2025-03-10_21h58.29.479,SL_sali_41,2021.2.3,Win32,60.0240096,,,123,0,123,0,1,,,,,,,,
,,"[""diamond"",""no_dis"",""vert"",""up"",[99999,99999],[106,-106]]",diamond,no_dis,vert,up,"[99999,99999]","[106,-106]",up,1,1.044,,,,,,001,2025-03-10_21h58.29.479,SL_sali_41,2021.2.3,Win32,60.0240096,,,124,0,124,0,1,,,,,,,,
,,"[""diamond"",""green"",""vert"",""up"",[106,106],[0,150]]",diamond,green,vert,up,"[106,106]","[0,150]",up,1,1.767,,,,,,001,2025-03-10_21h58.29.479,SL_sali_41,2021.2.3,Win32,60.0240096,,,125,0,125,0,1,,,,,,,,
,,"[""diamond"",""green"",""vert"",""up"",[-106,-106],[0,150]]",diamond,green,vert,up,"[-106,-106]","[0,150]",up,1,0.63,,,,,,001,2025-03-10_21h58.29.479,SL_sali_41,2021.2.3,Win32,60.0240096,,,126,0,126,0,1,,,,,,,,
,,"[""circle"",""red"",""vert"",""up"",[-106,-106],[150,0]]",circle,red,vert,up,"[-106,-106]","[150,0]",up,1,0.803,,,,,,001,2025-03-10_21h58.29.479,SL_sali_41,2021.2.3,Win32,60.0240096,,,127,0,127,0,1,,,,,,,,
,,,,,,,,,,,,,,,,,001,2025-03-10_21h58.29.479,SL_sali_41,2021.2.3,Win32,60.0240096,,,,,,,,3,space,115.421,2,0,2,0,1
,,"[""circle"",""no_dis"",""hori"",""left"",[99999,99999],[-106,-106]]",circle,no_dis,hori,left,"[99999,99999]","[-106,-106]",left,1,0.918,,,,,,001,2025-03-10_21h58.29.479,SL_sali_41,2021.2.3,Win32,60.0240096,,,0,0,0,0,1,,,,,,,,
,,"[""diamond"",""red"",""vert"",""up"",[-106,-106],[0,-150]]",diamond,red,vert,up,"[-106,-106]","[0,-150]",up,1,1.088,,,,,,001,2025-03-10_21h58.29.479,SL_sali_41,2021.2.3,Win32,60.0240096,,,1,0,1,0,1,,,,,,,,
,,"[""diamond"",""green"",""vert"",""up"",[0,150],[150,0]]",diamond,green,vert,up,"[0,150]","[150,0]",up,1,0.933,,,,,,001,2025-03-10_21h58.29.479,SL_sali_41,2021.2.3,Win32,60.0240096,,,2,0,2,0,1,,,,,,,,
,,"[""diamond"",""green"",""vert"",""up"",[0,150],[-150,0]]",diamond,green,vert,up,"[0,150]","[-150,0]",up,1,0.843,,,,,,001,2025-03-10_21h58.29.479,SL_sali_41,2021.2.3,Win32,60.0240096,,,3,0,3,0,1,,,,,,,,
,,"[""circle"",""green"",""vert"",""up"",[-106,-106],[106,-106]]",circle,green,vert,up,"[-106,-106]","[106,-106]",up,1,1.081,,,,,,001,2025-03-10_21h58.29.479,SL_sali_41,2021.2.3,Win32,60.0240096,,,4,0,4,0,1,,,,,,,,
,,"[""circle"",""no_dis"",""hori"",""left"",[99999,99999],[-150,0]]",circle,no_dis,hori,left,"[99999,99999]","[-150,0]",left,1,0.645,,,,,,001,2025-03-10_21h58.29.479,SL_sali_41,2021.2.3,Win32,60.0240096,,,5,0,5,0,1,,,,,,,,
,,"[""circle"",""red"",""hori"",""left"",[0,-150],[0,150]]",circle,red,hori,left,"[0,-150]","[0,150]",left,1,0.705,,,,,,001,2025-03-10_21h58.29.479,SL_sali_41,2021.2.3,Win32,60.0240096,,,6,0,6,0,1,,,,,,,,
,,"[""diamond"",""no_dis"",""vert"",""up"",[99999,99999],[106,-106]]",diamond,no_dis,vert,up,"[99999,99999]","[106,-106]",up,1,1.077,,,,,,001,2025-03-10_21h58.29.479,SL_sali_41,2021.2.3,Win32,60.0240096,,,7,0,7,0,1,,,,,,,,
,,"[""circle"",""green"",""hori"",""left"",[106,106],[-106,106]]",circle,green,hori,left,"[106,106]","[-106,106]",left,1,1.013,,,,,,001,2025-03-10_21h58.29.479,SL_sali_41,2021.2.3,Win32,60.0240096,,,8,0,8,0,1,,,,,,,,
,,"[""circle"",""green"",""vert"",""up"",[150,0],[0,-150]]",circle,green,vert,up,"[150,0]","[0,-150]",left,0,1.1,,,,,,001,2025-03-10_21h58.29.479,SL_sali_41,2021.2.3,Win32,60.0240096,,,9,0,9,0,1,,,,,,,,
,,"[""diamond"",""red"",""hori"",""left"",[-106,106],[-150,0]]",diamond,red,hori,left,"[-106,106]","[-150,0]",left,1,1.326,,,,,,001,2025-03-10_21h58.29.479,SL_sali_41,2021.2.3,Win32,60.0240096,,,10,0,10,0,1,,,,,,,,
,,"[""circle"",""red"",""hori"",""left"",[-106,-106],[0,-150]]",circle,red,hori,left,"[-106,-106]","[0,-150]",left,1,1.578,,,,,,001,2025-03-10_21h58.29.479,SL_sali_41,2021.2.3,Win32,60.0240096,,,11,0,11,0,1,,,,,,,,
,,"[""diamond"",""red"",""hori"",""left"",[0,150],[-106,106]]",diamond,red,hori,left,"[0,150]","[-106,106]",left,1,1.39,,,,,,001,2025-03-10_21h58.29.479,SL_sali_41,2021.2.3,Win32,60.0240096,,,12,0,12,0,1,,,,,,,,
,,"[""circle"",""green"",""vert"",""up"",[-150,0],[0,-150]]",circle,green,vert,up,"[-150,0]","[0,-150]",up,1,1.082,,,,,,001,2025-03-10_21h58.29.479,SL_sali_41,2021.2.3,Win32,60.0240096,,,13,0,13,0,1,,,,,,,,
,,"[""circle"",""green"",""hori"",""left"",[-106,-106],[0,-150]]",circle,green,hori,left,"[-106,-106]","[0,-150]",left,1,0.969,,,,,,001,2025-03-10_21h58.29.479,SL_sali_41,2021.2.3,Win32,60.0240096,,,14,0,14,0,1,,,,,,,,
,,"[""circle"",""green"",""vert"",""up"",[-106,-106],[150,0]]",circle,green,vert,up,"[-106,-106]","[150,0]",up,1,0.65,,,,,,001,2025-03-10_21h58.29.479,SL_sali_41,2021.2.3,Win32,60.0240096,,,15,0,15,0,1,,,,,,,,
,,"[""circle"",""red"",""vert"",""up"",[106,-106],[0,-150]]",circle,red,vert,up,"[106,-106]","[0,-150]",up,1,1.097,,,,,,001,2025-03-10_21h58.29.479,SL_sali_41,2021.2.3,Win32,60.0240096,,,16,0,16,0,1,,,,,,,,
,,"[""circle"",""no_dis"",""hori"",""left"",[99999,99999],[0,150]]",circle,no_dis,hori,left,"[99999,99999]","[0,150]",left,1,0.851,,,,,,001,2025-03-10_21h58.29.479,SL_sali_41,2021.2.3,Win32,60.0240096,,,17,0,17,0,1,,,,,,,,
,,"[""diamond"",""red"",""vert"",""up"",[-150,0],[0,150]]",diamond,red,vert,up,"[-150,0]","[0,150]",left,0,0.796,,,,,,001,2025-03-10_21h58.29.479,SL_sali_41,2021.2.3,Win32,60.0240096,,,18,0,18,0,1,,,,,,,,
,,"[""diamond"",""green"",""hori"",""left"",[-150,0],[0,-150]]",diamond,green,hori,left,"[-150,0]","[0,-150]",left,1,1.093,,,,,,001,2025-03-10_21h58.29.479,SL_sali_41,2021.2.3,Win32,60.0240096,,,19,0,19,0,1,,,,,,,,
,,"[""circle"",""green"",""hori"",""left"",[106,-106],[-106,-106]]",circle,green,hori,left,"[106,-106]","[-106,-106]",left,1,0.971,,,,,,001,2025-03-10_21h58.29.479,SL_sali_41,2021.2.3,Win32,60.0240096,,,20,0,20,0,1,,,,,,,,
,,"[""circle"",""red"",""hori"",""left"",[-150,0],[106,106]]",circle,red,hori,left,"[-150,0]","[106,106]",left,1,0.678,,,,,,001,2025-03-10_21h58.29.479,SL_sali_41,2021.2.3,Win32,60.0240096,,,21,0,21,0,1,,,,,,,,
,,"[""diamond"",""no_dis"",""hori"",""left"",[99999,99999],[-150,0]]",diamond,no_dis,hori,left,"[99999,99999]","[-150,0]",left,1,1.045,,,,,,001,2025-03-10_21h58.29.479,SL_sali_41,2021.2.3,Win32,60.0240096,,,22,0,22,0,1,,,,,,,,
,,"[""diamond"",""green"",""vert"",""up"",[-106,-106],[150,0]]",diamond,green,vert,up,"[-106,-106]","[150,0]",up,1,0.873,,,,,,001,2025-03-10_21h58.29.479,SL_sali_41,2021.2.3,Win32,60.0240096,,,23,0,23,0,1,,,,,,,,
,,"[""diamond"",""red"",""vert"",""up"",[-150,0],[106,-106]]",diamond,red,vert,up,"[-150,0]","[106,-106]",up,1,1.226,,,,,,001,2025-03-10_21h58.29.479,SL_sali_41,2021.2.3,Win32,60.0240096,,,24,0,24,0,1,,,,,,,,
,,"[""diamond"",""green"",""vert"",""up"",[0,-150],[106,-106]]",diamond,green,vert,up,"[0,-150]","[106,-106]",up,1,1.106,,,,,,001,2025-03-10_21h58.29.479,SL_sali_41,2021.2.3,Win32,60.0240096,,,25,0,25,0,1,,,,,,,,
,,"[""diamond"",""red"",""hori"",""left"",[-106,-106],[-106,106]]",diamond,red,hori,left,"[-106,-106]","[-106,106]",left,1,1.475,,,,,,001,2025-03-10_21h58.29.479,SL_sali_41,2021.2.3,Win32,60.0240096,,,26,0,26,0,1,,,,,,,,
,,"[""diamond"",""red"",""hori"",""left"",[106,106],[-106,106]]",diamond,red,hori,left,"[106,106]","[-106,106]",up,0,0.828,,,,,,001,2025-03-10_21h58.29.479,SL_sali_41,2021.2.3,Win32,60.0240096,,,27,0,27,0,1,,,,,,,,
,,"[""circle"",""no_dis"",""hori"",""left"",[99999,99999],[150,0]]",circle,no_dis,hori,left,"[99999,99999]","[150,0]",up,0,0.829,,,,,,001,2025-03-10_21h58.29.479,SL_sali_41,2021.2.3,Win32,60.0240096,,,28,0,28,0,1,,,,,,,,
,,"[""diamond"",""no_dis"",""hori"",""left"",[99999,99999],[-106,106]]",diamond,no_dis,hori,left,"[99999,99999]","[-106,106]",left,1,0.914,,,,,,001,2025-03-10_21h58.29.479,SL_sali_41,2021.2.3,Win32,60.0240096,,,29,0,29,0,1,,,,,,,,
,,"[""diamond"",""no_dis"",""hori"",""left"",[99999,99999],[0,-150]]",diamond,no_dis,hori,left,"[99999,99999]","[0,-150]",left,1,1.16,,,,,,001,2025-03-10_21h58.29.479,SL_sali_41,2021.2.3,Win32,60.0240096,,,30,0,30,0,1,,,,,,,,
,,"[""circle"",""red"",""hori"",""left"",[0,-150],[106,106]]",circle,red,hori,left,"[0,-150]","[106,106]",up,0,1.919,,,,,,001,2025-03-10_21h58.29.479,SL_sali_41,2021.2.3,Win32,60.0240096,,,31,0,31,0,1,,,,,,,,
,,"[""diamond"",""green"",""vert"",""up"",[150,0],[-106,106]]",diamond,green,vert,up,"[150,0]","[-106,106]",up,1,1.115,,,,,,001,2025-03-10_21h58.29.479,SL_sali_41,2021.2.3,Win32,60.0240096,,,32,0,32,0,1,,,,,,,,
,,"[""circle"",""red"",""hori"",""left"",[-106,-106],[0,150]]",circle,red,hori,left,"[-106,-106]","[0,150]",left,1,2.049,,,,,,001,2025-03-10_21h58.29.479,SL_sali_41,2021.2.3,Win32,60.0240096,,,33,0,33,0,1,,,,,,,,
,,"[""circle"",""no_dis"",""vert"",""up"",[99999,99999],[-106,-106]]",circle,no_dis,vert,up,"[99999,99999]","[-106,-106]",left,0,2.622,,,,,,001,2025-03-10_21h58.29.479,SL_sali_41,2021.2.3,Win32,60.0240096,,,34,0,34,0,1,,,,,,,,
,,"[""circle"",""green"",""hori"",""left"",[-106,-106],[-106,106]]",circle,green,hori,left,"[-106,-106]","[-106,106]",left,1,0.91,,,,,,001,2025-03-10_21h58.29.479,SL_sali_41,2021.2.3,Win32,60.0240096,,,35,0,35,0,1,,,,,,,,
,,"[""circle"",""no_dis"",""vert"",""up"",[99999,99999],[150,0]]",circle,no_dis,vert,up,"[99999,99999]","[150,0]",up,1,2.148,,,,,,001,2025-03-10_21h58.29.479,SL_sali_41,2021.2.3,Win32,60.0240096,,,36,0,36,0,1,,,,,,,,
,,"[""circle"",""green"",""hori"",""left"",[-106,-106],[106,-106]]",circle,green,hori,left,"[-106,-106]","[106,-106]",left,1,2.945,,,,,,001,2025-03-10_21h58.29.479,SL_sali_41,2021.2.3,Win32,60.0240096,,,37,0,37,0,1,,,,,,,,
,,"[""circle"",""green"",""vert"",""up"",[-106,-106],[0,-150]]",circle,green,vert,up,"[-106,-106]","[0,-150]",up,1,1.998,,,,,,001,2025-03-10_21h58.29.479,SL_sali_41,2021.2.3,Win32,60.0240096,,,38,0,38,0,1,,,,,,,,
,,"[""circle"",""no_dis"",""vert"",""up"",[99999,99999],[106,-106]]",circle,no_dis,vert,up,"[99999,99999]","[106,-106]",up,1,2.821,,,,,,001,2025-03-10_21h58.29.479,SL_sali_41,2021.2.3,Win32,60.0240096,,,39,0,39,0,1,,,,,,,,
,,"[""circle"",""red"",""hori"",""left"",[-106,106],[106,-106]]",circle,red,hori,left,"[-106,106]","[106,-106]",left,1,1.381,,,,,,001,2025-03-10_21h58.29.479,SL_sali_41,2021.2.3,Win32,60.0240096,,,40,0,40,0,1,,,,,,,,
,,"[""circle"",""green"",""hori"",""left"",[106,-106],[0,150]]",circle,green,hori,left,"[106,-106]","[0,150]",,0,,,,,,,001,2025-03-10_21h58.29.479,SL_sali_41,2021.2.3,Win32,60.0240096,,,41,0,41,0,1,,,,,,,,
,,"[""circle"",""no_dis"",""vert"",""up"",[99999,99999],[106,-106]]",circle,no_dis,vert,up,"[99999,99999]","[106,-106]",up,1,1.996,,,,,,001,2025-03-10_21h58.29.479,SL_sali_41,2021.2.3,Win32,60.0240096,,,42,0,42,0,1,,,,,,,,
,,"[""diamond"",""green"",""hori"",""left"",[106,-106],[0,150]]",diamond,green,hori,left,"[106,-106]","[0,150]",left,1,2.412,,,,,,001,2025-03-10_21h58.29.479,SL_sali_41,2021.2.3,Win32,60.0240096,,,43,0,43,0,1,,,,,,,,
,,"[""circle"",""red"",""hori"",""left"",[150,0],[106,106]]",circle,red,hori,left,"[150,0]","[106,106]",left,1,1.046,,,,,,001,2025-03-10_21h58.29.479,SL_sali_41,2021.2.3,Win32,60.0240096,,,44,0,44,0,1,,,,,,,,
,,"[""circle"",""green"",""vert"",""up"",[106,106],[150,0]]",circle,green,vert,up,"[106,106]","[150,0]",up,1,1.101,,,,,,001,2025-03-10_21h58.29.479,SL_sali_41,2021.2.3,Win32,60.0240096,,,45,0,45,0,1,,,,,,,,
,,"[""circle"",""red"",""hori"",""left"",[0,150],[106,106]]",circle,red,hori,left,"[0,150]","[106,106]",left,1,1.765,,,,,,001,2025-03-10_21h58.29.479,SL_sali_41,2021.2.3,Win32,60.0240096,,,46,0,46,0,1,,,,,,,,
,,"[""diamond"",""green"",""hori"",""left"",[-150,0],[-106,-106]]",diamond,green,hori,left,"[-150,0]","[-106,-106]",left,1,1.276,,,,,,001,2025-03-10_21h58.29.479,SL_sali_41,2021.2.3,Win32,60.0240096,,,47,0,47,0,1,,,,,,,,
,,"[""diamond"",""no_dis"",""vert"",""up"",[99999,99999],[0,-150]]",diamond,no_dis,vert,up,"[99999,99999]","[0,-150]",up,1,0.961,,,,,,001,2025-03-10_21h58.29.479,SL_sali_41,2021.2.3,Win32,60.0240096,,,48,0,48,0,1,,,,,,,,
,,"[""diamond"",""no_dis"",""hori"",""left"",[99999,99999],[-150,0]]",diamond,no_dis,hori,left,"[99999,99999]","[-150,0]",up,0,0.858,,,,,,001,2025-03-10_21h58.29.479,SL_sali_41,2021.2.3,Win32,60.0240096,,,49,0,49,0,1,,,,,,,,
,,"[""circle"",""no_dis"",""hori"",""left"",[99999,99999],[106,-106]]",circle,no_dis,hori,left,"[99999,99999]","[106,-106]",left,1,1.715,,,,,,001,2025-03-10_21h58.29.479,SL_sali_41,2021.2.3,Win32,60.0240096,,,50,0,50,0,1,,,,,,,,
,,"[""circle"",""no_dis"",""hori"",""left"",[99999,99999],[-150,0]]",circle,no_dis,hori,left,"[99999,99999]","[-150,0]",left,1,2.478,,,,,,001,2025-03-10_21h58.29.479,SL_sali_41,2021.2.3,Win32,60.0240096,,,51,0,51,0,1,,,,,,,,
,,"[""diamond"",""green"",""vert"",""up"",[150,0],[106,106]]",diamond,green,vert,up,"[150,0]","[106,106]",up,1,2.641,,,,,,001,2025-03-10_21h58.29.479,SL_sali_41,2021.2.3,Win32,60.0240096,,,52,0,52,0,1,,,,,,,,
,,"[""diamond"",""green"",""hori"",""left"",[-106,-106],[0,-150]]",diamond,green,hori,left,"[-106,-106]","[0,-150]",left,1,1.769,,,,,,001,2025-03-10_21h58.29.479,SL_sali_41,2021.2.3,Win32,60.0240096,,,53,0,53,0,1,,,,,,,,
,,"[""circle"",""red"",""vert"",""up"",[106,106],[0,150]]",circle,red,vert,up,"[106,106]","[0,150]",up,1,1.801,,,,,,001,2025-03-10_21h58.29.479,SL_sali_41,2021.2.3,Win32,60.0240096,,,54,0,54,0,1,,,,,,,,
,,"[""diamond"",""red"",""vert"",""up"",[-106,106],[0,-150]]",diamond,red,vert,up,"[-106,106]","[0,-150]",up,1,1.185,,,,,,001,2025-03-10_21h58.29.479,SL_sali_41,2021.2.3,Win32,60.0240096,,,55,0,55,0,1,,,,,,,,
,,"[""circle"",""green"",""vert"",""up"",[-150,0],[0,-150]]",circle,green,vert,up,"[-150,0]","[0,-150]",up,1,0.908,,,,,,001,2025-03-10_21h58.29.479,SL_sali_41,2021.2.3,Win32,60.0240096,,,56,0,56,0,1,,,,,,,,
,,"[""diamond"",""red"",""hori"",""left"",[0,150],[0,-150]]",diamond,red,hori,left,"[0,150]","[0,-150]",left,1,1.05,,,,,,001,2025-03-10_21h58.29.479,SL_sali_41,2021.2.3,Win32,60.0240096,,,57,0,57,0,1,,,,,,,,
,,"[""circle"",""no_dis"",""vert"",""up"",[99999,99999],[106,106]]",circle,no_dis,vert,up,"[99999,99999]","[106,106]",up,1,1.301,,,,,,001,2025-03-10_21h58.29.479,SL_sali_41,2021.2.3,Win32,60.0240096,,,58,0,58,0,1,,,,,,,,
,,"[""circle"",""red"",""vert"",""up"",[-106,-106],[150,0]]",circle,red,vert,up,"[-106,-106]","[150,0]",up,1,0.686,,,,,,001,2025-03-10_21h58.29.479,SL_sali_41,2021.2.3,Win32,60.0240096,,,59,0,59,0,1,,,,,,,,
,,"[""diamond"",""green"",""hori"",""left"",[150,0],[0,-150]]",diamond,green,hori,left,"[150,0]","[0,-150]",left,1,1.153,,,,,,001,2025-03-10_21h58.29.479,SL_sali_41,2021.2.3,Win32,60.0240096,,,60,0,60,0,1,,,,,,,,
,,"[""circle"",""no_dis"",""vert"",""up"",[99999,99999],[0,150]]",circle,no_dis,vert,up,"[99999,99999]","[0,150]",up,1,1.124,,,,,,001,2025-03-10_21h58.29.479,SL_sali_41,2021.2.3,Win32,60.0240096,,,61,0,61,0,1,,,,,,,,
,,"[""circle"",""green"",""vert"",""up"",[-106,106],[106,106]]",circle,green,vert,up,"[-106,106]","[106,106]",up,1,0.864,,,,,,001,2025-03-10_21h58.29.479,SL_sali_41,2021.2.3,Win32,60.0240096,,,62,0,62,0,1,,,,,,,,
,,"[""circle"",""red"",""vert"",""up"",[106,-106],[-106,-106]]",circle,red,vert,up,"[106,-106]","[-106,-106]",up,1,1.217,,,,,,001,2025-03-10_21h58.29.479,SL_sali_41,2021.2.3,Win32,60.0240096,,,63,0,63,0,1,,,,,,,,
