﻿key_resp.keys,key_resp.rt,trial_para,tar_shape,dis_color_condi,tar_line,cor_resp,dis_loc,tar_loc,resp.keys,resp.corr,resp.rt,trials.thisRepN,trials.thisTrialN,trials.thisN,trials.thisIndex,trials.ran,participant,date,expName,psychopyVersion,OS,frameRate,key_resp_2.keys,key_resp_2.rt,trials_2.thisRepN,trials_2.thisTrialN,trials_2.thisN,trials_2.thisIndex,trials_2.ran,block_num,key_resp_3.keys,key_resp_3.rt,trials_3.thisRepN,trials_3.thisTrialN,trials_3.thisN,trials_3.thisIndex,trials_3.ran
space,27.9869,"[""diamond"",""green"",""vert"",""up"",[0,-150],[106,-106]]",diamond,green,vert,up,"[0,-150]","[106,-106]",left,0,2.0536,0,0,0,0,1,001,2025-03-10_18h51.47.299,SL_sali_41,2021.2.3,Win32,60.24096386,,,,,,,,,,,,,,,
,,"[""circle"",""green"",""hori"",""left"",[150,0],[106,106]]",circle,green,hori,left,"[150,0]","[106,106]",up,0,0.7432,1,0,1,0,1,001,2025-03-10_18h51.47.299,SL_sali_41,2021.2.3,Win32,60.24096386,,,,,,,,,,,,,,,
,,"[""circle"",""no_dis"",""hori"",""left"",[99999,99999],[-106,106]]",circle,no_dis,hori,left,"[99999,99999]","[-106,106]",up,0,1.6437,2,0,2,0,1,001,2025-03-10_18h51.47.299,SL_sali_41,2021.2.3,Win32,60.24096386,,,,,,,,,,,,,,,
,,"[""diamond"",""no_dis"",""hori"",""left"",[99999,99999],[0,-150]]",diamond,no_dis,hori,left,"[99999,99999]","[0,-150]",,0,,3,0,3,0,1,001,2025-03-10_18h51.47.299,SL_sali_41,2021.2.3,Win32,60.24096386,,,,,,,,,,,,,,,
,,"[""diamond"",""red"",""hori"",""left"",[-150,0],[106,-106]]",diamond,red,hori,left,"[-150,0]","[106,-106]",up,0,2.0022,4,0,4,0,1,001,2025-03-10_18h51.47.299,SL_sali_41,2021.2.3,Win32,60.24096386,,,,,,,,,,,,,,,
,,"[""diamond"",""red"",""vert"",""up"",[106,-106],[106,106]]",diamond,red,vert,up,"[106,-106]","[106,106]",left,0,0.9807,5,0,5,0,1,001,2025-03-10_18h51.47.299,SL_sali_41,2021.2.3,Win32,60.24096386,,,,,,,,,,,,,,,
,,"[""circle"",""no_dis"",""vert"",""up"",[99999,99999],[0,-150]]",circle,no_dis,vert,up,"[99999,99999]","[0,-150]",left,0,0.6596,6,0,6,0,1,001,2025-03-10_18h51.47.299,SL_sali_41,2021.2.3,Win32,60.24096386,,,,,,,,,,,,,,,
,,"[""diamond"",""red"",""vert"",""up"",[106,-106],[-106,-106]]",diamond,red,vert,up,"[106,-106]","[-106,-106]",left,0,0.9007,7,0,7,0,1,001,2025-03-10_18h51.47.299,SL_sali_41,2021.2.3,Win32,60.24096386,,,,,,,,,,,,,,,
,,"[""circle"",""no_dis"",""hori"",""left"",[99999,99999],[0,150]]",circle,no_dis,hori,left,"[99999,99999]","[0,150]",left,1,1.3495,8,0,8,0,1,001,2025-03-10_18h51.47.299,SL_sali_41,2021.2.3,Win32,60.24096386,,,,,,,,,,,,,,,
,,"[""circle"",""green"",""hori"",""left"",[106,106],[150,0]]",circle,green,hori,left,"[106,106]","[150,0]",left,1,1.484,9,0,9,0,1,001,2025-03-10_18h51.47.299,SL_sali_41,2021.2.3,Win32,60.24096386,,,,,,,,,,,,,,,
,,"[""diamond"",""green"",""vert"",""up"",[0,-150],[106,-106]]",diamond,green,vert,up,"[0,-150]","[106,-106]",,0,,,,,,,001,2025-03-10_18h51.47.299,SL_sali_41,2021.2.3,Win32,60.24096386,space,13.1057,0,0,0,0,1,,,,,,,,
,,"[""circle"",""green"",""hori"",""left"",[150,0],[106,106]]",circle,green,hori,left,"[150,0]","[106,106]",left,1,0.5396,,,,,,001,2025-03-10_18h51.47.299,SL_sali_41,2021.2.3,Win32,60.24096386,,,1,0,1,0,1,,,,,,,,
,,"[""circle"",""no_dis"",""hori"",""left"",[99999,99999],[-106,106]]",circle,no_dis,hori,left,"[99999,99999]","[-106,106]",up,0,0.6262,,,,,,001,2025-03-10_18h51.47.299,SL_sali_41,2021.2.3,Win32,60.24096386,,,2,0,2,0,1,,,,,,,,
,,"[""diamond"",""no_dis"",""hori"",""left"",[99999,99999],[0,-150]]",diamond,no_dis,hori,left,"[99999,99999]","[0,-150]",up,0,0.4689,,,,,,001,2025-03-10_18h51.47.299,SL_sali_41,2021.2.3,Win32,60.24096386,,,3,0,3,0,1,,,,,,,,
,,"[""diamond"",""red"",""hori"",""left"",[-150,0],[106,-106]]",diamond,red,hori,left,"[-150,0]","[106,-106]",left,1,0.7584,,,,,,001,2025-03-10_18h51.47.299,SL_sali_41,2021.2.3,Win32,60.24096386,,,4,0,4,0,1,,,,,,,,
,,"[""diamond"",""red"",""vert"",""up"",[106,-106],[106,106]]",diamond,red,vert,up,"[106,-106]","[106,106]",left,0,0.926,,,,,,001,2025-03-10_18h51.47.299,SL_sali_41,2021.2.3,Win32,60.24096386,,,5,0,5,0,1,,,,,,,,
,,"[""circle"",""no_dis"",""vert"",""up"",[99999,99999],[0,-150]]",circle,no_dis,vert,up,"[99999,99999]","[0,-150]",left,0,2.589,,,,,,001,2025-03-10_18h51.47.299,SL_sali_41,2021.2.3,Win32,60.24096386,,,6,0,6,0,1,,,,,,,,
,,"[""diamond"",""red"",""vert"",""up"",[106,-106],[-106,-106]]",diamond,red,vert,up,"[106,-106]","[-106,-106]",up,1,1.6877,,,,,,001,2025-03-10_18h51.47.299,SL_sali_41,2021.2.3,Win32,60.24096386,,,7,0,7,0,1,,,,,,,,
,,"[""circle"",""no_dis"",""hori"",""left"",[99999,99999],[0,150]]",circle,no_dis,hori,left,"[99999,99999]","[0,150]",left,1,2.9087,,,,,,001,2025-03-10_18h51.47.299,SL_sali_41,2021.2.3,Win32,60.24096386,,,8,0,8,0,1,,,,,,,,
,,"[""circle"",""green"",""hori"",""left"",[106,106],[150,0]]",circle,green,hori,left,"[106,106]","[150,0]",left,1,2.5331,,,,,,001,2025-03-10_18h51.47.299,SL_sali_41,2021.2.3,Win32,60.24096386,,,9,0,9,0,1,,,,,,,,
,,"[""diamond"",""green"",""hori"",""left"",[106,-106],[-106,-106]]",diamond,green,hori,left,"[106,-106]","[-106,-106]",left,1,2.8618,,,,,,001,2025-03-10_18h51.47.299,SL_sali_41,2021.2.3,Win32,60.24096386,,,10,0,10,0,1,,,,,,,,
,,"[""diamond"",""red"",""hori"",""left"",[-106,-106],[106,106]]",diamond,red,hori,left,"[-106,-106]","[106,106]",left,1,2.2718,,,,,,001,2025-03-10_18h51.47.299,SL_sali_41,2021.2.3,Win32,60.24096386,,,11,0,11,0,1,,,,,,,,
,,"[""circle"",""red"",""vert"",""up"",[0,150],[-106,-106]]",circle,red,vert,up,"[0,150]","[-106,-106]",up,1,2.7145,,,,,,001,2025-03-10_18h51.47.299,SL_sali_41,2021.2.3,Win32,60.24096386,,,12,0,12,0,1,,,,,,,,
,,"[""diamond"",""no_dis"",""vert"",""up"",[99999,99999],[0,-150]]",diamond,no_dis,vert,up,"[99999,99999]","[0,-150]",up,1,2.3192,,,,,,001,2025-03-10_18h51.47.299,SL_sali_41,2021.2.3,Win32,60.24096386,,,13,0,13,0,1,,,,,,,,
,,"[""diamond"",""no_dis"",""vert"",""up"",[99999,99999],[150,0]]",diamond,no_dis,vert,up,"[99999,99999]","[150,0]",up,1,1.1463,,,,,,001,2025-03-10_18h51.47.299,SL_sali_41,2021.2.3,Win32,60.24096386,,,14,0,14,0,1,,,,,,,,
,,"[""circle"",""no_dis"",""vert"",""up"",[99999,99999],[-150,0]]",circle,no_dis,vert,up,"[99999,99999]","[-150,0]",up,1,2.3122,,,,,,001,2025-03-10_18h51.47.299,SL_sali_41,2021.2.3,Win32,60.24096386,,,15,0,15,0,1,,,,,,,,
,,"[""circle"",""no_dis"",""vert"",""up"",[99999,99999],[0,-150]]",circle,no_dis,vert,up,"[99999,99999]","[0,-150]",up,1,1.6118,,,,,,001,2025-03-10_18h51.47.299,SL_sali_41,2021.2.3,Win32,60.24096386,,,16,0,16,0,1,,,,,,,,
,,"[""diamond"",""green"",""vert"",""up"",[106,-106],[150,0]]",diamond,green,vert,up,"[106,-106]","[150,0]",left,0,2.1615,,,,,,001,2025-03-10_18h51.47.299,SL_sali_41,2021.2.3,Win32,60.24096386,,,17,0,17,0,1,,,,,,,,
,,"[""diamond"",""no_dis"",""hori"",""left"",[99999,99999],[-150,0]]",diamond,no_dis,hori,left,"[99999,99999]","[-150,0]",left,1,1.7403,,,,,,001,2025-03-10_18h51.47.299,SL_sali_41,2021.2.3,Win32,60.24096386,,,18,0,18,0,1,,,,,,,,
,,"[""circle"",""no_dis"",""hori"",""left"",[99999,99999],[0,150]]",circle,no_dis,hori,left,"[99999,99999]","[0,150]",left,1,1.6414,,,,,,001,2025-03-10_18h51.47.299,SL_sali_41,2021.2.3,Win32,60.24096386,,,19,0,19,0,1,,,,,,,,
,,"[""diamond"",""green"",""hori"",""left"",[-106,106],[0,-150]]",diamond,green,hori,left,"[-106,106]","[0,-150]",left,1,1.9472,,,,,,001,2025-03-10_18h51.47.299,SL_sali_41,2021.2.3,Win32,60.24096386,,,20,0,20,0,1,,,,,,,,
,,"[""circle"",""red"",""hori"",""left"",[150,0],[106,106]]",circle,red,hori,left,"[150,0]","[106,106]",up,0,2.1345,,,,,,001,2025-03-10_18h51.47.299,SL_sali_41,2021.2.3,Win32,60.24096386,,,21,0,21,0,1,,,,,,,,
,,"[""circle"",""red"",""vert"",""up"",[106,106],[-106,-106]]",circle,red,vert,up,"[106,106]","[-106,-106]",up,1,2.0651,,,,,,001,2025-03-10_18h51.47.299,SL_sali_41,2021.2.3,Win32,60.24096386,,,22,0,22,0,1,,,,,,,,
,,"[""diamond"",""red"",""hori"",""left"",[106,-106],[-106,106]]",diamond,red,hori,left,"[106,-106]","[-106,106]",left,1,2.1164,,,,,,001,2025-03-10_18h51.47.299,SL_sali_41,2021.2.3,Win32,60.24096386,,,23,0,23,0,1,,,,,,,,
,,"[""diamond"",""green"",""hori"",""left"",[-106,-106],[106,-106]]",diamond,green,hori,left,"[-106,-106]","[106,-106]",,0,,,,,,,001,2025-03-10_18h51.47.299,SL_sali_41,2021.2.3,Win32,60.24096386,,,24,0,24,0,1,,,,,,,,
,,"[""diamond"",""red"",""hori"",""left"",[0,-150],[-150,0]]",diamond,red,hori,left,"[0,-150]","[-150,0]",left,1,1.3086,,,,,,001,2025-03-10_18h51.47.299,SL_sali_41,2021.2.3,Win32,60.24096386,,,25,0,25,0,1,,,,,,,,
,,"[""diamond"",""green"",""hori"",""left"",[0,-150],[150,0]]",diamond,green,hori,left,"[0,-150]","[150,0]",left,1,1.081,,,,,,001,2025-03-10_18h51.47.299,SL_sali_41,2021.2.3,Win32,60.24096386,,,26,0,26,0,1,,,,,,,,
,,"[""circle"",""red"",""hori"",""left"",[-106,-106],[106,106]]",circle,red,hori,left,"[-106,-106]","[106,106]",,0,,,,,,,001,2025-03-10_18h51.47.299,SL_sali_41,2021.2.3,Win32,60.24096386,,,27,0,27,0,1,,,,,,,,
,,"[""diamond"",""red"",""hori"",""left"",[106,-106],[150,0]]",diamond,red,hori,left,"[106,-106]","[150,0]",left,1,2.6408,,,,,,001,2025-03-10_18h51.47.299,SL_sali_41,2021.2.3,Win32,60.24096386,,,28,0,28,0,1,,,,,,,,
,,"[""circle"",""red"",""vert"",""up"",[0,150],[106,-106]]",circle,red,vert,up,"[0,150]","[106,-106]",up,1,2.1847,,,,,,001,2025-03-10_18h51.47.299,SL_sali_41,2021.2.3,Win32,60.24096386,,,29,0,29,0,1,,,,,,,,
,,"[""diamond"",""no_dis"",""hori"",""left"",[99999,99999],[-106,106]]",diamond,no_dis,hori,left,"[99999,99999]","[-106,106]",left,1,1.3422,,,,,,001,2025-03-10_18h51.47.299,SL_sali_41,2021.2.3,Win32,60.24096386,,,30,0,30,0,1,,,,,,,,
,,"[""diamond"",""red"",""vert"",""up"",[106,-106],[-150,0]]",diamond,red,vert,up,"[106,-106]","[-150,0]",up,1,1.6036,,,,,,001,2025-03-10_18h51.47.299,SL_sali_41,2021.2.3,Win32,60.24096386,,,31,0,31,0,1,,,,,,,,
,,"[""diamond"",""red"",""hori"",""left"",[106,106],[0,-150]]",diamond,red,hori,left,"[106,106]","[0,-150]",left,1,1.6793,,,,,,001,2025-03-10_18h51.47.299,SL_sali_41,2021.2.3,Win32,60.24096386,,,32,0,32,0,1,,,,,,,,
,,"[""circle"",""no_dis"",""hori"",""left"",[99999,99999],[-106,-106]]",circle,no_dis,hori,left,"[99999,99999]","[-106,-106]",up,0,1.9293,,,,,,001,2025-03-10_18h51.47.299,SL_sali_41,2021.2.3,Win32,60.24096386,,,33,0,33,0,1,,,,,,,,
,,"[""diamond"",""no_dis"",""vert"",""up"",[99999,99999],[-106,106]]",diamond,no_dis,vert,up,"[99999,99999]","[-106,106]",up,1,1.1233,,,,,,001,2025-03-10_18h51.47.299,SL_sali_41,2021.2.3,Win32,60.24096386,,,34,0,34,0,1,,,,,,,,
,,"[""diamond"",""green"",""vert"",""up"",[0,150],[-106,-106]]",diamond,green,vert,up,"[0,150]","[-106,-106]",left,0,2.4346,,,,,,001,2025-03-10_18h51.47.299,SL_sali_41,2021.2.3,Win32,60.24096386,,,35,0,35,0,1,,,,,,,,
,,"[""circle"",""green"",""vert"",""up"",[106,-106],[106,106]]",circle,green,vert,up,"[106,-106]","[106,106]",up,1,1.9965,,,,,,001,2025-03-10_18h51.47.299,SL_sali_41,2021.2.3,Win32,60.24096386,,,36,0,36,0,1,,,,,,,,
,,"[""diamond"",""red"",""vert"",""up"",[150,0],[106,106]]",diamond,red,vert,up,"[150,0]","[106,106]",up,1,1.9915,,,,,,001,2025-03-10_18h51.47.299,SL_sali_41,2021.2.3,Win32,60.24096386,,,37,0,37,0,1,,,,,,,,
,,"[""diamond"",""green"",""vert"",""up"",[0,-150],[-106,106]]",diamond,green,vert,up,"[0,-150]","[-106,106]",left,0,2.5846,,,,,,001,2025-03-10_18h51.47.299,SL_sali_41,2021.2.3,Win32,60.24096386,,,38,0,38,0,1,,,,,,,,
,,"[""circle"",""green"",""hori"",""left"",[0,150],[-106,106]]",circle,green,hori,left,"[0,150]","[-106,106]",up,0,1.5565,,,,,,001,2025-03-10_18h51.47.299,SL_sali_41,2021.2.3,Win32,60.24096386,,,39,0,39,0,1,,,,,,,,
,,"[""circle"",""no_dis"",""vert"",""up"",[99999,99999],[-106,-106]]",circle,no_dis,vert,up,"[99999,99999]","[-106,-106]",up,1,2.1407,,,,,,001,2025-03-10_18h51.47.299,SL_sali_41,2021.2.3,Win32,60.24096386,,,40,0,40,0,1,,,,,,,,
,,"[""circle"",""green"",""vert"",""up"",[-106,106],[-106,-106]]",circle,green,vert,up,"[-106,106]","[-106,-106]",up,1,1.7222,,,,,,001,2025-03-10_18h51.47.299,SL_sali_41,2021.2.3,Win32,60.24096386,,,41,0,41,0,1,,,,,,,,
,,"[""diamond"",""red"",""hori"",""left"",[106,-106],[-106,-106]]",diamond,red,hori,left,"[106,-106]","[-106,-106]",up,0,2.6538,,,,,,001,2025-03-10_18h51.47.299,SL_sali_41,2021.2.3,Win32,60.24096386,,,42,0,42,0,1,,,,,,,,
,,"[""diamond"",""no_dis"",""hori"",""left"",[99999,99999],[-150,0]]",diamond,no_dis,hori,left,"[99999,99999]","[-150,0]",left,1,2.2153,,,,,,001,2025-03-10_18h51.47.299,SL_sali_41,2021.2.3,Win32,60.24096386,,,43,0,43,0,1,,,,,,,,
,,"[""diamond"",""green"",""hori"",""left"",[-106,-106],[-150,0]]",diamond,green,hori,left,"[-106,-106]","[-150,0]",left,1,1.8693,,,,,,001,2025-03-10_18h51.47.299,SL_sali_41,2021.2.3,Win32,60.24096386,,,44,0,44,0,1,,,,,,,,
,,"[""circle"",""no_dis"",""hori"",""left"",[99999,99999],[-106,-106]]",circle,no_dis,hori,left,"[99999,99999]","[-106,-106]",left,1,1.2084,,,,,,001,2025-03-10_18h51.47.299,SL_sali_41,2021.2.3,Win32,60.24096386,,,45,0,45,0,1,,,,,,,,
,,"[""diamond"",""red"",""vert"",""up"",[106,106],[-150,0]]",diamond,red,vert,up,"[106,106]","[-150,0]",up,1,1.783,,,,,,001,2025-03-10_18h51.47.299,SL_sali_41,2021.2.3,Win32,60.24096386,,,46,0,46,0,1,,,,,,,,
,,"[""circle"",""red"",""hori"",""left"",[-106,106],[106,-106]]",circle,red,hori,left,"[-106,106]","[106,-106]",left,1,1.7859,,,,,,001,2025-03-10_18h51.47.299,SL_sali_41,2021.2.3,Win32,60.24096386,,,47,0,47,0,1,,,,,,,,
,,"[""circle"",""red"",""vert"",""up"",[106,106],[0,150]]",circle,red,vert,up,"[106,106]","[0,150]",up,1,2.1676,,,,,,001,2025-03-10_18h51.47.299,SL_sali_41,2021.2.3,Win32,60.24096386,,,48,0,48,0,1,,,,,,,,
,,"[""circle"",""no_dis"",""hori"",""left"",[99999,99999],[150,0]]",circle,no_dis,hori,left,"[99999,99999]","[150,0]",left,1,2.4043,,,,,,001,2025-03-10_18h51.47.299,SL_sali_41,2021.2.3,Win32,60.24096386,,,49,0,49,0,1,,,,,,,,
,,"[""diamond"",""no_dis"",""vert"",""up"",[99999,99999],[106,-106]]",diamond,no_dis,vert,up,"[99999,99999]","[106,-106]",up,1,2.1493,,,,,,001,2025-03-10_18h51.47.299,SL_sali_41,2021.2.3,Win32,60.24096386,,,50,0,50,0,1,,,,,,,,
,,"[""diamond"",""green"",""vert"",""up"",[-150,0],[-106,106]]",diamond,green,vert,up,"[-150,0]","[-106,106]",left,0,1.7674,,,,,,001,2025-03-10_18h51.47.299,SL_sali_41,2021.2.3,Win32,60.24096386,,,51,0,51,0,1,,,,,,,,
,,"[""circle"",""green"",""hori"",""left"",[150,0],[-106,-106]]",circle,green,hori,left,"[150,0]","[-106,-106]",left,1,1.2497,,,,,,001,2025-03-10_18h51.47.299,SL_sali_41,2021.2.3,Win32,60.24096386,,,52,0,52,0,1,,,,,,,,
,,"[""circle"",""no_dis"",""vert"",""up"",[99999,99999],[0,150]]",circle,no_dis,vert,up,"[99999,99999]","[0,150]",left,0,2.4034,,,,,,001,2025-03-10_18h51.47.299,SL_sali_41,2021.2.3,Win32,60.24096386,,,53,0,53,0,1,,,,,,,,
,,"[""circle"",""red"",""hori"",""left"",[-150,0],[-106,106]]",circle,red,hori,left,"[-150,0]","[-106,106]",left,1,2.0272,,,,,,001,2025-03-10_18h51.47.299,SL_sali_41,2021.2.3,Win32,60.24096386,,,54,0,54,0,1,,,,,,,,
,,"[""circle"",""green"",""hori"",""left"",[-106,106],[-150,0]]",circle,green,hori,left,"[-106,106]","[-150,0]",left,1,1.8587,,,,,,001,2025-03-10_18h51.47.299,SL_sali_41,2021.2.3,Win32,60.24096386,,,55,0,55,0,1,,,,,,,,
,,"[""diamond"",""red"",""vert"",""up"",[106,-106],[-150,0]]",diamond,red,vert,up,"[106,-106]","[-150,0]",up,1,2.447,,,,,,001,2025-03-10_18h51.47.299,SL_sali_41,2021.2.3,Win32,60.24096386,,,56,0,56,0,1,,,,,,,,
,,"[""diamond"",""no_dis"",""vert"",""up"",[99999,99999],[106,106]]",diamond,no_dis,vert,up,"[99999,99999]","[106,106]",up,1,1.9883,,,,,,001,2025-03-10_18h51.47.299,SL_sali_41,2021.2.3,Win32,60.24096386,,,57,0,57,0,1,,,,,,,,
,,"[""circle"",""red"",""vert"",""up"",[-106,106],[106,-106]]",circle,red,vert,up,"[-106,106]","[106,-106]",left,0,2.0938,,,,,,001,2025-03-10_18h51.47.299,SL_sali_41,2021.2.3,Win32,60.24096386,,,58,0,58,0,1,,,,,,,,
,,"[""diamond"",""green"",""hori"",""left"",[106,106],[-106,106]]",diamond,green,hori,left,"[106,106]","[-106,106]",left,1,1.4878,,,,,,001,2025-03-10_18h51.47.299,SL_sali_41,2021.2.3,Win32,60.24096386,,,59,0,59,0,1,,,,,,,,
,,"[""diamond"",""no_dis"",""hori"",""left"",[99999,99999],[-106,-106]]",diamond,no_dis,hori,left,"[99999,99999]","[-106,-106]",left,1,1.3349,,,,,,001,2025-03-10_18h51.47.299,SL_sali_41,2021.2.3,Win32,60.24096386,,,60,0,60,0,1,,,,,,,,
,,"[""circle"",""red"",""hori"",""left"",[-150,0],[-106,-106]]",circle,red,hori,left,"[-150,0]","[-106,-106]",left,1,2.5064,,,,,,001,2025-03-10_18h51.47.299,SL_sali_41,2021.2.3,Win32,60.24096386,,,61,0,61,0,1,,,,,,,,
,,"[""diamond"",""green"",""vert"",""up"",[-150,0],[150,0]]",diamond,green,vert,up,"[-150,0]","[150,0]",up,1,2.7614,,,,,,001,2025-03-10_18h51.47.299,SL_sali_41,2021.2.3,Win32,60.24096386,,,62,0,62,0,1,,,,,,,,
,,"[""circle"",""green"",""vert"",""up"",[150,0],[-106,106]]",circle,green,vert,up,"[150,0]","[-106,106]",up,1,1.8552,,,,,,001,2025-03-10_18h51.47.299,SL_sali_41,2021.2.3,Win32,60.24096386,,,63,0,63,0,1,,,,,,,,
,,"[""circle"",""red"",""vert"",""up"",[106,-106],[150,0]]",circle,red,vert,up,"[106,-106]","[150,0]",up,1,2.2204,,,,,,001,2025-03-10_18h51.47.299,SL_sali_41,2021.2.3,Win32,60.24096386,,,64,0,64,0,1,,,,,,,,
,,"[""circle"",""green"",""vert"",""up"",[106,-106],[106,106]]",circle,green,vert,up,"[106,-106]","[106,106]",up,1,2.3723,,,,,,001,2025-03-10_18h51.47.299,SL_sali_41,2021.2.3,Win32,60.24096386,,,65,0,65,0,1,,,,,,,,
,,"[""diamond"",""no_dis"",""vert"",""up"",[99999,99999],[0,150]]",diamond,no_dis,vert,up,"[99999,99999]","[0,150]",up,1,1.2912,,,,,,001,2025-03-10_18h51.47.299,SL_sali_41,2021.2.3,Win32,60.24096386,,,66,0,66,0,1,,,,,,,,
,,"[""circle"",""green"",""hori"",""left"",[-106,-106],[106,-106]]",circle,green,hori,left,"[-106,-106]","[106,-106]",left,1,2.1571,,,,,,001,2025-03-10_18h51.47.299,SL_sali_41,2021.2.3,Win32,60.24096386,,,67,0,67,0,1,,,,,,,,
,,"[""circle"",""green"",""hori"",""left"",[0,150],[106,-106]]",circle,green,hori,left,"[0,150]","[106,-106]",left,1,1.5502,,,,,,001,2025-03-10_18h51.47.299,SL_sali_41,2021.2.3,Win32,60.24096386,,,68,0,68,0,1,,,,,,,,
,,"[""circle"",""green"",""hori"",""left"",[106,-106],[-106,106]]",circle,green,hori,left,"[106,-106]","[-106,106]",left,1,1.1016,,,,,,001,2025-03-10_18h51.47.299,SL_sali_41,2021.2.3,Win32,60.24096386,,,69,0,69,0,1,,,,,,,,
,,"[""circle"",""no_dis"",""hori"",""left"",[99999,99999],[-106,-106]]",circle,no_dis,hori,left,"[99999,99999]","[-106,-106]",left,1,1.0757,,,,,,001,2025-03-10_18h51.47.299,SL_sali_41,2021.2.3,Win32,60.24096386,,,70,0,70,0,1,,,,,,,,
,,"[""diamond"",""no_dis"",""hori"",""left"",[99999,99999],[106,-106]]",diamond,no_dis,hori,left,"[99999,99999]","[106,-106]",left,1,1.7885,,,,,,001,2025-03-10_18h51.47.299,SL_sali_41,2021.2.3,Win32,60.24096386,,,71,0,71,0,1,,,,,,,,
,,"[""diamond"",""red"",""hori"",""left"",[106,106],[150,0]]",diamond,red,hori,left,"[106,106]","[150,0]",left,1,2.2493,,,,,,001,2025-03-10_18h51.47.299,SL_sali_41,2021.2.3,Win32,60.24096386,,,72,0,72,0,1,,,,,,,,
,,"[""circle"",""green"",""vert"",""up"",[106,-106],[0,150]]",circle,green,vert,up,"[106,-106]","[0,150]",up,1,1.2317,,,,,,001,2025-03-10_18h51.47.299,SL_sali_41,2021.2.3,Win32,60.24096386,,,73,0,73,0,1,,,,,,,,
,,"[""diamond"",""green"",""vert"",""up"",[106,-106],[-106,106]]",diamond,green,vert,up,"[106,-106]","[-106,106]",left,0,1.1244,,,,,,001,2025-03-10_18h51.47.299,SL_sali_41,2021.2.3,Win32,60.24096386,,,74,0,74,0,1,,,,,,,,
,,"[""diamond"",""red"",""hori"",""left"",[106,-106],[0,-150]]",diamond,red,hori,left,"[106,-106]","[0,-150]",left,1,1.8903,,,,,,001,2025-03-10_18h51.47.299,SL_sali_41,2021.2.3,Win32,60.24096386,,,75,0,75,0,1,,,,,,,,
,,"[""diamond"",""red"",""vert"",""up"",[106,-106],[150,0]]",diamond,red,vert,up,"[106,-106]","[150,0]",up,1,1.5309,,,,,,001,2025-03-10_18h51.47.299,SL_sali_41,2021.2.3,Win32,60.24096386,,,76,0,76,0,1,,,,,,,,
,,"[""diamond"",""green"",""hori"",""left"",[106,-106],[150,0]]",diamond,green,hori,left,"[106,-106]","[150,0]",left,1,1.6234,,,,,,001,2025-03-10_18h51.47.299,SL_sali_41,2021.2.3,Win32,60.24096386,,,77,0,77,0,1,,,,,,,,
,,"[""diamond"",""no_dis"",""vert"",""up"",[99999,99999],[106,106]]",diamond,no_dis,vert,up,"[99999,99999]","[106,106]",up,1,1.6776,,,,,,001,2025-03-10_18h51.47.299,SL_sali_41,2021.2.3,Win32,60.24096386,,,78,0,78,0,1,,,,,,,,
,,"[""circle"",""green"",""hori"",""left"",[-150,0],[-106,106]]",circle,green,hori,left,"[-150,0]","[-106,106]",left,1,1.9049,,,,,,001,2025-03-10_18h51.47.299,SL_sali_41,2021.2.3,Win32,60.24096386,,,79,0,79,0,1,,,,,,,,
,,"[""circle"",""red"",""vert"",""up"",[-106,-106],[0,-150]]",circle,red,vert,up,"[-106,-106]","[0,-150]",up,1,1.5768,,,,,,001,2025-03-10_18h51.47.299,SL_sali_41,2021.2.3,Win32,60.24096386,,,80,0,80,0,1,,,,,,,,
,,"[""circle"",""no_dis"",""hori"",""left"",[99999,99999],[106,-106]]",circle,no_dis,hori,left,"[99999,99999]","[106,-106]",left,1,2.0568,,,,,,001,2025-03-10_18h51.47.299,SL_sali_41,2021.2.3,Win32,60.24096386,,,81,0,81,0,1,,,,,,,,
,,"[""diamond"",""no_dis"",""hori"",""left"",[99999,99999],[150,0]]",diamond,no_dis,hori,left,"[99999,99999]","[150,0]",left,1,1.4469,,,,,,001,2025-03-10_18h51.47.299,SL_sali_41,2021.2.3,Win32,60.24096386,,,82,0,82,0,1,,,,,,,,
,,"[""circle"",""green"",""vert"",""up"",[106,-106],[106,106]]",circle,green,vert,up,"[106,-106]","[106,106]",up,1,1.5962,,,,,,001,2025-03-10_18h51.47.299,SL_sali_41,2021.2.3,Win32,60.24096386,,,83,0,83,0,1,,,,,,,,
,,"[""circle"",""red"",""vert"",""up"",[-106,-106],[-106,106]]",circle,red,vert,up,"[-106,-106]","[-106,106]",up,1,2.6951,,,,,,001,2025-03-10_18h51.47.299,SL_sali_41,2021.2.3,Win32,60.24096386,,,84,0,84,0,1,,,,,,,,
,,"[""diamond"",""no_dis"",""vert"",""up"",[99999,99999],[0,-150]]",diamond,no_dis,vert,up,"[99999,99999]","[0,-150]",up,1,2.3314,,,,,,001,2025-03-10_18h51.47.299,SL_sali_41,2021.2.3,Win32,60.24096386,,,85,0,85,0,1,,,,,,,,
,,"[""circle"",""green"",""vert"",""up"",[0,150],[106,-106]]",circle,green,vert,up,"[0,150]","[106,-106]",up,1,1.8234,,,,,,001,2025-03-10_18h51.47.299,SL_sali_41,2021.2.3,Win32,60.24096386,,,86,0,86,0,1,,,,,,,,
,,"[""circle"",""red"",""vert"",""up"",[106,-106],[0,-150]]",circle,red,vert,up,"[106,-106]","[0,-150]",up,1,1.7075,,,,,,001,2025-03-10_18h51.47.299,SL_sali_41,2021.2.3,Win32,60.24096386,,,87,0,87,0,1,,,,,,,,
,,"[""diamond"",""red"",""vert"",""up"",[-106,-106],[-150,0]]",diamond,red,vert,up,"[-106,-106]","[-150,0]",up,1,1.9947,,,,,,001,2025-03-10_18h51.47.299,SL_sali_41,2021.2.3,Win32,60.24096386,,,88,0,88,0,1,,,,,,,,
,,"[""circle"",""no_dis"",""hori"",""left"",[99999,99999],[-150,0]]",circle,no_dis,hori,left,"[99999,99999]","[-150,0]",left,1,1.5605,,,,,,001,2025-03-10_18h51.47.299,SL_sali_41,2021.2.3,Win32,60.24096386,,,89,0,89,0,1,,,,,,,,
,,"[""circle"",""red"",""vert"",""up"",[-106,106],[106,-106]]",circle,red,vert,up,"[-106,106]","[106,-106]",,0,,,,,,,001,2025-03-10_18h51.47.299,SL_sali_41,2021.2.3,Win32,60.24096386,,,90,0,90,0,1,,,,,,,,
,,"[""circle"",""green"",""vert"",""up"",[0,150],[106,106]]",circle,green,vert,up,"[0,150]","[106,106]",up,1,1.3388,,,,,,001,2025-03-10_18h51.47.299,SL_sali_41,2021.2.3,Win32,60.24096386,,,91,0,91,0,1,,,,,,,,
,,"[""diamond"",""green"",""vert"",""up"",[150,0],[106,106]]",diamond,green,vert,up,"[150,0]","[106,106]",up,1,2.3542,,,,,,001,2025-03-10_18h51.47.299,SL_sali_41,2021.2.3,Win32,60.24096386,,,92,0,92,0,1,,,,,,,,
,,"[""diamond"",""red"",""vert"",""up"",[106,-106],[150,0]]",diamond,red,vert,up,"[106,-106]","[150,0]",up,1,2.2817,,,,,,001,2025-03-10_18h51.47.299,SL_sali_41,2021.2.3,Win32,60.24096386,,,93,0,93,0,1,,,,,,,,
,,"[""circle"",""green"",""vert"",""up"",[0,-150],[0,150]]",circle,green,vert,up,"[0,-150]","[0,150]",up,1,1.478,,,,,,001,2025-03-10_18h51.47.299,SL_sali_41,2021.2.3,Win32,60.24096386,,,94,0,94,0,1,,,,,,,,
,,"[""diamond"",""no_dis"",""hori"",""left"",[99999,99999],[106,106]]",diamond,no_dis,hori,left,"[99999,99999]","[106,106]",left,1,1.6605,,,,,,001,2025-03-10_18h51.47.299,SL_sali_41,2021.2.3,Win32,60.24096386,,,95,0,95,0,1,,,,,,,,
,,"[""circle"",""green"",""hori"",""left"",[-106,106],[-150,0]]",circle,green,hori,left,"[-106,106]","[-150,0]",left,1,1.1111,,,,,,001,2025-03-10_18h51.47.299,SL_sali_41,2021.2.3,Win32,60.24096386,,,96,0,96,0,1,,,,,,,,
,,"[""diamond"",""green"",""hori"",""left"",[106,-106],[106,106]]",diamond,green,hori,left,"[106,-106]","[106,106]",left,1,1.2769,,,,,,001,2025-03-10_18h51.47.299,SL_sali_41,2021.2.3,Win32,60.24096386,,,97,0,97,0,1,,,,,,,,
,,"[""diamond"",""red"",""hori"",""left"",[106,-106],[-106,-106]]",diamond,red,hori,left,"[106,-106]","[-106,-106]",left,1,2.0241,,,,,,001,2025-03-10_18h51.47.299,SL_sali_41,2021.2.3,Win32,60.24096386,,,98,0,98,0,1,,,,,,,,
,,"[""diamond"",""red"",""hori"",""left"",[106,-106],[-150,0]]",diamond,red,hori,left,"[106,-106]","[-150,0]",left,1,1.8091,,,,,,001,2025-03-10_18h51.47.299,SL_sali_41,2021.2.3,Win32,60.24096386,,,99,0,99,0,1,,,,,,,,
,,"[""circle"",""no_dis"",""hori"",""left"",[99999,99999],[-106,106]]",circle,no_dis,hori,left,"[99999,99999]","[-106,106]",left,1,1.3565,,,,,,001,2025-03-10_18h51.47.299,SL_sali_41,2021.2.3,Win32,60.24096386,,,100,0,100,0,1,,,,,,,,
,,"[""circle"",""no_dis"",""vert"",""up"",[99999,99999],[0,150]]",circle,no_dis,vert,up,"[99999,99999]","[0,150]",up,1,2.0776,,,,,,001,2025-03-10_18h51.47.299,SL_sali_41,2021.2.3,Win32,60.24096386,,,101,0,101,0,1,,,,,,,,
,,"[""diamond"",""red"",""vert"",""up"",[106,-106],[-106,106]]",diamond,red,vert,up,"[106,-106]","[-106,106]",up,1,1.165,,,,,,001,2025-03-10_18h51.47.299,SL_sali_41,2021.2.3,Win32,60.24096386,,,102,0,102,0,1,,,,,,,,
,,"[""circle"",""no_dis"",""vert"",""up"",[99999,99999],[-106,106]]",circle,no_dis,vert,up,"[99999,99999]","[-106,106]",up,1,1.2603,,,,,,001,2025-03-10_18h51.47.299,SL_sali_41,2021.2.3,Win32,60.24096386,,,103,0,103,0,1,,,,,,,,
,,"[""diamond"",""green"",""vert"",""up"",[150,0],[-106,-106]]",diamond,green,vert,up,"[150,0]","[-106,-106]",,0,,,,,,,001,2025-03-10_18h51.47.299,SL_sali_41,2021.2.3,Win32,60.24096386,,,104,0,104,0,1,,,,,,,,
,,"[""circle"",""no_dis"",""vert"",""up"",[99999,99999],[106,106]]",circle,no_dis,vert,up,"[99999,99999]","[106,106]",left,0,1.2055,,,,,,001,2025-03-10_18h51.47.299,SL_sali_41,2021.2.3,Win32,60.24096386,,,105,0,105,0,1,,,,,,,,
,,"[""circle"",""red"",""vert"",""up"",[106,-106],[0,-150]]",circle,red,vert,up,"[106,-106]","[0,-150]",left,0,2.4299,,,,,,001,2025-03-10_18h51.47.299,SL_sali_41,2021.2.3,Win32,60.24096386,,,106,0,106,0,1,,,,,,,,
,,"[""diamond"",""red"",""vert"",""up"",[106,-106],[0,-150]]",diamond,red,vert,up,"[106,-106]","[0,-150]",up,1,1.3541,,,,,,001,2025-03-10_18h51.47.299,SL_sali_41,2021.2.3,Win32,60.24096386,,,107,0,107,0,1,,,,,,,,
,,"[""diamond"",""green"",""hori"",""left"",[106,-106],[150,0]]",diamond,green,hori,left,"[106,-106]","[150,0]",left,1,2.265,,,,,,001,2025-03-10_18h51.47.299,SL_sali_41,2021.2.3,Win32,60.24096386,,,108,0,108,0,1,,,,,,,,
,,"[""diamond"",""green"",""vert"",""up"",[106,-106],[0,-150]]",diamond,green,vert,up,"[106,-106]","[0,-150]",up,1,1.1396,,,,,,001,2025-03-10_18h51.47.299,SL_sali_41,2021.2.3,Win32,60.24096386,,,109,0,109,0,1,,,,,,,,
,,"[""circle"",""red"",""hori"",""left"",[-150,0],[0,150]]",circle,red,hori,left,"[-150,0]","[0,150]",up,0,2.1913,,,,,,001,2025-03-10_18h51.47.299,SL_sali_41,2021.2.3,Win32,60.24096386,,,110,0,110,0,1,,,,,,,,
,,"[""circle"",""green"",""hori"",""left"",[106,-106],[-106,106]]",circle,green,hori,left,"[106,-106]","[-106,106]",left,1,0.7975,,,,,,001,2025-03-10_18h51.47.299,SL_sali_41,2021.2.3,Win32,60.24096386,,,111,0,111,0,1,,,,,,,,
,,"[""circle"",""no_dis"",""vert"",""up"",[99999,99999],[106,-106]]",circle,no_dis,vert,up,"[99999,99999]","[106,-106]",up,1,2.7663,,,,,,001,2025-03-10_18h51.47.299,SL_sali_41,2021.2.3,Win32,60.24096386,,,112,0,112,0,1,,,,,,,,
,,"[""diamond"",""green"",""hori"",""left"",[0,-150],[-106,106]]",diamond,green,hori,left,"[0,-150]","[-106,106]",left,1,1.0625,,,,,,001,2025-03-10_18h51.47.299,SL_sali_41,2021.2.3,Win32,60.24096386,,,113,0,113,0,1,,,,,,,,
,,"[""circle"",""red"",""hori"",""left"",[150,0],[-106,-106]]",circle,red,hori,left,"[150,0]","[-106,-106]",left,1,1.1102,,,,,,001,2025-03-10_18h51.47.299,SL_sali_41,2021.2.3,Win32,60.24096386,,,114,0,114,0,1,,,,,,,,
,,"[""diamond"",""no_dis"",""hori"",""left"",[99999,99999],[106,106]]",diamond,no_dis,hori,left,"[99999,99999]","[106,106]",left,1,1.0315,,,,,,001,2025-03-10_18h51.47.299,SL_sali_41,2021.2.3,Win32,60.24096386,,,115,0,115,0,1,,,,,,,,
,,"[""circle"",""green"",""vert"",""up"",[106,106],[0,150]]",circle,green,vert,up,"[106,106]","[0,150]",up,1,1.0813,,,,,,001,2025-03-10_18h51.47.299,SL_sali_41,2021.2.3,Win32,60.24096386,,,116,0,116,0,1,,,,,,,,
,,"[""diamond"",""green"",""hori"",""left"",[0,-150],[0,150]]",diamond,green,hori,left,"[0,-150]","[0,150]",left,1,1.7883,,,,,,001,2025-03-10_18h51.47.299,SL_sali_41,2021.2.3,Win32,60.24096386,,,117,0,117,0,1,,,,,,,,
,,"[""circle"",""red"",""hori"",""left"",[-150,0],[150,0]]",circle,red,hori,left,"[-150,0]","[150,0]",up,0,1.8955,,,,,,001,2025-03-10_18h51.47.299,SL_sali_41,2021.2.3,Win32,60.24096386,,,118,0,118,0,1,,,,,,,,
,,"[""diamond"",""no_dis"",""vert"",""up"",[99999,99999],[106,-106]]",diamond,no_dis,vert,up,"[99999,99999]","[106,-106]",up,1,1.5415,,,,,,001,2025-03-10_18h51.47.299,SL_sali_41,2021.2.3,Win32,60.24096386,,,119,0,119,0,1,,,,,,,,
,,"[""circle"",""green"",""vert"",""up"",[0,-150],[150,0]]",circle,green,vert,up,"[0,-150]","[150,0]",up,1,1.271,,,,,,001,2025-03-10_18h51.47.299,SL_sali_41,2021.2.3,Win32,60.24096386,,,120,0,120,0,1,,,,,,,,
,,"[""diamond"",""green"",""vert"",""up"",[0,150],[-106,106]]",diamond,green,vert,up,"[0,150]","[-106,106]",up,1,1.9658,,,,,,001,2025-03-10_18h51.47.299,SL_sali_41,2021.2.3,Win32,60.24096386,,,121,0,121,0,1,,,,,,,,
,,"[""diamond"",""no_dis"",""hori"",""left"",[99999,99999],[150,0]]",diamond,no_dis,hori,left,"[99999,99999]","[150,0]",left,1,2.3913,,,,,,001,2025-03-10_18h51.47.299,SL_sali_41,2021.2.3,Win32,60.24096386,,,122,0,122,0,1,,,,,,,,
,,"[""circle"",""red"",""hori"",""left"",[106,-106],[0,150]]",circle,red,hori,left,"[106,-106]","[0,150]",up,0,2.619,,,,,,001,2025-03-10_18h51.47.299,SL_sali_41,2021.2.3,Win32,60.24096386,,,123,0,123,0,1,,,,,,,,
,,"[""circle"",""red"",""hori"",""left"",[-106,106],[-150,0]]",circle,red,hori,left,"[-106,106]","[-150,0]",left,1,1.2172,,,,,,001,2025-03-10_18h51.47.299,SL_sali_41,2021.2.3,Win32,60.24096386,,,124,0,124,0,1,,,,,,,,
,,"[""diamond"",""no_dis"",""vert"",""up"",[99999,99999],[-150,0]]",diamond,no_dis,vert,up,"[99999,99999]","[-150,0]",up,1,2.0929,,,,,,001,2025-03-10_18h51.47.299,SL_sali_41,2021.2.3,Win32,60.24096386,,,125,0,125,0,1,,,,,,,,
,,"[""circle"",""red"",""hori"",""left"",[106,-106],[106,106]]",circle,red,hori,left,"[106,-106]","[106,106]",left,1,1.1431,,,,,,001,2025-03-10_18h51.47.299,SL_sali_41,2021.2.3,Win32,60.24096386,,,126,0,126,0,1,,,,,,,,
,,"[""circle"",""no_dis"",""vert"",""up"",[99999,99999],[150,0]]",circle,no_dis,vert,up,"[99999,99999]","[150,0]",up,1,1.5922,,,,,,001,2025-03-10_18h51.47.299,SL_sali_41,2021.2.3,Win32,60.24096386,,,127,0,127,0,1,,,,,,,,
,,,,,,,,,,,,,,,,,001,2025-03-10_18h51.47.299,SL_sali_41,2021.2.3,Win32,60.24096386,,,,,,,,1,space,59.3007,0,0,0,0,1
,,"[""circle"",""red"",""hori"",""left"",[-150,0],[-106,-106]]",circle,red,hori,left,"[-150,0]","[-106,-106]",left,1,1.7187,,,,,,001,2025-03-10_18h51.47.299,SL_sali_41,2021.2.3,Win32,60.24096386,,,0,0,0,0,1,,,,,,,,
,,"[""diamond"",""red"",""vert"",""up"",[106,-106],[150,0]]",diamond,red,vert,up,"[106,-106]","[150,0]",up,1,1.3808,,,,,,001,2025-03-10_18h51.47.299,SL_sali_41,2021.2.3,Win32,60.24096386,,,1,0,1,0,1,,,,,,,,
,,"[""diamond"",""red"",""hori"",""left"",[-106,-106],[106,106]]",diamond,red,hori,left,"[-106,-106]","[106,106]",left,1,1.1669,,,,,,001,2025-03-10_18h51.47.299,SL_sali_41,2021.2.3,Win32,60.24096386,,,2,0,2,0,1,,,,,,,,
,,"[""diamond"",""no_dis"",""hori"",""left"",[99999,99999],[106,106]]",diamond,no_dis,hori,left,"[99999,99999]","[106,106]",left,1,1.1448,,,,,,001,2025-03-10_18h51.47.299,SL_sali_41,2021.2.3,Win32,60.24096386,,,3,0,3,0,1,,,,,,,,
,,"[""circle"",""green"",""hori"",""left"",[150,0],[-106,-106]]",circle,green,hori,left,"[150,0]","[-106,-106]",left,1,1.8548,,,,,,001,2025-03-10_18h51.47.299,SL_sali_41,2021.2.3,Win32,60.24096386,,,4,0,4,0,1,,,,,,,,
,,"[""circle"",""red"",""vert"",""up"",[-106,-106],[0,-150]]",circle,red,vert,up,"[-106,-106]","[0,-150]",up,1,1.3872,,,,,,001,2025-03-10_18h51.47.299,SL_sali_41,2021.2.3,Win32,60.24096386,,,5,0,5,0,1,,,,,,,,
,,"[""circle"",""red"",""hori"",""left"",[-150,0],[150,0]]",circle,red,hori,left,"[-150,0]","[150,0]",left,1,1.3286,,,,,,001,2025-03-10_18h51.47.299,SL_sali_41,2021.2.3,Win32,60.24096386,,,6,0,6,0,1,,,,,,,,
,,"[""circle"",""green"",""hori"",""left"",[-106,106],[-150,0]]",circle,green,hori,left,"[-106,106]","[-150,0]",left,1,1.1908,,,,,,001,2025-03-10_18h51.47.299,SL_sali_41,2021.2.3,Win32,60.24096386,,,7,0,7,0,1,,,,,,,,
,,"[""circle"",""red"",""hori"",""left"",[150,0],[-106,-106]]",circle,red,hori,left,"[150,0]","[-106,-106]",left,1,1.4532,,,,,,001,2025-03-10_18h51.47.299,SL_sali_41,2021.2.3,Win32,60.24096386,,,8,0,8,0,1,,,,,,,,
,,"[""diamond"",""no_dis"",""hori"",""left"",[99999,99999],[150,0]]",diamond,no_dis,hori,left,"[99999,99999]","[150,0]",left,1,1.1189,,,,,,001,2025-03-10_18h51.47.299,SL_sali_41,2021.2.3,Win32,60.24096386,,,9,0,9,0,1,,,,,,,,
,,"[""circle"",""no_dis"",""vert"",""up"",[99999,99999],[-106,106]]",circle,no_dis,vert,up,"[99999,99999]","[-106,106]",up,1,2.0519,,,,,,001,2025-03-10_18h51.47.299,SL_sali_41,2021.2.3,Win32,60.24096386,,,10,0,10,0,1,,,,,,,,
,,"[""circle"",""red"",""hori"",""left"",[150,0],[106,106]]",circle,red,hori,left,"[150,0]","[106,106]",left,1,1.4641,,,,,,001,2025-03-10_18h51.47.299,SL_sali_41,2021.2.3,Win32,60.24096386,,,11,0,11,0,1,,,,,,,,
,,"[""diamond"",""no_dis"",""vert"",""up"",[99999,99999],[0,150]]",diamond,no_dis,vert,up,"[99999,99999]","[0,150]",up,1,1.131,,,,,,001,2025-03-10_18h51.47.299,SL_sali_41,2021.2.3,Win32,60.24096386,,,12,0,12,0,1,,,,,,,,
,,"[""diamond"",""green"",""vert"",""up"",[106,-106],[150,0]]",diamond,green,vert,up,"[106,-106]","[150,0]",up,1,1.6564,,,,,,001,2025-03-10_18h51.47.299,SL_sali_41,2021.2.3,Win32,60.24096386,,,13,0,13,0,1,,,,,,,,
,,"[""diamond"",""no_dis"",""hori"",""left"",[99999,99999],[-150,0]]",diamond,no_dis,hori,left,"[99999,99999]","[-150,0]",left,1,0.9683,,,,,,001,2025-03-10_18h51.47.299,SL_sali_41,2021.2.3,Win32,60.24096386,,,14,0,14,0,1,,,,,,,,
,,"[""diamond"",""green"",""hori"",""left"",[-106,-106],[106,-106]]",diamond,green,hori,left,"[-106,-106]","[106,-106]",left,1,1.3406,,,,,,001,2025-03-10_18h51.47.299,SL_sali_41,2021.2.3,Win32,60.24096386,,,15,0,15,0,1,,,,,,,,
,,"[""circle"",""no_dis"",""vert"",""up"",[99999,99999],[150,0]]",circle,no_dis,vert,up,"[99999,99999]","[150,0]",up,1,1.1774,,,,,,001,2025-03-10_18h51.47.299,SL_sali_41,2021.2.3,Win32,60.24096386,,,16,0,16,0,1,,,,,,,,
,,"[""circle"",""green"",""vert"",""up"",[106,-106],[0,150]]",circle,green,vert,up,"[106,-106]","[0,150]",up,1,1.2166,,,,,,001,2025-03-10_18h51.47.299,SL_sali_41,2021.2.3,Win32,60.24096386,,,17,0,17,0,1,,,,,,,,
,,"[""circle"",""green"",""hori"",""left"",[0,150],[106,-106]]",circle,green,hori,left,"[0,150]","[106,-106]",left,1,1.1666,,,,,,001,2025-03-10_18h51.47.299,SL_sali_41,2021.2.3,Win32,60.24096386,,,18,0,18,0,1,,,,,,,,
,,"[""diamond"",""green"",""hori"",""left"",[106,-106],[150,0]]",diamond,green,hori,left,"[106,-106]","[150,0]",left,1,1.8075,,,,,,001,2025-03-10_18h51.47.299,SL_sali_41,2021.2.3,Win32,60.24096386,,,19,0,19,0,1,,,,,,,,
,,"[""diamond"",""no_dis"",""hori"",""left"",[99999,99999],[0,-150]]",diamond,no_dis,hori,left,"[99999,99999]","[0,-150]",left,1,1.1001,,,,,,001,2025-03-10_18h51.47.299,SL_sali_41,2021.2.3,Win32,60.24096386,,,20,0,20,0,1,,,,,,,,
,,"[""circle"",""green"",""vert"",""up"",[-106,106],[-106,-106]]",circle,green,vert,up,"[-106,106]","[-106,-106]",up,1,1.1695,,,,,,001,2025-03-10_18h51.47.299,SL_sali_41,2021.2.3,Win32,60.24096386,,,21,0,21,0,1,,,,,,,,
,,"[""diamond"",""red"",""vert"",""up"",[106,-106],[-150,0]]",diamond,red,vert,up,"[106,-106]","[-150,0]",up,1,1.5287,,,,,,001,2025-03-10_18h51.47.299,SL_sali_41,2021.2.3,Win32,60.24096386,,,22,0,22,0,1,,,,,,,,
,,"[""diamond"",""red"",""vert"",""up"",[106,-106],[106,106]]",diamond,red,vert,up,"[106,-106]","[106,106]",up,1,2.3997,,,,,,001,2025-03-10_18h51.47.299,SL_sali_41,2021.2.3,Win32,60.24096386,,,23,0,23,0,1,,,,,,,,
,,"[""diamond"",""green"",""hori"",""left"",[106,-106],[106,106]]",diamond,green,hori,left,"[106,-106]","[106,106]",left,1,1.7818,,,,,,001,2025-03-10_18h51.47.299,SL_sali_41,2021.2.3,Win32,60.24096386,,,24,0,24,0,1,,,,,,,,
,,"[""diamond"",""green"",""hori"",""left"",[106,106],[-106,106]]",diamond,green,hori,left,"[106,106]","[-106,106]",left,1,1.0564,,,,,,001,2025-03-10_18h51.47.299,SL_sali_41,2021.2.3,Win32,60.24096386,,,25,0,25,0,1,,,,,,,,
,,"[""circle"",""no_dis"",""hori"",""left"",[99999,99999],[106,-106]]",circle,no_dis,hori,left,"[99999,99999]","[106,-106]",left,1,2.3042,,,,,,001,2025-03-10_18h51.47.299,SL_sali_41,2021.2.3,Win32,60.24096386,,,26,0,26,0,1,,,,,,,,
,,"[""circle"",""green"",""vert"",""up"",[106,-106],[106,106]]",circle,green,vert,up,"[106,-106]","[106,106]",up,1,1.5676,,,,,,001,2025-03-10_18h51.47.299,SL_sali_41,2021.2.3,Win32,60.24096386,,,27,0,27,0,1,,,,,,,,
,,"[""diamond"",""red"",""vert"",""up"",[106,-106],[150,0]]",diamond,red,vert,up,"[106,-106]","[150,0]",up,1,1.6204,,,,,,001,2025-03-10_18h51.47.299,SL_sali_41,2021.2.3,Win32,60.24096386,,,28,0,28,0,1,,,,,,,,
,,"[""circle"",""red"",""vert"",""up"",[106,-106],[0,-150]]",circle,red,vert,up,"[106,-106]","[0,-150]",up,1,1.636,,,,,,001,2025-03-10_18h51.47.299,SL_sali_41,2021.2.3,Win32,60.24096386,,,29,0,29,0,1,,,,,,,,
,,"[""circle"",""green"",""vert"",""up"",[106,-106],[106,106]]",circle,green,vert,up,"[106,-106]","[106,106]",up,1,1.5573,,,,,,001,2025-03-10_18h51.47.299,SL_sali_41,2021.2.3,Win32,60.24096386,,,30,0,30,0,1,,,,,,,,
,,"[""diamond"",""green"",""vert"",""up"",[106,-106],[-106,106]]",diamond,green,vert,up,"[106,-106]","[-106,106]",up,1,1.9359,,,,,,001,2025-03-10_18h51.47.299,SL_sali_41,2021.2.3,Win32,60.24096386,,,31,0,31,0,1,,,,,,,,
,,"[""circle"",""no_dis"",""vert"",""up"",[99999,99999],[106,-106]]",circle,no_dis,vert,up,"[99999,99999]","[106,-106]",up,1,1.6364,,,,,,001,2025-03-10_18h51.47.299,SL_sali_41,2021.2.3,Win32,60.24096386,,,32,0,32,0,1,,,,,,,,
,,"[""circle"",""red"",""vert"",""up"",[106,-106],[0,-150]]",circle,red,vert,up,"[106,-106]","[0,-150]",up,1,1.2766,,,,,,001,2025-03-10_18h51.47.299,SL_sali_41,2021.2.3,Win32,60.24096386,,,33,0,33,0,1,,,,,,,,
,,"[""circle"",""red"",""hori"",""left"",[-106,-106],[106,106]]",circle,red,hori,left,"[-106,-106]","[106,106]",left,1,1.2616,,,,,,001,2025-03-10_18h51.47.299,SL_sali_41,2021.2.3,Win32,60.24096386,,,34,0,34,0,1,,,,,,,,
,,"[""diamond"",""green"",""hori"",""left"",[-106,-106],[-150,0]]",diamond,green,hori,left,"[-106,-106]","[-150,0]",left,1,1.3041,,,,,,001,2025-03-10_18h51.47.299,SL_sali_41,2021.2.3,Win32,60.24096386,,,35,0,35,0,1,,,,,,,,
,,"[""circle"",""no_dis"",""hori"",""left"",[99999,99999],[0,150]]",circle,no_dis,hori,left,"[99999,99999]","[0,150]",left,1,0.978,,,,,,001,2025-03-10_18h51.47.299,SL_sali_41,2021.2.3,Win32,60.24096386,,,36,0,36,0,1,,,,,,,,
,,"[""diamond"",""red"",""hori"",""left"",[106,-106],[-106,-106]]",diamond,red,hori,left,"[106,-106]","[-106,-106]",left,1,1.2861,,,,,,001,2025-03-10_18h51.47.299,SL_sali_41,2021.2.3,Win32,60.24096386,,,37,0,37,0,1,,,,,,,,
,,"[""circle"",""no_dis"",""hori"",""left"",[99999,99999],[150,0]]",circle,no_dis,hori,left,"[99999,99999]","[150,0]",left,1,1.2663,,,,,,001,2025-03-10_18h51.47.299,SL_sali_41,2021.2.3,Win32,60.24096386,,,38,0,38,0,1,,,,,,,,
,,"[""diamond"",""red"",""hori"",""left"",[106,-106],[-106,106]]",diamond,red,hori,left,"[106,-106]","[-106,106]",left,1,1.3422,,,,,,001,2025-03-10_18h51.47.299,SL_sali_41,2021.2.3,Win32,60.24096386,,,39,0,39,0,1,,,,,,,,
,,"[""circle"",""red"",""vert"",""up"",[-106,106],[106,-106]]",circle,red,vert,up,"[-106,106]","[106,-106]",up,1,1.4806,,,,,,001,2025-03-10_18h51.47.299,SL_sali_41,2021.2.3,Win32,60.24096386,,,40,0,40,0,1,,,,,,,,
,,"[""diamond"",""red"",""vert"",""up"",[106,-106],[-150,0]]",diamond,red,vert,up,"[106,-106]","[-150,0]",up,1,1.1831,,,,,,001,2025-03-10_18h51.47.299,SL_sali_41,2021.2.3,Win32,60.24096386,,,41,0,41,0,1,,,,,,,,
,,"[""circle"",""green"",""hori"",""left"",[-106,106],[-150,0]]",circle,green,hori,left,"[-106,106]","[-150,0]",left,1,1.3284,,,,,,001,2025-03-10_18h51.47.299,SL_sali_41,2021.2.3,Win32,60.24096386,,,42,0,42,0,1,,,,,,,,
,,"[""diamond"",""red"",""hori"",""left"",[0,-150],[-150,0]]",diamond,red,hori,left,"[0,-150]","[-150,0]",left,1,1.2697,,,,,,001,2025-03-10_18h51.47.299,SL_sali_41,2021.2.3,Win32,60.24096386,,,43,0,43,0,1,,,,,,,,
,,"[""diamond"",""red"",""vert"",""up"",[106,106],[-150,0]]",diamond,red,vert,up,"[106,106]","[-150,0]",up,1,1.1641,,,,,,001,2025-03-10_18h51.47.299,SL_sali_41,2021.2.3,Win32,60.24096386,,,44,0,44,0,1,,,,,,,,
,,"[""circle"",""red"",""hori"",""left"",[-150,0],[-106,106]]",circle,red,hori,left,"[-150,0]","[-106,106]",left,1,2.1639,,,,,,001,2025-03-10_18h51.47.299,SL_sali_41,2021.2.3,Win32,60.24096386,,,45,0,45,0,1,,,,,,,,
,,"[""diamond"",""green"",""hori"",""left"",[106,-106],[150,0]]",diamond,green,hori,left,"[106,-106]","[150,0]",left,1,2.7936,,,,,,001,2025-03-10_18h51.47.299,SL_sali_41,2021.2.3,Win32,60.24096386,,,46,0,46,0,1,,,,,,,,
,,"[""circle"",""red"",""hori"",""left"",[106,-106],[0,150]]",circle,red,hori,left,"[106,-106]","[0,150]",left,1,2.9681,,,,,,001,2025-03-10_18h51.47.299,SL_sali_41,2021.2.3,Win32,60.24096386,,,47,0,47,0,1,,,,,,,,
,,"[""circle"",""green"",""hori"",""left"",[106,-106],[-106,106]]",circle,green,hori,left,"[106,-106]","[-106,106]",,0,,,,,,,001,2025-03-10_18h51.47.299,SL_sali_41,2021.2.3,Win32,60.24096386,,,48,0,48,0,1,,,,,,,,
,,"[""circle"",""red"",""vert"",""up"",[106,-106],[150,0]]",circle,red,vert,up,"[106,-106]","[150,0]",up,1,1.1597,,,,,,001,2025-03-10_18h51.47.299,SL_sali_41,2021.2.3,Win32,60.24096386,,,49,0,49,0,1,,,,,,,,
,,"[""circle"",""no_dis"",""hori"",""left"",[99999,99999],[-106,106]]",circle,no_dis,hori,left,"[99999,99999]","[-106,106]",left,1,0.9415,,,,,,001,2025-03-10_18h51.47.299,SL_sali_41,2021.2.3,Win32,60.24096386,,,50,0,50,0,1,,,,,,,,
,,"[""diamond"",""no_dis"",""vert"",""up"",[99999,99999],[106,106]]",diamond,no_dis,vert,up,"[99999,99999]","[106,106]",left,0,1.443,,,,,,001,2025-03-10_18h51.47.299,SL_sali_41,2021.2.3,Win32,60.24096386,,,51,0,51,0,1,,,,,,,,
,,"[""circle"",""red"",""hori"",""left"",[-106,106],[-150,0]]",circle,red,hori,left,"[-106,106]","[-150,0]",left,1,1.1904,,,,,,001,2025-03-10_18h51.47.299,SL_sali_41,2021.2.3,Win32,60.24096386,,,52,0,52,0,1,,,,,,,,
,,"[""diamond"",""no_dis"",""vert"",""up"",[99999,99999],[106,106]]",diamond,no_dis,vert,up,"[99999,99999]","[106,106]",up,1,1.0837,,,,,,001,2025-03-10_18h51.47.299,SL_sali_41,2021.2.3,Win32,60.24096386,,,53,0,53,0,1,,,,,,,,
,,"[""diamond"",""no_dis"",""vert"",""up"",[99999,99999],[-150,0]]",diamond,no_dis,vert,up,"[99999,99999]","[-150,0]",up,1,1.0061,,,,,,001,2025-03-10_18h51.47.299,SL_sali_41,2021.2.3,Win32,60.24096386,,,54,0,54,0,1,,,,,,,,
,,"[""diamond"",""no_dis"",""vert"",""up"",[99999,99999],[0,-150]]",diamond,no_dis,vert,up,"[99999,99999]","[0,-150]",up,1,1.1438,,,,,,001,2025-03-10_18h51.47.299,SL_sali_41,2021.2.3,Win32,60.24096386,,,55,0,55,0,1,,,,,,,,
,,"[""circle"",""no_dis"",""vert"",""up"",[99999,99999],[0,-150]]",circle,no_dis,vert,up,"[99999,99999]","[0,-150]",up,1,1.6602,,,,,,001,2025-03-10_18h51.47.299,SL_sali_41,2021.2.3,Win32,60.24096386,,,56,0,56,0,1,,,,,,,,
,,"[""circle"",""red"",""hori"",""left"",[-150,0],[0,150]]",circle,red,hori,left,"[-150,0]","[0,150]",left,1,1.661,,,,,,001,2025-03-10_18h51.47.299,SL_sali_41,2021.2.3,Win32,60.24096386,,,57,0,57,0,1,,,,,,,,
,,"[""diamond"",""no_dis"",""hori"",""left"",[99999,99999],[-106,-106]]",diamond,no_dis,hori,left,"[99999,99999]","[-106,-106]",left,1,0.9316,,,,,,001,2025-03-10_18h51.47.299,SL_sali_41,2021.2.3,Win32,60.24096386,,,58,0,58,0,1,,,,,,,,
,,"[""circle"",""green"",""vert"",""up"",[150,0],[-106,106]]",circle,green,vert,up,"[150,0]","[-106,106]",up,1,2.2216,,,,,,001,2025-03-10_18h51.47.299,SL_sali_41,2021.2.3,Win32,60.24096386,,,59,0,59,0,1,,,,,,,,
,,"[""diamond"",""green"",""vert"",""up"",[0,-150],[106,-106]]",diamond,green,vert,up,"[0,-150]","[106,-106]",up,1,2.0437,,,,,,001,2025-03-10_18h51.47.299,SL_sali_41,2021.2.3,Win32,60.24096386,,,60,0,60,0,1,,,,,,,,
,,"[""circle"",""green"",""vert"",""up"",[106,-106],[106,106]]",circle,green,vert,up,"[106,-106]","[106,106]",up,1,1.4413,,,,,,001,2025-03-10_18h51.47.299,SL_sali_41,2021.2.3,Win32,60.24096386,,,61,0,61,0,1,,,,,,,,
,,"[""circle"",""no_dis"",""hori"",""left"",[99999,99999],[-106,106]]",circle,no_dis,hori,left,"[99999,99999]","[-106,106]",left,1,1.7116,,,,,,001,2025-03-10_18h51.47.299,SL_sali_41,2021.2.3,Win32,60.24096386,,,62,0,62,0,1,,,,,,,,
,,"[""diamond"",""red"",""hori"",""left"",[106,-106],[-150,0]]",diamond,red,hori,left,"[106,-106]","[-150,0]",left,1,2.0816,,,,,,001,2025-03-10_18h51.47.299,SL_sali_41,2021.2.3,Win32,60.24096386,,,63,0,63,0,1,,,,,,,,
,,"[""circle"",""no_dis"",""vert"",""up"",[99999,99999],[-150,0]]",circle,no_dis,vert,up,"[99999,99999]","[-150,0]",up,1,1.3372,,,,,,001,2025-03-10_18h51.47.299,SL_sali_41,2021.2.3,Win32,60.24096386,,,64,0,64,0,1,,,,,,,,
,,"[""diamond"",""red"",""vert"",""up"",[106,-106],[0,-150]]",diamond,red,vert,up,"[106,-106]","[0,-150]",up,1,1.6866,,,,,,001,2025-03-10_18h51.47.299,SL_sali_41,2021.2.3,Win32,60.24096386,,,65,0,65,0,1,,,,,,,,
,,"[""circle"",""red"",""vert"",""up"",[106,106],[-106,-106]]",circle,red,vert,up,"[106,106]","[-106,-106]",up,1,2.6254,,,,,,001,2025-03-10_18h51.47.299,SL_sali_41,2021.2.3,Win32,60.24096386,,,66,0,66,0,1,,,,,,,,
,,"[""diamond"",""green"",""hori"",""left"",[0,-150],[150,0]]",diamond,green,hori,left,"[0,-150]","[150,0]",left,1,1.4148,,,,,,001,2025-03-10_18h51.47.299,SL_sali_41,2021.2.3,Win32,60.24096386,,,67,0,67,0,1,,,,,,,,
,,"[""circle"",""no_dis"",""vert"",""up"",[99999,99999],[0,150]]",circle,no_dis,vert,up,"[99999,99999]","[0,150]",up,1,1.0195,,,,,,001,2025-03-10_18h51.47.299,SL_sali_41,2021.2.3,Win32,60.24096386,,,68,0,68,0,1,,,,,,,,
,,"[""circle"",""green"",""hori"",""left"",[0,150],[-106,106]]",circle,green,hori,left,"[0,150]","[-106,106]",up,0,0.8099,,,,,,001,2025-03-10_18h51.47.299,SL_sali_41,2021.2.3,Win32,60.24096386,,,69,0,69,0,1,,,,,,,,
,,"[""diamond"",""green"",""hori"",""left"",[0,-150],[-106,106]]",diamond,green,hori,left,"[0,-150]","[-106,106]",left,1,0.9739,,,,,,001,2025-03-10_18h51.47.299,SL_sali_41,2021.2.3,Win32,60.24096386,,,70,0,70,0,1,,,,,,,,
,,"[""circle"",""green"",""vert"",""up"",[106,106],[0,150]]",circle,green,vert,up,"[106,106]","[0,150]",up,1,2.2509,,,,,,001,2025-03-10_18h51.47.299,SL_sali_41,2021.2.3,Win32,60.24096386,,,71,0,71,0,1,,,,,,,,
,,"[""circle"",""green"",""hori"",""left"",[-106,-106],[106,-106]]",circle,green,hori,left,"[-106,-106]","[106,-106]",left,1,1.8384,,,,,,001,2025-03-10_18h51.47.299,SL_sali_41,2021.2.3,Win32,60.24096386,,,72,0,72,0,1,,,,,,,,
,,"[""diamond"",""red"",""hori"",""left"",[106,106],[150,0]]",diamond,red,hori,left,"[106,106]","[150,0]",,0,,,,,,,001,2025-03-10_18h51.47.299,SL_sali_41,2021.2.3,Win32,60.24096386,,,73,0,73,0,1,,,,,,,,
,,"[""diamond"",""no_dis"",""vert"",""up"",[99999,99999],[-106,106]]",diamond,no_dis,vert,up,"[99999,99999]","[-106,106]",up,1,1.3822,,,,,,001,2025-03-10_18h51.47.299,SL_sali_41,2021.2.3,Win32,60.24096386,,,74,0,74,0,1,,,,,,,,
,,"[""circle"",""green"",""hori"",""left"",[-150,0],[-106,106]]",circle,green,hori,left,"[-150,0]","[-106,106]",left,1,1.0682,,,,,,001,2025-03-10_18h51.47.299,SL_sali_41,2021.2.3,Win32,60.24096386,,,75,0,75,0,1,,,,,,,,
,,"[""diamond"",""green"",""hori"",""left"",[106,-106],[-106,-106]]",diamond,green,hori,left,"[106,-106]","[-106,-106]",left,1,1.7984,,,,,,001,2025-03-10_18h51.47.299,SL_sali_41,2021.2.3,Win32,60.24096386,,,76,0,76,0,1,,,,,,,,
,,"[""circle"",""green"",""hori"",""left"",[106,106],[150,0]]",circle,green,hori,left,"[106,106]","[150,0]",left,1,1.3233,,,,,,001,2025-03-10_18h51.47.299,SL_sali_41,2021.2.3,Win32,60.24096386,,,77,0,77,0,1,,,,,,,,
,,"[""diamond"",""red"",""vert"",""up"",[150,0],[106,106]]",diamond,red,vert,up,"[150,0]","[106,106]",left,0,1.0165,,,,,,001,2025-03-10_18h51.47.299,SL_sali_41,2021.2.3,Win32,60.24096386,,,78,0,78,0,1,,,,,,,,
,,"[""diamond"",""no_dis"",""vert"",""up"",[99999,99999],[150,0]]",diamond,no_dis,vert,up,"[99999,99999]","[150,0]",up,1,1.8738,,,,,,001,2025-03-10_18h51.47.299,SL_sali_41,2021.2.3,Win32,60.24096386,,,79,0,79,0,1,,,,,,,,
,,"[""circle"",""no_dis"",""vert"",""up"",[99999,99999],[0,150]]",circle,no_dis,vert,up,"[99999,99999]","[0,150]",up,1,2.1866,,,,,,001,2025-03-10_18h51.47.299,SL_sali_41,2021.2.3,Win32,60.24096386,,,80,0,80,0,1,,,,,,,,
,,"[""diamond"",""green"",""hori"",""left"",[0,-150],[0,150]]",diamond,green,hori,left,"[0,-150]","[0,150]",left,1,1.0758,,,,,,001,2025-03-10_18h51.47.299,SL_sali_41,2021.2.3,Win32,60.24096386,,,81,0,81,0,1,,,,,,,,
,,"[""circle"",""green"",""vert"",""up"",[0,-150],[0,150]]",circle,green,vert,up,"[0,-150]","[0,150]",up,1,1.8754,,,,,,001,2025-03-10_18h51.47.299,SL_sali_41,2021.2.3,Win32,60.24096386,,,82,0,82,0,1,,,,,,,,
,,"[""diamond"",""green"",""hori"",""left"",[-106,106],[0,-150]]",diamond,green,hori,left,"[-106,106]","[0,-150]",left,1,1.6326,,,,,,001,2025-03-10_18h51.47.299,SL_sali_41,2021.2.3,Win32,60.24096386,,,83,0,83,0,1,,,,,,,,
,,"[""diamond"",""red"",""vert"",""up"",[106,-106],[-106,106]]",diamond,red,vert,up,"[106,-106]","[-106,106]",up,1,1.3084,,,,,,001,2025-03-10_18h51.47.299,SL_sali_41,2021.2.3,Win32,60.24096386,,,84,0,84,0,1,,,,,,,,
,,"[""diamond"",""green"",""vert"",""up"",[106,-106],[0,-150]]",diamond,green,vert,up,"[106,-106]","[0,-150]",up,1,1.4656,,,,,,001,2025-03-10_18h51.47.299,SL_sali_41,2021.2.3,Win32,60.24096386,,,85,0,85,0,1,,,,,,,,
,,"[""circle"",""no_dis"",""vert"",""up"",[99999,99999],[106,106]]",circle,no_dis,vert,up,"[99999,99999]","[106,106]",up,1,2.4456,,,,,,001,2025-03-10_18h51.47.299,SL_sali_41,2021.2.3,Win32,60.24096386,,,86,0,86,0,1,,,,,,,,
,,"[""diamond"",""red"",""hori"",""left"",[106,-106],[150,0]]",diamond,red,hori,left,"[106,-106]","[150,0]",left,1,1.3656,,,,,,001,2025-03-10_18h51.47.299,SL_sali_41,2021.2.3,Win32,60.24096386,,,87,0,87,0,1,,,,,,,,
,,"[""circle"",""no_dis"",""hori"",""left"",[99999,99999],[-150,0]]",circle,no_dis,hori,left,"[99999,99999]","[-150,0]",left,1,2.3341,,,,,,001,2025-03-10_18h51.47.299,SL_sali_41,2021.2.3,Win32,60.24096386,,,88,0,88,0,1,,,,,,,,
,,"[""circle"",""green"",""hori"",""left"",[150,0],[106,106]]",circle,green,hori,left,"[150,0]","[106,106]",left,1,1.3184,,,,,,001,2025-03-10_18h51.47.299,SL_sali_41,2021.2.3,Win32,60.24096386,,,89,0,89,0,1,,,,,,,,
,,"[""circle"",""red"",""vert"",""up"",[-106,106],[106,-106]]",circle,red,vert,up,"[-106,106]","[106,-106]",up,1,2.2667,,,,,,001,2025-03-10_18h51.47.299,SL_sali_41,2021.2.3,Win32,60.24096386,,,90,0,90,0,1,,,,,,,,
,,"[""diamond"",""green"",""vert"",""up"",[-150,0],[-106,106]]",diamond,green,vert,up,"[-150,0]","[-106,106]",up,1,1.2661,,,,,,001,2025-03-10_18h51.47.299,SL_sali_41,2021.2.3,Win32,60.24096386,,,91,0,91,0,1,,,,,,,,
,,"[""diamond"",""green"",""vert"",""up"",[0,-150],[-106,106]]",diamond,green,vert,up,"[0,-150]","[-106,106]",up,1,1.0915,,,,,,001,2025-03-10_18h51.47.299,SL_sali_41,2021.2.3,Win32,60.24096386,,,92,0,92,0,1,,,,,,,,
,,"[""diamond"",""green"",""vert"",""up"",[150,0],[-106,-106]]",diamond,green,vert,up,"[150,0]","[-106,-106]",up,1,1.0511,,,,,,001,2025-03-10_18h51.47.299,SL_sali_41,2021.2.3,Win32,60.24096386,,,93,0,93,0,1,,,,,,,,
,,"[""circle"",""green"",""vert"",""up"",[0,150],[106,-106]]",circle,green,vert,up,"[0,150]","[106,-106]",up,1,2.3034,,,,,,001,2025-03-10_18h51.47.299,SL_sali_41,2021.2.3,Win32,60.24096386,,,94,0,94,0,1,,,,,,,,
,,"[""circle"",""red"",""hori"",""left"",[106,-106],[106,106]]",circle,red,hori,left,"[106,-106]","[106,106]",left,1,1.5748,,,,,,001,2025-03-10_18h51.47.299,SL_sali_41,2021.2.3,Win32,60.24096386,,,95,0,95,0,1,,,,,,,,
,,"[""circle"",""no_dis"",""hori"",""left"",[99999,99999],[-106,-106]]",circle,no_dis,hori,left,"[99999,99999]","[-106,-106]",left,1,2.2766,,,,,,001,2025-03-10_18h51.47.299,SL_sali_41,2021.2.3,Win32,60.24096386,,,96,0,96,0,1,,,,,,,,
,,"[""diamond"",""no_dis"",""hori"",""left"",[99999,99999],[-106,106]]",diamond,no_dis,hori,left,"[99999,99999]","[-106,106]",left,1,1.1663,,,,,,001,2025-03-10_18h51.47.299,SL_sali_41,2021.2.3,Win32,60.24096386,,,97,0,97,0,1,,,,,,,,
,,"[""diamond"",""green"",""vert"",""up"",[0,150],[-106,106]]",diamond,green,vert,up,"[0,150]","[-106,106]",up,1,1.4834,,,,,,001,2025-03-10_18h51.47.299,SL_sali_41,2021.2.3,Win32,60.24096386,,,98,0,98,0,1,,,,,,,,
,,"[""diamond"",""no_dis"",""hori"",""left"",[99999,99999],[150,0]]",diamond,no_dis,hori,left,"[99999,99999]","[150,0]",left,1,1.0242,,,,,,001,2025-03-10_18h51.47.299,SL_sali_41,2021.2.3,Win32,60.24096386,,,99,0,99,0,1,,,,,,,,
,,"[""diamond"",""green"",""vert"",""up"",[-150,0],[150,0]]",diamond,green,vert,up,"[-150,0]","[150,0]",up,1,1.0451,,,,,,001,2025-03-10_18h51.47.299,SL_sali_41,2021.2.3,Win32,60.24096386,,,100,0,100,0,1,,,,,,,,
,,"[""diamond"",""no_dis"",""vert"",""up"",[99999,99999],[0,-150]]",diamond,no_dis,vert,up,"[99999,99999]","[0,-150]",up,1,1.0681,,,,,,001,2025-03-10_18h51.47.299,SL_sali_41,2021.2.3,Win32,60.24096386,,,101,0,101,0,1,,,,,,,,
,,"[""diamond"",""red"",""hori"",""left"",[106,-106],[-106,-106]]",diamond,red,hori,left,"[106,-106]","[-106,-106]",left,1,1.233,,,,,,001,2025-03-10_18h51.47.299,SL_sali_41,2021.2.3,Win32,60.24096386,,,102,0,102,0,1,,,,,,,,
,,"[""diamond"",""red"",""hori"",""left"",[106,106],[0,-150]]",diamond,red,hori,left,"[106,106]","[0,-150]",left,1,1.5005,,,,,,001,2025-03-10_18h51.47.299,SL_sali_41,2021.2.3,Win32,60.24096386,,,103,0,103,0,1,,,,,,,,
,,"[""circle"",""no_dis"",""vert"",""up"",[99999,99999],[0,-150]]",circle,no_dis,vert,up,"[99999,99999]","[0,-150]",up,1,1.5906,,,,,,001,2025-03-10_18h51.47.299,SL_sali_41,2021.2.3,Win32,60.24096386,,,104,0,104,0,1,,,,,,,,
,,"[""diamond"",""green"",""vert"",""up"",[150,0],[106,106]]",diamond,green,vert,up,"[150,0]","[106,106]",up,1,1.882,,,,,,001,2025-03-10_18h51.47.299,SL_sali_41,2021.2.3,Win32,60.24096386,,,105,0,105,0,1,,,,,,,,
,,"[""circle"",""red"",""vert"",""up"",[0,150],[-106,-106]]",circle,red,vert,up,"[0,150]","[-106,-106]",up,1,1.5462,,,,,,001,2025-03-10_18h51.47.299,SL_sali_41,2021.2.3,Win32,60.24096386,,,106,0,106,0,1,,,,,,,,
,,"[""diamond"",""red"",""hori"",""left"",[-150,0],[106,-106]]",diamond,red,hori,left,"[-150,0]","[106,-106]",left,1,1.6176,,,,,,001,2025-03-10_18h51.47.299,SL_sali_41,2021.2.3,Win32,60.24096386,,,107,0,107,0,1,,,,,,,,
,,"[""diamond"",""red"",""vert"",""up"",[-106,-106],[-150,0]]",diamond,red,vert,up,"[-106,-106]","[-150,0]",up,1,1.6261,,,,,,001,2025-03-10_18h51.47.299,SL_sali_41,2021.2.3,Win32,60.24096386,,,108,0,108,0,1,,,,,,,,
,,"[""diamond"",""no_dis"",""hori"",""left"",[99999,99999],[106,106]]",diamond,no_dis,hori,left,"[99999,99999]","[106,106]",left,1,0.8651,,,,,,001,2025-03-10_18h51.47.299,SL_sali_41,2021.2.3,Win32,60.24096386,,,109,0,109,0,1,,,,,,,,
,,"[""diamond"",""no_dis"",""hori"",""left"",[99999,99999],[-150,0]]",diamond,no_dis,hori,left,"[99999,99999]","[-150,0]",left,1,1.2745,,,,,,001,2025-03-10_18h51.47.299,SL_sali_41,2021.2.3,Win32,60.24096386,,,110,0,110,0,1,,,,,,,,
,,"[""circle"",""red"",""hori"",""left"",[-106,106],[106,-106]]",circle,red,hori,left,"[-106,106]","[106,-106]",left,1,2.0582,,,,,,001,2025-03-10_18h51.47.299,SL_sali_41,2021.2.3,Win32,60.24096386,,,111,0,111,0,1,,,,,,,,
,,"[""diamond"",""green"",""vert"",""up"",[0,150],[-106,-106]]",diamond,green,vert,up,"[0,150]","[-106,-106]",up,1,0.9651,,,,,,001,2025-03-10_18h51.47.299,SL_sali_41,2021.2.3,Win32,60.24096386,,,112,0,112,0,1,,,,,,,,
,,"[""circle"",""no_dis"",""hori"",""left"",[99999,99999],[-106,-106]]",circle,no_dis,hori,left,"[99999,99999]","[-106,-106]",left,1,1.1023,,,,,,001,2025-03-10_18h51.47.299,SL_sali_41,2021.2.3,Win32,60.24096386,,,113,0,113,0,1,,,,,,,,
,,"[""circle"",""green"",""vert"",""up"",[0,150],[106,106]]",circle,green,vert,up,"[0,150]","[106,106]",up,1,1.9682,,,,,,001,2025-03-10_18h51.47.299,SL_sali_41,2021.2.3,Win32,60.24096386,,,114,0,114,0,1,,,,,,,,
,,"[""circle"",""red"",""vert"",""up"",[106,106],[0,150]]",circle,red,vert,up,"[106,106]","[0,150]",up,1,2.2383,,,,,,001,2025-03-10_18h51.47.299,SL_sali_41,2021.2.3,Win32,60.24096386,,,115,0,115,0,1,,,,,,,,
,,"[""diamond"",""no_dis"",""hori"",""left"",[99999,99999],[106,-106]]",diamond,no_dis,hori,left,"[99999,99999]","[106,-106]",left,1,2.2982,,,,,,001,2025-03-10_18h51.47.299,SL_sali_41,2021.2.3,Win32,60.24096386,,,116,0,116,0,1,,,,,,,,
,,"[""circle"",""red"",""vert"",""up"",[0,150],[106,-106]]",circle,red,vert,up,"[0,150]","[106,-106]",up,1,1.4681,,,,,,001,2025-03-10_18h51.47.299,SL_sali_41,2021.2.3,Win32,60.24096386,,,117,0,117,0,1,,,,,,,,
,,"[""diamond"",""red"",""vert"",""up"",[106,-106],[-106,-106]]",diamond,red,vert,up,"[106,-106]","[-106,-106]",left,0,2.4187,,,,,,001,2025-03-10_18h51.47.299,SL_sali_41,2021.2.3,Win32,60.24096386,,,118,0,118,0,1,,,,,,,,
,,"[""circle"",""red"",""vert"",""up"",[-106,-106],[-106,106]]",circle,red,vert,up,"[-106,-106]","[-106,106]",up,1,1.3048,,,,,,001,2025-03-10_18h51.47.299,SL_sali_41,2021.2.3,Win32,60.24096386,,,119,0,119,0,1,,,,,,,,
,,"[""circle"",""no_dis"",""vert"",""up"",[99999,99999],[-106,-106]]",circle,no_dis,vert,up,"[99999,99999]","[-106,-106]",left,0,1.7769,,,,,,001,2025-03-10_18h51.47.299,SL_sali_41,2021.2.3,Win32,60.24096386,,,120,0,120,0,1,,,,,,,,
,,"[""diamond"",""no_dis"",""vert"",""up"",[99999,99999],[106,-106]]",diamond,no_dis,vert,up,"[99999,99999]","[106,-106]",up,1,2.0008,,,,,,001,2025-03-10_18h51.47.299,SL_sali_41,2021.2.3,Win32,60.24096386,,,121,0,121,0,1,,,,,,,,
,,"[""circle"",""green"",""vert"",""up"",[0,-150],[150,0]]",circle,green,vert,up,"[0,-150]","[150,0]",up,1,1.3852,,,,,,001,2025-03-10_18h51.47.299,SL_sali_41,2021.2.3,Win32,60.24096386,,,122,0,122,0,1,,,,,,,,
,,"[""circle"",""no_dis"",""hori"",""left"",[99999,99999],[-106,-106]]",circle,no_dis,hori,left,"[99999,99999]","[-106,-106]",left,1,1.7667,,,,,,001,2025-03-10_18h51.47.299,SL_sali_41,2021.2.3,Win32,60.24096386,,,123,0,123,0,1,,,,,,,,
,,"[""diamond"",""red"",""hori"",""left"",[106,-106],[0,-150]]",diamond,red,hori,left,"[106,-106]","[0,-150]",left,1,1.7699,,,,,,001,2025-03-10_18h51.47.299,SL_sali_41,2021.2.3,Win32,60.24096386,,,124,0,124,0,1,,,,,,,,
,,"[""circle"",""green"",""hori"",""left"",[106,-106],[-106,106]]",circle,green,hori,left,"[106,-106]","[-106,106]",up,0,2.1937,,,,,,001,2025-03-10_18h51.47.299,SL_sali_41,2021.2.3,Win32,60.24096386,,,125,0,125,0,1,,,,,,,,
,,"[""circle"",""no_dis"",""hori"",""left"",[99999,99999],[0,150]]",circle,no_dis,hori,left,"[99999,99999]","[0,150]",left,1,1.4322,,,,,,001,2025-03-10_18h51.47.299,SL_sali_41,2021.2.3,Win32,60.24096386,,,126,0,126,0,1,,,,,,,,
,,"[""diamond"",""no_dis"",""vert"",""up"",[99999,99999],[106,-106]]",diamond,no_dis,vert,up,"[99999,99999]","[106,-106]",up,1,1.7037,,,,,,001,2025-03-10_18h51.47.299,SL_sali_41,2021.2.3,Win32,60.24096386,,,127,0,127,0,1,,,,,,,,
,,,,,,,,,,,,,,,,,001,2025-03-10_18h51.47.299,SL_sali_41,2021.2.3,Win32,60.24096386,,,,,,,,2,space,2.7934,1,0,1,0,1
,,"[""circle"",""green"",""hori"",""left"",[150,0],[106,106]]",circle,green,hori,left,"[150,0]","[106,106]",left,1,1.9703,,,,,,001,2025-03-10_18h51.47.299,SL_sali_41,2021.2.3,Win32,60.24096386,,,0,0,0,0,1,,,,,,,,
,,"[""diamond"",""green"",""vert"",""up"",[-150,0],[150,0]]",diamond,green,vert,up,"[-150,0]","[150,0]",up,1,2.0328,,,,,,001,2025-03-10_18h51.47.299,SL_sali_41,2021.2.3,Win32,60.24096386,,,1,0,1,0,1,,,,,,,,
,,"[""circle"",""red"",""vert"",""up"",[106,-106],[0,-150]]",circle,red,vert,up,"[106,-106]","[0,-150]",up,1,1.2852,,,,,,001,2025-03-10_18h51.47.299,SL_sali_41,2021.2.3,Win32,60.24096386,,,2,0,2,0,1,,,,,,,,
,,"[""circle"",""no_dis"",""hori"",""left"",[99999,99999],[106,-106]]",circle,no_dis,hori,left,"[99999,99999]","[106,-106]",left,1,2.2505,,,,,,001,2025-03-10_18h51.47.299,SL_sali_41,2021.2.3,Win32,60.24096386,,,3,0,3,0,1,,,,,,,,
,,"[""circle"",""red"",""vert"",""up"",[106,106],[-106,-106]]",circle,red,vert,up,"[106,106]","[-106,-106]",up,1,1.661,,,,,,001,2025-03-10_18h51.47.299,SL_sali_41,2021.2.3,Win32,60.24096386,,,4,0,4,0,1,,,,,,,,
,,"[""diamond"",""green"",""vert"",""up"",[-150,0],[-106,106]]",diamond,green,vert,up,"[-150,0]","[-106,106]",up,1,1.577,,,,,,001,2025-03-10_18h51.47.299,SL_sali_41,2021.2.3,Win32,60.24096386,,,5,0,5,0,1,,,,,,,,
,,"[""circle"",""red"",""vert"",""up"",[106,-106],[0,-150]]",circle,red,vert,up,"[106,-106]","[0,-150]",up,1,2.3523,,,,,,001,2025-03-10_18h51.47.299,SL_sali_41,2021.2.3,Win32,60.24096386,,,6,0,6,0,1,,,,,,,,
,,"[""diamond"",""green"",""hori"",""left"",[-106,-106],[106,-106]]",diamond,green,hori,left,"[-106,-106]","[106,-106]",left,1,1.6829,,,,,,001,2025-03-10_18h51.47.299,SL_sali_41,2021.2.3,Win32,60.24096386,,,7,0,7,0,1,,,,,,,,
,,"[""circle"",""no_dis"",""vert"",""up"",[99999,99999],[150,0]]",circle,no_dis,vert,up,"[99999,99999]","[150,0]",up,1,1.8419,,,,,,001,2025-03-10_18h51.47.299,SL_sali_41,2021.2.3,Win32,60.24096386,,,8,0,8,0,1,,,,,,,,
,,"[""circle"",""no_dis"",""hori"",""left"",[99999,99999],[0,150]]",circle,no_dis,hori,left,"[99999,99999]","[0,150]",left,1,1.8266,,,,,,001,2025-03-10_18h51.47.299,SL_sali_41,2021.2.3,Win32,60.24096386,,,9,0,9,0,1,,,,,,,,
,,"[""diamond"",""no_dis"",""hori"",""left"",[99999,99999],[0,-150]]",diamond,no_dis,hori,left,"[99999,99999]","[0,-150]",left,1,2.0809,,,,,,001,2025-03-10_18h51.47.299,SL_sali_41,2021.2.3,Win32,60.24096386,,,10,0,10,0,1,,,,,,,,
,,"[""diamond"",""no_dis"",""vert"",""up"",[99999,99999],[-150,0]]",diamond,no_dis,vert,up,"[99999,99999]","[-150,0]",up,1,1.7736,,,,,,001,2025-03-10_18h51.47.299,SL_sali_41,2021.2.3,Win32,60.24096386,,,11,0,11,0,1,,,,,,,,
,,"[""diamond"",""no_dis"",""hori"",""left"",[99999,99999],[-106,-106]]",diamond,no_dis,hori,left,"[99999,99999]","[-106,-106]",left,1,1.1986,,,,,,001,2025-03-10_18h51.47.299,SL_sali_41,2021.2.3,Win32,60.24096386,,,12,0,12,0,1,,,,,,,,
,,"[""diamond"",""red"",""vert"",""up"",[106,-106],[106,106]]",diamond,red,vert,up,"[106,-106]","[106,106]",up,1,1.2853,,,,,,001,2025-03-10_18h51.47.299,SL_sali_41,2021.2.3,Win32,60.24096386,,,13,0,13,0,1,,,,,,,,
,,"[""circle"",""red"",""hori"",""left"",[-106,106],[-150,0]]",circle,red,hori,left,"[-106,106]","[-150,0]",left,1,1.4289,,,,,,001,2025-03-10_18h51.47.299,SL_sali_41,2021.2.3,Win32,60.24096386,,,14,0,14,0,1,,,,,,,,
,,"[""circle"",""green"",""hori"",""left"",[-150,0],[-106,106]]",circle,green,hori,left,"[-150,0]","[-106,106]",left,1,2.7258,,,,,,001,2025-03-10_18h51.47.299,SL_sali_41,2021.2.3,Win32,60.24096386,,,15,0,15,0,1,,,,,,,,
,,"[""circle"",""green"",""hori"",""left"",[106,-106],[-106,106]]",circle,green,hori,left,"[106,-106]","[-106,106]",left,1,1.2225,,,,,,001,2025-03-10_18h51.47.299,SL_sali_41,2021.2.3,Win32,60.24096386,,,16,0,16,0,1,,,,,,,,
,,"[""circle"",""green"",""vert"",""up"",[-106,106],[-106,-106]]",circle,green,vert,up,"[-106,106]","[-106,-106]",up,1,1.2866,,,,,,001,2025-03-10_18h51.47.299,SL_sali_41,2021.2.3,Win32,60.24096386,,,17,0,17,0,1,,,,,,,,
,,"[""diamond"",""no_dis"",""vert"",""up"",[99999,99999],[106,106]]",diamond,no_dis,vert,up,"[99999,99999]","[106,106]",up,1,1.8831,,,,,,001,2025-03-10_18h51.47.299,SL_sali_41,2021.2.3,Win32,60.24096386,,,18,0,18,0,1,,,,,,,,
,,"[""diamond"",""no_dis"",""vert"",""up"",[99999,99999],[0,-150]]",diamond,no_dis,vert,up,"[99999,99999]","[0,-150]",up,1,0.9696,,,,,,001,2025-03-10_18h51.47.299,SL_sali_41,2021.2.3,Win32,60.24096386,,,19,0,19,0,1,,,,,,,,
,,"[""diamond"",""red"",""vert"",""up"",[106,-106],[-150,0]]",diamond,red,vert,up,"[106,-106]","[-150,0]",up,1,1.0366,,,,,,001,2025-03-10_18h51.47.299,SL_sali_41,2021.2.3,Win32,60.24096386,,,20,0,20,0,1,,,,,,,,
,,"[""diamond"",""red"",""hori"",""left"",[106,106],[150,0]]",diamond,red,hori,left,"[106,106]","[150,0]",left,1,1.5823,,,,,,001,2025-03-10_18h51.47.299,SL_sali_41,2021.2.3,Win32,60.24096386,,,21,0,21,0,1,,,,,,,,
,,"[""diamond"",""red"",""hori"",""left"",[106,-106],[-150,0]]",diamond,red,hori,left,"[106,-106]","[-150,0]",left,1,0.9298,,,,,,001,2025-03-10_18h51.47.299,SL_sali_41,2021.2.3,Win32,60.24096386,,,22,0,22,0,1,,,,,,,,
,,"[""circle"",""red"",""vert"",""up"",[106,106],[0,150]]",circle,red,vert,up,"[106,106]","[0,150]",up,1,1.3845,,,,,,001,2025-03-10_18h51.47.299,SL_sali_41,2021.2.3,Win32,60.24096386,,,23,0,23,0,1,,,,,,,,
,,"[""diamond"",""green"",""hori"",""left"",[-106,106],[0,-150]]",diamond,green,hori,left,"[-106,106]","[0,-150]",left,1,1.1957,,,,,,001,2025-03-10_18h51.47.299,SL_sali_41,2021.2.3,Win32,60.24096386,,,24,0,24,0,1,,,,,,,,
,,"[""circle"",""green"",""hori"",""left"",[-106,106],[-150,0]]",circle,green,hori,left,"[-106,106]","[-150,0]",left,1,1.9436,,,,,,001,2025-03-10_18h51.47.299,SL_sali_41,2021.2.3,Win32,60.24096386,,,25,0,25,0,1,,,,,,,,
,,"[""diamond"",""green"",""vert"",""up"",[0,-150],[-106,106]]",diamond,green,vert,up,"[0,-150]","[-106,106]",up,1,1.618,,,,,,001,2025-03-10_18h51.47.299,SL_sali_41,2021.2.3,Win32,60.24096386,,,26,0,26,0,1,,,,,,,,
,,"[""circle"",""green"",""hori"",""left"",[150,0],[-106,-106]]",circle,green,hori,left,"[150,0]","[-106,-106]",up,0,2.4675,,,,,,001,2025-03-10_18h51.47.299,SL_sali_41,2021.2.3,Win32,60.24096386,,,27,0,27,0,1,,,,,,,,
,,"[""diamond"",""no_dis"",""hori"",""left"",[99999,99999],[106,-106]]",diamond,no_dis,hori,left,"[99999,99999]","[106,-106]",left,1,1.0405,,,,,,001,2025-03-10_18h51.47.299,SL_sali_41,2021.2.3,Win32,60.24096386,,,28,0,28,0,1,,,,,,,,
,,"[""circle"",""red"",""vert"",""up"",[106,-106],[150,0]]",circle,red,vert,up,"[106,-106]","[150,0]",up,1,1.306,,,,,,001,2025-03-10_18h51.47.299,SL_sali_41,2021.2.3,Win32,60.24096386,,,29,0,29,0,1,,,,,,,,
,,"[""circle"",""no_dis"",""vert"",""up"",[99999,99999],[-106,-106]]",circle,no_dis,vert,up,"[99999,99999]","[-106,-106]",up,1,2.036,,,,,,001,2025-03-10_18h51.47.299,SL_sali_41,2021.2.3,Win32,60.24096386,,,30,0,30,0,1,,,,,,,,
,,"[""diamond"",""red"",""vert"",""up"",[106,-106],[-106,-106]]",diamond,red,vert,up,"[106,-106]","[-106,-106]",up,1,1.6539,,,,,,001,2025-03-10_18h51.47.299,SL_sali_41,2021.2.3,Win32,60.24096386,,,31,0,31,0,1,,,,,,,,
,,"[""circle"",""green"",""vert"",""up"",[106,106],[0,150]]",circle,green,vert,up,"[106,106]","[0,150]",up,1,1.7347,,,,,,001,2025-03-10_18h51.47.299,SL_sali_41,2021.2.3,Win32,60.24096386,,,32,0,32,0,1,,,,,,,,
,,"[""diamond"",""green"",""vert"",""up"",[106,-106],[-106,106]]",diamond,green,vert,up,"[106,-106]","[-106,106]",up,1,1.6787,,,,,,001,2025-03-10_18h51.47.299,SL_sali_41,2021.2.3,Win32,60.24096386,,,33,0,33,0,1,,,,,,,,
,,"[""circle"",""green"",""vert"",""up"",[0,-150],[0,150]]",circle,green,vert,up,"[0,-150]","[0,150]",up,1,2.4273,,,,,,001,2025-03-10_18h51.47.299,SL_sali_41,2021.2.3,Win32,60.24096386,,,34,0,34,0,1,,,,,,,,
,,"[""diamond"",""green"",""vert"",""up"",[0,150],[-106,-106]]",diamond,green,vert,up,"[0,150]","[-106,-106]",up,1,1.3107,,,,,,001,2025-03-10_18h51.47.299,SL_sali_41,2021.2.3,Win32,60.24096386,,,35,0,35,0,1,,,,,,,,
,,"[""diamond"",""red"",""hori"",""left"",[106,-106],[-106,-106]]",diamond,red,hori,left,"[106,-106]","[-106,-106]",left,1,1.6924,,,,,,001,2025-03-10_18h51.47.299,SL_sali_41,2021.2.3,Win32,60.24096386,,,36,0,36,0,1,,,,,,,,
,,"[""circle"",""green"",""vert"",""up"",[0,150],[106,106]]",circle,green,vert,up,"[0,150]","[106,106]",up,1,1.44,,,,,,001,2025-03-10_18h51.47.299,SL_sali_41,2021.2.3,Win32,60.24096386,,,37,0,37,0,1,,,,,,,,
,,"[""circle"",""no_dis"",""vert"",""up"",[99999,99999],[0,150]]",circle,no_dis,vert,up,"[99999,99999]","[0,150]",up,1,2.0459,,,,,,001,2025-03-10_18h51.47.299,SL_sali_41,2021.2.3,Win32,60.24096386,,,38,0,38,0,1,,,,,,,,
,,"[""circle"",""green"",""vert"",""up"",[0,150],[106,-106]]",circle,green,vert,up,"[0,150]","[106,-106]",up,1,1.0452,,,,,,001,2025-03-10_18h51.47.299,SL_sali_41,2021.2.3,Win32,60.24096386,,,39,0,39,0,1,,,,,,,,
,,"[""circle"",""green"",""hori"",""left"",[106,-106],[-106,106]]",circle,green,hori,left,"[106,-106]","[-106,106]",left,1,1.0371,,,,,,001,2025-03-10_18h51.47.299,SL_sali_41,2021.2.3,Win32,60.24096386,,,40,0,40,0,1,,,,,,,,
,,"[""circle"",""green"",""vert"",""up"",[150,0],[-106,106]]",circle,green,vert,up,"[150,0]","[-106,106]",up,1,1.0042,,,,,,001,2025-03-10_18h51.47.299,SL_sali_41,2021.2.3,Win32,60.24096386,,,41,0,41,0,1,,,,,,,,
,,"[""diamond"",""no_dis"",""hori"",""left"",[99999,99999],[150,0]]",diamond,no_dis,hori,left,"[99999,99999]","[150,0]",left,1,1.082,,,,,,001,2025-03-10_18h51.47.299,SL_sali_41,2021.2.3,Win32,60.24096386,,,42,0,42,0,1,,,,,,,,
,,"[""diamond"",""green"",""hori"",""left"",[106,-106],[-106,-106]]",diamond,green,hori,left,"[106,-106]","[-106,-106]",left,1,0.8064,,,,,,001,2025-03-10_18h51.47.299,SL_sali_41,2021.2.3,Win32,60.24096386,,,43,0,43,0,1,,,,,,,,
,,"[""circle"",""green"",""vert"",""up"",[106,-106],[106,106]]",circle,green,vert,up,"[106,-106]","[106,106]",up,1,1.603,,,,,,001,2025-03-10_18h51.47.299,SL_sali_41,2021.2.3,Win32,60.24096386,,,44,0,44,0,1,,,,,,,,
,,"[""diamond"",""no_dis"",""vert"",""up"",[99999,99999],[106,106]]",diamond,no_dis,vert,up,"[99999,99999]","[106,106]",up,1,1.1724,,,,,,001,2025-03-10_18h51.47.299,SL_sali_41,2021.2.3,Win32,60.24096386,,,45,0,45,0,1,,,,,,,,
,,"[""circle"",""red"",""hori"",""left"",[150,0],[-106,-106]]",circle,red,hori,left,"[150,0]","[-106,-106]",left,1,1.7486,,,,,,001,2025-03-10_18h51.47.299,SL_sali_41,2021.2.3,Win32,60.24096386,,,46,0,46,0,1,,,,,,,,
,,"[""circle"",""no_dis"",""hori"",""left"",[99999,99999],[-106,106]]",circle,no_dis,hori,left,"[99999,99999]","[-106,106]",left,1,1.6382,,,,,,001,2025-03-10_18h51.47.299,SL_sali_41,2021.2.3,Win32,60.24096386,,,47,0,47,0,1,,,,,,,,
,,"[""diamond"",""red"",""vert"",""up"",[106,-106],[0,-150]]",diamond,red,vert,up,"[106,-106]","[0,-150]",up,1,1.3377,,,,,,001,2025-03-10_18h51.47.299,SL_sali_41,2021.2.3,Win32,60.24096386,,,48,0,48,0,1,,,,,,,,
,,"[""diamond"",""no_dis"",""vert"",""up"",[99999,99999],[106,-106]]",diamond,no_dis,vert,up,"[99999,99999]","[106,-106]",up,1,0.9549,,,,,,001,2025-03-10_18h51.47.299,SL_sali_41,2021.2.3,Win32,60.24096386,,,49,0,49,0,1,,,,,,,,
,,"[""circle"",""green"",""hori"",""left"",[0,150],[-106,106]]",circle,green,hori,left,"[0,150]","[-106,106]",left,1,1.3325,,,,,,001,2025-03-10_18h51.47.299,SL_sali_41,2021.2.3,Win32,60.24096386,,,50,0,50,0,1,,,,,,,,
,,"[""circle"",""red"",""hori"",""left"",[-150,0],[-106,-106]]",circle,red,hori,left,"[-150,0]","[-106,-106]",left,1,1.5767,,,,,,001,2025-03-10_18h51.47.299,SL_sali_41,2021.2.3,Win32,60.24096386,,,51,0,51,0,1,,,,,,,,
,,"[""diamond"",""red"",""vert"",""up"",[-106,-106],[-150,0]]",diamond,red,vert,up,"[-106,-106]","[-150,0]",up,1,1.4454,,,,,,001,2025-03-10_18h51.47.299,SL_sali_41,2021.2.3,Win32,60.24096386,,,52,0,52,0,1,,,,,,,,
,,"[""diamond"",""green"",""vert"",""up"",[0,150],[-106,106]]",diamond,green,vert,up,"[0,150]","[-106,106]",up,1,1.119,,,,,,001,2025-03-10_18h51.47.299,SL_sali_41,2021.2.3,Win32,60.24096386,,,53,0,53,0,1,,,,,,,,
,,"[""diamond"",""red"",""vert"",""up"",[106,106],[-150,0]]",diamond,red,vert,up,"[106,106]","[-150,0]",up,1,1.1445,,,,,,001,2025-03-10_18h51.47.299,SL_sali_41,2021.2.3,Win32,60.24096386,,,54,0,54,0,1,,,,,,,,
,,"[""diamond"",""no_dis"",""hori"",""left"",[99999,99999],[150,0]]",diamond,no_dis,hori,left,"[99999,99999]","[150,0]",up,0,0.7783,,,,,,001,2025-03-10_18h51.47.299,SL_sali_41,2021.2.3,Win32,60.24096386,,,55,0,55,0,1,,,,,,,,
,,"[""diamond"",""no_dis"",""vert"",""up"",[99999,99999],[106,-106]]",diamond,no_dis,vert,up,"[99999,99999]","[106,-106]",up,1,0.8967,,,,,,001,2025-03-10_18h51.47.299,SL_sali_41,2021.2.3,Win32,60.24096386,,,56,0,56,0,1,,,,,,,,
,,"[""circle"",""no_dis"",""hori"",""left"",[99999,99999],[-150,0]]",circle,no_dis,hori,left,"[99999,99999]","[-150,0]",left,1,1.3328,,,,,,001,2025-03-10_18h51.47.299,SL_sali_41,2021.2.3,Win32,60.24096386,,,57,0,57,0,1,,,,,,,,
,,"[""circle"",""red"",""hori"",""left"",[106,-106],[106,106]]",circle,red,hori,left,"[106,-106]","[106,106]",left,1,1.0045,,,,,,001,2025-03-10_18h51.47.299,SL_sali_41,2021.2.3,Win32,60.24096386,,,58,0,58,0,1,,,,,,,,
,,"[""circle"",""red"",""hori"",""left"",[-106,106],[106,-106]]",circle,red,hori,left,"[-106,106]","[106,-106]",left,1,0.9269,,,,,,001,2025-03-10_18h51.47.299,SL_sali_41,2021.2.3,Win32,60.24096386,,,59,0,59,0,1,,,,,,,,
,,"[""circle"",""red"",""hori"",""left"",[-150,0],[0,150]]",circle,red,hori,left,"[-150,0]","[0,150]",left,1,1.2475,,,,,,001,2025-03-10_18h51.47.299,SL_sali_41,2021.2.3,Win32,60.24096386,,,60,0,60,0,1,,,,,,,,
,,"[""diamond"",""green"",""hori"",""left"",[-106,-106],[-150,0]]",diamond,green,hori,left,"[-106,-106]","[-150,0]",left,1,1.4449,,,,,,001,2025-03-10_18h51.47.299,SL_sali_41,2021.2.3,Win32,60.24096386,,,61,0,61,0,1,,,,,,,,
,,"[""circle"",""no_dis"",""vert"",""up"",[99999,99999],[0,-150]]",circle,no_dis,vert,up,"[99999,99999]","[0,-150]",up,1,1.8753,,,,,,001,2025-03-10_18h51.47.299,SL_sali_41,2021.2.3,Win32,60.24096386,,,62,0,62,0,1,,,,,,,,
,,"[""diamond"",""red"",""hori"",""left"",[-106,-106],[106,106]]",diamond,red,hori,left,"[-106,-106]","[106,106]",up,0,1.3189,,,,,,001,2025-03-10_18h51.47.299,SL_sali_41,2021.2.3,Win32,60.24096386,,,63,0,63,0,1,,,,,,,,
,,"[""circle"",""no_dis"",""vert"",""up"",[99999,99999],[-150,0]]",circle,no_dis,vert,up,"[99999,99999]","[-150,0]",up,1,2.3541,,,,,,001,2025-03-10_18h51.47.299,SL_sali_41,2021.2.3,Win32,60.24096386,,,64,0,64,0,1,,,,,,,,
,,"[""diamond"",""red"",""vert"",""up"",[106,-106],[-106,106]]",diamond,red,vert,up,"[106,-106]","[-106,106]",up,1,2.4064,,,,,,001,2025-03-10_18h51.47.299,SL_sali_41,2021.2.3,Win32,60.24096386,,,65,0,65,0,1,,,,,,,,
,,"[""diamond"",""green"",""vert"",""up"",[106,-106],[150,0]]",diamond,green,vert,up,"[106,-106]","[150,0]",up,1,1.5915,,,,,,001,2025-03-10_18h51.47.299,SL_sali_41,2021.2.3,Win32,60.24096386,,,66,0,66,0,1,,,,,,,,
,,"[""diamond"",""no_dis"",""hori"",""left"",[99999,99999],[-106,106]]",diamond,no_dis,hori,left,"[99999,99999]","[-106,106]",left,1,1.6355,,,,,,001,2025-03-10_18h51.47.299,SL_sali_41,2021.2.3,Win32,60.24096386,,,67,0,67,0,1,,,,,,,,
,,"[""circle"",""no_dis"",""vert"",""up"",[99999,99999],[0,150]]",circle,no_dis,vert,up,"[99999,99999]","[0,150]",up,1,2.1555,,,,,,001,2025-03-10_18h51.47.299,SL_sali_41,2021.2.3,Win32,60.24096386,,,68,0,68,0,1,,,,,,,,
,,"[""circle"",""no_dis"",""hori"",""left"",[99999,99999],[-106,-106]]",circle,no_dis,hori,left,"[99999,99999]","[-106,-106]",left,1,2.158,,,,,,001,2025-03-10_18h51.47.299,SL_sali_41,2021.2.3,Win32,60.24096386,,,69,0,69,0,1,,,,,,,,
,,"[""diamond"",""red"",""hori"",""left"",[106,-106],[150,0]]",diamond,red,hori,left,"[106,-106]","[150,0]",left,1,1.2644,,,,,,001,2025-03-10_18h51.47.299,SL_sali_41,2021.2.3,Win32,60.24096386,,,70,0,70,0,1,,,,,,,,
,,"[""circle"",""no_dis"",""hori"",""left"",[99999,99999],[-106,-106]]",circle,no_dis,hori,left,"[99999,99999]","[-106,-106]",left,1,1.1246,,,,,,001,2025-03-10_18h51.47.299,SL_sali_41,2021.2.3,Win32,60.24096386,,,71,0,71,0,1,,,,,,,,
,,"[""circle"",""green"",""hori"",""left"",[-106,106],[-150,0]]",circle,green,hori,left,"[-106,106]","[-150,0]",left,1,1.1425,,,,,,001,2025-03-10_18h51.47.299,SL_sali_41,2021.2.3,Win32,60.24096386,,,72,0,72,0,1,,,,,,,,
,,"[""diamond"",""red"",""hori"",""left"",[106,-106],[-106,106]]",diamond,red,hori,left,"[106,-106]","[-106,106]",left,1,1.1811,,,,,,001,2025-03-10_18h51.47.299,SL_sali_41,2021.2.3,Win32,60.24096386,,,73,0,73,0,1,,,,,,,,
,,"[""diamond"",""no_dis"",""hori"",""left"",[99999,99999],[106,106]]",diamond,no_dis,hori,left,"[99999,99999]","[106,106]",left,1,1.2041,,,,,,001,2025-03-10_18h51.47.299,SL_sali_41,2021.2.3,Win32,60.24096386,,,74,0,74,0,1,,,,,,,,
,,"[""circle"",""no_dis"",""vert"",""up"",[99999,99999],[106,106]]",circle,no_dis,vert,up,"[99999,99999]","[106,106]",up,1,1.7316,,,,,,001,2025-03-10_18h51.47.299,SL_sali_41,2021.2.3,Win32,60.24096386,,,75,0,75,0,1,,,,,,,,
,,"[""circle"",""red"",""vert"",""up"",[-106,106],[106,-106]]",circle,red,vert,up,"[-106,106]","[106,-106]",left,0,1.2689,,,,,,001,2025-03-10_18h51.47.299,SL_sali_41,2021.2.3,Win32,60.24096386,,,76,0,76,0,1,,,,,,,,
,,"[""circle"",""red"",""hori"",""left"",[-106,-106],[106,106]]",circle,red,hori,left,"[-106,-106]","[106,106]",left,1,0.9704,,,,,,001,2025-03-10_18h51.47.299,SL_sali_41,2021.2.3,Win32,60.24096386,,,77,0,77,0,1,,,,,,,,
,,"[""diamond"",""green"",""hori"",""left"",[106,106],[-106,106]]",diamond,green,hori,left,"[106,106]","[-106,106]",left,1,1.4978,,,,,,001,2025-03-10_18h51.47.299,SL_sali_41,2021.2.3,Win32,60.24096386,,,78,0,78,0,1,,,,,,,,
,,"[""circle"",""red"",""hori"",""left"",[106,-106],[0,150]]",circle,red,hori,left,"[106,-106]","[0,150]",left,1,1.7595,,,,,,001,2025-03-10_18h51.47.299,SL_sali_41,2021.2.3,Win32,60.24096386,,,79,0,79,0,1,,,,,,,,
,,"[""diamond"",""green"",""hori"",""left"",[0,-150],[0,150]]",diamond,green,hori,left,"[0,-150]","[0,150]",left,1,1.81,,,,,,001,2025-03-10_18h51.47.299,SL_sali_41,2021.2.3,Win32,60.24096386,,,80,0,80,0,1,,,,,,,,
,,"[""circle"",""red"",""vert"",""up"",[0,150],[106,-106]]",circle,red,vert,up,"[0,150]","[106,-106]",up,1,1.305,,,,,,001,2025-03-10_18h51.47.299,SL_sali_41,2021.2.3,Win32,60.24096386,,,81,0,81,0,1,,,,,,,,
,,"[""diamond"",""green"",""vert"",""up"",[150,0],[-106,-106]]",diamond,green,vert,up,"[150,0]","[-106,-106]",up,1,1.6737,,,,,,001,2025-03-10_18h51.47.299,SL_sali_41,2021.2.3,Win32,60.24096386,,,82,0,82,0,1,,,,,,,,
,,"[""circle"",""red"",""hori"",""left"",[-150,0],[-106,106]]",circle,red,hori,left,"[-150,0]","[-106,106]",left,1,1.8003,,,,,,001,2025-03-10_18h51.47.299,SL_sali_41,2021.2.3,Win32,60.24096386,,,83,0,83,0,1,,,,,,,,
,,"[""diamond"",""no_dis"",""hori"",""left"",[99999,99999],[-150,0]]",diamond,no_dis,hori,left,"[99999,99999]","[-150,0]",left,1,2.3574,,,,,,001,2025-03-10_18h51.47.299,SL_sali_41,2021.2.3,Win32,60.24096386,,,84,0,84,0,1,,,,,,,,
,,"[""diamond"",""red"",""vert"",""up"",[106,-106],[150,0]]",diamond,red,vert,up,"[106,-106]","[150,0]",up,1,1.7226,,,,,,001,2025-03-10_18h51.47.299,SL_sali_41,2021.2.3,Win32,60.24096386,,,85,0,85,0,1,,,,,,,,
,,"[""diamond"",""no_dis"",""hori"",""left"",[99999,99999],[106,106]]",diamond,no_dis,hori,left,"[99999,99999]","[106,106]",left,1,0.9513,,,,,,001,2025-03-10_18h51.47.299,SL_sali_41,2021.2.3,Win32,60.24096386,,,86,0,86,0,1,,,,,,,,
,,"[""circle"",""no_dis"",""hori"",""left"",[99999,99999],[150,0]]",circle,no_dis,hori,left,"[99999,99999]","[150,0]",left,1,1.9282,,,,,,001,2025-03-10_18h51.47.299,SL_sali_41,2021.2.3,Win32,60.24096386,,,87,0,87,0,1,,,,,,,,
,,"[""diamond"",""no_dis"",""vert"",""up"",[99999,99999],[0,-150]]",diamond,no_dis,vert,up,"[99999,99999]","[0,-150]",up,1,1.0835,,,,,,001,2025-03-10_18h51.47.299,SL_sali_41,2021.2.3,Win32,60.24096386,,,88,0,88,0,1,,,,,,,,
,,"[""circle"",""green"",""vert"",""up"",[0,-150],[150,0]]",circle,green,vert,up,"[0,-150]","[150,0]",up,1,1.375,,,,,,001,2025-03-10_18h51.47.299,SL_sali_41,2021.2.3,Win32,60.24096386,,,89,0,89,0,1,,,,,,,,
,,"[""circle"",""red"",""vert"",""up"",[-106,106],[106,-106]]",circle,red,vert,up,"[-106,106]","[106,-106]",up,1,1.0055,,,,,,001,2025-03-10_18h51.47.299,SL_sali_41,2021.2.3,Win32,60.24096386,,,90,0,90,0,1,,,,,,,,
,,"[""diamond"",""no_dis"",""vert"",""up"",[99999,99999],[-106,106]]",diamond,no_dis,vert,up,"[99999,99999]","[-106,106]",up,1,1.1645,,,,,,001,2025-03-10_18h51.47.299,SL_sali_41,2021.2.3,Win32,60.24096386,,,91,0,91,0,1,,,,,,,,
,,"[""diamond"",""green"",""hori"",""left"",[106,-106],[106,106]]",diamond,green,hori,left,"[106,-106]","[106,106]",left,1,0.824,,,,,,001,2025-03-10_18h51.47.299,SL_sali_41,2021.2.3,Win32,60.24096386,,,92,0,92,0,1,,,,,,,,
,,"[""circle"",""green"",""hori"",""left"",[0,150],[106,-106]]",circle,green,hori,left,"[0,150]","[106,-106]",left,1,1.0977,,,,,,001,2025-03-10_18h51.47.299,SL_sali_41,2021.2.3,Win32,60.24096386,,,93,0,93,0,1,,,,,,,,
,,"[""diamond"",""red"",""vert"",""up"",[106,-106],[-150,0]]",diamond,red,vert,up,"[106,-106]","[-150,0]",left,0,1.1511,,,,,,001,2025-03-10_18h51.47.299,SL_sali_41,2021.2.3,Win32,60.24096386,,,94,0,94,0,1,,,,,,,,
,,"[""circle"",""red"",""hori"",""left"",[150,0],[106,106]]",circle,red,hori,left,"[150,0]","[106,106]",left,1,1.2222,,,,,,001,2025-03-10_18h51.47.299,SL_sali_41,2021.2.3,Win32,60.24096386,,,95,0,95,0,1,,,,,,,,
,,"[""circle"",""red"",""vert"",""up"",[0,150],[-106,-106]]",circle,red,vert,up,"[0,150]","[-106,-106]",up,1,1.4829,,,,,,001,2025-03-10_18h51.47.299,SL_sali_41,2021.2.3,Win32,60.24096386,,,96,0,96,0,1,,,,,,,,
,,"[""diamond"",""red"",""hori"",""left"",[-150,0],[106,-106]]",diamond,red,hori,left,"[-150,0]","[106,-106]",left,1,1.1607,,,,,,001,2025-03-10_18h51.47.299,SL_sali_41,2021.2.3,Win32,60.24096386,,,97,0,97,0,1,,,,,,,,
,,"[""circle"",""green"",""vert"",""up"",[106,-106],[106,106]]",circle,green,vert,up,"[106,-106]","[106,106]",up,1,2.0427,,,,,,001,2025-03-10_18h51.47.299,SL_sali_41,2021.2.3,Win32,60.24096386,,,98,0,98,0,1,,,,,,,,
,,"[""diamond"",""red"",""vert"",""up"",[106,-106],[150,0]]",diamond,red,vert,up,"[106,-106]","[150,0]",up,1,1.4379,,,,,,001,2025-03-10_18h51.47.299,SL_sali_41,2021.2.3,Win32,60.24096386,,,99,0,99,0,1,,,,,,,,
,,"[""diamond"",""green"",""vert"",""up"",[150,0],[106,106]]",diamond,green,vert,up,"[150,0]","[106,106]",up,1,1.7266,,,,,,001,2025-03-10_18h51.47.299,SL_sali_41,2021.2.3,Win32,60.24096386,,,100,0,100,0,1,,,,,,,,
,,"[""circle"",""no_dis"",""hori"",""left"",[99999,99999],[-106,-106]]",circle,no_dis,hori,left,"[99999,99999]","[-106,-106]",left,1,1.2711,,,,,,001,2025-03-10_18h51.47.299,SL_sali_41,2021.2.3,Win32,60.24096386,,,101,0,101,0,1,,,,,,,,
,,"[""circle"",""no_dis"",""vert"",""up"",[99999,99999],[106,-106]]",circle,no_dis,vert,up,"[99999,99999]","[106,-106]",up,1,1.0057,,,,,,001,2025-03-10_18h51.47.299,SL_sali_41,2021.2.3,Win32,60.24096386,,,102,0,102,0,1,,,,,,,,
,,"[""circle"",""green"",""hori"",""left"",[106,106],[150,0]]",circle,green,hori,left,"[106,106]","[150,0]",left,1,1.164,,,,,,001,2025-03-10_18h51.47.299,SL_sali_41,2021.2.3,Win32,60.24096386,,,103,0,103,0,1,,,,,,,,
,,"[""circle"",""no_dis"",""hori"",""left"",[99999,99999],[0,150]]",circle,no_dis,hori,left,"[99999,99999]","[0,150]",left,1,0.9638,,,,,,001,2025-03-10_18h51.47.299,SL_sali_41,2021.2.3,Win32,60.24096386,,,104,0,104,0,1,,,,,,,,
,,"[""diamond"",""no_dis"",""vert"",""up"",[99999,99999],[0,150]]",diamond,no_dis,vert,up,"[99999,99999]","[0,150]",up,1,2.0438,,,,,,001,2025-03-10_18h51.47.299,SL_sali_41,2021.2.3,Win32,60.24096386,,,105,0,105,0,1,,,,,,,,
,,"[""diamond"",""red"",""hori"",""left"",[106,-106],[-106,-106]]",diamond,red,hori,left,"[106,-106]","[-106,-106]",up,0,2.4273,,,,,,001,2025-03-10_18h51.47.299,SL_sali_41,2021.2.3,Win32,60.24096386,,,106,0,106,0,1,,,,,,,,
,,"[""diamond"",""no_dis"",""hori"",""left"",[99999,99999],[-150,0]]",diamond,no_dis,hori,left,"[99999,99999]","[-150,0]",left,1,1.4319,,,,,,001,2025-03-10_18h51.47.299,SL_sali_41,2021.2.3,Win32,60.24096386,,,107,0,107,0,1,,,,,,,,
,,"[""circle"",""no_dis"",""hori"",""left"",[99999,99999],[-106,106]]",circle,no_dis,hori,left,"[99999,99999]","[-106,106]",left,1,1.13,,,,,,001,2025-03-10_18h51.47.299,SL_sali_41,2021.2.3,Win32,60.24096386,,,108,0,108,0,1,,,,,,,,
,,"[""diamond"",""red"",""vert"",""up"",[150,0],[106,106]]",diamond,red,vert,up,"[150,0]","[106,106]",up,1,1.3876,,,,,,001,2025-03-10_18h51.47.299,SL_sali_41,2021.2.3,Win32,60.24096386,,,109,0,109,0,1,,,,,,,,
,,"[""circle"",""red"",""vert"",""up"",[-106,-106],[0,-150]]",circle,red,vert,up,"[-106,-106]","[0,-150]",up,1,1.737,,,,,,001,2025-03-10_18h51.47.299,SL_sali_41,2021.2.3,Win32,60.24096386,,,110,0,110,0,1,,,,,,,,
,,"[""circle"",""green"",""vert"",""up"",[106,-106],[0,150]]",circle,green,vert,up,"[106,-106]","[0,150]",up,1,1.8118,,,,,,001,2025-03-10_18h51.47.299,SL_sali_41,2021.2.3,Win32,60.24096386,,,111,0,111,0,1,,,,,,,,
,,"[""circle"",""green"",""vert"",""up"",[106,-106],[106,106]]",circle,green,vert,up,"[106,-106]","[106,106]",up,1,1.4396,,,,,,001,2025-03-10_18h51.47.299,SL_sali_41,2021.2.3,Win32,60.24096386,,,112,0,112,0,1,,,,,,,,
,,"[""circle"",""no_dis"",""vert"",""up"",[99999,99999],[0,-150]]",circle,no_dis,vert,up,"[99999,99999]","[0,-150]",up,1,1.4226,,,,,,001,2025-03-10_18h51.47.299,SL_sali_41,2021.2.3,Win32,60.24096386,,,113,0,113,0,1,,,,,,,,
,,"[""diamond"",""red"",""hori"",""left"",[0,-150],[-150,0]]",diamond,red,hori,left,"[0,-150]","[-150,0]",left,1,1.0052,,,,,,001,2025-03-10_18h51.47.299,SL_sali_41,2021.2.3,Win32,60.24096386,,,114,0,114,0,1,,,,,,,,
,,"[""diamond"",""green"",""hori"",""left"",[106,-106],[150,0]]",diamond,green,hori,left,"[106,-106]","[150,0]",left,1,0.936,,,,,,001,2025-03-10_18h51.47.299,SL_sali_41,2021.2.3,Win32,60.24096386,,,115,0,115,0,1,,,,,,,,
,,"[""diamond"",""red"",""hori"",""left"",[106,-106],[0,-150]]",diamond,red,hori,left,"[106,-106]","[0,-150]",left,1,1.1324,,,,,,001,2025-03-10_18h51.47.299,SL_sali_41,2021.2.3,Win32,60.24096386,,,116,0,116,0,1,,,,,,,,
,,"[""diamond"",""no_dis"",""vert"",""up"",[99999,99999],[150,0]]",diamond,no_dis,vert,up,"[99999,99999]","[150,0]",up,1,1.7543,,,,,,001,2025-03-10_18h51.47.299,SL_sali_41,2021.2.3,Win32,60.24096386,,,117,0,117,0,1,,,,,,,,
,,"[""circle"",""red"",""vert"",""up"",[-106,-106],[-106,106]]",circle,red,vert,up,"[-106,-106]","[-106,106]",up,1,1.6088,,,,,,001,2025-03-10_18h51.47.299,SL_sali_41,2021.2.3,Win32,60.24096386,,,118,0,118,0,1,,,,,,,,
,,"[""diamond"",""red"",""hori"",""left"",[106,106],[0,-150]]",diamond,red,hori,left,"[106,106]","[0,-150]",left,1,1.4626,,,,,,001,2025-03-10_18h51.47.299,SL_sali_41,2021.2.3,Win32,60.24096386,,,119,0,119,0,1,,,,,,,,
,,"[""diamond"",""green"",""hori"",""left"",[0,-150],[150,0]]",diamond,green,hori,left,"[0,-150]","[150,0]",left,1,1.5505,,,,,,001,2025-03-10_18h51.47.299,SL_sali_41,2021.2.3,Win32,60.24096386,,,120,0,120,0,1,,,,,,,,
,,"[""diamond"",""green"",""vert"",""up"",[106,-106],[0,-150]]",diamond,green,vert,up,"[106,-106]","[0,-150]",up,1,1.4859,,,,,,001,2025-03-10_18h51.47.299,SL_sali_41,2021.2.3,Win32,60.24096386,,,121,0,121,0,1,,,,,,,,
,,"[""circle"",""green"",""hori"",""left"",[-106,-106],[106,-106]]",circle,green,hori,left,"[-106,-106]","[106,-106]",left,1,1.3004,,,,,,001,2025-03-10_18h51.47.299,SL_sali_41,2021.2.3,Win32,60.24096386,,,122,0,122,0,1,,,,,,,,
,,"[""diamond"",""green"",""hori"",""left"",[106,-106],[150,0]]",diamond,green,hori,left,"[106,-106]","[150,0]",left,1,1.4478,,,,,,001,2025-03-10_18h51.47.299,SL_sali_41,2021.2.3,Win32,60.24096386,,,123,0,123,0,1,,,,,,,,
,,"[""circle"",""red"",""hori"",""left"",[-150,0],[150,0]]",circle,red,hori,left,"[-150,0]","[150,0]",left,1,2.0966,,,,,,001,2025-03-10_18h51.47.299,SL_sali_41,2021.2.3,Win32,60.24096386,,,124,0,124,0,1,,,,,,,,
,,"[""diamond"",""green"",""hori"",""left"",[0,-150],[-106,106]]",diamond,green,hori,left,"[0,-150]","[-106,106]",left,1,1.5614,,,,,,001,2025-03-10_18h51.47.299,SL_sali_41,2021.2.3,Win32,60.24096386,,,125,0,125,0,1,,,,,,,,
,,"[""diamond"",""green"",""vert"",""up"",[0,-150],[106,-106]]",diamond,green,vert,up,"[0,-150]","[106,-106]",up,1,1.1244,,,,,,001,2025-03-10_18h51.47.299,SL_sali_41,2021.2.3,Win32,60.24096386,,,126,0,126,0,1,,,,,,,,
,,"[""circle"",""no_dis"",""vert"",""up"",[99999,99999],[-106,106]]",circle,no_dis,vert,up,"[99999,99999]","[-106,106]",up,1,1.0683,,,,,,001,2025-03-10_18h51.47.299,SL_sali_41,2021.2.3,Win32,60.24096386,,,127,0,127,0,1,,,,,,,,
,,,,,,,,,,,,,,,,,001,2025-03-10_18h51.47.299,SL_sali_41,2021.2.3,Win32,60.24096386,,,,,,,,3,space,203.8313,2,0,2,0,1
,,"[""circle"",""no_dis"",""hori"",""left"",[99999,99999],[-106,106]]",circle,no_dis,hori,left,"[99999,99999]","[-106,106]",left,1,1.5524,,,,,,001,2025-03-10_18h51.47.299,SL_sali_41,2021.2.3,Win32,60.24096386,,,0,0,0,0,1,,,,,,,,
,,"[""circle"",""red"",""hori"",""left"",[-150,0],[-106,-106]]",circle,red,hori,left,"[-150,0]","[-106,-106]",left,1,1.3764,,,,,,001,2025-03-10_18h51.47.299,SL_sali_41,2021.2.3,Win32,60.24096386,,,1,0,1,0,1,,,,,,,,
,,"[""circle"",""no_dis"",""vert"",""up"",[99999,99999],[-106,106]]",circle,no_dis,vert,up,"[99999,99999]","[-106,106]",up,1,1.8523,,,,,,001,2025-03-10_18h51.47.299,SL_sali_41,2021.2.3,Win32,60.24096386,,,2,0,2,0,1,,,,,,,,
,,"[""circle"",""no_dis"",""vert"",""up"",[99999,99999],[106,-106]]",circle,no_dis,vert,up,"[99999,99999]","[106,-106]",up,1,1.9871,,,,,,001,2025-03-10_18h51.47.299,SL_sali_41,2021.2.3,Win32,60.24096386,,,3,0,3,0,1,,,,,,,,
,,"[""diamond"",""red"",""vert"",""up"",[150,0],[106,106]]",diamond,red,vert,up,"[150,0]","[106,106]",up,1,1.1255,,,,,,001,2025-03-10_18h51.47.299,SL_sali_41,2021.2.3,Win32,60.24096386,,,4,0,4,0,1,,,,,,,,
,,"[""diamond"",""no_dis"",""hori"",""left"",[99999,99999],[150,0]]",diamond,no_dis,hori,left,"[99999,99999]","[150,0]",left,1,0.8986,,,,,,001,2025-03-10_18h51.47.299,SL_sali_41,2021.2.3,Win32,60.24096386,,,5,0,5,0,1,,,,,,,,
,,"[""circle"",""green"",""hori"",""left"",[106,-106],[-106,106]]",circle,green,hori,left,"[106,-106]","[-106,106]",left,1,1.0596,,,,,,001,2025-03-10_18h51.47.299,SL_sali_41,2021.2.3,Win32,60.24096386,,,6,0,6,0,1,,,,,,,,
,,"[""circle"",""red"",""vert"",""up"",[0,150],[106,-106]]",circle,red,vert,up,"[0,150]","[106,-106]",up,1,1.2267,,,,,,001,2025-03-10_18h51.47.299,SL_sali_41,2021.2.3,Win32,60.24096386,,,7,0,7,0,1,,,,,,,,
,,"[""diamond"",""green"",""vert"",""up"",[-150,0],[150,0]]",diamond,green,vert,up,"[-150,0]","[150,0]",up,1,1.4534,,,,,,001,2025-03-10_18h51.47.299,SL_sali_41,2021.2.3,Win32,60.24096386,,,8,0,8,0,1,,,,,,,,
,,"[""diamond"",""red"",""hori"",""left"",[106,106],[0,-150]]",diamond,red,hori,left,"[106,106]","[0,-150]",left,1,1.2612,,,,,,001,2025-03-10_18h51.47.299,SL_sali_41,2021.2.3,Win32,60.24096386,,,9,0,9,0,1,,,,,,,,
,,"[""diamond"",""red"",""hori"",""left"",[106,-106],[0,-150]]",diamond,red,hori,left,"[106,-106]","[0,-150]",up,0,1.0655,,,,,,001,2025-03-10_18h51.47.299,SL_sali_41,2021.2.3,Win32,60.24096386,,,10,0,10,0,1,,,,,,,,
,,"[""diamond"",""green"",""hori"",""left"",[-106,-106],[-150,0]]",diamond,green,hori,left,"[-106,-106]","[-150,0]",left,1,1.5093,,,,,,001,2025-03-10_18h51.47.299,SL_sali_41,2021.2.3,Win32,60.24096386,,,11,0,11,0,1,,,,,,,,
,,"[""diamond"",""no_dis"",""hori"",""left"",[99999,99999],[150,0]]",diamond,no_dis,hori,left,"[99999,99999]","[150,0]",left,1,0.8511,,,,,,001,2025-03-10_18h51.47.299,SL_sali_41,2021.2.3,Win32,60.24096386,,,12,0,12,0,1,,,,,,,,
,,"[""circle"",""green"",""vert"",""up"",[0,150],[106,106]]",circle,green,vert,up,"[0,150]","[106,106]",up,1,1.5669,,,,,,001,2025-03-10_18h51.47.299,SL_sali_41,2021.2.3,Win32,60.24096386,,,13,0,13,0,1,,,,,,,,
,,"[""circle"",""red"",""vert"",""up"",[-106,-106],[-106,106]]",circle,red,vert,up,"[-106,-106]","[-106,106]",up,1,1.0833,,,,,,001,2025-03-10_18h51.47.299,SL_sali_41,2021.2.3,Win32,60.24096386,,,14,0,14,0,1,,,,,,,,
,,"[""circle"",""green"",""vert"",""up"",[0,150],[106,-106]]",circle,green,vert,up,"[0,150]","[106,-106]",up,1,1.7878,,,,,,001,2025-03-10_18h51.47.299,SL_sali_41,2021.2.3,Win32,60.24096386,,,15,0,15,0,1,,,,,,,,
,,"[""circle"",""red"",""hori"",""left"",[-106,106],[-150,0]]",circle,red,hori,left,"[-106,106]","[-150,0]",left,1,1.1769,,,,,,001,2025-03-10_18h51.47.299,SL_sali_41,2021.2.3,Win32,60.24096386,,,16,0,16,0,1,,,,,,,,
,,"[""diamond"",""red"",""hori"",""left"",[106,106],[150,0]]",diamond,red,hori,left,"[106,106]","[150,0]",left,1,1.1687,,,,,,001,2025-03-10_18h51.47.299,SL_sali_41,2021.2.3,Win32,60.24096386,,,17,0,17,0,1,,,,,,,,
,,"[""diamond"",""red"",""vert"",""up"",[106,-106],[106,106]]",diamond,red,vert,up,"[106,-106]","[106,106]",up,1,1.7867,,,,,,001,2025-03-10_18h51.47.299,SL_sali_41,2021.2.3,Win32,60.24096386,,,18,0,18,0,1,,,,,,,,
,,"[""diamond"",""green"",""vert"",""up"",[0,-150],[-106,106]]",diamond,green,vert,up,"[0,-150]","[-106,106]",up,1,2.1494,,,,,,001,2025-03-10_18h51.47.299,SL_sali_41,2021.2.3,Win32,60.24096386,,,19,0,19,0,1,,,,,,,,
,,"[""circle"",""red"",""vert"",""up"",[-106,106],[106,-106]]",circle,red,vert,up,"[-106,106]","[106,-106]",up,1,1.6493,,,,,,001,2025-03-10_18h51.47.299,SL_sali_41,2021.2.3,Win32,60.24096386,,,20,0,20,0,1,,,,,,,,
,,"[""diamond"",""no_dis"",""vert"",""up"",[99999,99999],[0,-150]]",diamond,no_dis,vert,up,"[99999,99999]","[0,-150]",up,1,2.855,,,,,,001,2025-03-10_18h51.47.299,SL_sali_41,2021.2.3,Win32,60.24096386,,,21,0,21,0,1,,,,,,,,
,,"[""circle"",""green"",""hori"",""left"",[-150,0],[-106,106]]",circle,green,hori,left,"[-150,0]","[-106,106]",left,1,1.212,,,,,,001,2025-03-10_18h51.47.299,SL_sali_41,2021.2.3,Win32,60.24096386,,,22,0,22,0,1,,,,,,,,
,,"[""circle"",""green"",""vert"",""up"",[-106,106],[-106,-106]]",circle,green,vert,up,"[-106,106]","[-106,-106]",up,1,1.5574,,,,,,001,2025-03-10_18h51.47.299,SL_sali_41,2021.2.3,Win32,60.24096386,,,23,0,23,0,1,,,,,,,,
,,"[""circle"",""green"",""hori"",""left"",[0,150],[106,-106]]",circle,green,hori,left,"[0,150]","[106,-106]",left,1,1.8371,,,,,,001,2025-03-10_18h51.47.299,SL_sali_41,2021.2.3,Win32,60.24096386,,,24,0,24,0,1,,,,,,,,
,,"[""diamond"",""green"",""hori"",""left"",[-106,106],[0,-150]]",diamond,green,hori,left,"[-106,106]","[0,-150]",left,1,1.3319,,,,,,001,2025-03-10_18h51.47.299,SL_sali_41,2021.2.3,Win32,60.24096386,,,25,0,25,0,1,,,,,,,,
,,"[""circle"",""green"",""vert"",""up"",[106,-106],[0,150]]",circle,green,vert,up,"[106,-106]","[0,150]",up,1,1.361,,,,,,001,2025-03-10_18h51.47.299,SL_sali_41,2021.2.3,Win32,60.24096386,,,26,0,26,0,1,,,,,,,,
,,"[""diamond"",""green"",""vert"",""up"",[-150,0],[-106,106]]",diamond,green,vert,up,"[-150,0]","[-106,106]",up,1,2.0523,,,,,,001,2025-03-10_18h51.47.299,SL_sali_41,2021.2.3,Win32,60.24096386,,,27,0,27,0,1,,,,,,,,
,,"[""diamond"",""green"",""hori"",""left"",[106,-106],[150,0]]",diamond,green,hori,left,"[106,-106]","[150,0]",left,1,1.2755,,,,,,001,2025-03-10_18h51.47.299,SL_sali_41,2021.2.3,Win32,60.24096386,,,28,0,28,0,1,,,,,,,,
,,"[""diamond"",""no_dis"",""vert"",""up"",[99999,99999],[106,-106]]",diamond,no_dis,vert,up,"[99999,99999]","[106,-106]",up,1,1.0551,,,,,,001,2025-03-10_18h51.47.299,SL_sali_41,2021.2.3,Win32,60.24096386,,,29,0,29,0,1,,,,,,,,
,,"[""circle"",""green"",""vert"",""up"",[106,106],[0,150]]",circle,green,vert,up,"[106,106]","[0,150]",up,1,2.0137,,,,,,001,2025-03-10_18h51.47.299,SL_sali_41,2021.2.3,Win32,60.24096386,,,30,0,30,0,1,,,,,,,,
,,"[""diamond"",""no_dis"",""vert"",""up"",[99999,99999],[-150,0]]",diamond,no_dis,vert,up,"[99999,99999]","[-150,0]",up,1,1.2949,,,,,,001,2025-03-10_18h51.47.299,SL_sali_41,2021.2.3,Win32,60.24096386,,,31,0,31,0,1,,,,,,,,
,,"[""circle"",""green"",""hori"",""left"",[106,106],[150,0]]",circle,green,hori,left,"[106,106]","[150,0]",left,1,1.8211,,,,,,001,2025-03-10_18h51.47.299,SL_sali_41,2021.2.3,Win32,60.24096386,,,32,0,32,0,1,,,,,,,,
,,"[""circle"",""no_dis"",""hori"",""left"",[99999,99999],[0,150]]",circle,no_dis,hori,left,"[99999,99999]","[0,150]",left,1,1.2795,,,,,,001,2025-03-10_18h51.47.299,SL_sali_41,2021.2.3,Win32,60.24096386,,,33,0,33,0,1,,,,,,,,
,,"[""circle"",""red"",""vert"",""up"",[-106,-106],[0,-150]]",circle,red,vert,up,"[-106,-106]","[0,-150]",up,1,1.3955,,,,,,001,2025-03-10_18h51.47.299,SL_sali_41,2021.2.3,Win32,60.24096386,,,34,0,34,0,1,,,,,,,,
,,"[""circle"",""no_dis"",""hori"",""left"",[99999,99999],[150,0]]",circle,no_dis,hori,left,"[99999,99999]","[150,0]",left,1,1.1014,,,,,,001,2025-03-10_18h51.47.299,SL_sali_41,2021.2.3,Win32,60.24096386,,,35,0,35,0,1,,,,,,,,
,,"[""diamond"",""red"",""hori"",""left"",[0,-150],[-150,0]]",diamond,red,hori,left,"[0,-150]","[-150,0]",left,1,1.9705,,,,,,001,2025-03-10_18h51.47.299,SL_sali_41,2021.2.3,Win32,60.24096386,,,36,0,36,0,1,,,,,,,,
,,"[""circle"",""red"",""hori"",""left"",[-150,0],[150,0]]",circle,red,hori,left,"[-150,0]","[150,0]",left,1,1.7114,,,,,,001,2025-03-10_18h51.47.299,SL_sali_41,2021.2.3,Win32,60.24096386,,,37,0,37,0,1,,,,,,,,
,,"[""diamond"",""green"",""hori"",""left"",[106,-106],[106,106]]",diamond,green,hori,left,"[106,-106]","[106,106]",left,1,1.3809,,,,,,001,2025-03-10_18h51.47.299,SL_sali_41,2021.2.3,Win32,60.24096386,,,38,0,38,0,1,,,,,,,,
,,"[""circle"",""red"",""hori"",""left"",[-106,-106],[106,106]]",circle,red,hori,left,"[-106,-106]","[106,106]",left,1,1.8898,,,,,,001,2025-03-10_18h51.47.299,SL_sali_41,2021.2.3,Win32,60.24096386,,,39,0,39,0,1,,,,,,,,
,,"[""diamond"",""red"",""vert"",""up"",[106,106],[-150,0]]",diamond,red,vert,up,"[106,106]","[-150,0]",up,1,1.0917,,,,,,001,2025-03-10_18h51.47.299,SL_sali_41,2021.2.3,Win32,60.24096386,,,40,0,40,0,1,,,,,,,,
,,"[""circle"",""green"",""hori"",""left"",[150,0],[106,106]]",circle,green,hori,left,"[150,0]","[106,106]",left,1,1.7587,,,,,,001,2025-03-10_18h51.47.299,SL_sali_41,2021.2.3,Win32,60.24096386,,,41,0,41,0,1,,,,,,,,
,,"[""diamond"",""green"",""hori"",""left"",[106,106],[-106,106]]",diamond,green,hori,left,"[106,106]","[-106,106]",left,1,1.8823,,,,,,001,2025-03-10_18h51.47.299,SL_sali_41,2021.2.3,Win32,60.24096386,,,42,0,42,0,1,,,,,,,,
,,"[""circle"",""red"",""hori"",""left"",[-150,0],[0,150]]",circle,red,hori,left,"[-150,0]","[0,150]",left,1,1.7575,,,,,,001,2025-03-10_18h51.47.299,SL_sali_41,2021.2.3,Win32,60.24096386,,,43,0,43,0,1,,,,,,,,
,,"[""diamond"",""green"",""hori"",""left"",[106,-106],[-106,-106]]",diamond,green,hori,left,"[106,-106]","[-106,-106]",left,1,2.2866,,,,,,001,2025-03-10_18h51.47.299,SL_sali_41,2021.2.3,Win32,60.24096386,,,44,0,44,0,1,,,,,,,,
,,"[""diamond"",""no_dis"",""hori"",""left"",[99999,99999],[-106,106]]",diamond,no_dis,hori,left,"[99999,99999]","[-106,106]",left,1,1.6306,,,,,,001,2025-03-10_18h51.47.299,SL_sali_41,2021.2.3,Win32,60.24096386,,,45,0,45,0,1,,,,,,,,
,,"[""diamond"",""red"",""vert"",""up"",[106,-106],[0,-150]]",diamond,red,vert,up,"[106,-106]","[0,-150]",up,1,1.1325,,,,,,001,2025-03-10_18h51.47.299,SL_sali_41,2021.2.3,Win32,60.24096386,,,46,0,46,0,1,,,,,,,,
,,"[""circle"",""green"",""vert"",""up"",[150,0],[-106,106]]",circle,green,vert,up,"[150,0]","[-106,106]",up,1,1.9699,,,,,,001,2025-03-10_18h51.47.299,SL_sali_41,2021.2.3,Win32,60.24096386,,,47,0,47,0,1,,,,,,,,
,,"[""diamond"",""green"",""vert"",""up"",[0,-150],[106,-106]]",diamond,green,vert,up,"[0,-150]","[106,-106]",up,1,1.4303,,,,,,001,2025-03-10_18h51.47.299,SL_sali_41,2021.2.3,Win32,60.24096386,,,48,0,48,0,1,,,,,,,,
,,"[""circle"",""red"",""hori"",""left"",[150,0],[106,106]]",circle,red,hori,left,"[150,0]","[106,106]",left,1,1.1548,,,,,,001,2025-03-10_18h51.47.299,SL_sali_41,2021.2.3,Win32,60.24096386,,,49,0,49,0,1,,,,,,,,
,,"[""circle"",""green"",""hori"",""left"",[150,0],[-106,-106]]",circle,green,hori,left,"[150,0]","[-106,-106]",left,1,1.6522,,,,,,001,2025-03-10_18h51.47.299,SL_sali_41,2021.2.3,Win32,60.24096386,,,50,0,50,0,1,,,,,,,,
,,"[""diamond"",""red"",""vert"",""up"",[106,-106],[-150,0]]",diamond,red,vert,up,"[106,-106]","[-150,0]",up,1,1.6018,,,,,,001,2025-03-10_18h51.47.299,SL_sali_41,2021.2.3,Win32,60.24096386,,,51,0,51,0,1,,,,,,,,
,,"[""diamond"",""green"",""vert"",""up"",[0,150],[-106,106]]",diamond,green,vert,up,"[0,150]","[-106,106]",up,1,1.4357,,,,,,001,2025-03-10_18h51.47.299,SL_sali_41,2021.2.3,Win32,60.24096386,,,52,0,52,0,1,,,,,,,,
,,"[""circle"",""green"",""hori"",""left"",[0,150],[-106,106]]",circle,green,hori,left,"[0,150]","[-106,106]",left,1,1.1457,,,,,,001,2025-03-10_18h51.47.299,SL_sali_41,2021.2.3,Win32,60.24096386,,,53,0,53,0,1,,,,,,,,
,,"[""diamond"",""red"",""hori"",""left"",[106,-106],[-106,-106]]",diamond,red,hori,left,"[106,-106]","[-106,-106]",left,1,1.081,,,,,,001,2025-03-10_18h51.47.299,SL_sali_41,2021.2.3,Win32,60.24096386,,,54,0,54,0,1,,,,,,,,
,,"[""circle"",""red"",""vert"",""up"",[-106,106],[106,-106]]",circle,red,vert,up,"[-106,106]","[106,-106]",up,1,0.956,,,,,,001,2025-03-10_18h51.47.299,SL_sali_41,2021.2.3,Win32,60.24096386,,,55,0,55,0,1,,,,,,,,
,,"[""circle"",""green"",""vert"",""up"",[106,-106],[106,106]]",circle,green,vert,up,"[106,-106]","[106,106]",up,1,2.2444,,,,,,001,2025-03-10_18h51.47.299,SL_sali_41,2021.2.3,Win32,60.24096386,,,56,0,56,0,1,,,,,,,,
,,"[""diamond"",""no_dis"",""vert"",""up"",[99999,99999],[150,0]]",diamond,no_dis,vert,up,"[99999,99999]","[150,0]",up,1,2.021,,,,,,001,2025-03-10_18h51.47.299,SL_sali_41,2021.2.3,Win32,60.24096386,,,57,0,57,0,1,,,,,,,,
,,"[""diamond"",""no_dis"",""hori"",""left"",[99999,99999],[106,-106]]",diamond,no_dis,hori,left,"[99999,99999]","[106,-106]",left,1,1.0574,,,,,,001,2025-03-10_18h51.47.299,SL_sali_41,2021.2.3,Win32,60.24096386,,,58,0,58,0,1,,,,,,,,
