﻿key_resp.keys,key_resp.rt,trial_para,tar_shape,dis_color_condi,tar_line,cor_resp,dis_loc,tar_loc,resp.keys,resp.corr,trials.thisRepN,trials.thisTrialN,trials.thisN,trials.thisIndex,trials.ran,participant,date,expName,psychopyVersion,OS,frameRate,resp.rt,key_resp_2.keys,key_resp_2.rt,trials_2.thisRepN,trials_2.thisTrialN,trials_2.thisN,trials_2.thisIndex,trials_2.ran,block_num,key_resp_3.keys,key_resp_3.rt,trials_3.thisRepN,trials_3.thisTrialN,trials_3.thisN,trials_3.thisIndex,trials_3.ran
space,130.5093,"[""diamond"",""red"",""vert"",""up"",[-150,0],[106,-106]]",diamond,red,vert,up,"[-150,0]","[106,-106]",,0,0,0,0,0,1,001,2025-03-10_16h54.38.962,SL_sali_41,2021.2.3,Win32,60.97560976,,,,,,,,,,,,,,,,
,,"[""circle"",""no_dis"",""hori"",""left"",[99999,99999],[150,0]]",circle,no_dis,hori,left,"[99999,99999]","[150,0]",,0,1,0,1,0,1,001,2025-03-10_16h54.38.962,SL_sali_41,2021.2.3,Win32,60.97560976,,,,,,,,,,,,,,,,
,,"[""diamond"",""green"",""hori"",""left"",[150,0],[106,106]]",diamond,green,hori,left,"[150,0]","[106,106]",,0,2,0,2,0,1,001,2025-03-10_16h54.38.962,SL_sali_41,2021.2.3,Win32,60.97560976,,,,,,,,,,,,,,,,
,,"[""diamond"",""no_dis"",""hori"",""left"",[99999,99999],[-106,-106]]",diamond,no_dis,hori,left,"[99999,99999]","[-106,-106]",,0,3,0,3,0,1,001,2025-03-10_16h54.38.962,SL_sali_41,2021.2.3,Win32,60.97560976,,,,,,,,,,,,,,,,
,,"[""circle"",""red"",""vert"",""up"",[-106,106],[-106,-106]]",circle,red,vert,up,"[-106,106]","[-106,-106]",left,0,4,0,4,0,1,001,2025-03-10_16h54.38.962,SL_sali_41,2021.2.3,Win32,60.97560976,1.8733,,,,,,,,,,,,,,,
,,"[""diamond"",""no_dis"",""vert"",""up"",[99999,99999],[0,-150]]",diamond,no_dis,vert,up,"[99999,99999]","[0,-150]",up,1,5,0,5,0,1,001,2025-03-10_16h54.38.962,SL_sali_41,2021.2.3,Win32,60.97560976,2.0619,,,,,,,,,,,,,,,
,,"[""diamond"",""red"",""vert"",""up"",[150,0],[-106,106]]",diamond,red,vert,up,"[150,0]","[-106,106]",left,0,6,0,6,0,1,001,2025-03-10_16h54.38.962,SL_sali_41,2021.2.3,Win32,60.97560976,2.4523,,,,,,,,,,,,,,,
,,"[""diamond"",""red"",""vert"",""up"",[150,0],[0,-150]]",diamond,red,vert,up,"[150,0]","[0,-150]",up,1,7,0,7,0,1,001,2025-03-10_16h54.38.962,SL_sali_41,2021.2.3,Win32,60.97560976,1.0547,,,,,,,,,,,,,,,
,,"[""circle"",""red"",""vert"",""up"",[-106,106],[0,-150]]",circle,red,vert,up,"[-106,106]","[0,-150]",left,0,8,0,8,0,1,001,2025-03-10_16h54.38.962,SL_sali_41,2021.2.3,Win32,60.97560976,1.0375,,,,,,,,,,,,,,,
,,"[""diamond"",""green"",""vert"",""up"",[-106,106],[-150,0]]",diamond,green,vert,up,"[-106,106]","[-150,0]",left,0,9,0,9,0,1,001,2025-03-10_16h54.38.962,SL_sali_41,2021.2.3,Win32,60.97560976,2.9388,,,,,,,,,,,,,,,
,,"[""diamond"",""red"",""vert"",""up"",[-150,0],[106,-106]]",diamond,red,vert,up,"[-150,0]","[106,-106]",up,1,,,,,,001,2025-03-10_16h54.38.962,SL_sali_41,2021.2.3,Win32,60.97560976,1.6295,space,19.5957,0,0,0,0,1,,,,,,,,
,,"[""circle"",""no_dis"",""hori"",""left"",[99999,99999],[150,0]]",circle,no_dis,hori,left,"[99999,99999]","[150,0]",,0,,,,,,001,2025-03-10_16h54.38.962,SL_sali_41,2021.2.3,Win32,60.97560976,,,,1,0,1,0,1,,,,,,,,
,,"[""diamond"",""green"",""hori"",""left"",[150,0],[106,106]]",diamond,green,hori,left,"[150,0]","[106,106]",,0,,,,,,001,2025-03-10_16h54.38.962,SL_sali_41,2021.2.3,Win32,60.97560976,,,,2,0,2,0,1,,,,,,,,
,,"[""diamond"",""no_dis"",""hori"",""left"",[99999,99999],[-106,-106]]",diamond,no_dis,hori,left,"[99999,99999]","[-106,-106]",left,1,,,,,,001,2025-03-10_16h54.38.962,SL_sali_41,2021.2.3,Win32,60.97560976,1.3389,,,3,0,3,0,1,,,,,,,,
,,"[""circle"",""red"",""vert"",""up"",[-106,106],[-106,-106]]",circle,red,vert,up,"[-106,106]","[-106,-106]",,0,,,,,,001,2025-03-10_16h54.38.962,SL_sali_41,2021.2.3,Win32,60.97560976,,,,4,0,4,0,1,,,,,,,,
,,"[""diamond"",""no_dis"",""vert"",""up"",[99999,99999],[0,-150]]",diamond,no_dis,vert,up,"[99999,99999]","[0,-150]",,0,,,,,,001,2025-03-10_16h54.38.962,SL_sali_41,2021.2.3,Win32,60.97560976,,,,5,0,5,0,1,,,,,,,,
,,"[""diamond"",""red"",""vert"",""up"",[150,0],[-106,106]]",diamond,red,vert,up,"[150,0]","[-106,106]",up,1,,,,,,001,2025-03-10_16h54.38.962,SL_sali_41,2021.2.3,Win32,60.97560976,2.2418,,,6,0,6,0,1,,,,,,,,
,,"[""diamond"",""red"",""vert"",""up"",[150,0],[0,-150]]",diamond,red,vert,up,"[150,0]","[0,-150]",up,1,,,,,,001,2025-03-10_16h54.38.962,SL_sali_41,2021.2.3,Win32,60.97560976,2.1065,,,7,0,7,0,1,,,,,,,,
,,"[""circle"",""red"",""vert"",""up"",[-106,106],[0,-150]]",circle,red,vert,up,"[-106,106]","[0,-150]",up,1,,,,,,001,2025-03-10_16h54.38.962,SL_sali_41,2021.2.3,Win32,60.97560976,2.5828,,,8,0,8,0,1,,,,,,,,
,,"[""diamond"",""green"",""vert"",""up"",[-106,106],[-150,0]]",diamond,green,vert,up,"[-106,106]","[-150,0]",,0,,,,,,001,2025-03-10_16h54.38.962,SL_sali_41,2021.2.3,Win32,60.97560976,,,,9,0,9,0,1,,,,,,,,
,,"[""circle"",""red"",""vert"",""up"",[106,-106],[-106,106]]",circle,red,vert,up,"[106,-106]","[-106,106]",up,1,,,,,,001,2025-03-10_16h54.38.962,SL_sali_41,2021.2.3,Win32,60.97560976,2.2831,,,10,0,10,0,1,,,,,,,,
,,"[""circle"",""red"",""hori"",""left"",[-106,-106],[-106,106]]",circle,red,hori,left,"[-106,-106]","[-106,106]",left,1,,,,,,001,2025-03-10_16h54.38.962,SL_sali_41,2021.2.3,Win32,60.97560976,2.0748,,,11,0,11,0,1,,,,,,,,
,,"[""circle"",""green"",""hori"",""left"",[106,106],[0,150]]",circle,green,hori,left,"[106,106]","[0,150]",,0,,,,,,001,2025-03-10_16h54.38.962,SL_sali_41,2021.2.3,Win32,60.97560976,,,,12,0,12,0,1,,,,,,,,
,,"[""diamond"",""green"",""hori"",""left"",[-150,0],[-106,106]]",diamond,green,hori,left,"[-150,0]","[-106,106]",left,1,,,,,,001,2025-03-10_16h54.38.962,SL_sali_41,2021.2.3,Win32,60.97560976,2.5677,,,13,0,13,0,1,,,,,,,,
,,"[""circle"",""green"",""hori"",""left"",[106,-106],[106,106]]",circle,green,hori,left,"[106,-106]","[106,106]",left,1,,,,,,001,2025-03-10_16h54.38.962,SL_sali_41,2021.2.3,Win32,60.97560976,2.2846,,,14,0,14,0,1,,,,,,,,
,,"[""circle"",""red"",""vert"",""up"",[0,-150],[-150,0]]",circle,red,vert,up,"[0,-150]","[-150,0]",up,1,,,,,,001,2025-03-10_16h54.38.962,SL_sali_41,2021.2.3,Win32,60.97560976,2.6074,,,15,0,15,0,1,,,,,,,,
,,"[""circle"",""green"",""vert"",""up"",[106,106],[0,150]]",circle,green,vert,up,"[106,106]","[0,150]",up,1,,,,,,001,2025-03-10_16h54.38.962,SL_sali_41,2021.2.3,Win32,60.97560976,2.4108,,,16,0,16,0,1,,,,,,,,
,,"[""diamond"",""green"",""vert"",""up"",[106,106],[106,-106]]",diamond,green,vert,up,"[106,106]","[106,-106]",up,1,,,,,,001,2025-03-10_16h54.38.962,SL_sali_41,2021.2.3,Win32,60.97560976,2.3478,,,17,0,17,0,1,,,,,,,,
,,"[""circle"",""red"",""hori"",""left"",[0,150],[-106,106]]",circle,red,hori,left,"[0,150]","[-106,106]",left,1,,,,,,001,2025-03-10_16h54.38.962,SL_sali_41,2021.2.3,Win32,60.97560976,2.3758,,,18,0,18,0,1,,,,,,,,
,,"[""diamond"",""red"",""hori"",""left"",[150,0],[0,-150]]",diamond,red,hori,left,"[150,0]","[0,-150]",left,1,,,,,,001,2025-03-10_16h54.38.962,SL_sali_41,2021.2.3,Win32,60.97560976,1.6588,,,19,0,19,0,1,,,,,,,,
,,"[""diamond"",""red"",""vert"",""up"",[150,0],[0,150]]",diamond,red,vert,up,"[150,0]","[0,150]",up,1,,,,,,001,2025-03-10_16h54.38.962,SL_sali_41,2021.2.3,Win32,60.97560976,1.1558,,,20,0,20,0,1,,,,,,,,
,,"[""diamond"",""green"",""hori"",""left"",[0,150],[150,0]]",diamond,green,hori,left,"[0,150]","[150,0]",left,1,,,,,,001,2025-03-10_16h54.38.962,SL_sali_41,2021.2.3,Win32,60.97560976,1.8834,,,21,0,21,0,1,,,,,,,,
,,"[""circle"",""red"",""hori"",""left"",[150,0],[106,-106]]",circle,red,hori,left,"[150,0]","[106,-106]",left,1,,,,,,001,2025-03-10_16h54.38.962,SL_sali_41,2021.2.3,Win32,60.97560976,1.3893,,,22,0,22,0,1,,,,,,,,
,,"[""circle"",""green"",""vert"",""up"",[150,0],[-150,0]]",circle,green,vert,up,"[150,0]","[-150,0]",up,1,,,,,,001,2025-03-10_16h54.38.962,SL_sali_41,2021.2.3,Win32,60.97560976,1.1877,,,23,0,23,0,1,,,,,,,,
,,"[""circle"",""no_dis"",""vert"",""up"",[99999,99999],[0,-150]]",circle,no_dis,vert,up,"[99999,99999]","[0,-150]",left,0,,,,,,001,2025-03-10_16h54.38.962,SL_sali_41,2021.2.3,Win32,60.97560976,1.7564,,,24,0,24,0,1,,,,,,,,
,,"[""circle"",""no_dis"",""vert"",""up"",[99999,99999],[106,106]]",circle,no_dis,vert,up,"[99999,99999]","[106,106]",up,1,,,,,,001,2025-03-10_16h54.38.962,SL_sali_41,2021.2.3,Win32,60.97560976,1.2724,,,25,0,25,0,1,,,,,,,,
,,"[""circle"",""red"",""hori"",""left"",[0,-150],[150,0]]",circle,red,hori,left,"[0,-150]","[150,0]",left,1,,,,,,001,2025-03-10_16h54.38.962,SL_sali_41,2021.2.3,Win32,60.97560976,1.1223,,,26,0,26,0,1,,,,,,,,
,,"[""circle"",""no_dis"",""hori"",""left"",[99999,99999],[-106,106]]",circle,no_dis,hori,left,"[99999,99999]","[-106,106]",left,1,,,,,,001,2025-03-10_16h54.38.962,SL_sali_41,2021.2.3,Win32,60.97560976,1.1617,,,27,0,27,0,1,,,,,,,,
,,"[""circle"",""green"",""hori"",""left"",[150,0],[-150,0]]",circle,green,hori,left,"[150,0]","[-150,0]",left,1,,,,,,001,2025-03-10_16h54.38.962,SL_sali_41,2021.2.3,Win32,60.97560976,1.7982,,,28,0,28,0,1,,,,,,,,
,,"[""diamond"",""red"",""hori"",""left"",[150,0],[0,-150]]",diamond,red,hori,left,"[150,0]","[0,-150]",left,1,,,,,,001,2025-03-10_16h54.38.962,SL_sali_41,2021.2.3,Win32,60.97560976,2.1496,,,29,0,29,0,1,,,,,,,,
,,"[""diamond"",""red"",""hori"",""left"",[-106,106],[-106,-106]]",diamond,red,hori,left,"[-106,106]","[-106,-106]",left,1,,,,,,001,2025-03-10_16h54.38.962,SL_sali_41,2021.2.3,Win32,60.97560976,2.3605,,,30,0,30,0,1,,,,,,,,
,,"[""diamond"",""no_dis"",""hori"",""left"",[99999,99999],[-106,106]]",diamond,no_dis,hori,left,"[99999,99999]","[-106,106]",left,1,,,,,,001,2025-03-10_16h54.38.962,SL_sali_41,2021.2.3,Win32,60.97560976,1.4213,,,31,0,31,0,1,,,,,,,,
,,"[""diamond"",""no_dis"",""vert"",""up"",[99999,99999],[106,-106]]",diamond,no_dis,vert,up,"[99999,99999]","[106,-106]",up,1,,,,,,001,2025-03-10_16h54.38.962,SL_sali_41,2021.2.3,Win32,60.97560976,0.9881,,,32,0,32,0,1,,,,,,,,
,,"[""diamond"",""red"",""vert"",""up"",[0,-150],[106,-106]]",diamond,red,vert,up,"[0,-150]","[106,-106]",up,1,,,,,,001,2025-03-10_16h54.38.962,SL_sali_41,2021.2.3,Win32,60.97560976,1.512,,,33,0,33,0,1,,,,,,,,
,,"[""circle"",""red"",""vert"",""up"",[150,0],[0,150]]",circle,red,vert,up,"[150,0]","[0,150]",up,1,,,,,,001,2025-03-10_16h54.38.962,SL_sali_41,2021.2.3,Win32,60.97560976,1.8675,,,34,0,34,0,1,,,,,,,,
,,"[""diamond"",""no_dis"",""hori"",""left"",[99999,99999],[-150,0]]",diamond,no_dis,hori,left,"[99999,99999]","[-150,0]",left,1,,,,,,001,2025-03-10_16h54.38.962,SL_sali_41,2021.2.3,Win32,60.97560976,1.2211,,,35,0,35,0,1,,,,,,,,
,,"[""circle"",""green"",""hori"",""left"",[-106,-106],[0,-150]]",circle,green,hori,left,"[-106,-106]","[0,-150]",left,1,,,,,,001,2025-03-10_16h54.38.962,SL_sali_41,2021.2.3,Win32,60.97560976,1.5104,,,36,0,36,0,1,,,,,,,,
,,"[""diamond"",""green"",""vert"",""up"",[0,150],[106,106]]",diamond,green,vert,up,"[0,150]","[106,106]",,0,,,,,,001,2025-03-10_16h54.38.962,SL_sali_41,2021.2.3,Win32,60.97560976,,,,37,0,37,0,1,,,,,,,,
,,"[""circle"",""red"",""hori"",""left"",[-106,-106],[106,-106]]",circle,red,hori,left,"[-106,-106]","[106,-106]",left,1,,,,,,001,2025-03-10_16h54.38.962,SL_sali_41,2021.2.3,Win32,60.97560976,2.7289,,,38,0,38,0,1,,,,,,,,
,,"[""circle"",""red"",""hori"",""left"",[-150,0],[0,150]]",circle,red,hori,left,"[-150,0]","[0,150]",up,0,,,,,,001,2025-03-10_16h54.38.962,SL_sali_41,2021.2.3,Win32,60.97560976,2.6851,,,39,0,39,0,1,,,,,,,,
,,"[""diamond"",""no_dis"",""vert"",""up"",[99999,99999],[-106,-106]]",diamond,no_dis,vert,up,"[99999,99999]","[-106,-106]",up,1,,,,,,001,2025-03-10_16h54.38.962,SL_sali_41,2021.2.3,Win32,60.97560976,2.4149,,,40,0,40,0,1,,,,,,,,
,,"[""diamond"",""green"",""hori"",""left"",[150,0],[-106,-106]]",diamond,green,hori,left,"[150,0]","[-106,-106]",left,1,,,,,,001,2025-03-10_16h54.38.962,SL_sali_41,2021.2.3,Win32,60.97560976,2.0102,,,41,0,41,0,1,,,,,,,,
,,"[""circle"",""red"",""hori"",""left"",[150,0],[-106,-106]]",circle,red,hori,left,"[150,0]","[-106,-106]",left,1,,,,,,001,2025-03-10_16h54.38.962,SL_sali_41,2021.2.3,Win32,60.97560976,1.5665,,,42,0,42,0,1,,,,,,,,
,,"[""circle"",""no_dis"",""vert"",""up"",[99999,99999],[-150,0]]",circle,no_dis,vert,up,"[99999,99999]","[-150,0]",up,1,,,,,,001,2025-03-10_16h54.38.962,SL_sali_41,2021.2.3,Win32,60.97560976,1.2437,,,43,0,43,0,1,,,,,,,,
,,"[""circle"",""no_dis"",""vert"",""up"",[99999,99999],[150,0]]",circle,no_dis,vert,up,"[99999,99999]","[150,0]",up,1,,,,,,001,2025-03-10_16h54.38.962,SL_sali_41,2021.2.3,Win32,60.97560976,1.2051,,,44,0,44,0,1,,,,,,,,
,,"[""diamond"",""no_dis"",""hori"",""left"",[99999,99999],[150,0]]",diamond,no_dis,hori,left,"[99999,99999]","[150,0]",left,1,,,,,,001,2025-03-10_16h54.38.962,SL_sali_41,2021.2.3,Win32,60.97560976,1.7796,,,45,0,45,0,1,,,,,,,,
,,"[""diamond"",""green"",""vert"",""up"",[-106,-106],[106,106]]",diamond,green,vert,up,"[-106,-106]","[106,106]",up,1,,,,,,001,2025-03-10_16h54.38.962,SL_sali_41,2021.2.3,Win32,60.97560976,1.4641,,,46,0,46,0,1,,,,,,,,
,,"[""circle"",""green"",""hori"",""left"",[150,0],[-150,0]]",circle,green,hori,left,"[150,0]","[-150,0]",left,1,,,,,,001,2025-03-10_16h54.38.962,SL_sali_41,2021.2.3,Win32,60.97560976,2.2346,,,47,0,47,0,1,,,,,,,,
,,"[""diamond"",""red"",""vert"",""up"",[-106,106],[0,150]]",diamond,red,vert,up,"[-106,106]","[0,150]",up,1,,,,,,001,2025-03-10_16h54.38.962,SL_sali_41,2021.2.3,Win32,60.97560976,0.8863,,,48,0,48,0,1,,,,,,,,
,,"[""diamond"",""red"",""hori"",""left"",[150,0],[0,-150]]",diamond,red,hori,left,"[150,0]","[0,-150]",up,0,,,,,,001,2025-03-10_16h54.38.962,SL_sali_41,2021.2.3,Win32,60.97560976,0.9735,,,49,0,49,0,1,,,,,,,,
,,"[""diamond"",""no_dis"",""hori"",""left"",[99999,99999],[-150,0]]",diamond,no_dis,hori,left,"[99999,99999]","[-150,0]",left,1,,,,,,001,2025-03-10_16h54.38.962,SL_sali_41,2021.2.3,Win32,60.97560976,1.4559,,,50,0,50,0,1,,,,,,,,
,,"[""circle"",""no_dis"",""vert"",""up"",[99999,99999],[106,-106]]",circle,no_dis,vert,up,"[99999,99999]","[106,-106]",up,1,,,,,,001,2025-03-10_16h54.38.962,SL_sali_41,2021.2.3,Win32,60.97560976,1.7559,,,51,0,51,0,1,,,,,,,,
,,"[""circle"",""red"",""vert"",""up"",[106,106],[0,-150]]",circle,red,vert,up,"[106,106]","[0,-150]",up,1,,,,,,001,2025-03-10_16h54.38.962,SL_sali_41,2021.2.3,Win32,60.97560976,1.3713,,,52,0,52,0,1,,,,,,,,
,,"[""circle"",""no_dis"",""hori"",""left"",[99999,99999],[106,-106]]",circle,no_dis,hori,left,"[99999,99999]","[106,-106]",left,1,,,,,,001,2025-03-10_16h54.38.962,SL_sali_41,2021.2.3,Win32,60.97560976,1.4401,,,53,0,53,0,1,,,,,,,,
,,"[""circle"",""green"",""vert"",""up"",[-150,0],[150,0]]",circle,green,vert,up,"[-150,0]","[150,0]",left,0,,,,,,001,2025-03-10_16h54.38.962,SL_sali_41,2021.2.3,Win32,60.97560976,1.4639,,,54,0,54,0,1,,,,,,,,
,,"[""circle"",""no_dis"",""hori"",""left"",[99999,99999],[106,-106]]",circle,no_dis,hori,left,"[99999,99999]","[106,-106]",left,1,,,,,,001,2025-03-10_16h54.38.962,SL_sali_41,2021.2.3,Win32,60.97560976,2.3647,,,55,0,55,0,1,,,,,,,,
,,"[""circle"",""green"",""vert"",""up"",[150,0],[-106,-106]]",circle,green,vert,up,"[150,0]","[-106,-106]",up,1,,,,,,001,2025-03-10_16h54.38.962,SL_sali_41,2021.2.3,Win32,60.97560976,1.3715,,,56,0,56,0,1,,,,,,,,
,,"[""circle"",""no_dis"",""vert"",""up"",[99999,99999],[0,150]]",circle,no_dis,vert,up,"[99999,99999]","[0,150]",,0,,,,,,001,2025-03-10_16h54.38.962,SL_sali_41,2021.2.3,Win32,60.97560976,,,,57,0,57,0,1,,,,,,,,
,,"[""diamond"",""green"",""hori"",""left"",[106,106],[0,150]]",diamond,green,hori,left,"[106,106]","[0,150]",left,1,,,,,,001,2025-03-10_16h54.38.962,SL_sali_41,2021.2.3,Win32,60.97560976,1.9402,,,58,0,58,0,1,,,,,,,,
,,"[""diamond"",""green"",""vert"",""up"",[106,-106],[106,106]]",diamond,green,vert,up,"[106,-106]","[106,106]",up,1,,,,,,001,2025-03-10_16h54.38.962,SL_sali_41,2021.2.3,Win32,60.97560976,2.8995,,,59,0,59,0,1,,,,,,,,
,,"[""circle"",""green"",""hori"",""left"",[-106,106],[150,0]]",circle,green,hori,left,"[-106,106]","[150,0]",left,1,,,,,,001,2025-03-10_16h54.38.962,SL_sali_41,2021.2.3,Win32,60.97560976,1.2278,,,60,0,60,0,1,,,,,,,,
,,"[""diamond"",""green"",""vert"",""up"",[150,0],[106,-106]]",diamond,green,vert,up,"[150,0]","[106,-106]",,0,,,,,,001,2025-03-10_16h54.38.962,SL_sali_41,2021.2.3,Win32,60.97560976,,,,61,0,61,0,1,,,,,,,,
,,"[""diamond"",""red"",""hori"",""left"",[-106,-106],[150,0]]",diamond,red,hori,left,"[-106,-106]","[150,0]",left,1,,,,,,001,2025-03-10_16h54.38.962,SL_sali_41,2021.2.3,Win32,60.97560976,1.1886,,,62,0,62,0,1,,,,,,,,
,,"[""circle"",""red"",""vert"",""up"",[106,106],[0,150]]",circle,red,vert,up,"[106,106]","[0,150]",up,1,,,,,,001,2025-03-10_16h54.38.962,SL_sali_41,2021.2.3,Win32,60.97560976,2.2417,,,63,0,63,0,1,,,,,,,,
,,"[""diamond"",""no_dis"",""hori"",""left"",[99999,99999],[-106,106]]",diamond,no_dis,hori,left,"[99999,99999]","[-106,106]",,0,,,,,,001,2025-03-10_16h54.38.962,SL_sali_41,2021.2.3,Win32,60.97560976,,,,64,0,64,0,1,,,,,,,,
,,"[""circle"",""green"",""hori"",""left"",[150,0],[106,-106]]",circle,green,hori,left,"[150,0]","[106,-106]",left,1,,,,,,001,2025-03-10_16h54.38.962,SL_sali_41,2021.2.3,Win32,60.97560976,1.5593,,,65,0,65,0,1,,,,,,,,
,,"[""diamond"",""green"",""vert"",""up"",[0,-150],[150,0]]",diamond,green,vert,up,"[0,-150]","[150,0]",up,1,,,,,,001,2025-03-10_16h54.38.962,SL_sali_41,2021.2.3,Win32,60.97560976,1.6129,,,66,0,66,0,1,,,,,,,,
,,"[""diamond"",""green"",""hori"",""left"",[-150,0],[-106,-106]]",diamond,green,hori,left,"[-150,0]","[-106,-106]",left,1,,,,,,001,2025-03-10_16h54.38.962,SL_sali_41,2021.2.3,Win32,60.97560976,1.8729,,,67,0,67,0,1,,,,,,,,
,,"[""circle"",""no_dis"",""hori"",""left"",[99999,99999],[-150,0]]",circle,no_dis,hori,left,"[99999,99999]","[-150,0]",left,1,,,,,,001,2025-03-10_16h54.38.962,SL_sali_41,2021.2.3,Win32,60.97560976,1.0063,,,68,0,68,0,1,,,,,,,,
,,"[""diamond"",""red"",""vert"",""up"",[150,0],[106,-106]]",diamond,red,vert,up,"[150,0]","[106,-106]",up,1,,,,,,001,2025-03-10_16h54.38.962,SL_sali_41,2021.2.3,Win32,60.97560976,2.2119,,,69,0,69,0,1,,,,,,,,
,,"[""diamond"",""red"",""hori"",""left"",[150,0],[-106,106]]",diamond,red,hori,left,"[150,0]","[-106,106]",left,1,,,,,,001,2025-03-10_16h54.38.962,SL_sali_41,2021.2.3,Win32,60.97560976,2.6786,,,70,0,70,0,1,,,,,,,,
,,"[""circle"",""green"",""vert"",""up"",[-150,0],[150,0]]",circle,green,vert,up,"[-150,0]","[150,0]",up,1,,,,,,001,2025-03-10_16h54.38.962,SL_sali_41,2021.2.3,Win32,60.97560976,2.7842,,,71,0,71,0,1,,,,,,,,
,,"[""diamond"",""red"",""vert"",""up"",[150,0],[106,-106]]",diamond,red,vert,up,"[150,0]","[106,-106]",up,1,,,,,,001,2025-03-10_16h54.38.962,SL_sali_41,2021.2.3,Win32,60.97560976,1.9895,,,72,0,72,0,1,,,,,,,,
,,"[""diamond"",""green"",""hori"",""left"",[150,0],[106,106]]",diamond,green,hori,left,"[150,0]","[106,106]",left,1,,,,,,001,2025-03-10_16h54.38.962,SL_sali_41,2021.2.3,Win32,60.97560976,2.2934,,,73,0,73,0,1,,,,,,,,
,,"[""diamond"",""no_dis"",""vert"",""up"",[99999,99999],[106,106]]",diamond,no_dis,vert,up,"[99999,99999]","[106,106]",up,1,,,,,,001,2025-03-10_16h54.38.962,SL_sali_41,2021.2.3,Win32,60.97560976,2.041,,,74,0,74,0,1,,,,,,,,
,,"[""circle"",""green"",""hori"",""left"",[150,0],[106,-106]]",circle,green,hori,left,"[150,0]","[106,-106]",,0,,,,,,001,2025-03-10_16h54.38.962,SL_sali_41,2021.2.3,Win32,60.97560976,,,,75,0,75,0,1,,,,,,,,
,,"[""circle"",""green"",""vert"",""up"",[150,0],[-106,106]]",circle,green,vert,up,"[150,0]","[-106,106]",up,1,,,,,,001,2025-03-10_16h54.38.962,SL_sali_41,2021.2.3,Win32,60.97560976,1.9994,,,76,0,76,0,1,,,,,,,,
,,"[""circle"",""red"",""vert"",""up"",[0,150],[106,106]]",circle,red,vert,up,"[0,150]","[106,106]",up,1,,,,,,001,2025-03-10_16h54.38.962,SL_sali_41,2021.2.3,Win32,60.97560976,1.0371,,,77,0,77,0,1,,,,,,,,
,,"[""circle"",""no_dis"",""hori"",""left"",[99999,99999],[106,-106]]",circle,no_dis,hori,left,"[99999,99999]","[106,-106]",left,1,,,,,,001,2025-03-10_16h54.38.962,SL_sali_41,2021.2.3,Win32,60.97560976,1.2538,,,78,0,78,0,1,,,,,,,,
,,"[""diamond"",""no_dis"",""vert"",""up"",[99999,99999],[150,0]]",diamond,no_dis,vert,up,"[99999,99999]","[150,0]",up,1,,,,,,001,2025-03-10_16h54.38.962,SL_sali_41,2021.2.3,Win32,60.97560976,2.7987,,,79,0,79,0,1,,,,,,,,
,,"[""circle"",""green"",""vert"",""up"",[106,-106],[106,106]]",circle,green,vert,up,"[106,-106]","[106,106]",up,1,,,,,,001,2025-03-10_16h54.38.962,SL_sali_41,2021.2.3,Win32,60.97560976,2.7848,,,80,0,80,0,1,,,,,,,,
,,"[""circle"",""red"",""hori"",""left"",[0,150],[-106,106]]",circle,red,hori,left,"[0,150]","[-106,106]",left,1,,,,,,001,2025-03-10_16h54.38.962,SL_sali_41,2021.2.3,Win32,60.97560976,1.6696,,,81,0,81,0,1,,,,,,,,
,,"[""circle"",""red"",""hori"",""left"",[106,106],[0,150]]",circle,red,hori,left,"[106,106]","[0,150]",,0,,,,,,001,2025-03-10_16h54.38.962,SL_sali_41,2021.2.3,Win32,60.97560976,,,,82,0,82,0,1,,,,,,,,
,,"[""circle"",""no_dis"",""hori"",""left"",[99999,99999],[106,106]]",circle,no_dis,hori,left,"[99999,99999]","[106,106]",left,1,,,,,,001,2025-03-10_16h54.38.962,SL_sali_41,2021.2.3,Win32,60.97560976,1.5586,,,83,0,83,0,1,,,,,,,,
,,"[""diamond"",""no_dis"",""vert"",""up"",[99999,99999],[-106,106]]",diamond,no_dis,vert,up,"[99999,99999]","[-106,106]",up,1,,,,,,001,2025-03-10_16h54.38.962,SL_sali_41,2021.2.3,Win32,60.97560976,2.8096,,,84,0,84,0,1,,,,,,,,
,,"[""diamond"",""red"",""hori"",""left"",[-106,106],[150,0]]",diamond,red,hori,left,"[-106,106]","[150,0]",left,1,,,,,,001,2025-03-10_16h54.38.962,SL_sali_41,2021.2.3,Win32,60.97560976,1.7819,,,85,0,85,0,1,,,,,,,,
,,"[""circle"",""no_dis"",""hori"",""left"",[99999,99999],[0,150]]",circle,no_dis,hori,left,"[99999,99999]","[0,150]",left,1,,,,,,001,2025-03-10_16h54.38.962,SL_sali_41,2021.2.3,Win32,60.97560976,2.3594,,,86,0,86,0,1,,,,,,,,
,,"[""diamond"",""green"",""hori"",""left"",[-106,106],[106,106]]",diamond,green,hori,left,"[-106,106]","[106,106]",left,1,,,,,,001,2025-03-10_16h54.38.962,SL_sali_41,2021.2.3,Win32,60.97560976,2.3415,,,87,0,87,0,1,,,,,,,,
,,"[""circle"",""red"",""vert"",""up"",[0,-150],[0,150]]",circle,red,vert,up,"[0,-150]","[0,150]",up,1,,,,,,001,2025-03-10_16h54.38.962,SL_sali_41,2021.2.3,Win32,60.97560976,1.4564,,,88,0,88,0,1,,,,,,,,
,,"[""diamond"",""green"",""hori"",""left"",[0,-150],[106,106]]",diamond,green,hori,left,"[0,-150]","[106,106]",left,1,,,,,,001,2025-03-10_16h54.38.962,SL_sali_41,2021.2.3,Win32,60.97560976,1.7725,,,89,0,89,0,1,,,,,,,,
,,"[""diamond"",""no_dis"",""hori"",""left"",[99999,99999],[0,150]]",diamond,no_dis,hori,left,"[99999,99999]","[0,150]",left,1,,,,,,001,2025-03-10_16h54.38.962,SL_sali_41,2021.2.3,Win32,60.97560976,1.8082,,,90,0,90,0,1,,,,,,,,
,,"[""diamond"",""green"",""hori"",""left"",[-106,-106],[0,-150]]",diamond,green,hori,left,"[-106,-106]","[0,-150]",left,1,,,,,,001,2025-03-10_16h54.38.962,SL_sali_41,2021.2.3,Win32,60.97560976,1.9072,,,91,0,91,0,1,,,,,,,,
,,"[""circle"",""no_dis"",""vert"",""up"",[99999,99999],[-106,-106]]",circle,no_dis,vert,up,"[99999,99999]","[-106,-106]",up,1,,,,,,001,2025-03-10_16h54.38.962,SL_sali_41,2021.2.3,Win32,60.97560976,1.4737,,,92,0,92,0,1,,,,,,,,
,,"[""circle"",""green"",""vert"",""up"",[106,-106],[-150,0]]",circle,green,vert,up,"[106,-106]","[-150,0]",up,1,,,,,,001,2025-03-10_16h54.38.962,SL_sali_41,2021.2.3,Win32,60.97560976,2.1454,,,93,0,93,0,1,,,,,,,,
,,"[""diamond"",""red"",""vert"",""up"",[150,0],[0,150]]",diamond,red,vert,up,"[150,0]","[0,150]",up,1,,,,,,001,2025-03-10_16h54.38.962,SL_sali_41,2021.2.3,Win32,60.97560976,1.1446,,,94,0,94,0,1,,,,,,,,
,,"[""diamond"",""green"",""vert"",""up"",[0,150],[0,-150]]",diamond,green,vert,up,"[0,150]","[0,-150]",up,1,,,,,,001,2025-03-10_16h54.38.962,SL_sali_41,2021.2.3,Win32,60.97560976,1.1934,,,95,0,95,0,1,,,,,,,,
,,"[""diamond"",""green"",""vert"",""up"",[-150,0],[106,-106]]",diamond,green,vert,up,"[-150,0]","[106,-106]",up,1,,,,,,001,2025-03-10_16h54.38.962,SL_sali_41,2021.2.3,Win32,60.97560976,1.2588,,,96,0,96,0,1,,,,,,,,
,,"[""diamond"",""no_dis"",""vert"",""up"",[99999,99999],[-106,106]]",diamond,no_dis,vert,up,"[99999,99999]","[-106,106]",up,1,,,,,,001,2025-03-10_16h54.38.962,SL_sali_41,2021.2.3,Win32,60.97560976,1.0342,,,97,0,97,0,1,,,,,,,,
,,"[""circle"",""green"",""hori"",""left"",[-150,0],[0,-150]]",circle,green,hori,left,"[-150,0]","[0,-150]",left,1,,,,,,001,2025-03-10_16h54.38.962,SL_sali_41,2021.2.3,Win32,60.97560976,1.6447,,,98,0,98,0,1,,,,,,,,
,,"[""circle"",""green"",""hori"",""left"",[-106,-106],[106,106]]",circle,green,hori,left,"[-106,-106]","[106,106]",left,1,,,,,,001,2025-03-10_16h54.38.962,SL_sali_41,2021.2.3,Win32,60.97560976,2.935,,,99,0,99,0,1,,,,,,,,
,,"[""diamond"",""green"",""vert"",""up"",[150,0],[-150,0]]",diamond,green,vert,up,"[150,0]","[-150,0]",up,1,,,,,,001,2025-03-10_16h54.38.962,SL_sali_41,2021.2.3,Win32,60.97560976,1.9658,,,100,0,100,0,1,,,,,,,,
,,"[""diamond"",""red"",""vert"",""up"",[150,0],[106,-106]]",diamond,red,vert,up,"[150,0]","[106,-106]",left,0,,,,,,001,2025-03-10_16h54.38.962,SL_sali_41,2021.2.3,Win32,60.97560976,1.7646,,,101,0,101,0,1,,,,,,,,
,,"[""circle"",""no_dis"",""vert"",""up"",[99999,99999],[150,0]]",circle,no_dis,vert,up,"[99999,99999]","[150,0]",up,1,,,,,,001,2025-03-10_16h54.38.962,SL_sali_41,2021.2.3,Win32,60.97560976,2.3276,,,102,0,102,0,1,,,,,,,,
,,"[""diamond"",""green"",""vert"",""up"",[150,0],[0,-150]]",diamond,green,vert,up,"[150,0]","[0,-150]",up,1,,,,,,001,2025-03-10_16h54.38.962,SL_sali_41,2021.2.3,Win32,60.97560976,2.8758,,,103,0,103,0,1,,,,,,,,
,,"[""diamond"",""red"",""hori"",""left"",[106,-106],[0,150]]",diamond,red,hori,left,"[106,-106]","[0,150]",left,1,,,,,,001,2025-03-10_16h54.38.962,SL_sali_41,2021.2.3,Win32,60.97560976,1.3742,,,104,0,104,0,1,,,,,,,,
,,"[""circle"",""no_dis"",""hori"",""left"",[99999,99999],[0,-150]]",circle,no_dis,hori,left,"[99999,99999]","[0,-150]",,0,,,,,,001,2025-03-10_16h54.38.962,SL_sali_41,2021.2.3,Win32,60.97560976,,,,105,0,105,0,1,,,,,,,,
,,"[""diamond"",""no_dis"",""vert"",""up"",[99999,99999],[0,-150]]",diamond,no_dis,vert,up,"[99999,99999]","[0,-150]",up,1,,,,,,001,2025-03-10_16h54.38.962,SL_sali_41,2021.2.3,Win32,60.97560976,1.7071,,,106,0,106,0,1,,,,,,,,
,,"[""diamond"",""no_dis"",""hori"",""left"",[99999,99999],[0,150]]",diamond,no_dis,hori,left,"[99999,99999]","[0,150]",left,1,,,,,,001,2025-03-10_16h54.38.962,SL_sali_41,2021.2.3,Win32,60.97560976,1.9576,,,107,0,107,0,1,,,,,,,,
,,"[""diamond"",""red"",""hori"",""left"",[106,-106],[0,-150]]",diamond,red,hori,left,"[106,-106]","[0,-150]",up,0,,,,,,001,2025-03-10_16h54.38.962,SL_sali_41,2021.2.3,Win32,60.97560976,2.7531,,,108,0,108,0,1,,,,,,,,
,,"[""circle"",""green"",""vert"",""up"",[106,-106],[-150,0]]",circle,green,vert,up,"[106,-106]","[-150,0]",up,1,,,,,,001,2025-03-10_16h54.38.962,SL_sali_41,2021.2.3,Win32,60.97560976,1.6683,,,109,0,109,0,1,,,,,,,,
,,"[""diamond"",""green"",""hori"",""left"",[150,0],[-150,0]]",diamond,green,hori,left,"[150,0]","[-150,0]",left,1,,,,,,001,2025-03-10_16h54.38.962,SL_sali_41,2021.2.3,Win32,60.97560976,2.1593,,,110,0,110,0,1,,,,,,,,
,,"[""circle"",""red"",""vert"",""up"",[106,106],[0,-150]]",circle,red,vert,up,"[106,106]","[0,-150]",up,1,,,,,,001,2025-03-10_16h54.38.962,SL_sali_41,2021.2.3,Win32,60.97560976,1.3399,,,111,0,111,0,1,,,,,,,,
,,"[""diamond"",""red"",""hori"",""left"",[150,0],[-106,106]]",diamond,red,hori,left,"[150,0]","[-106,106]",left,1,,,,,,001,2025-03-10_16h54.38.962,SL_sali_41,2021.2.3,Win32,60.97560976,1.6078,,,112,0,112,0,1,,,,,,,,
,,"[""circle"",""red"",""hori"",""left"",[0,-150],[106,106]]",circle,red,hori,left,"[0,-150]","[106,106]",up,0,,,,,,001,2025-03-10_16h54.38.962,SL_sali_41,2021.2.3,Win32,60.97560976,2.108,,,113,0,113,0,1,,,,,,,,
,,"[""diamond"",""red"",""hori"",""left"",[0,150],[0,-150]]",diamond,red,hori,left,"[0,150]","[0,-150]",,0,,,,,,001,2025-03-10_16h54.38.962,SL_sali_41,2021.2.3,Win32,60.97560976,,,,114,0,114,0,1,,,,,,,,
,,"[""circle"",""red"",""vert"",""up"",[0,150],[106,106]]",circle,red,vert,up,"[0,150]","[106,106]",up,1,,,,,,001,2025-03-10_16h54.38.962,SL_sali_41,2021.2.3,Win32,60.97560976,1.4063,,,115,0,115,0,1,,,,,,,,
,,"[""circle"",""no_dis"",""vert"",""up"",[99999,99999],[-150,0]]",circle,no_dis,vert,up,"[99999,99999]","[-150,0]",,0,,,,,,001,2025-03-10_16h54.38.962,SL_sali_41,2021.2.3,Win32,60.97560976,,,,116,0,116,0,1,,,,,,,,
,,"[""diamond"",""no_dis"",""vert"",""up"",[99999,99999],[106,106]]",diamond,no_dis,vert,up,"[99999,99999]","[106,106]",up,1,,,,,,001,2025-03-10_16h54.38.962,SL_sali_41,2021.2.3,Win32,60.97560976,2.2478,,,117,0,117,0,1,,,,,,,,
,,"[""diamond"",""red"",""vert"",""up"",[-106,-106],[106,106]]",diamond,red,vert,up,"[-106,-106]","[106,106]",up,1,,,,,,001,2025-03-10_16h54.38.962,SL_sali_41,2021.2.3,Win32,60.97560976,2.1583,,,118,0,118,0,1,,,,,,,,
,,"[""circle"",""red"",""hori"",""left"",[150,0],[0,150]]",circle,red,hori,left,"[150,0]","[0,150]",left,1,,,,,,001,2025-03-10_16h54.38.962,SL_sali_41,2021.2.3,Win32,60.97560976,1.7051,,,119,0,119,0,1,,,,,,,,
,,"[""circle"",""green"",""vert"",""up"",[150,0],[106,106]]",circle,green,vert,up,"[150,0]","[106,106]",,0,,,,,,001,2025-03-10_16h54.38.962,SL_sali_41,2021.2.3,Win32,60.97560976,,,,120,0,120,0,1,,,,,,,,
,,"[""diamond"",""no_dis"",""vert"",""up"",[99999,99999],[0,150]]",diamond,no_dis,vert,up,"[99999,99999]","[0,150]",up,1,,,,,,001,2025-03-10_16h54.38.962,SL_sali_41,2021.2.3,Win32,60.97560976,1.6226,,,121,0,121,0,1,,,,,,,,
,,"[""circle"",""green"",""vert"",""up"",[0,-150],[150,0]]",circle,green,vert,up,"[0,-150]","[150,0]",up,1,,,,,,001,2025-03-10_16h54.38.962,SL_sali_41,2021.2.3,Win32,60.97560976,1.6385,,,122,0,122,0,1,,,,,,,,
,,"[""diamond"",""no_dis"",""hori"",""left"",[99999,99999],[106,106]]",diamond,no_dis,hori,left,"[99999,99999]","[106,106]",left,1,,,,,,001,2025-03-10_16h54.38.962,SL_sali_41,2021.2.3,Win32,60.97560976,1.3566,,,123,0,123,0,1,,,,,,,,
,,"[""diamond"",""no_dis"",""hori"",""left"",[99999,99999],[-106,-106]]",diamond,no_dis,hori,left,"[99999,99999]","[-106,-106]",left,1,,,,,,001,2025-03-10_16h54.38.962,SL_sali_41,2021.2.3,Win32,60.97560976,1.9064,,,124,0,124,0,1,,,,,,,,
,,"[""circle"",""no_dis"",""hori"",""left"",[99999,99999],[-106,-106]]",circle,no_dis,hori,left,"[99999,99999]","[-106,-106]",left,1,,,,,,001,2025-03-10_16h54.38.962,SL_sali_41,2021.2.3,Win32,60.97560976,1.1197,,,125,0,125,0,1,,,,,,,,
,,"[""circle"",""no_dis"",""vert"",""up"",[99999,99999],[0,-150]]",circle,no_dis,vert,up,"[99999,99999]","[0,-150]",up,1,,,,,,001,2025-03-10_16h54.38.962,SL_sali_41,2021.2.3,Win32,60.97560976,1.51,,,126,0,126,0,1,,,,,,,,
,,"[""circle"",""green"",""hori"",""left"",[150,0],[106,-106]]",circle,green,hori,left,"[150,0]","[106,-106]",left,1,,,,,,001,2025-03-10_16h54.38.962,SL_sali_41,2021.2.3,Win32,60.97560976,1.9957,,,127,0,127,0,1,,,,,,,,
,,,,,,,,,,,,,,,,001,2025-03-10_16h54.38.962,SL_sali_41,2021.2.3,Win32,60.97560976,,,,,,,,,1,space,106.2173,0,0,0,0,1
,,"[""diamond"",""no_dis"",""vert"",""up"",[99999,99999],[-106,-106]]",diamond,no_dis,vert,up,"[99999,99999]","[-106,-106]",up,1,,,,,,001,2025-03-10_16h54.38.962,SL_sali_41,2021.2.3,Win32,60.97560976,2.6067,,,0,0,0,0,1,,,,,,,,
,,"[""circle"",""green"",""vert"",""up"",[-150,0],[150,0]]",circle,green,vert,up,"[-150,0]","[150,0]",up,1,,,,,,001,2025-03-10_16h54.38.962,SL_sali_41,2021.2.3,Win32,60.97560976,1.4012,,,1,0,1,0,1,,,,,,,,
,,"[""circle"",""no_dis"",""vert"",""up"",[99999,99999],[150,0]]",circle,no_dis,vert,up,"[99999,99999]","[150,0]",up,1,,,,,,001,2025-03-10_16h54.38.962,SL_sali_41,2021.2.3,Win32,60.97560976,1.3879,,,2,0,2,0,1,,,,,,,,
,,"[""circle"",""no_dis"",""vert"",""up"",[99999,99999],[0,-150]]",circle,no_dis,vert,up,"[99999,99999]","[0,-150]",up,1,,,,,,001,2025-03-10_16h54.38.962,SL_sali_41,2021.2.3,Win32,60.97560976,0.9887,,,3,0,3,0,1,,,,,,,,
,,"[""diamond"",""no_dis"",""vert"",""up"",[99999,99999],[106,-106]]",diamond,no_dis,vert,up,"[99999,99999]","[106,-106]",up,1,,,,,,001,2025-03-10_16h54.38.962,SL_sali_41,2021.2.3,Win32,60.97560976,1.7838,,,4,0,4,0,1,,,,,,,,
,,"[""diamond"",""no_dis"",""hori"",""left"",[99999,99999],[-106,-106]]",diamond,no_dis,hori,left,"[99999,99999]","[-106,-106]",left,1,,,,,,001,2025-03-10_16h54.38.962,SL_sali_41,2021.2.3,Win32,60.97560976,1.2056,,,5,0,5,0,1,,,,,,,,
,,"[""circle"",""red"",""hori"",""left"",[0,-150],[150,0]]",circle,red,hori,left,"[0,-150]","[150,0]",left,1,,,,,,001,2025-03-10_16h54.38.962,SL_sali_41,2021.2.3,Win32,60.97560976,1.3427,,,6,0,6,0,1,,,,,,,,
,,"[""diamond"",""green"",""vert"",""up"",[-106,106],[-150,0]]",diamond,green,vert,up,"[-106,106]","[-150,0]",up,1,,,,,,001,2025-03-10_16h54.38.962,SL_sali_41,2021.2.3,Win32,60.97560976,1.7157,,,7,0,7,0,1,,,,,,,,
,,"[""circle"",""green"",""vert"",""up"",[106,-106],[-150,0]]",circle,green,vert,up,"[106,-106]","[-150,0]",up,1,,,,,,001,2025-03-10_16h54.38.962,SL_sali_41,2021.2.3,Win32,60.97560976,1.6425,,,8,0,8,0,1,,,,,,,,
,,"[""circle"",""no_dis"",""hori"",""left"",[99999,99999],[0,150]]",circle,no_dis,hori,left,"[99999,99999]","[0,150]",left,1,,,,,,001,2025-03-10_16h54.38.962,SL_sali_41,2021.2.3,Win32,60.97560976,1.2743,,,9,0,9,0,1,,,,,,,,
,,"[""diamond"",""no_dis"",""hori"",""left"",[99999,99999],[-150,0]]",diamond,no_dis,hori,left,"[99999,99999]","[-150,0]",left,1,,,,,,001,2025-03-10_16h54.38.962,SL_sali_41,2021.2.3,Win32,60.97560976,1.1488,,,10,0,10,0,1,,,,,,,,
,,"[""diamond"",""red"",""hori"",""left"",[150,0],[0,-150]]",diamond,red,hori,left,"[150,0]","[0,-150]",left,1,,,,,,001,2025-03-10_16h54.38.962,SL_sali_41,2021.2.3,Win32,60.97560976,1.6648,,,11,0,11,0,1,,,,,,,,
,,"[""circle"",""red"",""vert"",""up"",[106,106],[0,-150]]",circle,red,vert,up,"[106,106]","[0,-150]",up,1,,,,,,001,2025-03-10_16h54.38.962,SL_sali_41,2021.2.3,Win32,60.97560976,2.5714,,,12,0,12,0,1,,,,,,,,
,,"[""diamond"",""green"",""vert"",""up"",[0,150],[0,-150]]",diamond,green,vert,up,"[0,150]","[0,-150]",up,1,,,,,,001,2025-03-10_16h54.38.962,SL_sali_41,2021.2.3,Win32,60.97560976,1.4758,,,13,0,13,0,1,,,,,,,,
,,"[""circle"",""no_dis"",""hori"",""left"",[99999,99999],[106,106]]",circle,no_dis,hori,left,"[99999,99999]","[106,106]",left,1,,,,,,001,2025-03-10_16h54.38.962,SL_sali_41,2021.2.3,Win32,60.97560976,1.5926,,,14,0,14,0,1,,,,,,,,
,,"[""diamond"",""green"",""vert"",""up"",[0,150],[106,106]]",diamond,green,vert,up,"[0,150]","[106,106]",up,1,,,,,,001,2025-03-10_16h54.38.962,SL_sali_41,2021.2.3,Win32,60.97560976,2.0512,,,15,0,15,0,1,,,,,,,,
,,"[""diamond"",""no_dis"",""vert"",""up"",[99999,99999],[-106,106]]",diamond,no_dis,vert,up,"[99999,99999]","[-106,106]",left,0,,,,,,001,2025-03-10_16h54.38.962,SL_sali_41,2021.2.3,Win32,60.97560976,2.0083,,,16,0,16,0,1,,,,,,,,
,,"[""diamond"",""red"",""vert"",""up"",[0,-150],[106,-106]]",diamond,red,vert,up,"[0,-150]","[106,-106]",up,1,,,,,,001,2025-03-10_16h54.38.962,SL_sali_41,2021.2.3,Win32,60.97560976,1.1261,,,17,0,17,0,1,,,,,,,,
,,"[""diamond"",""red"",""vert"",""up"",[150,0],[0,150]]",diamond,red,vert,up,"[150,0]","[0,150]",up,1,,,,,,001,2025-03-10_16h54.38.962,SL_sali_41,2021.2.3,Win32,60.97560976,1.0054,,,18,0,18,0,1,,,,,,,,
,,"[""circle"",""red"",""vert"",""up"",[106,106],[0,150]]",circle,red,vert,up,"[106,106]","[0,150]",up,1,,,,,,001,2025-03-10_16h54.38.962,SL_sali_41,2021.2.3,Win32,60.97560976,1.7534,,,19,0,19,0,1,,,,,,,,
,,"[""diamond"",""no_dis"",""hori"",""left"",[99999,99999],[-106,-106]]",diamond,no_dis,hori,left,"[99999,99999]","[-106,-106]",left,1,,,,,,001,2025-03-10_16h54.38.962,SL_sali_41,2021.2.3,Win32,60.97560976,1.9193,,,20,0,20,0,1,,,,,,,,
,,"[""circle"",""red"",""vert"",""up"",[0,150],[106,106]]",circle,red,vert,up,"[0,150]","[106,106]",up,1,,,,,,001,2025-03-10_16h54.38.962,SL_sali_41,2021.2.3,Win32,60.97560976,1.9374,,,21,0,21,0,1,,,,,,,,
,,"[""diamond"",""green"",""hori"",""left"",[-106,106],[106,106]]",diamond,green,hori,left,"[-106,106]","[106,106]",up,0,,,,,,001,2025-03-10_16h54.38.962,SL_sali_41,2021.2.3,Win32,60.97560976,2.876,,,22,0,22,0,1,,,,,,,,
,,"[""diamond"",""no_dis"",""hori"",""left"",[99999,99999],[-106,106]]",diamond,no_dis,hori,left,"[99999,99999]","[-106,106]",,0,,,,,,001,2025-03-10_16h54.38.962,SL_sali_41,2021.2.3,Win32,60.97560976,,,,23,0,23,0,1,,,,,,,,
,,"[""circle"",""green"",""vert"",""up"",[150,0],[-106,-106]]",circle,green,vert,up,"[150,0]","[-106,-106]",up,1,,,,,,001,2025-03-10_16h54.38.962,SL_sali_41,2021.2.3,Win32,60.97560976,2.4929,,,24,0,24,0,1,,,,,,,,
,,"[""circle"",""no_dis"",""hori"",""left"",[99999,99999],[106,-106]]",circle,no_dis,hori,left,"[99999,99999]","[106,-106]",left,1,,,,,,001,2025-03-10_16h54.38.962,SL_sali_41,2021.2.3,Win32,60.97560976,1.306,,,25,0,25,0,1,,,,,,,,
,,"[""circle"",""green"",""vert"",""up"",[-150,0],[150,0]]",circle,green,vert,up,"[-150,0]","[150,0]",up,1,,,,,,001,2025-03-10_16h54.38.962,SL_sali_41,2021.2.3,Win32,60.97560976,1.068,,,26,0,26,0,1,,,,,,,,
,,"[""circle"",""green"",""vert"",""up"",[150,0],[-106,106]]",circle,green,vert,up,"[150,0]","[-106,106]",up,1,,,,,,001,2025-03-10_16h54.38.962,SL_sali_41,2021.2.3,Win32,60.97560976,1.5076,,,27,0,27,0,1,,,,,,,,
,,"[""diamond"",""red"",""vert"",""up"",[150,0],[0,150]]",diamond,red,vert,up,"[150,0]","[0,150]",left,0,,,,,,001,2025-03-10_16h54.38.962,SL_sali_41,2021.2.3,Win32,60.97560976,1.807,,,28,0,28,0,1,,,,,,,,
,,"[""circle"",""no_dis"",""hori"",""left"",[99999,99999],[-106,106]]",circle,no_dis,hori,left,"[99999,99999]","[-106,106]",left,1,,,,,,001,2025-03-10_16h54.38.962,SL_sali_41,2021.2.3,Win32,60.97560976,1.1493,,,29,0,29,0,1,,,,,,,,
,,"[""circle"",""no_dis"",""vert"",""up"",[99999,99999],[-150,0]]",circle,no_dis,vert,up,"[99999,99999]","[-150,0]",up,1,,,,,,001,2025-03-10_16h54.38.962,SL_sali_41,2021.2.3,Win32,60.97560976,1.2361,,,30,0,30,0,1,,,,,,,,
,,"[""diamond"",""red"",""vert"",""up"",[150,0],[106,-106]]",diamond,red,vert,up,"[150,0]","[106,-106]",up,1,,,,,,001,2025-03-10_16h54.38.962,SL_sali_41,2021.2.3,Win32,60.97560976,1.3517,,,31,0,31,0,1,,,,,,,,
,,"[""diamond"",""green"",""hori"",""left"",[150,0],[106,106]]",diamond,green,hori,left,"[150,0]","[106,106]",left,1,,,,,,001,2025-03-10_16h54.38.962,SL_sali_41,2021.2.3,Win32,60.97560976,1.9589,,,32,0,32,0,1,,,,,,,,
,,"[""circle"",""red"",""vert"",""up"",[0,150],[106,106]]",circle,red,vert,up,"[0,150]","[106,106]",left,0,,,,,,001,2025-03-10_16h54.38.962,SL_sali_41,2021.2.3,Win32,60.97560976,2.4274,,,33,0,33,0,1,,,,,,,,
,,"[""diamond"",""green"",""hori"",""left"",[-106,-106],[0,-150]]",diamond,green,hori,left,"[-106,-106]","[0,-150]",left,1,,,,,,001,2025-03-10_16h54.38.962,SL_sali_41,2021.2.3,Win32,60.97560976,2.5036,,,34,0,34,0,1,,,,,,,,
,,"[""diamond"",""no_dis"",""vert"",""up"",[99999,99999],[0,-150]]",diamond,no_dis,vert,up,"[99999,99999]","[0,-150]",,0,,,,,,001,2025-03-10_16h54.38.962,SL_sali_41,2021.2.3,Win32,60.97560976,,,,35,0,35,0,1,,,,,,,,
,,"[""diamond"",""red"",""hori"",""left"",[150,0],[-106,106]]",diamond,red,hori,left,"[150,0]","[-106,106]",left,1,,,,,,001,2025-03-10_16h54.38.962,SL_sali_41,2021.2.3,Win32,60.97560976,1.2336,,,36,0,36,0,1,,,,,,,,
,,"[""diamond"",""no_dis"",""hori"",""left"",[99999,99999],[150,0]]",diamond,no_dis,hori,left,"[99999,99999]","[150,0]",left,1,,,,,,001,2025-03-10_16h54.38.962,SL_sali_41,2021.2.3,Win32,60.97560976,1.4836,,,37,0,37,0,1,,,,,,,,
,,"[""diamond"",""green"",""vert"",""up"",[-106,-106],[106,106]]",diamond,green,vert,up,"[-106,-106]","[106,106]",up,1,,,,,,001,2025-03-10_16h54.38.962,SL_sali_41,2021.2.3,Win32,60.97560976,1.7686,,,38,0,38,0,1,,,,,,,,
,,"[""diamond"",""no_dis"",""vert"",""up"",[99999,99999],[106,106]]",diamond,no_dis,vert,up,"[99999,99999]","[106,106]",up,1,,,,,,001,2025-03-10_16h54.38.962,SL_sali_41,2021.2.3,Win32,60.97560976,1.0332,,,39,0,39,0,1,,,,,,,,
,,"[""diamond"",""green"",""hori"",""left"",[150,0],[106,106]]",diamond,green,hori,left,"[150,0]","[106,106]",left,1,,,,,,001,2025-03-10_16h54.38.962,SL_sali_41,2021.2.3,Win32,60.97560976,1.4674,,,40,0,40,0,1,,,,,,,,
,,"[""circle"",""green"",""hori"",""left"",[150,0],[-150,0]]",circle,green,hori,left,"[150,0]","[-150,0]",left,1,,,,,,001,2025-03-10_16h54.38.962,SL_sali_41,2021.2.3,Win32,60.97560976,1.3975,,,41,0,41,0,1,,,,,,,,
,,"[""circle"",""red"",""vert"",""up"",[106,-106],[-106,106]]",circle,red,vert,up,"[106,-106]","[-106,106]",up,1,,,,,,001,2025-03-10_16h54.38.962,SL_sali_41,2021.2.3,Win32,60.97560976,0.8315,,,42,0,42,0,1,,,,,,,,
,,"[""diamond"",""no_dis"",""hori"",""left"",[99999,99999],[-106,106]]",diamond,no_dis,hori,left,"[99999,99999]","[-106,106]",left,1,,,,,,001,2025-03-10_16h54.38.962,SL_sali_41,2021.2.3,Win32,60.97560976,0.8805,,,43,0,43,0,1,,,,,,,,
,,"[""circle"",""no_dis"",""hori"",""left"",[99999,99999],[0,-150]]",circle,no_dis,hori,left,"[99999,99999]","[0,-150]",left,1,,,,,,001,2025-03-10_16h54.38.962,SL_sali_41,2021.2.3,Win32,60.97560976,1.2822,,,44,0,44,0,1,,,,,,,,
,,"[""diamond"",""red"",""hori"",""left"",[150,0],[-106,106]]",diamond,red,hori,left,"[150,0]","[-106,106]",left,1,,,,,,001,2025-03-10_16h54.38.962,SL_sali_41,2021.2.3,Win32,60.97560976,2.1362,,,45,0,45,0,1,,,,,,,,
,,"[""diamond"",""green"",""vert"",""up"",[-150,0],[106,-106]]",diamond,green,vert,up,"[-150,0]","[106,-106]",up,1,,,,,,001,2025-03-10_16h54.38.962,SL_sali_41,2021.2.3,Win32,60.97560976,1.9561,,,46,0,46,0,1,,,,,,,,
,,"[""diamond"",""red"",""hori"",""left"",[0,150],[0,-150]]",diamond,red,hori,left,"[0,150]","[0,-150]",left,1,,,,,,001,2025-03-10_16h54.38.962,SL_sali_41,2021.2.3,Win32,60.97560976,2.2026,,,47,0,47,0,1,,,,,,,,
,,"[""circle"",""no_dis"",""vert"",""up"",[99999,99999],[150,0]]",circle,no_dis,vert,up,"[99999,99999]","[150,0]",up,1,,,,,,001,2025-03-10_16h54.38.962,SL_sali_41,2021.2.3,Win32,60.97560976,1.2097,,,48,0,48,0,1,,,,,,,,
,,"[""diamond"",""red"",""hori"",""left"",[106,-106],[0,150]]",diamond,red,hori,left,"[106,-106]","[0,150]",left,1,,,,,,001,2025-03-10_16h54.38.962,SL_sali_41,2021.2.3,Win32,60.97560976,1.7001,,,49,0,49,0,1,,,,,,,,
,,"[""diamond"",""green"",""vert"",""up"",[106,106],[106,-106]]",diamond,green,vert,up,"[106,106]","[106,-106]",up,1,,,,,,001,2025-03-10_16h54.38.962,SL_sali_41,2021.2.3,Win32,60.97560976,1.3978,,,50,0,50,0,1,,,,,,,,
,,"[""diamond"",""no_dis"",""vert"",""up"",[99999,99999],[106,106]]",diamond,no_dis,vert,up,"[99999,99999]","[106,106]",up,1,,,,,,001,2025-03-10_16h54.38.962,SL_sali_41,2021.2.3,Win32,60.97560976,1.5036,,,51,0,51,0,1,,,,,,,,
,,"[""diamond"",""red"",""vert"",""up"",[150,0],[106,-106]]",diamond,red,vert,up,"[150,0]","[106,-106]",up,1,,,,,,001,2025-03-10_16h54.38.962,SL_sali_41,2021.2.3,Win32,60.97560976,2.1688,,,52,0,52,0,1,,,,,,,,
,,"[""diamond"",""green"",""hori"",""left"",[0,-150],[106,106]]",diamond,green,hori,left,"[0,-150]","[106,106]",left,1,,,,,,001,2025-03-10_16h54.38.962,SL_sali_41,2021.2.3,Win32,60.97560976,1.9859,,,53,0,53,0,1,,,,,,,,
,,"[""diamond"",""no_dis"",""hori"",""left"",[99999,99999],[0,150]]",diamond,no_dis,hori,left,"[99999,99999]","[0,150]",left,1,,,,,,001,2025-03-10_16h54.38.962,SL_sali_41,2021.2.3,Win32,60.97560976,0.8021,,,54,0,54,0,1,,,,,,,,
,,"[""diamond"",""green"",""hori"",""left"",[150,0],[-150,0]]",diamond,green,hori,left,"[150,0]","[-150,0]",left,1,,,,,,001,2025-03-10_16h54.38.962,SL_sali_41,2021.2.3,Win32,60.97560976,0.8129,,,55,0,55,0,1,,,,,,,,
,,"[""circle"",""red"",""vert"",""up"",[-106,106],[-106,-106]]",circle,red,vert,up,"[-106,106]","[-106,-106]",up,1,,,,,,001,2025-03-10_16h54.38.962,SL_sali_41,2021.2.3,Win32,60.97560976,1.4357,,,56,0,56,0,1,,,,,,,,
,,"[""diamond"",""green"",""vert"",""up"",[0,-150],[150,0]]",diamond,green,vert,up,"[0,-150]","[150,0]",up,1,,,,,,001,2025-03-10_16h54.38.962,SL_sali_41,2021.2.3,Win32,60.97560976,1.5862,,,57,0,57,0,1,,,,,,,,
,,"[""diamond"",""red"",""vert"",""up"",[150,0],[106,-106]]",diamond,red,vert,up,"[150,0]","[106,-106]",up,1,,,,,,001,2025-03-10_16h54.38.962,SL_sali_41,2021.2.3,Win32,60.97560976,2.5201,,,58,0,58,0,1,,,,,,,,
,,"[""circle"",""green"",""vert"",""up"",[150,0],[106,106]]",circle,green,vert,up,"[150,0]","[106,106]",up,1,,,,,,001,2025-03-10_16h54.38.962,SL_sali_41,2021.2.3,Win32,60.97560976,2.0333,,,59,0,59,0,1,,,,,,,,
,,"[""diamond"",""green"",""vert"",""up"",[150,0],[-150,0]]",diamond,green,vert,up,"[150,0]","[-150,0]",,0,,,,,,001,2025-03-10_16h54.38.962,SL_sali_41,2021.2.3,Win32,60.97560976,,,,60,0,60,0,1,,,,,,,,
,,"[""circle"",""no_dis"",""vert"",""up"",[99999,99999],[106,-106]]",circle,no_dis,vert,up,"[99999,99999]","[106,-106]",up,1,,,,,,001,2025-03-10_16h54.38.962,SL_sali_41,2021.2.3,Win32,60.97560976,2.6929,,,61,0,61,0,1,,,,,,,,
,,"[""circle"",""red"",""hori"",""left"",[0,150],[-106,106]]",circle,red,hori,left,"[0,150]","[-106,106]",left,1,,,,,,001,2025-03-10_16h54.38.962,SL_sali_41,2021.2.3,Win32,60.97560976,2.1722,,,62,0,62,0,1,,,,,,,,
,,"[""diamond"",""no_dis"",""vert"",""up"",[99999,99999],[-106,106]]",diamond,no_dis,vert,up,"[99999,99999]","[-106,106]",up,1,,,,,,001,2025-03-10_16h54.38.962,SL_sali_41,2021.2.3,Win32,60.97560976,1.7238,,,63,0,63,0,1,,,,,,,,
,,"[""circle"",""green"",""hori"",""left"",[-106,-106],[0,-150]]",circle,green,hori,left,"[-106,-106]","[0,-150]",left,1,,,,,,001,2025-03-10_16h54.38.962,SL_sali_41,2021.2.3,Win32,60.97560976,2.0043,,,64,0,64,0,1,,,,,,,,
,,"[""circle"",""no_dis"",""vert"",""up"",[99999,99999],[106,106]]",circle,no_dis,vert,up,"[99999,99999]","[106,106]",up,1,,,,,,001,2025-03-10_16h54.38.962,SL_sali_41,2021.2.3,Win32,60.97560976,1.1606,,,65,0,65,0,1,,,,,,,,
,,"[""circle"",""red"",""hori"",""left"",[150,0],[106,-106]]",circle,red,hori,left,"[150,0]","[106,-106]",left,1,,,,,,001,2025-03-10_16h54.38.962,SL_sali_41,2021.2.3,Win32,60.97560976,1.2082,,,66,0,66,0,1,,,,,,,,
,,"[""diamond"",""red"",""vert"",""up"",[150,0],[0,-150]]",diamond,red,vert,up,"[150,0]","[0,-150]",up,1,,,,,,001,2025-03-10_16h54.38.962,SL_sali_41,2021.2.3,Win32,60.97560976,2.0156,,,67,0,67,0,1,,,,,,,,
,,"[""diamond"",""no_dis"",""vert"",""up"",[99999,99999],[0,150]]",diamond,no_dis,vert,up,"[99999,99999]","[0,150]",up,1,,,,,,001,2025-03-10_16h54.38.962,SL_sali_41,2021.2.3,Win32,60.97560976,1.116,,,68,0,68,0,1,,,,,,,,
,,"[""circle"",""red"",""vert"",""up"",[0,-150],[0,150]]",circle,red,vert,up,"[0,-150]","[0,150]",up,1,,,,,,001,2025-03-10_16h54.38.962,SL_sali_41,2021.2.3,Win32,60.97560976,1.4621,,,69,0,69,0,1,,,,,,,,
,,"[""diamond"",""red"",""vert"",""up"",[-150,0],[106,-106]]",diamond,red,vert,up,"[-150,0]","[106,-106]",up,1,,,,,,001,2025-03-10_16h54.38.962,SL_sali_41,2021.2.3,Win32,60.97560976,1.505,,,70,0,70,0,1,,,,,,,,
,,"[""circle"",""green"",""vert"",""up"",[106,106],[0,150]]",circle,green,vert,up,"[106,106]","[0,150]",up,1,,,,,,001,2025-03-10_16h54.38.962,SL_sali_41,2021.2.3,Win32,60.97560976,2.1184,,,71,0,71,0,1,,,,,,,,
,,"[""circle"",""red"",""vert"",""up"",[150,0],[0,150]]",circle,red,vert,up,"[150,0]","[0,150]",up,1,,,,,,001,2025-03-10_16h54.38.962,SL_sali_41,2021.2.3,Win32,60.97560976,1.31,,,72,0,72,0,1,,,,,,,,
,,"[""diamond"",""red"",""hori"",""left"",[150,0],[0,-150]]",diamond,red,hori,left,"[150,0]","[0,-150]",left,1,,,,,,001,2025-03-10_16h54.38.962,SL_sali_41,2021.2.3,Win32,60.97560976,2.0586,,,73,0,73,0,1,,,,,,,,
,,"[""diamond"",""no_dis"",""vert"",""up"",[99999,99999],[0,-150]]",diamond,no_dis,vert,up,"[99999,99999]","[0,-150]",up,1,,,,,,001,2025-03-10_16h54.38.962,SL_sali_41,2021.2.3,Win32,60.97560976,2.3023,,,74,0,74,0,1,,,,,,,,
,,"[""circle"",""red"",""hori"",""left"",[106,106],[0,150]]",circle,red,hori,left,"[106,106]","[0,150]",left,1,,,,,,001,2025-03-10_16h54.38.962,SL_sali_41,2021.2.3,Win32,60.97560976,1.9269,,,75,0,75,0,1,,,,,,,,
,,"[""circle"",""no_dis"",""hori"",""left"",[99999,99999],[-106,-106]]",circle,no_dis,hori,left,"[99999,99999]","[-106,-106]",left,1,,,,,,001,2025-03-10_16h54.38.962,SL_sali_41,2021.2.3,Win32,60.97560976,2.2247,,,76,0,76,0,1,,,,,,,,
,,"[""circle"",""green"",""hori"",""left"",[150,0],[106,-106]]",circle,green,hori,left,"[150,0]","[106,-106]",left,1,,,,,,001,2025-03-10_16h54.38.962,SL_sali_41,2021.2.3,Win32,60.97560976,2.0044,,,77,0,77,0,1,,,,,,,,
,,"[""circle"",""green"",""hori"",""left"",[106,-106],[106,106]]",circle,green,hori,left,"[106,-106]","[106,106]",left,1,,,,,,001,2025-03-10_16h54.38.962,SL_sali_41,2021.2.3,Win32,60.97560976,1.536,,,78,0,78,0,1,,,,,,,,
,,"[""circle"",""red"",""vert"",""up"",[106,106],[0,-150]]",circle,red,vert,up,"[106,106]","[0,-150]",up,1,,,,,,001,2025-03-10_16h54.38.962,SL_sali_41,2021.2.3,Win32,60.97560976,1.6396,,,79,0,79,0,1,,,,,,,,
,,"[""diamond"",""green"",""vert"",""up"",[150,0],[106,-106]]",diamond,green,vert,up,"[150,0]","[106,-106]",up,1,,,,,,001,2025-03-10_16h54.38.962,SL_sali_41,2021.2.3,Win32,60.97560976,1.9716,,,80,0,80,0,1,,,,,,,,
,,"[""circle"",""green"",""vert"",""up"",[106,-106],[-150,0]]",circle,green,vert,up,"[106,-106]","[-150,0]",up,1,,,,,,001,2025-03-10_16h54.38.962,SL_sali_41,2021.2.3,Win32,60.97560976,1.0674,,,81,0,81,0,1,,,,,,,,
,,"[""circle"",""no_dis"",""vert"",""up"",[99999,99999],[0,150]]",circle,no_dis,vert,up,"[99999,99999]","[0,150]",up,1,,,,,,001,2025-03-10_16h54.38.962,SL_sali_41,2021.2.3,Win32,60.97560976,0.9542,,,82,0,82,0,1,,,,,,,,
,,"[""circle"",""red"",""hori"",""left"",[-106,-106],[-106,106]]",circle,red,hori,left,"[-106,-106]","[-106,106]",left,1,,,,,,001,2025-03-10_16h54.38.962,SL_sali_41,2021.2.3,Win32,60.97560976,1.2004,,,83,0,83,0,1,,,,,,,,
,,"[""circle"",""no_dis"",""hori"",""left"",[99999,99999],[-150,0]]",circle,no_dis,hori,left,"[99999,99999]","[-150,0]",left,1,,,,,,001,2025-03-10_16h54.38.962,SL_sali_41,2021.2.3,Win32,60.97560976,1.1917,,,84,0,84,0,1,,,,,,,,
,,"[""circle"",""red"",""vert"",""up"",[0,-150],[-150,0]]",circle,red,vert,up,"[0,-150]","[-150,0]",up,1,,,,,,001,2025-03-10_16h54.38.962,SL_sali_41,2021.2.3,Win32,60.97560976,1.4603,,,85,0,85,0,1,,,,,,,,
,,"[""circle"",""green"",""vert"",""up"",[106,-106],[106,106]]",circle,green,vert,up,"[106,-106]","[106,106]",up,1,,,,,,001,2025-03-10_16h54.38.962,SL_sali_41,2021.2.3,Win32,60.97560976,0.903,,,86,0,86,0,1,,,,,,,,
,,"[""circle"",""no_dis"",""vert"",""up"",[99999,99999],[-106,-106]]",circle,no_dis,vert,up,"[99999,99999]","[-106,-106]",up,1,,,,,,001,2025-03-10_16h54.38.962,SL_sali_41,2021.2.3,Win32,60.97560976,1.048,,,87,0,87,0,1,,,,,,,,
,,"[""circle"",""no_dis"",""hori"",""left"",[99999,99999],[106,-106]]",circle,no_dis,hori,left,"[99999,99999]","[106,-106]",left,1,,,,,,001,2025-03-10_16h54.38.962,SL_sali_41,2021.2.3,Win32,60.97560976,0.8581,,,88,0,88,0,1,,,,,,,,
,,"[""diamond"",""red"",""hori"",""left"",[106,-106],[0,-150]]",diamond,red,hori,left,"[106,-106]","[0,-150]",left,1,,,,,,001,2025-03-10_16h54.38.962,SL_sali_41,2021.2.3,Win32,60.97560976,1.784,,,89,0,89,0,1,,,,,,,,
,,"[""circle"",""no_dis"",""vert"",""up"",[99999,99999],[-150,0]]",circle,no_dis,vert,up,"[99999,99999]","[-150,0]",up,1,,,,,,001,2025-03-10_16h54.38.962,SL_sali_41,2021.2.3,Win32,60.97560976,2.493,,,90,0,90,0,1,,,,,,,,
,,"[""circle"",""green"",""hori"",""left"",[-150,0],[0,-150]]",circle,green,hori,left,"[-150,0]","[0,-150]",left,1,,,,,,001,2025-03-10_16h54.38.962,SL_sali_41,2021.2.3,Win32,60.97560976,1.2838,,,91,0,91,0,1,,,,,,,,
,,"[""diamond"",""green"",""vert"",""up"",[106,-106],[106,106]]",diamond,green,vert,up,"[106,-106]","[106,106]",up,1,,,,,,001,2025-03-10_16h54.38.962,SL_sali_41,2021.2.3,Win32,60.97560976,1.3038,,,92,0,92,0,1,,,,,,,,
,,"[""diamond"",""green"",""hori"",""left"",[106,106],[0,150]]",diamond,green,hori,left,"[106,106]","[0,150]",left,1,,,,,,001,2025-03-10_16h54.38.962,SL_sali_41,2021.2.3,Win32,60.97560976,2.1019,,,93,0,93,0,1,,,,,,,,
,,"[""diamond"",""red"",""hori"",""left"",[-106,-106],[150,0]]",diamond,red,hori,left,"[-106,-106]","[150,0]",left,1,,,,,,001,2025-03-10_16h54.38.962,SL_sali_41,2021.2.3,Win32,60.97560976,1.1145,,,94,0,94,0,1,,,,,,,,
,,"[""circle"",""red"",""hori"",""left"",[-150,0],[0,150]]",circle,red,hori,left,"[-150,0]","[0,150]",left,1,,,,,,001,2025-03-10_16h54.38.962,SL_sali_41,2021.2.3,Win32,60.97560976,1.455,,,95,0,95,0,1,,,,,,,,
,,"[""circle"",""green"",""hori"",""left"",[150,0],[106,-106]]",circle,green,hori,left,"[150,0]","[106,-106]",left,1,,,,,,001,2025-03-10_16h54.38.962,SL_sali_41,2021.2.3,Win32,60.97560976,1.3188,,,96,0,96,0,1,,,,,,,,
,,"[""diamond"",""no_dis"",""vert"",""up"",[99999,99999],[150,0]]",diamond,no_dis,vert,up,"[99999,99999]","[150,0]",up,1,,,,,,001,2025-03-10_16h54.38.962,SL_sali_41,2021.2.3,Win32,60.97560976,1.6069,,,97,0,97,0,1,,,,,,,,
,,"[""circle"",""red"",""hori"",""left"",[150,0],[-106,-106]]",circle,red,hori,left,"[150,0]","[-106,-106]",left,1,,,,,,001,2025-03-10_16h54.38.962,SL_sali_41,2021.2.3,Win32,60.97560976,2.8093,,,98,0,98,0,1,,,,,,,,
,,"[""circle"",""no_dis"",""hori"",""left"",[99999,99999],[106,-106]]",circle,no_dis,hori,left,"[99999,99999]","[106,-106]",,0,,,,,,001,2025-03-10_16h54.38.962,SL_sali_41,2021.2.3,Win32,60.97560976,,,,99,0,99,0,1,,,,,,,,
,,"[""diamond"",""green"",""hori"",""left"",[-150,0],[-106,106]]",diamond,green,hori,left,"[-150,0]","[-106,106]",left,1,,,,,,001,2025-03-10_16h54.38.962,SL_sali_41,2021.2.3,Win32,60.97560976,1.8177,,,100,0,100,0,1,,,,,,,,
,,"[""circle"",""red"",""hori"",""left"",[0,-150],[106,106]]",circle,red,hori,left,"[0,-150]","[106,106]",,0,,,,,,001,2025-03-10_16h54.38.962,SL_sali_41,2021.2.3,Win32,60.97560976,,,,101,0,101,0,1,,,,,,,,
,,"[""circle"",""red"",""hori"",""left"",[-106,-106],[106,-106]]",circle,red,hori,left,"[-106,-106]","[106,-106]",left,1,,,,,,001,2025-03-10_16h54.38.962,SL_sali_41,2021.2.3,Win32,60.97560976,2.1698,,,102,0,102,0,1,,,,,,,,
,,"[""circle"",""green"",""hori"",""left"",[-106,106],[150,0]]",circle,green,hori,left,"[-106,106]","[150,0]",left,1,,,,,,001,2025-03-10_16h54.38.962,SL_sali_41,2021.2.3,Win32,60.97560976,1.5046,,,103,0,103,0,1,,,,,,,,
,,"[""diamond"",""green"",""vert"",""up"",[150,0],[0,-150]]",diamond,green,vert,up,"[150,0]","[0,-150]",up,1,,,,,,001,2025-03-10_16h54.38.962,SL_sali_41,2021.2.3,Win32,60.97560976,2.7915,,,104,0,104,0,1,,,,,,,,
,,"[""circle"",""green"",""vert"",""up"",[0,-150],[150,0]]",circle,green,vert,up,"[0,-150]","[150,0]",up,1,,,,,,001,2025-03-10_16h54.38.962,SL_sali_41,2021.2.3,Win32,60.97560976,1.8919,,,105,0,105,0,1,,,,,,,,
,,"[""diamond"",""no_dis"",""hori"",""left"",[99999,99999],[106,106]]",diamond,no_dis,hori,left,"[99999,99999]","[106,106]",left,1,,,,,,001,2025-03-10_16h54.38.962,SL_sali_41,2021.2.3,Win32,60.97560976,1.2894,,,106,0,106,0,1,,,,,,,,
,,"[""circle"",""red"",""hori"",""left"",[150,0],[0,150]]",circle,red,hori,left,"[150,0]","[0,150]",left,1,,,,,,001,2025-03-10_16h54.38.962,SL_sali_41,2021.2.3,Win32,60.97560976,1.3417,,,107,0,107,0,1,,,,,,,,
,,"[""diamond"",""red"",""vert"",""up"",[-106,106],[0,150]]",diamond,red,vert,up,"[-106,106]","[0,150]",,0,,,,,,001,2025-03-10_16h54.38.962,SL_sali_41,2021.2.3,Win32,60.97560976,,,,108,0,108,0,1,,,,,,,,
,,"[""circle"",""green"",""vert"",""up"",[150,0],[-150,0]]",circle,green,vert,up,"[150,0]","[-150,0]",up,1,,,,,,001,2025-03-10_16h54.38.962,SL_sali_41,2021.2.3,Win32,60.97560976,2.267,,,109,0,109,0,1,,,,,,,,
,,"[""circle"",""green"",""hori"",""left"",[150,0],[106,-106]]",circle,green,hori,left,"[150,0]","[106,-106]",left,1,,,,,,001,2025-03-10_16h54.38.962,SL_sali_41,2021.2.3,Win32,60.97560976,1.932,,,110,0,110,0,1,,,,,,,,
,,"[""diamond"",""no_dis"",""hori"",""left"",[99999,99999],[-150,0]]",diamond,no_dis,hori,left,"[99999,99999]","[-150,0]",left,1,,,,,,001,2025-03-10_16h54.38.962,SL_sali_41,2021.2.3,Win32,60.97560976,1.2328,,,111,0,111,0,1,,,,,,,,
,,"[""circle"",""red"",""vert"",""up"",[-106,106],[0,-150]]",circle,red,vert,up,"[-106,106]","[0,-150]",up,1,,,,,,001,2025-03-10_16h54.38.962,SL_sali_41,2021.2.3,Win32,60.97560976,1.7706,,,112,0,112,0,1,,,,,,,,
,,"[""diamond"",""green"",""hori"",""left"",[-150,0],[-106,-106]]",diamond,green,hori,left,"[-150,0]","[-106,-106]",left,1,,,,,,001,2025-03-10_16h54.38.962,SL_sali_41,2021.2.3,Win32,60.97560976,2.205,,,113,0,113,0,1,,,,,,,,
,,"[""diamond"",""red"",""vert"",""up"",[-106,-106],[106,106]]",diamond,red,vert,up,"[-106,-106]","[106,106]",up,1,,,,,,001,2025-03-10_16h54.38.962,SL_sali_41,2021.2.3,Win32,60.97560976,1.8532,,,114,0,114,0,1,,,,,,,,
,,"[""diamond"",""red"",""hori"",""left"",[150,0],[0,-150]]",diamond,red,hori,left,"[150,0]","[0,-150]",left,1,,,,,,001,2025-03-10_16h54.38.962,SL_sali_41,2021.2.3,Win32,60.97560976,2.7603,,,115,0,115,0,1,,,,,,,,
,,"[""diamond"",""red"",""hori"",""left"",[-106,106],[150,0]]",diamond,red,hori,left,"[-106,106]","[150,0]",,0,,,,,,001,2025-03-10_16h54.38.962,SL_sali_41,2021.2.3,Win32,60.97560976,,,,116,0,116,0,1,,,,,,,,
,,"[""diamond"",""no_dis"",""hori"",""left"",[99999,99999],[0,150]]",diamond,no_dis,hori,left,"[99999,99999]","[0,150]",left,1,,,,,,001,2025-03-10_16h54.38.962,SL_sali_41,2021.2.3,Win32,60.97560976,1.8324,,,117,0,117,0,1,,,,,,,,
,,"[""circle"",""green"",""hori"",""left"",[-106,-106],[106,106]]",circle,green,hori,left,"[-106,-106]","[106,106]",left,1,,,,,,001,2025-03-10_16h54.38.962,SL_sali_41,2021.2.3,Win32,60.97560976,1.3426,,,118,0,118,0,1,,,,,,,,
,,"[""circle"",""red"",""hori"",""left"",[0,150],[-106,106]]",circle,red,hori,left,"[0,150]","[-106,106]",left,1,,,,,,001,2025-03-10_16h54.38.962,SL_sali_41,2021.2.3,Win32,60.97560976,1.7394,,,119,0,119,0,1,,,,,,,,
,,"[""diamond"",""red"",""vert"",""up"",[150,0],[-106,106]]",diamond,red,vert,up,"[150,0]","[-106,106]",up,1,,,,,,001,2025-03-10_16h54.38.962,SL_sali_41,2021.2.3,Win32,60.97560976,1.8595,,,120,0,120,0,1,,,,,,,,
,,"[""diamond"",""green"",""hori"",""left"",[150,0],[-106,-106]]",diamond,green,hori,left,"[150,0]","[-106,-106]",left,1,,,,,,001,2025-03-10_16h54.38.962,SL_sali_41,2021.2.3,Win32,60.97560976,1.3988,,,121,0,121,0,1,,,,,,,,
,,"[""diamond"",""green"",""hori"",""left"",[0,150],[150,0]]",diamond,green,hori,left,"[0,150]","[150,0]",left,1,,,,,,001,2025-03-10_16h54.38.962,SL_sali_41,2021.2.3,Win32,60.97560976,1.2712,,,122,0,122,0,1,,,,,,,,
,,"[""circle"",""no_dis"",""hori"",""left"",[99999,99999],[150,0]]",circle,no_dis,hori,left,"[99999,99999]","[150,0]",left,1,,,,,,001,2025-03-10_16h54.38.962,SL_sali_41,2021.2.3,Win32,60.97560976,1.684,,,123,0,123,0,1,,,,,,,,
,,"[""circle"",""no_dis"",""vert"",""up"",[99999,99999],[0,-150]]",circle,no_dis,vert,up,"[99999,99999]","[0,-150]",up,1,,,,,,001,2025-03-10_16h54.38.962,SL_sali_41,2021.2.3,Win32,60.97560976,2.2634,,,124,0,124,0,1,,,,,,,,
,,"[""diamond"",""red"",""hori"",""left"",[-106,106],[-106,-106]]",diamond,red,hori,left,"[-106,106]","[-106,-106]",left,1,,,,,,001,2025-03-10_16h54.38.962,SL_sali_41,2021.2.3,Win32,60.97560976,1.0169,,,125,0,125,0,1,,,,,,,,
,,"[""circle"",""green"",""hori"",""left"",[106,106],[0,150]]",circle,green,hori,left,"[106,106]","[0,150]",left,1,,,,,,001,2025-03-10_16h54.38.962,SL_sali_41,2021.2.3,Win32,60.97560976,1.0028,,,126,0,126,0,1,,,,,,,,
,,"[""circle"",""green"",""hori"",""left"",[150,0],[-150,0]]",circle,green,hori,left,"[150,0]","[-150,0]",left,1,,,,,,001,2025-03-10_16h54.38.962,SL_sali_41,2021.2.3,Win32,60.97560976,0.9371,,,127,0,127,0,1,,,,,,,,
,,,,,,,,,,,,,,,,001,2025-03-10_16h54.38.962,SL_sali_41,2021.2.3,Win32,60.97560976,,,,,,,,,2,space,71.2648,1,0,1,0,1
,,"[""diamond"",""red"",""vert"",""up"",[150,0],[0,-150]]",diamond,red,vert,up,"[150,0]","[0,-150]",up,1,,,,,,001,2025-03-10_16h54.38.962,SL_sali_41,2021.2.3,Win32,60.97560976,2.8194,,,0,0,0,0,1,,,,,,,,
,,"[""circle"",""red"",""hori"",""left"",[106,106],[0,150]]",circle,red,hori,left,"[106,106]","[0,150]",left,1,,,,,,001,2025-03-10_16h54.38.962,SL_sali_41,2021.2.3,Win32,60.97560976,2.7384,,,1,0,1,0,1,,,,,,,,
,,"[""circle"",""red"",""vert"",""up"",[0,150],[106,106]]",circle,red,vert,up,"[0,150]","[106,106]",up,1,,,,,,001,2025-03-10_16h54.38.962,SL_sali_41,2021.2.3,Win32,60.97560976,2.6906,,,2,0,2,0,1,,,,,,,,
,,"[""circle"",""red"",""vert"",""up"",[150,0],[0,150]]",circle,red,vert,up,"[150,0]","[0,150]",up,1,,,,,,001,2025-03-10_16h54.38.962,SL_sali_41,2021.2.3,Win32,60.97560976,1.3861,,,3,0,3,0,1,,,,,,,,
,,"[""circle"",""no_dis"",""hori"",""left"",[99999,99999],[106,106]]",circle,no_dis,hori,left,"[99999,99999]","[106,106]",left,1,,,,,,001,2025-03-10_16h54.38.962,SL_sali_41,2021.2.3,Win32,60.97560976,1.5026,,,4,0,4,0,1,,,,,,,,
,,"[""diamond"",""no_dis"",""hori"",""left"",[99999,99999],[-150,0]]",diamond,no_dis,hori,left,"[99999,99999]","[-150,0]",left,1,,,,,,001,2025-03-10_16h54.38.962,SL_sali_41,2021.2.3,Win32,60.97560976,1.5507,,,5,0,5,0,1,,,,,,,,
,,"[""diamond"",""no_dis"",""vert"",""up"",[99999,99999],[106,106]]",diamond,no_dis,vert,up,"[99999,99999]","[106,106]",up,1,,,,,,001,2025-03-10_16h54.38.962,SL_sali_41,2021.2.3,Win32,60.97560976,1.2723,,,6,0,6,0,1,,,,,,,,
,,"[""diamond"",""red"",""hori"",""left"",[106,-106],[0,-150]]",diamond,red,hori,left,"[106,-106]","[0,-150]",left,1,,,,,,001,2025-03-10_16h54.38.962,SL_sali_41,2021.2.3,Win32,60.97560976,2.2256,,,7,0,7,0,1,,,,,,,,
,,"[""circle"",""no_dis"",""vert"",""up"",[99999,99999],[0,150]]",circle,no_dis,vert,up,"[99999,99999]","[0,150]",up,1,,,,,,001,2025-03-10_16h54.38.962,SL_sali_41,2021.2.3,Win32,60.97560976,1.4512,,,8,0,8,0,1,,,,,,,,
,,"[""diamond"",""no_dis"",""hori"",""left"",[99999,99999],[-106,106]]",diamond,no_dis,hori,left,"[99999,99999]","[-106,106]",left,1,,,,,,001,2025-03-10_16h54.38.962,SL_sali_41,2021.2.3,Win32,60.97560976,1.0808,,,9,0,9,0,1,,,,,,,,
,,"[""circle"",""no_dis"",""vert"",""up"",[99999,99999],[-150,0]]",circle,no_dis,vert,up,"[99999,99999]","[-150,0]",,0,,,,,,001,2025-03-10_16h54.38.962,SL_sali_41,2021.2.3,Win32,60.97560976,,,,10,0,10,0,1,,,,,,,,
,,"[""circle"",""green"",""vert"",""up"",[150,0],[-106,-106]]",circle,green,vert,up,"[150,0]","[-106,-106]",up,1,,,,,,001,2025-03-10_16h54.38.962,SL_sali_41,2021.2.3,Win32,60.97560976,1.1196,,,11,0,11,0,1,,,,,,,,
,,"[""circle"",""red"",""vert"",""up"",[106,-106],[-106,106]]",circle,red,vert,up,"[106,-106]","[-106,106]",up,1,,,,,,001,2025-03-10_16h54.38.962,SL_sali_41,2021.2.3,Win32,60.97560976,0.867,,,12,0,12,0,1,,,,,,,,
,,"[""diamond"",""green"",""vert"",""up"",[0,150],[0,-150]]",diamond,green,vert,up,"[0,150]","[0,-150]",up,1,,,,,,001,2025-03-10_16h54.38.962,SL_sali_41,2021.2.3,Win32,60.97560976,1.0544,,,13,0,13,0,1,,,,,,,,
,,"[""circle"",""green"",""vert"",""up"",[150,0],[106,106]]",circle,green,vert,up,"[150,0]","[106,106]",up,1,,,,,,001,2025-03-10_16h54.38.962,SL_sali_41,2021.2.3,Win32,60.97560976,1.7322,,,14,0,14,0,1,,,,,,,,
,,"[""diamond"",""red"",""vert"",""up"",[150,0],[106,-106]]",diamond,red,vert,up,"[150,0]","[106,-106]",,0,,,,,,001,2025-03-10_16h54.38.962,SL_sali_41,2021.2.3,Win32,60.97560976,,,,15,0,15,0,1,,,,,,,,
,,"[""diamond"",""red"",""vert"",""up"",[-150,0],[106,-106]]",diamond,red,vert,up,"[-150,0]","[106,-106]",up,1,,,,,,001,2025-03-10_16h54.38.962,SL_sali_41,2021.2.3,Win32,60.97560976,1.5211,,,16,0,16,0,1,,,,,,,,
,,"[""diamond"",""red"",""hori"",""left"",[-106,106],[150,0]]",diamond,red,hori,left,"[-106,106]","[150,0]",left,1,,,,,,001,2025-03-10_16h54.38.962,SL_sali_41,2021.2.3,Win32,60.97560976,2.0004,,,17,0,17,0,1,,,,,,,,
,,"[""diamond"",""no_dis"",""hori"",""left"",[99999,99999],[0,150]]",diamond,no_dis,hori,left,"[99999,99999]","[0,150]",left,1,,,,,,001,2025-03-10_16h54.38.962,SL_sali_41,2021.2.3,Win32,60.97560976,1.9346,,,18,0,18,0,1,,,,,,,,
,,"[""circle"",""green"",""hori"",""left"",[-106,-106],[106,106]]",circle,green,hori,left,"[-106,-106]","[106,106]",left,1,,,,,,001,2025-03-10_16h54.38.962,SL_sali_41,2021.2.3,Win32,60.97560976,1.277,,,19,0,19,0,1,,,,,,,,
,,"[""circle"",""red"",""vert"",""up"",[0,-150],[-150,0]]",circle,red,vert,up,"[0,-150]","[-150,0]",up,1,,,,,,001,2025-03-10_16h54.38.962,SL_sali_41,2021.2.3,Win32,60.97560976,1.8713,,,20,0,20,0,1,,,,,,,,
,,"[""diamond"",""green"",""vert"",""up"",[0,-150],[150,0]]",diamond,green,vert,up,"[0,-150]","[150,0]",up,1,,,,,,001,2025-03-10_16h54.38.962,SL_sali_41,2021.2.3,Win32,60.97560976,1.6352,,,21,0,21,0,1,,,,,,,,
,,"[""diamond"",""red"",""hori"",""left"",[106,-106],[0,150]]",diamond,red,hori,left,"[106,-106]","[0,150]",left,1,,,,,,001,2025-03-10_16h54.38.962,SL_sali_41,2021.2.3,Win32,60.97560976,1.8036,,,22,0,22,0,1,,,,,,,,
,,"[""circle"",""green"",""hori"",""left"",[150,0],[-150,0]]",circle,green,hori,left,"[150,0]","[-150,0]",left,1,,,,,,001,2025-03-10_16h54.38.962,SL_sali_41,2021.2.3,Win32,60.97560976,1.0571,,,23,0,23,0,1,,,,,,,,
,,"[""circle"",""green"",""vert"",""up"",[106,106],[0,150]]",circle,green,vert,up,"[106,106]","[0,150]",up,1,,,,,,001,2025-03-10_16h54.38.962,SL_sali_41,2021.2.3,Win32,60.97560976,2.1704,,,24,0,24,0,1,,,,,,,,
,,"[""circle"",""green"",""hori"",""left"",[-106,106],[150,0]]",circle,green,hori,left,"[-106,106]","[150,0]",left,1,,,,,,001,2025-03-10_16h54.38.962,SL_sali_41,2021.2.3,Win32,60.97560976,2.3768,,,25,0,25,0,1,,,,,,,,
,,"[""circle"",""red"",""hori"",""left"",[150,0],[106,-106]]",circle,red,hori,left,"[150,0]","[106,-106]",left,1,,,,,,001,2025-03-10_16h54.38.962,SL_sali_41,2021.2.3,Win32,60.97560976,2.7566,,,26,0,26,0,1,,,,,,,,
,,"[""circle"",""no_dis"",""vert"",""up"",[99999,99999],[-106,-106]]",circle,no_dis,vert,up,"[99999,99999]","[-106,-106]",up,1,,,,,,001,2025-03-10_16h54.38.962,SL_sali_41,2021.2.3,Win32,60.97560976,1.4386,,,27,0,27,0,1,,,,,,,,
,,"[""diamond"",""red"",""hori"",""left"",[-106,-106],[150,0]]",diamond,red,hori,left,"[-106,-106]","[150,0]",left,1,,,,,,001,2025-03-10_16h54.38.962,SL_sali_41,2021.2.3,Win32,60.97560976,1.6162,,,28,0,28,0,1,,,,,,,,
,,"[""circle"",""green"",""hori"",""left"",[106,-106],[106,106]]",circle,green,hori,left,"[106,-106]","[106,106]",left,1,,,,,,001,2025-03-10_16h54.38.962,SL_sali_41,2021.2.3,Win32,60.97560976,1.8474,,,29,0,29,0,1,,,,,,,,
,,"[""diamond"",""red"",""hori"",""left"",[-106,106],[-106,-106]]",diamond,red,hori,left,"[-106,106]","[-106,-106]",left,1,,,,,,001,2025-03-10_16h54.38.962,SL_sali_41,2021.2.3,Win32,60.97560976,1.8853,,,30,0,30,0,1,,,,,,,,
,,"[""diamond"",""no_dis"",""vert"",""up"",[99999,99999],[-106,106]]",diamond,no_dis,vert,up,"[99999,99999]","[-106,106]",left,0,,,,,,001,2025-03-10_16h54.38.962,SL_sali_41,2021.2.3,Win32,60.97560976,1.5252,,,31,0,31,0,1,,,,,,,,
,,"[""diamond"",""green"",""vert"",""up"",[-106,106],[-150,0]]",diamond,green,vert,up,"[-106,106]","[-150,0]",up,1,,,,,,001,2025-03-10_16h54.38.962,SL_sali_41,2021.2.3,Win32,60.97560976,1.3864,,,32,0,32,0,1,,,,,,,,
,,"[""circle"",""no_dis"",""hori"",""left"",[99999,99999],[150,0]]",circle,no_dis,hori,left,"[99999,99999]","[150,0]",left,1,,,,,,001,2025-03-10_16h54.38.962,SL_sali_41,2021.2.3,Win32,60.97560976,0.9376,,,33,0,33,0,1,,,,,,,,
,,"[""circle"",""green"",""vert"",""up"",[106,-106],[106,106]]",circle,green,vert,up,"[106,-106]","[106,106]",up,1,,,,,,001,2025-03-10_16h54.38.962,SL_sali_41,2021.2.3,Win32,60.97560976,1.7355,,,34,0,34,0,1,,,,,,,,
,,"[""circle"",""no_dis"",""vert"",""up"",[99999,99999],[-150,0]]",circle,no_dis,vert,up,"[99999,99999]","[-150,0]",up,1,,,,,,001,2025-03-10_16h54.38.962,SL_sali_41,2021.2.3,Win32,60.97560976,0.9913,,,35,0,35,0,1,,,,,,,,
,,"[""diamond"",""green"",""vert"",""up"",[150,0],[-150,0]]",diamond,green,vert,up,"[150,0]","[-150,0]",up,1,,,,,,001,2025-03-10_16h54.38.962,SL_sali_41,2021.2.3,Win32,60.97560976,1.2199,,,36,0,36,0,1,,,,,,,,
,,"[""diamond"",""red"",""hori"",""left"",[150,0],[0,-150]]",diamond,red,hori,left,"[150,0]","[0,-150]",left,1,,,,,,001,2025-03-10_16h54.38.962,SL_sali_41,2021.2.3,Win32,60.97560976,1.3735,,,37,0,37,0,1,,,,,,,,
,,"[""diamond"",""no_dis"",""vert"",""up"",[99999,99999],[0,-150]]",diamond,no_dis,vert,up,"[99999,99999]","[0,-150]",up,1,,,,,,001,2025-03-10_16h54.38.962,SL_sali_41,2021.2.3,Win32,60.97560976,1.9989,,,38,0,38,0,1,,,,,,,,
,,"[""circle"",""red"",""hori"",""left"",[-106,-106],[-106,106]]",circle,red,hori,left,"[-106,-106]","[-106,106]",left,1,,,,,,001,2025-03-10_16h54.38.962,SL_sali_41,2021.2.3,Win32,60.97560976,1.9123,,,39,0,39,0,1,,,,,,,,
,,"[""diamond"",""no_dis"",""hori"",""left"",[99999,99999],[-106,-106]]",diamond,no_dis,hori,left,"[99999,99999]","[-106,-106]",left,1,,,,,,001,2025-03-10_16h54.38.962,SL_sali_41,2021.2.3,Win32,60.97560976,2.2846,,,40,0,40,0,1,,,,,,,,
,,"[""diamond"",""red"",""hori"",""left"",[150,0],[-106,106]]",diamond,red,hori,left,"[150,0]","[-106,106]",left,1,,,,,,001,2025-03-10_16h54.38.962,SL_sali_41,2021.2.3,Win32,60.97560976,1.0882,,,41,0,41,0,1,,,,,,,,
,,"[""circle"",""green"",""vert"",""up"",[106,-106],[-150,0]]",circle,green,vert,up,"[106,-106]","[-150,0]",left,0,,,,,,001,2025-03-10_16h54.38.962,SL_sali_41,2021.2.3,Win32,60.97560976,0.9155,,,42,0,42,0,1,,,,,,,,
,,"[""circle"",""green"",""hori"",""left"",[-106,-106],[0,-150]]",circle,green,hori,left,"[-106,-106]","[0,-150]",left,1,,,,,,001,2025-03-10_16h54.38.962,SL_sali_41,2021.2.3,Win32,60.97560976,1.5179,,,43,0,43,0,1,,,,,,,,
,,"[""diamond"",""no_dis"",""hori"",""left"",[99999,99999],[106,106]]",diamond,no_dis,hori,left,"[99999,99999]","[106,106]",left,1,,,,,,001,2025-03-10_16h54.38.962,SL_sali_41,2021.2.3,Win32,60.97560976,1.447,,,44,0,44,0,1,,,,,,,,
,,"[""diamond"",""green"",""hori"",""left"",[0,150],[150,0]]",diamond,green,hori,left,"[0,150]","[150,0]",left,1,,,,,,001,2025-03-10_16h54.38.962,SL_sali_41,2021.2.3,Win32,60.97560976,0.9138,,,45,0,45,0,1,,,,,,,,
,,"[""diamond"",""green"",""hori"",""left"",[0,-150],[106,106]]",diamond,green,hori,left,"[0,-150]","[106,106]",left,1,,,,,,001,2025-03-10_16h54.38.962,SL_sali_41,2021.2.3,Win32,60.97560976,1.4075,,,46,0,46,0,1,,,,,,,,
,,"[""circle"",""green"",""hori"",""left"",[150,0],[106,-106]]",circle,green,hori,left,"[150,0]","[106,-106]",left,1,,,,,,001,2025-03-10_16h54.38.962,SL_sali_41,2021.2.3,Win32,60.97560976,1.3555,,,47,0,47,0,1,,,,,,,,
,,"[""diamond"",""red"",""hori"",""left"",[150,0],[0,-150]]",diamond,red,hori,left,"[150,0]","[0,-150]",left,1,,,,,,001,2025-03-10_16h54.38.962,SL_sali_41,2021.2.3,Win32,60.97560976,1.6829,,,48,0,48,0,1,,,,,,,,
,,"[""diamond"",""red"",""hori"",""left"",[150,0],[0,-150]]",diamond,red,hori,left,"[150,0]","[0,-150]",left,1,,,,,,001,2025-03-10_16h54.38.962,SL_sali_41,2021.2.3,Win32,60.97560976,2.2018,,,49,0,49,0,1,,,,,,,,
,,"[""circle"",""red"",""hori"",""left"",[0,-150],[106,106]]",circle,red,hori,left,"[0,-150]","[106,106]",left,1,,,,,,001,2025-03-10_16h54.38.962,SL_sali_41,2021.2.3,Win32,60.97560976,1.4523,,,50,0,50,0,1,,,,,,,,
,,"[""circle"",""no_dis"",""hori"",""left"",[99999,99999],[0,-150]]",circle,no_dis,hori,left,"[99999,99999]","[0,-150]",left,1,,,,,,001,2025-03-10_16h54.38.962,SL_sali_41,2021.2.3,Win32,60.97560976,1.3185,,,51,0,51,0,1,,,,,,,,
,,"[""circle"",""no_dis"",""hori"",""left"",[99999,99999],[106,-106]]",circle,no_dis,hori,left,"[99999,99999]","[106,-106]",left,1,,,,,,001,2025-03-10_16h54.38.962,SL_sali_41,2021.2.3,Win32,60.97560976,1.1184,,,52,0,52,0,1,,,,,,,,
,,"[""diamond"",""red"",""vert"",""up"",[150,0],[-106,106]]",diamond,red,vert,up,"[150,0]","[-106,106]",up,1,,,,,,001,2025-03-10_16h54.38.962,SL_sali_41,2021.2.3,Win32,60.97560976,1.5668,,,53,0,53,0,1,,,,,,,,
,,"[""diamond"",""no_dis"",""hori"",""left"",[99999,99999],[-150,0]]",diamond,no_dis,hori,left,"[99999,99999]","[-150,0]",left,1,,,,,,001,2025-03-10_16h54.38.962,SL_sali_41,2021.2.3,Win32,60.97560976,1.0527,,,54,0,54,0,1,,,,,,,,
,,"[""circle"",""no_dis"",""hori"",""left"",[99999,99999],[106,-106]]",circle,no_dis,hori,left,"[99999,99999]","[106,-106]",left,1,,,,,,001,2025-03-10_16h54.38.962,SL_sali_41,2021.2.3,Win32,60.97560976,1.0445,,,55,0,55,0,1,,,,,,,,
,,"[""circle"",""green"",""vert"",""up"",[150,0],[-106,106]]",circle,green,vert,up,"[150,0]","[-106,106]",up,1,,,,,,001,2025-03-10_16h54.38.962,SL_sali_41,2021.2.3,Win32,60.97560976,2.1882,,,56,0,56,0,1,,,,,,,,
,,"[""circle"",""no_dis"",""vert"",""up"",[99999,99999],[150,0]]",circle,no_dis,vert,up,"[99999,99999]","[150,0]",up,1,,,,,,001,2025-03-10_16h54.38.962,SL_sali_41,2021.2.3,Win32,60.97560976,1.0414,,,57,0,57,0,1,,,,,,,,
,,"[""circle"",""no_dis"",""hori"",""left"",[99999,99999],[-150,0]]",circle,no_dis,hori,left,"[99999,99999]","[-150,0]",left,1,,,,,,001,2025-03-10_16h54.38.962,SL_sali_41,2021.2.3,Win32,60.97560976,1.1944,,,58,0,58,0,1,,,,,,,,
,,"[""circle"",""green"",""hori"",""left"",[106,106],[0,150]]",circle,green,hori,left,"[106,106]","[0,150]",left,1,,,,,,001,2025-03-10_16h54.38.962,SL_sali_41,2021.2.3,Win32,60.97560976,1.955,,,59,0,59,0,1,,,,,,,,
,,"[""diamond"",""red"",""vert"",""up"",[150,0],[106,-106]]",diamond,red,vert,up,"[150,0]","[106,-106]",up,1,,,,,,001,2025-03-10_16h54.38.962,SL_sali_41,2021.2.3,Win32,60.97560976,1.6831,,,60,0,60,0,1,,,,,,,,
,,"[""circle"",""green"",""vert"",""up"",[-150,0],[150,0]]",circle,green,vert,up,"[-150,0]","[150,0]",up,1,,,,,,001,2025-03-10_16h54.38.962,SL_sali_41,2021.2.3,Win32,60.97560976,1.3235,,,61,0,61,0,1,,,,,,,,
,,"[""circle"",""green"",""vert"",""up"",[0,-150],[150,0]]",circle,green,vert,up,"[0,-150]","[150,0]",up,1,,,,,,001,2025-03-10_16h54.38.962,SL_sali_41,2021.2.3,Win32,60.97560976,1.1683,,,62,0,62,0,1,,,,,,,,
,,"[""diamond"",""red"",""vert"",""up"",[-106,-106],[106,106]]",diamond,red,vert,up,"[-106,-106]","[106,106]",up,1,,,,,,001,2025-03-10_16h54.38.962,SL_sali_41,2021.2.3,Win32,60.97560976,1.4011,,,63,0,63,0,1,,,,,,,,
,,"[""diamond"",""no_dis"",""hori"",""left"",[99999,99999],[-106,106]]",diamond,no_dis,hori,left,"[99999,99999]","[-106,106]",left,1,,,,,,001,2025-03-10_16h54.38.962,SL_sali_41,2021.2.3,Win32,60.97560976,1.1829,,,64,0,64,0,1,,,,,,,,
,,"[""diamond"",""red"",""vert"",""up"",[150,0],[0,150]]",diamond,red,vert,up,"[150,0]","[0,150]",up,1,,,,,,001,2025-03-10_16h54.38.962,SL_sali_41,2021.2.3,Win32,60.97560976,1.1349,,,65,0,65,0,1,,,,,,,,
,,"[""diamond"",""green"",""vert"",""up"",[-150,0],[106,-106]]",diamond,green,vert,up,"[-150,0]","[106,-106]",up,1,,,,,,001,2025-03-10_16h54.38.962,SL_sali_41,2021.2.3,Win32,60.97560976,1.4658,,,66,0,66,0,1,,,,,,,,
,,"[""diamond"",""green"",""vert"",""up"",[-106,-106],[106,106]]",diamond,green,vert,up,"[-106,-106]","[106,106]",up,1,,,,,,001,2025-03-10_16h54.38.962,SL_sali_41,2021.2.3,Win32,60.97560976,1.4227,,,67,0,67,0,1,,,,,,,,
,,"[""circle"",""no_dis"",""vert"",""up"",[99999,99999],[106,-106]]",circle,no_dis,vert,up,"[99999,99999]","[106,-106]",left,0,,,,,,001,2025-03-10_16h54.38.962,SL_sali_41,2021.2.3,Win32,60.97560976,1.4655,,,68,0,68,0,1,,,,,,,,
,,"[""circle"",""red"",""vert"",""up"",[-106,106],[0,-150]]",circle,red,vert,up,"[-106,106]","[0,-150]",up,1,,,,,,001,2025-03-10_16h54.38.962,SL_sali_41,2021.2.3,Win32,60.97560976,1.5543,,,69,0,69,0,1,,,,,,,,
,,"[""diamond"",""red"",""vert"",""up"",[150,0],[0,150]]",diamond,red,vert,up,"[150,0]","[0,150]",up,1,,,,,,001,2025-03-10_16h54.38.962,SL_sali_41,2021.2.3,Win32,60.97560976,1.0285,,,70,0,70,0,1,,,,,,,,
,,"[""diamond"",""no_dis"",""vert"",""up"",[99999,99999],[106,-106]]",diamond,no_dis,vert,up,"[99999,99999]","[106,-106]",up,1,,,,,,001,2025-03-10_16h54.38.962,SL_sali_41,2021.2.3,Win32,60.97560976,0.9482,,,71,0,71,0,1,,,,,,,,
,,"[""circle"",""no_dis"",""hori"",""left"",[99999,99999],[106,-106]]",circle,no_dis,hori,left,"[99999,99999]","[106,-106]",left,1,,,,,,001,2025-03-10_16h54.38.962,SL_sali_41,2021.2.3,Win32,60.97560976,1.3073,,,72,0,72,0,1,,,,,,,,
,,"[""diamond"",""green"",""vert"",""up"",[106,106],[106,-106]]",diamond,green,vert,up,"[106,106]","[106,-106]",up,1,,,,,,001,2025-03-10_16h54.38.962,SL_sali_41,2021.2.3,Win32,60.97560976,2.0534,,,73,0,73,0,1,,,,,,,,
,,"[""diamond"",""green"",""vert"",""up"",[150,0],[106,-106]]",diamond,green,vert,up,"[150,0]","[106,-106]",up,1,,,,,,001,2025-03-10_16h54.38.962,SL_sali_41,2021.2.3,Win32,60.97560976,0.975,,,74,0,74,0,1,,,,,,,,
,,"[""circle"",""no_dis"",""hori"",""left"",[99999,99999],[0,150]]",circle,no_dis,hori,left,"[99999,99999]","[0,150]",left,1,,,,,,001,2025-03-10_16h54.38.962,SL_sali_41,2021.2.3,Win32,60.97560976,1.9369,,,75,0,75,0,1,,,,,,,,
,,"[""diamond"",""green"",""vert"",""up"",[150,0],[0,-150]]",diamond,green,vert,up,"[150,0]","[0,-150]",up,1,,,,,,001,2025-03-10_16h54.38.962,SL_sali_41,2021.2.3,Win32,60.97560976,2.322,,,76,0,76,0,1,,,,,,,,
,,"[""diamond"",""green"",""hori"",""left"",[150,0],[-150,0]]",diamond,green,hori,left,"[150,0]","[-150,0]",left,1,,,,,,001,2025-03-10_16h54.38.962,SL_sali_41,2021.2.3,Win32,60.97560976,1.4226,,,77,0,77,0,1,,,,,,,,
,,"[""circle"",""green"",""vert"",""up"",[150,0],[-150,0]]",circle,green,vert,up,"[150,0]","[-150,0]",up,1,,,,,,001,2025-03-10_16h54.38.962,SL_sali_41,2021.2.3,Win32,60.97560976,2.4897,,,78,0,78,0,1,,,,,,,,
,,"[""circle"",""green"",""hori"",""left"",[-150,0],[0,-150]]",circle,green,hori,left,"[-150,0]","[0,-150]",left,1,,,,,,001,2025-03-10_16h54.38.962,SL_sali_41,2021.2.3,Win32,60.97560976,1.7744,,,79,0,79,0,1,,,,,,,,
,,"[""circle"",""red"",""hori"",""left"",[150,0],[0,150]]",circle,red,hori,left,"[150,0]","[0,150]",left,1,,,,,,001,2025-03-10_16h54.38.962,SL_sali_41,2021.2.3,Win32,60.97560976,1.6189,,,80,0,80,0,1,,,,,,,,
,,"[""circle"",""no_dis"",""vert"",""up"",[99999,99999],[0,-150]]",circle,no_dis,vert,up,"[99999,99999]","[0,-150]",up,1,,,,,,001,2025-03-10_16h54.38.962,SL_sali_41,2021.2.3,Win32,60.97560976,1.2954,,,81,0,81,0,1,,,,,,,,
,,"[""circle"",""no_dis"",""vert"",""up"",[99999,99999],[106,106]]",circle,no_dis,vert,up,"[99999,99999]","[106,106]",up,1,,,,,,001,2025-03-10_16h54.38.962,SL_sali_41,2021.2.3,Win32,60.97560976,0.7358,,,82,0,82,0,1,,,,,,,,
,,"[""diamond"",""no_dis"",""vert"",""up"",[99999,99999],[0,-150]]",diamond,no_dis,vert,up,"[99999,99999]","[0,-150]",up,1,,,,,,001,2025-03-10_16h54.38.962,SL_sali_41,2021.2.3,Win32,60.97560976,1.18,,,83,0,83,0,1,,,,,,,,
,,"[""diamond"",""green"",""hori"",""left"",[-150,0],[-106,-106]]",diamond,green,hori,left,"[-150,0]","[-106,-106]",left,1,,,,,,001,2025-03-10_16h54.38.962,SL_sali_41,2021.2.3,Win32,60.97560976,1.6909,,,84,0,84,0,1,,,,,,,,
,,"[""diamond"",""green"",""hori"",""left"",[-106,106],[106,106]]",diamond,green,hori,left,"[-106,106]","[106,106]",,0,,,,,,001,2025-03-10_16h54.38.962,SL_sali_41,2021.2.3,Win32,60.97560976,,,,85,0,85,0,1,,,,,,,,
,,"[""diamond"",""no_dis"",""hori"",""left"",[99999,99999],[150,0]]",diamond,no_dis,hori,left,"[99999,99999]","[150,0]",left,1,,,,,,001,2025-03-10_16h54.38.962,SL_sali_41,2021.2.3,Win32,60.97560976,1.2764,,,86,0,86,0,1,,,,,,,,
,,"[""circle"",""green"",""hori"",""left"",[150,0],[106,-106]]",circle,green,hori,left,"[150,0]","[106,-106]",left,1,,,,,,001,2025-03-10_16h54.38.962,SL_sali_41,2021.2.3,Win32,60.97560976,1.2901,,,87,0,87,0,1,,,,,,,,
,,"[""circle"",""red"",""vert"",""up"",[-106,106],[-106,-106]]",circle,red,vert,up,"[-106,106]","[-106,-106]",up,1,,,,,,001,2025-03-10_16h54.38.962,SL_sali_41,2021.2.3,Win32,60.97560976,1.1024,,,88,0,88,0,1,,,,,,,,
,,"[""circle"",""green"",""vert"",""up"",[-150,0],[150,0]]",circle,green,vert,up,"[-150,0]","[150,0]",up,1,,,,,,001,2025-03-10_16h54.38.962,SL_sali_41,2021.2.3,Win32,60.97560976,0.8349,,,89,0,89,0,1,,,,,,,,
,,"[""circle"",""red"",""hori"",""left"",[0,-150],[150,0]]",circle,red,hori,left,"[0,-150]","[150,0]",left,1,,,,,,001,2025-03-10_16h54.38.962,SL_sali_41,2021.2.3,Win32,60.97560976,1.7919,,,90,0,90,0,1,,,,,,,,
,,"[""diamond"",""green"",""vert"",""up"",[0,150],[106,106]]",diamond,green,vert,up,"[0,150]","[106,106]",up,1,,,,,,001,2025-03-10_16h54.38.962,SL_sali_41,2021.2.3,Win32,60.97560976,1.8202,,,91,0,91,0,1,,,,,,,,
,,"[""circle"",""no_dis"",""hori"",""left"",[99999,99999],[-106,106]]",circle,no_dis,hori,left,"[99999,99999]","[-106,106]",left,1,,,,,,001,2025-03-10_16h54.38.962,SL_sali_41,2021.2.3,Win32,60.97560976,0.7511,,,92,0,92,0,1,,,,,,,,
,,"[""circle"",""red"",""hori"",""left"",[150,0],[-106,-106]]",circle,red,hori,left,"[150,0]","[-106,-106]",left,1,,,,,,001,2025-03-10_16h54.38.962,SL_sali_41,2021.2.3,Win32,60.97560976,1.6858,,,93,0,93,0,1,,,,,,,,
,,"[""diamond"",""green"",""vert"",""up"",[106,-106],[106,106]]",diamond,green,vert,up,"[106,-106]","[106,106]",up,1,,,,,,001,2025-03-10_16h54.38.962,SL_sali_41,2021.2.3,Win32,60.97560976,1.68,,,94,0,94,0,1,,,,,,,,
,,"[""circle"",""red"",""vert"",""up"",[0,150],[106,106]]",circle,red,vert,up,"[0,150]","[106,106]",up,1,,,,,,001,2025-03-10_16h54.38.962,SL_sali_41,2021.2.3,Win32,60.97560976,1.7716,,,95,0,95,0,1,,,,,,,,
,,"[""diamond"",""no_dis"",""hori"",""left"",[99999,99999],[-106,-106]]",diamond,no_dis,hori,left,"[99999,99999]","[-106,-106]",left,1,,,,,,001,2025-03-10_16h54.38.962,SL_sali_41,2021.2.3,Win32,60.97560976,1.1719,,,96,0,96,0,1,,,,,,,,
,,"[""circle"",""red"",""vert"",""up"",[0,-150],[0,150]]",circle,red,vert,up,"[0,-150]","[0,150]",up,1,,,,,,001,2025-03-10_16h54.38.962,SL_sali_41,2021.2.3,Win32,60.97560976,1.8526,,,97,0,97,0,1,,,,,,,,
,,"[""circle"",""red"",""hori"",""left"",[0,150],[-106,106]]",circle,red,hori,left,"[0,150]","[-106,106]",up,0,,,,,,001,2025-03-10_16h54.38.962,SL_sali_41,2021.2.3,Win32,60.97560976,1.5009,,,98,0,98,0,1,,,,,,,,
,,"[""diamond"",""no_dis"",""vert"",""up"",[99999,99999],[-106,-106]]",diamond,no_dis,vert,up,"[99999,99999]","[-106,-106]",,0,,,,,,001,2025-03-10_16h54.38.962,SL_sali_41,2021.2.3,Win32,60.97560976,,,,99,0,99,0,1,,,,,,,,
,,"[""diamond"",""red"",""vert"",""up"",[-106,106],[0,150]]",diamond,red,vert,up,"[-106,106]","[0,150]",up,1,,,,,,001,2025-03-10_16h54.38.962,SL_sali_41,2021.2.3,Win32,60.97560976,1.7048,,,100,0,100,0,1,,,,,,,,
,,"[""circle"",""no_dis"",""hori"",""left"",[99999,99999],[-106,-106]]",circle,no_dis,hori,left,"[99999,99999]","[-106,-106]",left,1,,,,,,001,2025-03-10_16h54.38.962,SL_sali_41,2021.2.3,Win32,60.97560976,2.1891,,,101,0,101,0,1,,,,,,,,
,,"[""circle"",""no_dis"",""vert"",""up"",[99999,99999],[150,0]]",circle,no_dis,vert,up,"[99999,99999]","[150,0]",up,1,,,,,,001,2025-03-10_16h54.38.962,SL_sali_41,2021.2.3,Win32,60.97560976,2.4726,,,102,0,102,0,1,,,,,,,,
,,"[""diamond"",""red"",""vert"",""up"",[150,0],[106,-106]]",diamond,red,vert,up,"[150,0]","[106,-106]",up,1,,,,,,001,2025-03-10_16h54.38.962,SL_sali_41,2021.2.3,Win32,60.97560976,2.3694,,,103,0,103,0,1,,,,,,,,
,,"[""diamond"",""no_dis"",""hori"",""left"",[99999,99999],[0,150]]",diamond,no_dis,hori,left,"[99999,99999]","[0,150]",left,1,,,,,,001,2025-03-10_16h54.38.962,SL_sali_41,2021.2.3,Win32,60.97560976,0.8509,,,104,0,104,0,1,,,,,,,,
,,"[""circle"",""red"",""vert"",""up"",[106,106],[0,-150]]",circle,red,vert,up,"[106,106]","[0,-150]",up,1,,,,,,001,2025-03-10_16h54.38.962,SL_sali_41,2021.2.3,Win32,60.97560976,2.0729,,,105,0,105,0,1,,,,,,,,
,,"[""diamond"",""no_dis"",""vert"",""up"",[99999,99999],[106,106]]",diamond,no_dis,vert,up,"[99999,99999]","[106,106]",up,1,,,,,,001,2025-03-10_16h54.38.962,SL_sali_41,2021.2.3,Win32,60.97560976,1.8848,,,106,0,106,0,1,,,,,,,,
,,"[""circle"",""green"",""vert"",""up"",[106,-106],[-150,0]]",circle,green,vert,up,"[106,-106]","[-150,0]",left,0,,,,,,001,2025-03-10_16h54.38.962,SL_sali_41,2021.2.3,Win32,60.97560976,2.4889,,,107,0,107,0,1,,,,,,,,
,,"[""circle"",""green"",""hori"",""left"",[150,0],[106,-106]]",circle,green,hori,left,"[150,0]","[106,-106]",left,1,,,,,,001,2025-03-10_16h54.38.962,SL_sali_41,2021.2.3,Win32,60.97560976,1.663,,,108,0,108,0,1,,,,,,,,
,,"[""diamond"",""green"",""hori"",""left"",[150,0],[-106,-106]]",diamond,green,hori,left,"[150,0]","[-106,-106]",left,1,,,,,,001,2025-03-10_16h54.38.962,SL_sali_41,2021.2.3,Win32,60.97560976,2.7565,,,109,0,109,0,1,,,,,,,,
,,"[""circle"",""red"",""vert"",""up"",[106,106],[0,150]]",circle,red,vert,up,"[106,106]","[0,150]",up,1,,,,,,001,2025-03-10_16h54.38.962,SL_sali_41,2021.2.3,Win32,60.97560976,1.4409,,,110,0,110,0,1,,,,,,,,
,,"[""circle"",""no_dis"",""vert"",""up"",[99999,99999],[0,-150]]",circle,no_dis,vert,up,"[99999,99999]","[0,-150]",up,1,,,,,,001,2025-03-10_16h54.38.962,SL_sali_41,2021.2.3,Win32,60.97560976,1.4224,,,111,0,111,0,1,,,,,,,,
,,"[""circle"",""red"",""vert"",""up"",[106,106],[0,-150]]",circle,red,vert,up,"[106,106]","[0,-150]",up,1,,,,,,001,2025-03-10_16h54.38.962,SL_sali_41,2021.2.3,Win32,60.97560976,1.6266,,,112,0,112,0,1,,,,,,,,
,,"[""diamond"",""no_dis"",""vert"",""up"",[99999,99999],[-106,106]]",diamond,no_dis,vert,up,"[99999,99999]","[-106,106]",up,1,,,,,,001,2025-03-10_16h54.38.962,SL_sali_41,2021.2.3,Win32,60.97560976,1.675,,,113,0,113,0,1,,,,,,,,
,,"[""circle"",""red"",""hori"",""left"",[-150,0],[0,150]]",circle,red,hori,left,"[-150,0]","[0,150]",left,1,,,,,,001,2025-03-10_16h54.38.962,SL_sali_41,2021.2.3,Win32,60.97560976,1.387,,,114,0,114,0,1,,,,,,,,
,,"[""diamond"",""no_dis"",""vert"",""up"",[99999,99999],[150,0]]",diamond,no_dis,vert,up,"[99999,99999]","[150,0]",up,1,,,,,,001,2025-03-10_16h54.38.962,SL_sali_41,2021.2.3,Win32,60.97560976,1.6325,,,115,0,115,0,1,,,,,,,,
,,"[""diamond"",""red"",""hori"",""left"",[0,150],[0,-150]]",diamond,red,hori,left,"[0,150]","[0,-150]",left,1,,,,,,001,2025-03-10_16h54.38.962,SL_sali_41,2021.2.3,Win32,60.97560976,1.4986,,,116,0,116,0,1,,,,,,,,
,,"[""circle"",""red"",""hori"",""left"",[0,150],[-106,106]]",circle,red,hori,left,"[0,150]","[-106,106]",up,0,,,,,,001,2025-03-10_16h54.38.962,SL_sali_41,2021.2.3,Win32,60.97560976,2.4544,,,117,0,117,0,1,,,,,,,,
,,"[""circle"",""green"",""hori"",""left"",[150,0],[-150,0]]",circle,green,hori,left,"[150,0]","[-150,0]",left,1,,,,,,001,2025-03-10_16h54.38.962,SL_sali_41,2021.2.3,Win32,60.97560976,1.0017,,,118,0,118,0,1,,,,,,,,
,,"[""diamond"",""green"",""hori"",""left"",[150,0],[106,106]]",diamond,green,hori,left,"[150,0]","[106,106]",,0,,,,,,001,2025-03-10_16h54.38.962,SL_sali_41,2021.2.3,Win32,60.97560976,,,,119,0,119,0,1,,,,,,,,
,,"[""circle"",""red"",""hori"",""left"",[-106,-106],[106,-106]]",circle,red,hori,left,"[-106,-106]","[106,-106]",up,0,,,,,,001,2025-03-10_16h54.38.962,SL_sali_41,2021.2.3,Win32,60.97560976,1.4305,,,120,0,120,0,1,,,,,,,,
,,"[""diamond"",""red"",""hori"",""left"",[150,0],[-106,106]]",diamond,red,hori,left,"[150,0]","[-106,106]",left,1,,,,,,001,2025-03-10_16h54.38.962,SL_sali_41,2021.2.3,Win32,60.97560976,2.1015,,,121,0,121,0,1,,,,,,,,
,,"[""diamond"",""red"",""vert"",""up"",[0,-150],[106,-106]]",diamond,red,vert,up,"[0,-150]","[106,-106]",up,1,,,,,,001,2025-03-10_16h54.38.962,SL_sali_41,2021.2.3,Win32,60.97560976,1.5825,,,122,0,122,0,1,,,,,,,,
,,"[""diamond"",""no_dis"",""vert"",""up"",[99999,99999],[0,150]]",diamond,no_dis,vert,up,"[99999,99999]","[0,150]",up,1,,,,,,001,2025-03-10_16h54.38.962,SL_sali_41,2021.2.3,Win32,60.97560976,0.7954,,,123,0,123,0,1,,,,,,,,
,,"[""diamond"",""green"",""hori"",""left"",[-106,-106],[0,-150]]",diamond,green,hori,left,"[-106,-106]","[0,-150]",left,1,,,,,,001,2025-03-10_16h54.38.962,SL_sali_41,2021.2.3,Win32,60.97560976,1.3843,,,124,0,124,0,1,,,,,,,,
,,"[""diamond"",""green"",""hori"",""left"",[106,106],[0,150]]",diamond,green,hori,left,"[106,106]","[0,150]",up,0,,,,,,001,2025-03-10_16h54.38.962,SL_sali_41,2021.2.3,Win32,60.97560976,2.2019,,,125,0,125,0,1,,,,,,,,
,,"[""diamond"",""green"",""hori"",""left"",[-150,0],[-106,106]]",diamond,green,hori,left,"[-150,0]","[-106,106]",left,1,,,,,,001,2025-03-10_16h54.38.962,SL_sali_41,2021.2.3,Win32,60.97560976,1.3161,,,126,0,126,0,1,,,,,,,,
,,"[""diamond"",""green"",""hori"",""left"",[150,0],[106,106]]",diamond,green,hori,left,"[150,0]","[106,106]",up,0,,,,,,001,2025-03-10_16h54.38.962,SL_sali_41,2021.2.3,Win32,60.97560976,1.8361,,,127,0,127,0,1,,,,,,,,
,,,,,,,,,,,,,,,,001,2025-03-10_16h54.38.962,SL_sali_41,2021.2.3,Win32,60.97560976,,,,,,,,,3,space,32.3295,2,0,2,0,1
,,"[""circle"",""red"",""vert"",""up"",[106,106],[0,150]]",circle,red,vert,up,"[106,106]","[0,150]",left,0,,,,,,001,2025-03-10_16h54.38.962,SL_sali_41,2021.2.3,Win32,60.97560976,0.8591,,,0,0,0,0,1,,,,,,,,
,,"[""diamond"",""red"",""vert"",""up"",[-106,106],[0,150]]",diamond,red,vert,up,"[-106,106]","[0,150]",left,0,,,,,,001,2025-03-10_16h54.38.962,SL_sali_41,2021.2.3,Win32,60.97560976,0.3327,,,1,0,1,0,1,,,,,,,,
,,"[""circle"",""red"",""vert"",""up"",[0,150],[106,106]]",circle,red,vert,up,"[0,150]","[106,106]",up,1,,,,,,001,2025-03-10_16h54.38.962,SL_sali_41,2021.2.3,Win32,60.97560976,0.3679,,,2,0,2,0,1,,,,,,,,
,,"[""diamond"",""green"",""vert"",""up"",[106,106],[106,-106]]",diamond,green,vert,up,"[106,106]","[106,-106]",up,1,,,,,,001,2025-03-10_16h54.38.962,SL_sali_41,2021.2.3,Win32,60.97560976,0.1497,,,3,0,3,0,1,,,,,,,,
,,"[""circle"",""no_dis"",""vert"",""up"",[99999,99999],[150,0]]",circle,no_dis,vert,up,"[99999,99999]","[150,0]",up,1,,,,,,001,2025-03-10_16h54.38.962,SL_sali_41,2021.2.3,Win32,60.97560976,0.9689,,,4,0,4,0,1,,,,,,,,
,,"[""circle"",""green"",""vert"",""up"",[0,-150],[150,0]]",circle,green,vert,up,"[0,-150]","[150,0]",left,0,,,,,,001,2025-03-10_16h54.38.962,SL_sali_41,2021.2.3,Win32,60.97560976,0.1673,,,5,0,5,0,1,,,,,,,,
,,"[""circle"",""green"",""hori"",""left"",[-106,-106],[106,106]]",circle,green,hori,left,"[-106,-106]","[106,106]",up,0,,,,,,001,2025-03-10_16h54.38.962,SL_sali_41,2021.2.3,Win32,60.97560976,0.9398,,,6,0,6,0,1,,,,,,,,
,,"[""circle"",""no_dis"",""vert"",""up"",[99999,99999],[106,-106]]",circle,no_dis,vert,up,"[99999,99999]","[106,-106]",left,0,,,,,,001,2025-03-10_16h54.38.962,SL_sali_41,2021.2.3,Win32,60.97560976,0.285,,,7,0,7,0,1,,,,,,,,
,,"[""circle"",""no_dis"",""hori"",""left"",[99999,99999],[106,-106]]",circle,no_dis,hori,left,"[99999,99999]","[106,-106]",left,1,,,,,,001,2025-03-10_16h54.38.962,SL_sali_41,2021.2.3,Win32,60.97560976,0.1985,,,8,0,8,0,1,,,,,,,,
,,"[""circle"",""green"",""hori"",""left"",[150,0],[-150,0]]",circle,green,hori,left,"[150,0]","[-150,0]",left,1,,,,,,001,2025-03-10_16h54.38.962,SL_sali_41,2021.2.3,Win32,60.97560976,0.1043,,,9,0,9,0,1,,,,,,,,
,,"[""diamond"",""red"",""vert"",""up"",[150,0],[106,-106]]",diamond,red,vert,up,"[150,0]","[106,-106]",left,0,,,,,,001,2025-03-10_16h54.38.962,SL_sali_41,2021.2.3,Win32,60.97560976,0.196,,,10,0,10,0,1,,,,,,,,
,,"[""diamond"",""green"",""hori"",""left"",[150,0],[-106,-106]]",diamond,green,hori,left,"[150,0]","[-106,-106]",up,0,,,,,,001,2025-03-10_16h54.38.962,SL_sali_41,2021.2.3,Win32,60.97560976,0.0166,,,11,0,11,0,1,,,,,,,,
,,"[""diamond"",""green"",""vert"",""up"",[150,0],[0,-150]]",diamond,green,vert,up,"[150,0]","[0,-150]",left,0,,,,,,001,2025-03-10_16h54.38.962,SL_sali_41,2021.2.3,Win32,60.97560976,0.0449,,,12,0,12,0,1,,,,,,,,
,,"[""diamond"",""no_dis"",""hori"",""left"",[99999,99999],[106,106]]",diamond,no_dis,hori,left,"[99999,99999]","[106,106]",left,1,,,,,,001,2025-03-10_16h54.38.962,SL_sali_41,2021.2.3,Win32,60.97560976,1.9004,,,13,0,13,0,1,,,,,,,,
,,"[""circle"",""no_dis"",""hori"",""left"",[99999,99999],[106,-106]]",circle,no_dis,hori,left,"[99999,99999]","[106,-106]",left,1,,,,,,001,2025-03-10_16h54.38.962,SL_sali_41,2021.2.3,Win32,60.97560976,0.001,,,14,0,14,0,1,,,,,,,,
,,"[""circle"",""red"",""vert"",""up"",[106,106],[0,-150]]",circle,red,vert,up,"[106,106]","[0,-150]",up,1,,,,,,001,2025-03-10_16h54.38.962,SL_sali_41,2021.2.3,Win32,60.97560976,0.6176,,,15,0,15,0,1,,,,,,,,
,,"[""diamond"",""no_dis"",""vert"",""up"",[99999,99999],[-106,106]]",diamond,no_dis,vert,up,"[99999,99999]","[-106,106]",left,0,,,,,,001,2025-03-10_16h54.38.962,SL_sali_41,2021.2.3,Win32,60.97560976,0.1509,,,16,0,16,0,1,,,,,,,,
,,"[""circle"",""red"",""hori"",""left"",[0,150],[-106,106]]",circle,red,hori,left,"[0,150]","[-106,106]",left,1,,,,,,001,2025-03-10_16h54.38.962,SL_sali_41,2021.2.3,Win32,60.97560976,0.0816,,,17,0,17,0,1,,,,,,,,
,,"[""circle"",""red"",""vert"",""up"",[-106,106],[-106,-106]]",circle,red,vert,up,"[-106,106]","[-106,-106]",up,1,,,,,,001,2025-03-10_16h54.38.962,SL_sali_41,2021.2.3,Win32,60.97560976,0.766,,,18,0,18,0,1,,,,,,,,
,,"[""diamond"",""no_dis"",""vert"",""up"",[99999,99999],[-106,106]]",diamond,no_dis,vert,up,"[99999,99999]","[-106,106]",left,0,,,,,,001,2025-03-10_16h54.38.962,SL_sali_41,2021.2.3,Win32,60.97560976,0.0438,,,19,0,19,0,1,,,,,,,,
,,"[""circle"",""no_dis"",""vert"",""up"",[99999,99999],[150,0]]",circle,no_dis,vert,up,"[99999,99999]","[150,0]",left,0,,,,,,001,2025-03-10_16h54.38.962,SL_sali_41,2021.2.3,Win32,60.97560976,0.1312,,,20,0,20,0,1,,,,,,,,
,,"[""diamond"",""no_dis"",""vert"",""up"",[99999,99999],[0,-150]]",diamond,no_dis,vert,up,"[99999,99999]","[0,-150]",up,1,,,,,,001,2025-03-10_16h54.38.962,SL_sali_41,2021.2.3,Win32,60.97560976,0.297,,,21,0,21,0,1,,,,,,,,
,,"[""diamond"",""red"",""hori"",""left"",[-106,106],[-106,-106]]",diamond,red,hori,left,"[-106,106]","[-106,-106]",up,0,,,,,,001,2025-03-10_16h54.38.962,SL_sali_41,2021.2.3,Win32,60.97560976,0.6498,,,22,0,22,0,1,,,,,,,,
,,"[""diamond"",""no_dis"",""hori"",""left"",[99999,99999],[-106,106]]",diamond,no_dis,hori,left,"[99999,99999]","[-106,106]",up,0,,,,,,001,2025-03-10_16h54.38.962,SL_sali_41,2021.2.3,Win32,60.97560976,0.0758,,,23,0,23,0,1,,,,,,,,
,,"[""circle"",""green"",""vert"",""up"",[106,-106],[-150,0]]",circle,green,vert,up,"[106,-106]","[-150,0]",left,0,,,,,,001,2025-03-10_16h54.38.962,SL_sali_41,2021.2.3,Win32,60.97560976,0.2166,,,24,0,24,0,1,,,,,,,,
,,"[""circle"",""green"",""vert"",""up"",[-150,0],[150,0]]",circle,green,vert,up,"[-150,0]","[150,0]",up,1,,,,,,001,2025-03-10_16h54.38.962,SL_sali_41,2021.2.3,Win32,60.97560976,0.7389,,,25,0,25,0,1,,,,,,,,
,,"[""circle"",""red"",""vert"",""up"",[-106,106],[0,-150]]",circle,red,vert,up,"[-106,106]","[0,-150]",left,0,,,,,,001,2025-03-10_16h54.38.962,SL_sali_41,2021.2.3,Win32,60.97560976,0.3006,,,26,0,26,0,1,,,,,,,,
,,"[""diamond"",""no_dis"",""hori"",""left"",[99999,99999],[-106,-106]]",diamond,no_dis,hori,left,"[99999,99999]","[-106,-106]",left,1,,,,,,001,2025-03-10_16h54.38.962,SL_sali_41,2021.2.3,Win32,60.97560976,0.2182,,,27,0,27,0,1,,,,,,,,
,,"[""circle"",""red"",""hori"",""left"",[150,0],[106,-106]]",circle,red,hori,left,"[150,0]","[106,-106]",left,1,,,,,,001,2025-03-10_16h54.38.962,SL_sali_41,2021.2.3,Win32,60.97560976,0.3502,,,28,0,28,0,1,,,,,,,,
,,"[""diamond"",""no_dis"",""vert"",""up"",[99999,99999],[106,106]]",diamond,no_dis,vert,up,"[99999,99999]","[106,106]",left,0,,,,,,001,2025-03-10_16h54.38.962,SL_sali_41,2021.2.3,Win32,60.97560976,0.4834,,,29,0,29,0,1,,,,,,,,
,,"[""circle"",""red"",""vert"",""up"",[106,106],[0,-150]]",circle,red,vert,up,"[106,106]","[0,-150]",up,1,,,,,,001,2025-03-10_16h54.38.962,SL_sali_41,2021.2.3,Win32,60.97560976,0.2991,,,30,0,30,0,1,,,,,,,,
,,"[""circle"",""no_dis"",""hori"",""left"",[99999,99999],[-150,0]]",circle,no_dis,hori,left,"[99999,99999]","[-150,0]",up,0,,,,,,001,2025-03-10_16h54.38.962,SL_sali_41,2021.2.3,Win32,60.97560976,0.2497,,,31,0,31,0,1,,,,,,,,
,,"[""diamond"",""no_dis"",""vert"",""up"",[99999,99999],[0,150]]",diamond,no_dis,vert,up,"[99999,99999]","[0,150]",left,0,,,,,,001,2025-03-10_16h54.38.962,SL_sali_41,2021.2.3,Win32,60.97560976,0.0642,,,32,0,32,0,1,,,,,,,,
,,"[""circle"",""no_dis"",""hori"",""left"",[99999,99999],[106,106]]",circle,no_dis,hori,left,"[99999,99999]","[106,106]",left,1,,,,,,001,2025-03-10_16h54.38.962,SL_sali_41,2021.2.3,Win32,60.97560976,0.3658,,,33,0,33,0,1,,,,,,,,
,,"[""circle"",""red"",""hori"",""left"",[150,0],[-106,-106]]",circle,red,hori,left,"[150,0]","[-106,-106]",left,1,,,,,,001,2025-03-10_16h54.38.962,SL_sali_41,2021.2.3,Win32,60.97560976,0.1816,,,34,0,34,0,1,,,,,,,,
,,"[""circle"",""red"",""hori"",""left"",[0,-150],[150,0]]",circle,red,hori,left,"[0,-150]","[150,0]",left,1,,,,,,001,2025-03-10_16h54.38.962,SL_sali_41,2021.2.3,Win32,60.97560976,0.1149,,,35,0,35,0,1,,,,,,,,
,,"[""circle"",""red"",""hori"",""left"",[0,150],[-106,106]]",circle,red,hori,left,"[0,150]","[-106,106]",up,0,,,,,,001,2025-03-10_16h54.38.962,SL_sali_41,2021.2.3,Win32,60.97560976,0.1129,,,36,0,36,0,1,,,,,,,,
,,"[""diamond"",""green"",""vert"",""up"",[-150,0],[106,-106]]",diamond,green,vert,up,"[-150,0]","[106,-106]",left,0,,,,,,001,2025-03-10_16h54.38.962,SL_sali_41,2021.2.3,Win32,60.97560976,0.2476,,,37,0,37,0,1,,,,,,,,
,,"[""circle"",""red"",""vert"",""up"",[0,-150],[-150,0]]",circle,red,vert,up,"[0,-150]","[-150,0]",left,0,,,,,,001,2025-03-10_16h54.38.962,SL_sali_41,2021.2.3,Win32,60.97560976,0.0672,,,38,0,38,0,1,,,,,,,,
,,"[""circle"",""green"",""hori"",""left"",[150,0],[106,-106]]",circle,green,hori,left,"[150,0]","[106,-106]",left,1,,,,,,001,2025-03-10_16h54.38.962,SL_sali_41,2021.2.3,Win32,60.97560976,0.0575,,,39,0,39,0,1,,,,,,,,
,,"[""diamond"",""red"",""vert"",""up"",[150,0],[-106,106]]",diamond,red,vert,up,"[150,0]","[-106,106]",left,0,,,,,,001,2025-03-10_16h54.38.962,SL_sali_41,2021.2.3,Win32,60.97560976,0.29,,,40,0,40,0,1,,,,,,,,
,,"[""circle"",""red"",""hori"",""left"",[-150,0],[0,150]]",circle,red,hori,left,"[-150,0]","[0,150]",up,0,,,,,,001,2025-03-10_16h54.38.962,SL_sali_41,2021.2.3,Win32,60.97560976,0.2373,,,41,0,41,0,1,,,,,,,,
,,"[""diamond"",""no_dis"",""hori"",""left"",[99999,99999],[-150,0]]",diamond,no_dis,hori,left,"[99999,99999]","[-150,0]",left,1,,,,,,001,2025-03-10_16h54.38.962,SL_sali_41,2021.2.3,Win32,60.97560976,0.0005,,,42,0,42,0,1,,,,,,,,
,,"[""diamond"",""red"",""vert"",""up"",[150,0],[106,-106]]",diamond,red,vert,up,"[150,0]","[106,-106]",up,1,,,,,,001,2025-03-10_16h54.38.962,SL_sali_41,2021.2.3,Win32,60.97560976,0.9326,,,43,0,43,0,1,,,,,,,,
,,"[""diamond"",""red"",""vert"",""up"",[150,0],[106,-106]]",diamond,red,vert,up,"[150,0]","[106,-106]",left,0,,,,,,001,2025-03-10_16h54.38.962,SL_sali_41,2021.2.3,Win32,60.97560976,0.3149,,,44,0,44,0,1,,,,,,,,
,,"[""circle"",""red"",""vert"",""up"",[150,0],[0,150]]",circle,red,vert,up,"[150,0]","[0,150]",up,1,,,,,,001,2025-03-10_16h54.38.962,SL_sali_41,2021.2.3,Win32,60.97560976,0.9168,,,45,0,45,0,1,,,,,,,,
,,"[""diamond"",""no_dis"",""vert"",""up"",[99999,99999],[0,-150]]",diamond,no_dis,vert,up,"[99999,99999]","[0,-150]",up,1,,,,,,001,2025-03-10_16h54.38.962,SL_sali_41,2021.2.3,Win32,60.97560976,0.031,,,46,0,46,0,1,,,,,,,,
,,"[""circle"",""no_dis"",""hori"",""left"",[99999,99999],[150,0]]",circle,no_dis,hori,left,"[99999,99999]","[150,0]",left,1,,,,,,001,2025-03-10_16h54.38.962,SL_sali_41,2021.2.3,Win32,60.97560976,0.2566,,,47,0,47,0,1,,,,,,,,
,,"[""circle"",""red"",""hori"",""left"",[-106,-106],[106,-106]]",circle,red,hori,left,"[-106,-106]","[106,-106]",left,1,,,,,,001,2025-03-10_16h54.38.962,SL_sali_41,2021.2.3,Win32,60.97560976,0.1379,,,48,0,48,0,1,,,,,,,,
,,"[""circle"",""green"",""vert"",""up"",[106,-106],[-150,0]]",circle,green,vert,up,"[106,-106]","[-150,0]",up,1,,,,,,001,2025-03-10_16h54.38.962,SL_sali_41,2021.2.3,Win32,60.97560976,0.2559,,,49,0,49,0,1,,,,,,,,
,,"[""diamond"",""green"",""hori"",""left"",[-150,0],[-106,-106]]",diamond,green,hori,left,"[-150,0]","[-106,-106]",up,0,,,,,,001,2025-03-10_16h54.38.962,SL_sali_41,2021.2.3,Win32,60.97560976,0.0518,,,50,0,50,0,1,,,,,,,,
,,"[""diamond"",""red"",""vert"",""up"",[-150,0],[106,-106]]",diamond,red,vert,up,"[-150,0]","[106,-106]",up,1,,,,,,001,2025-03-10_16h54.38.962,SL_sali_41,2021.2.3,Win32,60.97560976,0.3439,,,51,0,51,0,1,,,,,,,,
,,"[""circle"",""no_dis"",""vert"",""up"",[99999,99999],[-150,0]]",circle,no_dis,vert,up,"[99999,99999]","[-150,0]",up,1,,,,,,001,2025-03-10_16h54.38.962,SL_sali_41,2021.2.3,Win32,60.97560976,0.0641,,,52,0,52,0,1,,,,,,,,
,,"[""diamond"",""red"",""hori"",""left"",[-106,106],[150,0]]",diamond,red,hori,left,"[-106,106]","[150,0]",up,0,,,,,,001,2025-03-10_16h54.38.962,SL_sali_41,2021.2.3,Win32,60.97560976,0.5582,,,53,0,53,0,1,,,,,,,,
,,"[""diamond"",""red"",""hori"",""left"",[106,-106],[0,150]]",diamond,red,hori,left,"[106,-106]","[0,150]",left,1,,,,,,001,2025-03-10_16h54.38.962,SL_sali_41,2021.2.3,Win32,60.97560976,0.1459,,,54,0,54,0,1,,,,,,,,
,,"[""circle"",""red"",""hori"",""left"",[106,106],[0,150]]",circle,red,hori,left,"[106,106]","[0,150]",up,0,,,,,,001,2025-03-10_16h54.38.962,SL_sali_41,2021.2.3,Win32,60.97560976,0.2805,,,55,0,55,0,1,,,,,,,,
,,"[""diamond"",""no_dis"",""hori"",""left"",[99999,99999],[-150,0]]",diamond,no_dis,hori,left,"[99999,99999]","[-150,0]",up,0,,,,,,001,2025-03-10_16h54.38.962,SL_sali_41,2021.2.3,Win32,60.97560976,0.998,,,56,0,56,0,1,,,,,,,,
,,"[""circle"",""red"",""vert"",""up"",[0,150],[106,106]]",circle,red,vert,up,"[0,150]","[106,106]",up,1,,,,,,001,2025-03-10_16h54.38.962,SL_sali_41,2021.2.3,Win32,60.97560976,0.183,,,57,0,57,0,1,,,,,,,,
,,"[""circle"",""green"",""vert"",""up"",[106,106],[0,150]]",circle,green,vert,up,"[106,106]","[0,150]",left,0,,,,,,001,2025-03-10_16h54.38.962,SL_sali_41,2021.2.3,Win32,60.97560976,0.2597,,,58,0,58,0,1,,,,,,,,
,,"[""diamond"",""no_dis"",""vert"",""up"",[99999,99999],[106,-106]]",diamond,no_dis,vert,up,"[99999,99999]","[106,-106]",up,1,,,,,,001,2025-03-10_16h54.38.962,SL_sali_41,2021.2.3,Win32,60.97560976,0.4835,,,59,0,59,0,1,,,,,,,,
,,"[""circle"",""no_dis"",""vert"",""up"",[99999,99999],[-150,0]]",circle,no_dis,vert,up,"[99999,99999]","[-150,0]",left,0,,,,,,001,2025-03-10_16h54.38.962,SL_sali_41,2021.2.3,Win32,60.97560976,0.3158,,,60,0,60,0,1,,,,,,,,
,,"[""circle"",""no_dis"",""hori"",""left"",[99999,99999],[-106,-106]]",circle,no_dis,hori,left,"[99999,99999]","[-106,-106]",left,1,,,,,,001,2025-03-10_16h54.38.962,SL_sali_41,2021.2.3,Win32,60.97560976,0.2367,,,61,0,61,0,1,,,,,,,,
,,"[""diamond"",""green"",""vert"",""up"",[106,-106],[106,106]]",diamond,green,vert,up,"[106,-106]","[106,106]",left,0,,,,,,001,2025-03-10_16h54.38.962,SL_sali_41,2021.2.3,Win32,60.97560976,0.3806,,,62,0,62,0,1,,,,,,,,
