﻿key_resp.keys,key_resp.rt,trial_para,tar_shape,dis_color_condi,tar_line,cor_resp,dis_loc,tar_loc,resp.keys,resp.corr,resp.rt,trials.thisRepN,trials.thisTrialN,trials.thisN,trials.thisIndex,trials.ran,participant,date,expName,psychopyVersion,OS,frameRate,key_resp_2.keys,key_resp_2.rt,trials_2.thisRepN,trials_2.thisTrialN,trials_2.thisN,trials_2.thisIndex,trials_2.ran,block_num,key_resp_3.keys,key_resp_3.rt,trials_3.thisRepN,trials_3.thisTrialN,trials_3.thisN,trials_3.thisIndex,trials_3.ran
space,69.9889,"[""diamond"",""red"",""hori"",""left"",[106,106],[150,0]]",diamond,red,hori,left,"[106,106]","[150,0]",left,1,2.6217,0,0,0,0,1,001,2025-03-10_21h17.46.836,SL_sali_41,2021.2.3,Win32,99.92006395,,,,,,,,,,,,,,,
,,"[""circle"",""green"",""vert"",""up"",[-106,-106],[-106,106]]",circle,green,vert,up,"[-106,-106]","[-106,106]",up,1,1.4272,1,0,1,0,1,001,2025-03-10_21h17.46.836,SL_sali_41,2021.2.3,Win32,99.92006395,,,,,,,,,,,,,,,
,,"[""circle"",""green"",""hori"",""left"",[-106,106],[0,-150]]",circle,green,hori,left,"[-106,106]","[0,-150]",left,1,1.9221,2,0,2,0,1,001,2025-03-10_21h17.46.836,SL_sali_41,2021.2.3,Win32,99.92006395,,,,,,,,,,,,,,,
,,"[""circle"",""green"",""hori"",""left"",[106,-106],[0,150]]",circle,green,hori,left,"[106,-106]","[0,150]",up,0,1.0604,3,0,3,0,1,001,2025-03-10_21h17.46.836,SL_sali_41,2021.2.3,Win32,99.92006395,,,,,,,,,,,,,,,
,,"[""diamond"",""green"",""hori"",""left"",[106,-106],[0,150]]",diamond,green,hori,left,"[106,-106]","[0,150]",left,1,1.0593,4,0,4,0,1,001,2025-03-10_21h17.46.836,SL_sali_41,2021.2.3,Win32,99.92006395,,,,,,,,,,,,,,,
,,"[""circle"",""red"",""hori"",""left"",[106,-106],[-106,106]]",circle,red,hori,left,"[106,-106]","[-106,106]",left,1,0.9527,5,0,5,0,1,001,2025-03-10_21h17.46.836,SL_sali_41,2021.2.3,Win32,99.92006395,,,,,,,,,,,,,,,
,,"[""diamond"",""no_dis"",""vert"",""up"",[99999,99999],[0,150]]",diamond,no_dis,vert,up,"[99999,99999]","[0,150]",up,1,1.0927,6,0,6,0,1,001,2025-03-10_21h17.46.836,SL_sali_41,2021.2.3,Win32,99.92006395,,,,,,,,,,,,,,,
,,"[""diamond"",""red"",""hori"",""left"",[106,106],[150,0]]",diamond,red,hori,left,"[106,106]","[150,0]",left,1,0.9696,7,0,7,0,1,001,2025-03-10_21h17.46.836,SL_sali_41,2021.2.3,Win32,99.92006395,,,,,,,,,,,,,,,
,,"[""circle"",""green"",""hori"",""left"",[-150,0],[106,-106]]",circle,green,hori,left,"[-150,0]","[106,-106]",left,1,1.3428,8,0,8,0,1,001,2025-03-10_21h17.46.836,SL_sali_41,2021.2.3,Win32,99.92006395,,,,,,,,,,,,,,,
,,"[""diamond"",""no_dis"",""hori"",""left"",[99999,99999],[150,0]]",diamond,no_dis,hori,left,"[99999,99999]","[150,0]",left,1,1.1176,9,0,9,0,1,001,2025-03-10_21h17.46.836,SL_sali_41,2021.2.3,Win32,99.92006395,,,,,,,,,,,,,,,
,,"[""diamond"",""red"",""hori"",""left"",[106,106],[150,0]]",diamond,red,hori,left,"[106,106]","[150,0]",left,1,0.9286,,,,,,001,2025-03-10_21h17.46.836,SL_sali_41,2021.2.3,Win32,99.92006395,space,14.302,0,0,0,0,1,,,,,,,,
,,"[""circle"",""green"",""vert"",""up"",[-106,-106],[-106,106]]",circle,green,vert,up,"[-106,-106]","[-106,106]",up,1,0.9422,,,,,,001,2025-03-10_21h17.46.836,SL_sali_41,2021.2.3,Win32,99.92006395,,,1,0,1,0,1,,,,,,,,
,,"[""circle"",""green"",""hori"",""left"",[-106,106],[0,-150]]",circle,green,hori,left,"[-106,106]","[0,-150]",left,1,0.702,,,,,,001,2025-03-10_21h17.46.836,SL_sali_41,2021.2.3,Win32,99.92006395,,,2,0,2,0,1,,,,,,,,
,,"[""circle"",""green"",""hori"",""left"",[106,-106],[0,150]]",circle,green,hori,left,"[106,-106]","[0,150]",left,1,0.7104,,,,,,001,2025-03-10_21h17.46.836,SL_sali_41,2021.2.3,Win32,99.92006395,,,3,0,3,0,1,,,,,,,,
,,"[""diamond"",""green"",""hori"",""left"",[106,-106],[0,150]]",diamond,green,hori,left,"[106,-106]","[0,150]",left,1,1.0133,,,,,,001,2025-03-10_21h17.46.836,SL_sali_41,2021.2.3,Win32,99.92006395,,,4,0,4,0,1,,,,,,,,
,,"[""circle"",""red"",""hori"",""left"",[106,-106],[-106,106]]",circle,red,hori,left,"[106,-106]","[-106,106]",left,1,1.009,,,,,,001,2025-03-10_21h17.46.836,SL_sali_41,2021.2.3,Win32,99.92006395,,,5,0,5,0,1,,,,,,,,
,,"[""diamond"",""no_dis"",""vert"",""up"",[99999,99999],[0,150]]",diamond,no_dis,vert,up,"[99999,99999]","[0,150]",up,1,0.8083,,,,,,001,2025-03-10_21h17.46.836,SL_sali_41,2021.2.3,Win32,99.92006395,,,6,0,6,0,1,,,,,,,,
,,"[""diamond"",""red"",""hori"",""left"",[106,106],[150,0]]",diamond,red,hori,left,"[106,106]","[150,0]",left,1,0.8497,,,,,,001,2025-03-10_21h17.46.836,SL_sali_41,2021.2.3,Win32,99.92006395,,,7,0,7,0,1,,,,,,,,
,,"[""circle"",""green"",""hori"",""left"",[-150,0],[106,-106]]",circle,green,hori,left,"[-150,0]","[106,-106]",left,1,1.0895,,,,,,001,2025-03-10_21h17.46.836,SL_sali_41,2021.2.3,Win32,99.92006395,,,8,0,8,0,1,,,,,,,,
,,"[""diamond"",""no_dis"",""hori"",""left"",[99999,99999],[150,0]]",diamond,no_dis,hori,left,"[99999,99999]","[150,0]",left,1,0.9572,,,,,,001,2025-03-10_21h17.46.836,SL_sali_41,2021.2.3,Win32,99.92006395,,,9,0,9,0,1,,,,,,,,
,,"[""diamond"",""green"",""hori"",""left"",[106,-106],[-106,106]]",diamond,green,hori,left,"[106,-106]","[-106,106]",left,1,1.1186,,,,,,001,2025-03-10_21h17.46.836,SL_sali_41,2021.2.3,Win32,99.92006395,,,10,0,10,0,1,,,,,,,,
,,"[""diamond"",""no_dis"",""vert"",""up"",[99999,99999],[0,-150]]",diamond,no_dis,vert,up,"[99999,99999]","[0,-150]",left,0,1.5972,,,,,,001,2025-03-10_21h17.46.836,SL_sali_41,2021.2.3,Win32,99.92006395,,,11,0,11,0,1,,,,,,,,
,,"[""diamond"",""red"",""hori"",""left"",[106,-106],[-106,-106]]",diamond,red,hori,left,"[106,-106]","[-106,-106]",left,1,0.8909,,,,,,001,2025-03-10_21h17.46.836,SL_sali_41,2021.2.3,Win32,99.92006395,,,12,0,12,0,1,,,,,,,,
,,"[""circle"",""red"",""vert"",""up"",[106,-106],[-150,0]]",circle,red,vert,up,"[106,-106]","[-150,0]",up,1,1.0677,,,,,,001,2025-03-10_21h17.46.836,SL_sali_41,2021.2.3,Win32,99.92006395,,,13,0,13,0,1,,,,,,,,
,,"[""circle"",""red"",""vert"",""up"",[0,150],[150,0]]",circle,red,vert,up,"[0,150]","[150,0]",up,1,0.8543,,,,,,001,2025-03-10_21h17.46.836,SL_sali_41,2021.2.3,Win32,99.92006395,,,14,0,14,0,1,,,,,,,,
,,"[""diamond"",""red"",""vert"",""up"",[106,106],[0,150]]",diamond,red,vert,up,"[106,106]","[0,150]",up,1,1.1584,,,,,,001,2025-03-10_21h17.46.836,SL_sali_41,2021.2.3,Win32,99.92006395,,,15,0,15,0,1,,,,,,,,
,,"[""diamond"",""green"",""hori"",""left"",[0,150],[-106,-106]]",diamond,green,hori,left,"[0,150]","[-106,-106]",left,1,0.8886,,,,,,001,2025-03-10_21h17.46.836,SL_sali_41,2021.2.3,Win32,99.92006395,,,16,0,16,0,1,,,,,,,,
,,"[""diamond"",""no_dis"",""vert"",""up"",[99999,99999],[-106,106]]",diamond,no_dis,vert,up,"[99999,99999]","[-106,106]",up,1,0.9796,,,,,,001,2025-03-10_21h17.46.836,SL_sali_41,2021.2.3,Win32,99.92006395,,,17,0,17,0,1,,,,,,,,
,,"[""diamond"",""red"",""hori"",""left"",[-150,0],[0,150]]",diamond,red,hori,left,"[-150,0]","[0,150]",left,1,1.1514,,,,,,001,2025-03-10_21h17.46.836,SL_sali_41,2021.2.3,Win32,99.92006395,,,18,0,18,0,1,,,,,,,,
,,"[""circle"",""no_dis"",""vert"",""up"",[99999,99999],[106,106]]",circle,no_dis,vert,up,"[99999,99999]","[106,106]",up,1,1.1143,,,,,,001,2025-03-10_21h17.46.836,SL_sali_41,2021.2.3,Win32,99.92006395,,,19,0,19,0,1,,,,,,,,
,,"[""diamond"",""no_dis"",""hori"",""left"",[99999,99999],[0,150]]",diamond,no_dis,hori,left,"[99999,99999]","[0,150]",left,1,0.8929,,,,,,001,2025-03-10_21h17.46.836,SL_sali_41,2021.2.3,Win32,99.92006395,,,20,0,20,0,1,,,,,,,,
,,"[""diamond"",""green"",""hori"",""left"",[0,150],[106,106]]",diamond,green,hori,left,"[0,150]","[106,106]",left,1,0.8251,,,,,,001,2025-03-10_21h17.46.836,SL_sali_41,2021.2.3,Win32,99.92006395,,,21,0,21,0,1,,,,,,,,
,,"[""diamond"",""no_dis"",""vert"",""up"",[99999,99999],[-150,0]]",diamond,no_dis,vert,up,"[99999,99999]","[-150,0]",up,1,1.3332,,,,,,001,2025-03-10_21h17.46.836,SL_sali_41,2021.2.3,Win32,99.92006395,,,22,0,22,0,1,,,,,,,,
,,"[""circle"",""red"",""hori"",""left"",[-150,0],[0,-150]]",circle,red,hori,left,"[-150,0]","[0,-150]",left,1,1.3221,,,,,,001,2025-03-10_21h17.46.836,SL_sali_41,2021.2.3,Win32,99.92006395,,,23,0,23,0,1,,,,,,,,
,,"[""diamond"",""no_dis"",""vert"",""up"",[99999,99999],[106,-106]]",diamond,no_dis,vert,up,"[99999,99999]","[106,-106]",up,1,1.4254,,,,,,001,2025-03-10_21h17.46.836,SL_sali_41,2021.2.3,Win32,99.92006395,,,24,0,24,0,1,,,,,,,,
,,"[""diamond"",""red"",""hori"",""left"",[0,150],[0,-150]]",diamond,red,hori,left,"[0,150]","[0,-150]",left,1,0.9322,,,,,,001,2025-03-10_21h17.46.836,SL_sali_41,2021.2.3,Win32,99.92006395,,,25,0,25,0,1,,,,,,,,
,,"[""diamond"",""green"",""hori"",""left"",[106,-106],[150,0]]",diamond,green,hori,left,"[106,-106]","[150,0]",left,1,0.9091,,,,,,001,2025-03-10_21h17.46.836,SL_sali_41,2021.2.3,Win32,99.92006395,,,26,0,26,0,1,,,,,,,,
,,"[""diamond"",""red"",""vert"",""up"",[-106,-106],[150,0]]",diamond,red,vert,up,"[-106,-106]","[150,0]",up,1,0.8326,,,,,,001,2025-03-10_21h17.46.836,SL_sali_41,2021.2.3,Win32,99.92006395,,,27,0,27,0,1,,,,,,,,
,,"[""circle"",""no_dis"",""hori"",""left"",[99999,99999],[150,0]]",circle,no_dis,hori,left,"[99999,99999]","[150,0]",left,1,0.9627,,,,,,001,2025-03-10_21h17.46.836,SL_sali_41,2021.2.3,Win32,99.92006395,,,28,0,28,0,1,,,,,,,,
,,"[""circle"",""no_dis"",""vert"",""up"",[99999,99999],[-106,106]]",circle,no_dis,vert,up,"[99999,99999]","[-106,106]",up,1,0.98,,,,,,001,2025-03-10_21h17.46.836,SL_sali_41,2021.2.3,Win32,99.92006395,,,29,0,29,0,1,,,,,,,,
,,"[""circle"",""green"",""vert"",""up"",[106,-106],[0,-150]]",circle,green,vert,up,"[106,-106]","[0,-150]",up,1,1.5931,,,,,,001,2025-03-10_21h17.46.836,SL_sali_41,2021.2.3,Win32,99.92006395,,,30,0,30,0,1,,,,,,,,
,,"[""diamond"",""green"",""hori"",""left"",[106,-106],[-106,-106]]",diamond,green,hori,left,"[106,-106]","[-106,-106]",left,1,1.3523,,,,,,001,2025-03-10_21h17.46.836,SL_sali_41,2021.2.3,Win32,99.92006395,,,31,0,31,0,1,,,,,,,,
,,"[""circle"",""no_dis"",""vert"",""up"",[99999,99999],[150,0]]",circle,no_dis,vert,up,"[99999,99999]","[150,0]",up,1,0.8353,,,,,,001,2025-03-10_21h17.46.836,SL_sali_41,2021.2.3,Win32,99.92006395,,,32,0,32,0,1,,,,,,,,
,,"[""circle"",""green"",""vert"",""up"",[-106,-106],[-150,0]]",circle,green,vert,up,"[-106,-106]","[-150,0]",up,1,1.5606,,,,,,001,2025-03-10_21h17.46.836,SL_sali_41,2021.2.3,Win32,99.92006395,,,33,0,33,0,1,,,,,,,,
,,"[""circle"",""red"",""hori"",""left"",[106,-106],[150,0]]",circle,red,hori,left,"[106,-106]","[150,0]",left,1,0.8025,,,,,,001,2025-03-10_21h17.46.836,SL_sali_41,2021.2.3,Win32,99.92006395,,,34,0,34,0,1,,,,,,,,
,,"[""circle"",""green"",""vert"",""up"",[-106,106],[150,0]]",circle,green,vert,up,"[-106,106]","[150,0]",up,1,0.9301,,,,,,001,2025-03-10_21h17.46.836,SL_sali_41,2021.2.3,Win32,99.92006395,,,35,0,35,0,1,,,,,,,,
,,"[""diamond"",""red"",""vert"",""up"",[106,-106],[0,-150]]",diamond,red,vert,up,"[106,-106]","[0,-150]",up,1,1.0904,,,,,,001,2025-03-10_21h17.46.836,SL_sali_41,2021.2.3,Win32,99.92006395,,,36,0,36,0,1,,,,,,,,
,,"[""circle"",""no_dis"",""hori"",""left"",[99999,99999],[150,0]]",circle,no_dis,hori,left,"[99999,99999]","[150,0]",left,1,0.8608,,,,,,001,2025-03-10_21h17.46.836,SL_sali_41,2021.2.3,Win32,99.92006395,,,37,0,37,0,1,,,,,,,,
,,"[""diamond"",""green"",""vert"",""up"",[106,-106],[0,-150]]",diamond,green,vert,up,"[106,-106]","[0,-150]",up,1,1.159,,,,,,001,2025-03-10_21h17.46.836,SL_sali_41,2021.2.3,Win32,99.92006395,,,38,0,38,0,1,,,,,,,,
,,"[""diamond"",""no_dis"",""hori"",""left"",[99999,99999],[106,106]]",diamond,no_dis,hori,left,"[99999,99999]","[106,106]",left,1,1.1499,,,,,,001,2025-03-10_21h17.46.836,SL_sali_41,2021.2.3,Win32,99.92006395,,,39,0,39,0,1,,,,,,,,
,,"[""diamond"",""red"",""vert"",""up"",[-150,0],[-106,-106]]",diamond,red,vert,up,"[-150,0]","[-106,-106]",up,1,1.1103,,,,,,001,2025-03-10_21h17.46.836,SL_sali_41,2021.2.3,Win32,99.92006395,,,40,0,40,0,1,,,,,,,,
,,"[""circle"",""red"",""hori"",""left"",[0,-150],[-106,106]]",circle,red,hori,left,"[0,-150]","[-106,106]",left,1,1.5231,,,,,,001,2025-03-10_21h17.46.836,SL_sali_41,2021.2.3,Win32,99.92006395,,,41,0,41,0,1,,,,,,,,
,,"[""circle"",""no_dis"",""hori"",""left"",[99999,99999],[0,150]]",circle,no_dis,hori,left,"[99999,99999]","[0,150]",left,1,0.8211,,,,,,001,2025-03-10_21h17.46.836,SL_sali_41,2021.2.3,Win32,99.92006395,,,42,0,42,0,1,,,,,,,,
,,"[""circle"",""red"",""vert"",""up"",[106,-106],[-106,106]]",circle,red,vert,up,"[106,-106]","[-106,106]",up,1,1.6516,,,,,,001,2025-03-10_21h17.46.836,SL_sali_41,2021.2.3,Win32,99.92006395,,,43,0,43,0,1,,,,,,,,
,,"[""diamond"",""green"",""hori"",""left"",[0,150],[-106,-106]]",diamond,green,hori,left,"[0,150]","[-106,-106]",left,1,1.4503,,,,,,001,2025-03-10_21h17.46.836,SL_sali_41,2021.2.3,Win32,99.92006395,,,44,0,44,0,1,,,,,,,,
,,"[""circle"",""red"",""vert"",""up"",[106,-106],[-150,0]]",circle,red,vert,up,"[106,-106]","[-150,0]",up,1,1.5933,,,,,,001,2025-03-10_21h17.46.836,SL_sali_41,2021.2.3,Win32,99.92006395,,,45,0,45,0,1,,,,,,,,
,,"[""circle"",""red"",""hori"",""left"",[-106,-106],[-106,106]]",circle,red,hori,left,"[-106,-106]","[-106,106]",left,1,1.0826,,,,,,001,2025-03-10_21h17.46.836,SL_sali_41,2021.2.3,Win32,99.92006395,,,46,0,46,0,1,,,,,,,,
,,"[""circle"",""no_dis"",""vert"",""up"",[99999,99999],[-106,-106]]",circle,no_dis,vert,up,"[99999,99999]","[-106,-106]",up,1,0.9812,,,,,,001,2025-03-10_21h17.46.836,SL_sali_41,2021.2.3,Win32,99.92006395,,,47,0,47,0,1,,,,,,,,
,,"[""circle"",""green"",""vert"",""up"",[150,0],[106,-106]]",circle,green,vert,up,"[150,0]","[106,-106]",up,1,0.923,,,,,,001,2025-03-10_21h17.46.836,SL_sali_41,2021.2.3,Win32,99.92006395,,,48,0,48,0,1,,,,,,,,
,,"[""circle"",""green"",""vert"",""up"",[150,0],[0,150]]",circle,green,vert,up,"[150,0]","[0,150]",up,1,0.9794,,,,,,001,2025-03-10_21h17.46.836,SL_sali_41,2021.2.3,Win32,99.92006395,,,49,0,49,0,1,,,,,,,,
,,"[""circle"",""green"",""hori"",""left"",[106,-106],[-106,-106]]",circle,green,hori,left,"[106,-106]","[-106,-106]",left,1,0.9811,,,,,,001,2025-03-10_21h17.46.836,SL_sali_41,2021.2.3,Win32,99.92006395,,,50,0,50,0,1,,,,,,,,
,,"[""circle"",""green"",""vert"",""up"",[-106,-106],[-150,0]]",circle,green,vert,up,"[-106,-106]","[-150,0]",left,0,0.9694,,,,,,001,2025-03-10_21h17.46.836,SL_sali_41,2021.2.3,Win32,99.92006395,,,51,0,51,0,1,,,,,,,,
,,"[""diamond"",""red"",""hori"",""left"",[106,-106],[-106,-106]]",diamond,red,hori,left,"[106,-106]","[-106,-106]",left,1,1.3711,,,,,,001,2025-03-10_21h17.46.836,SL_sali_41,2021.2.3,Win32,99.92006395,,,52,0,52,0,1,,,,,,,,
,,"[""diamond"",""red"",""vert"",""up"",[106,-106],[0,150]]",diamond,red,vert,up,"[106,-106]","[0,150]",up,1,0.9308,,,,,,001,2025-03-10_21h17.46.836,SL_sali_41,2021.2.3,Win32,99.92006395,,,53,0,53,0,1,,,,,,,,
,,"[""diamond"",""red"",""hori"",""left"",[150,0],[0,-150]]",diamond,red,hori,left,"[150,0]","[0,-150]",left,1,1.0204,,,,,,001,2025-03-10_21h17.46.836,SL_sali_41,2021.2.3,Win32,99.92006395,,,54,0,54,0,1,,,,,,,,
,,"[""circle"",""green"",""vert"",""up"",[-106,-106],[106,106]]",circle,green,vert,up,"[-106,-106]","[106,106]",up,1,0.8834,,,,,,001,2025-03-10_21h17.46.836,SL_sali_41,2021.2.3,Win32,99.92006395,,,55,0,55,0,1,,,,,,,,
,,"[""diamond"",""red"",""vert"",""up"",[0,150],[-106,106]]",diamond,red,vert,up,"[0,150]","[-106,106]",up,1,1.1409,,,,,,001,2025-03-10_21h17.46.836,SL_sali_41,2021.2.3,Win32,99.92006395,,,56,0,56,0,1,,,,,,,,
,,"[""diamond"",""red"",""hori"",""left"",[106,-106],[0,150]]",diamond,red,hori,left,"[106,-106]","[0,150]",left,1,1.0406,,,,,,001,2025-03-10_21h17.46.836,SL_sali_41,2021.2.3,Win32,99.92006395,,,57,0,57,0,1,,,,,,,,
,,"[""diamond"",""no_dis"",""hori"",""left"",[99999,99999],[0,150]]",diamond,no_dis,hori,left,"[99999,99999]","[0,150]",left,1,0.8503,,,,,,001,2025-03-10_21h17.46.836,SL_sali_41,2021.2.3,Win32,99.92006395,,,58,0,58,0,1,,,,,,,,
,,"[""circle"",""no_dis"",""vert"",""up"",[99999,99999],[106,106]]",circle,no_dis,vert,up,"[99999,99999]","[106,106]",up,1,1.4701,,,,,,001,2025-03-10_21h17.46.836,SL_sali_41,2021.2.3,Win32,99.92006395,,,59,0,59,0,1,,,,,,,,
,,"[""diamond"",""green"",""vert"",""up"",[0,-150],[106,-106]]",diamond,green,vert,up,"[0,-150]","[106,-106]",up,1,1.0003,,,,,,001,2025-03-10_21h17.46.836,SL_sali_41,2021.2.3,Win32,99.92006395,,,60,0,60,0,1,,,,,,,,
,,"[""diamond"",""red"",""vert"",""up"",[0,150],[0,-150]]",diamond,red,vert,up,"[0,150]","[0,-150]",up,1,1.1837,,,,,,001,2025-03-10_21h17.46.836,SL_sali_41,2021.2.3,Win32,99.92006395,,,61,0,61,0,1,,,,,,,,
,,"[""circle"",""green"",""vert"",""up"",[106,106],[-106,106]]",circle,green,vert,up,"[106,106]","[-106,106]",up,1,1.3153,,,,,,001,2025-03-10_21h17.46.836,SL_sali_41,2021.2.3,Win32,99.92006395,,,62,0,62,0,1,,,,,,,,
,,"[""diamond"",""green"",""vert"",""up"",[-106,106],[0,-150]]",diamond,green,vert,up,"[-106,106]","[0,-150]",up,1,0.9305,,,,,,001,2025-03-10_21h17.46.836,SL_sali_41,2021.2.3,Win32,99.92006395,,,63,0,63,0,1,,,,,,,,
,,"[""circle"",""green"",""hori"",""left"",[106,-106],[-106,106]]",circle,green,hori,left,"[106,-106]","[-106,106]",left,1,1.1705,,,,,,001,2025-03-10_21h17.46.836,SL_sali_41,2021.2.3,Win32,99.92006395,,,64,0,64,0,1,,,,,,,,
,,"[""circle"",""no_dis"",""hori"",""left"",[99999,99999],[106,-106]]",circle,no_dis,hori,left,"[99999,99999]","[106,-106]",left,1,0.9298,,,,,,001,2025-03-10_21h17.46.836,SL_sali_41,2021.2.3,Win32,99.92006395,,,65,0,65,0,1,,,,,,,,
,,"[""circle"",""green"",""vert"",""up"",[-106,106],[-150,0]]",circle,green,vert,up,"[-106,106]","[-150,0]",up,1,0.8904,,,,,,001,2025-03-10_21h17.46.836,SL_sali_41,2021.2.3,Win32,99.92006395,,,66,0,66,0,1,,,,,,,,
,,"[""diamond"",""red"",""vert"",""up"",[-106,106],[106,-106]]",diamond,red,vert,up,"[-106,106]","[106,-106]",up,1,0.8503,,,,,,001,2025-03-10_21h17.46.836,SL_sali_41,2021.2.3,Win32,99.92006395,,,67,0,67,0,1,,,,,,,,
,,"[""diamond"",""green"",""hori"",""left"",[-106,106],[150,0]]",diamond,green,hori,left,"[-106,106]","[150,0]",left,1,1.0792,,,,,,001,2025-03-10_21h17.46.836,SL_sali_41,2021.2.3,Win32,99.92006395,,,68,0,68,0,1,,,,,,,,
,,"[""circle"",""red"",""hori"",""left"",[-150,0],[106,106]]",circle,red,hori,left,"[-150,0]","[106,106]",left,1,1.0903,,,,,,001,2025-03-10_21h17.46.836,SL_sali_41,2021.2.3,Win32,99.92006395,,,69,0,69,0,1,,,,,,,,
,,"[""diamond"",""red"",""hori"",""left"",[106,-106],[150,0]]",diamond,red,hori,left,"[106,-106]","[150,0]",left,1,1.029,,,,,,001,2025-03-10_21h17.46.836,SL_sali_41,2021.2.3,Win32,99.92006395,,,70,0,70,0,1,,,,,,,,
,,"[""circle"",""red"",""hori"",""left"",[106,-106],[-150,0]]",circle,red,hori,left,"[106,-106]","[-150,0]",left,1,1.5297,,,,,,001,2025-03-10_21h17.46.836,SL_sali_41,2021.2.3,Win32,99.92006395,,,71,0,71,0,1,,,,,,,,
,,"[""circle"",""green"",""vert"",""up"",[150,0],[-106,106]]",circle,green,vert,up,"[150,0]","[-106,106]",up,1,0.73,,,,,,001,2025-03-10_21h17.46.836,SL_sali_41,2021.2.3,Win32,99.92006395,,,72,0,72,0,1,,,,,,,,
,,"[""circle"",""no_dis"",""hori"",""left"",[99999,99999],[-150,0]]",circle,no_dis,hori,left,"[99999,99999]","[-150,0]",left,1,2.071,,,,,,001,2025-03-10_21h17.46.836,SL_sali_41,2021.2.3,Win32,99.92006395,,,73,0,73,0,1,,,,,,,,
,,"[""diamond"",""no_dis"",""hori"",""left"",[99999,99999],[-106,-106]]",diamond,no_dis,hori,left,"[99999,99999]","[-106,-106]",left,1,1.3509,,,,,,001,2025-03-10_21h17.46.836,SL_sali_41,2021.2.3,Win32,99.92006395,,,74,0,74,0,1,,,,,,,,
,,"[""circle"",""green"",""hori"",""left"",[106,106],[-106,106]]",circle,green,hori,left,"[106,106]","[-106,106]",left,1,0.9934,,,,,,001,2025-03-10_21h17.46.836,SL_sali_41,2021.2.3,Win32,99.92006395,,,75,0,75,0,1,,,,,,,,
,,"[""circle"",""no_dis"",""hori"",""left"",[99999,99999],[-106,-106]]",circle,no_dis,hori,left,"[99999,99999]","[-106,-106]",left,1,1.3698,,,,,,001,2025-03-10_21h17.46.836,SL_sali_41,2021.2.3,Win32,99.92006395,,,76,0,76,0,1,,,,,,,,
,,"[""diamond"",""green"",""vert"",""up"",[-106,-106],[106,-106]]",diamond,green,vert,up,"[-106,-106]","[106,-106]",up,1,0.8993,,,,,,001,2025-03-10_21h17.46.836,SL_sali_41,2021.2.3,Win32,99.92006395,,,77,0,77,0,1,,,,,,,,
,,"[""circle"",""red"",""hori"",""left"",[-150,0],[106,106]]",circle,red,hori,left,"[-150,0]","[106,106]",left,1,0.9006,,,,,,001,2025-03-10_21h17.46.836,SL_sali_41,2021.2.3,Win32,99.92006395,,,78,0,78,0,1,,,,,,,,
,,"[""circle"",""no_dis"",""vert"",""up"",[99999,99999],[0,150]]",circle,no_dis,vert,up,"[99999,99999]","[0,150]",up,1,0.7302,,,,,,001,2025-03-10_21h17.46.836,SL_sali_41,2021.2.3,Win32,99.92006395,,,79,0,79,0,1,,,,,,,,
,,"[""circle"",""no_dis"",""vert"",""up"",[99999,99999],[-150,0]]",circle,no_dis,vert,up,"[99999,99999]","[-150,0]",up,1,0.8104,,,,,,001,2025-03-10_21h17.46.836,SL_sali_41,2021.2.3,Win32,99.92006395,,,80,0,80,0,1,,,,,,,,
,,"[""circle"",""green"",""hori"",""left"",[106,-106],[0,-150]]",circle,green,hori,left,"[106,-106]","[0,-150]",left,1,0.9897,,,,,,001,2025-03-10_21h17.46.836,SL_sali_41,2021.2.3,Win32,99.92006395,,,81,0,81,0,1,,,,,,,,
,,"[""diamond"",""no_dis"",""vert"",""up"",[99999,99999],[106,106]]",diamond,no_dis,vert,up,"[99999,99999]","[106,106]",up,1,0.7799,,,,,,001,2025-03-10_21h17.46.836,SL_sali_41,2021.2.3,Win32,99.92006395,,,82,0,82,0,1,,,,,,,,
,,"[""circle"",""red"",""hori"",""left"",[-106,-106],[106,106]]",circle,red,hori,left,"[-106,-106]","[106,106]",left,1,1.1204,,,,,,001,2025-03-10_21h17.46.836,SL_sali_41,2021.2.3,Win32,99.92006395,,,83,0,83,0,1,,,,,,,,
,,"[""circle"",""red"",""vert"",""up"",[106,106],[150,0]]",circle,red,vert,up,"[106,106]","[150,0]",up,1,1.1793,,,,,,001,2025-03-10_21h17.46.836,SL_sali_41,2021.2.3,Win32,99.92006395,,,84,0,84,0,1,,,,,,,,
,,"[""diamond"",""green"",""hori"",""left"",[106,-106],[106,106]]",diamond,green,hori,left,"[106,-106]","[106,106]",left,1,1.2311,,,,,,001,2025-03-10_21h17.46.836,SL_sali_41,2021.2.3,Win32,99.92006395,,,85,0,85,0,1,,,,,,,,
,,"[""diamond"",""green"",""vert"",""up"",[106,106],[0,-150]]",diamond,green,vert,up,"[106,106]","[0,-150]",up,1,0.9406,,,,,,001,2025-03-10_21h17.46.836,SL_sali_41,2021.2.3,Win32,99.92006395,,,86,0,86,0,1,,,,,,,,
,,"[""diamond"",""no_dis"",""hori"",""left"",[99999,99999],[-150,0]]",diamond,no_dis,hori,left,"[99999,99999]","[-150,0]",left,1,0.9108,,,,,,001,2025-03-10_21h17.46.836,SL_sali_41,2021.2.3,Win32,99.92006395,,,87,0,87,0,1,,,,,,,,
,,"[""diamond"",""no_dis"",""hori"",""left"",[99999,99999],[106,-106]]",diamond,no_dis,hori,left,"[99999,99999]","[106,-106]",left,1,0.7904,,,,,,001,2025-03-10_21h17.46.836,SL_sali_41,2021.2.3,Win32,99.92006395,,,88,0,88,0,1,,,,,,,,
,,"[""diamond"",""green"",""vert"",""up"",[106,-106],[-106,106]]",diamond,green,vert,up,"[106,-106]","[-106,106]",up,1,1.3503,,,,,,001,2025-03-10_21h17.46.836,SL_sali_41,2021.2.3,Win32,99.92006395,,,89,0,89,0,1,,,,,,,,
,,"[""circle"",""no_dis"",""hori"",""left"",[99999,99999],[-106,106]]",circle,no_dis,hori,left,"[99999,99999]","[-106,106]",left,1,1.2604,,,,,,001,2025-03-10_21h17.46.836,SL_sali_41,2021.2.3,Win32,99.92006395,,,90,0,90,0,1,,,,,,,,
,,"[""circle"",""red"",""vert"",""up"",[106,-106],[-106,106]]",circle,red,vert,up,"[106,-106]","[-106,106]",left,0,1.3401,,,,,,001,2025-03-10_21h17.46.836,SL_sali_41,2021.2.3,Win32,99.92006395,,,91,0,91,0,1,,,,,,,,
,,"[""circle"",""no_dis"",""vert"",""up"",[99999,99999],[-150,0]]",circle,no_dis,vert,up,"[99999,99999]","[-150,0]",up,1,1.9603,,,,,,001,2025-03-10_21h17.46.836,SL_sali_41,2021.2.3,Win32,99.92006395,,,92,0,92,0,1,,,,,,,,
,,"[""circle"",""red"",""vert"",""up"",[106,-106],[0,-150]]",circle,red,vert,up,"[106,-106]","[0,-150]",up,1,2.8604,,,,,,001,2025-03-10_21h17.46.836,SL_sali_41,2021.2.3,Win32,99.92006395,,,93,0,93,0,1,,,,,,,,
,,"[""diamond"",""red"",""vert"",""up"",[-106,106],[-150,0]]",diamond,red,vert,up,"[-106,106]","[-150,0]",up,1,1.2405,,,,,,001,2025-03-10_21h17.46.836,SL_sali_41,2021.2.3,Win32,99.92006395,,,94,0,94,0,1,,,,,,,,
,,"[""diamond"",""red"",""hori"",""left"",[0,-150],[-150,0]]",diamond,red,hori,left,"[0,-150]","[-150,0]",left,1,1.0607,,,,,,001,2025-03-10_21h17.46.836,SL_sali_41,2021.2.3,Win32,99.92006395,,,95,0,95,0,1,,,,,,,,
,,"[""circle"",""no_dis"",""hori"",""left"",[99999,99999],[0,-150]]",circle,no_dis,hori,left,"[99999,99999]","[0,-150]",left,1,0.9005,,,,,,001,2025-03-10_21h17.46.836,SL_sali_41,2021.2.3,Win32,99.92006395,,,96,0,96,0,1,,,,,,,,
,,"[""diamond"",""green"",""hori"",""left"",[106,-106],[-106,-106]]",diamond,green,hori,left,"[106,-106]","[-106,-106]",left,1,1.0307,,,,,,001,2025-03-10_21h17.46.836,SL_sali_41,2021.2.3,Win32,99.92006395,,,97,0,97,0,1,,,,,,,,
,,"[""circle"",""green"",""hori"",""left"",[106,-106],[150,0]]",circle,green,hori,left,"[106,-106]","[150,0]",left,1,1.0812,,,,,,001,2025-03-10_21h17.46.836,SL_sali_41,2021.2.3,Win32,99.92006395,,,98,0,98,0,1,,,,,,,,
,,"[""circle"",""red"",""hori"",""left"",[106,-106],[150,0]]",circle,red,hori,left,"[106,-106]","[150,0]",left,1,1.0499,,,,,,001,2025-03-10_21h17.46.836,SL_sali_41,2021.2.3,Win32,99.92006395,,,99,0,99,0,1,,,,,,,,
,,"[""diamond"",""red"",""vert"",""up"",[150,0],[-150,0]]",diamond,red,vert,up,"[150,0]","[-150,0]",up,1,1.2104,,,,,,001,2025-03-10_21h17.46.836,SL_sali_41,2021.2.3,Win32,99.92006395,,,100,0,100,0,1,,,,,,,,
,,"[""diamond"",""no_dis"",""hori"",""left"",[99999,99999],[-106,106]]",diamond,no_dis,hori,left,"[99999,99999]","[-106,106]",left,1,1.3201,,,,,,001,2025-03-10_21h17.46.836,SL_sali_41,2021.2.3,Win32,99.92006395,,,101,0,101,0,1,,,,,,,,
,,"[""circle"",""green"",""hori"",""left"",[0,150],[-106,106]]",circle,green,hori,left,"[0,150]","[-106,106]",left,1,1.6011,,,,,,001,2025-03-10_21h17.46.836,SL_sali_41,2021.2.3,Win32,99.92006395,,,102,0,102,0,1,,,,,,,,
,,"[""diamond"",""no_dis"",""hori"",""left"",[99999,99999],[150,0]]",diamond,no_dis,hori,left,"[99999,99999]","[150,0]",left,1,0.9104,,,,,,001,2025-03-10_21h17.46.836,SL_sali_41,2021.2.3,Win32,99.92006395,,,103,0,103,0,1,,,,,,,,
,,"[""diamond"",""red"",""hori"",""left"",[0,-150],[-150,0]]",diamond,red,hori,left,"[0,-150]","[-150,0]",left,1,1.1812,,,,,,001,2025-03-10_21h17.46.836,SL_sali_41,2021.2.3,Win32,99.92006395,,,104,0,104,0,1,,,,,,,,
,,"[""diamond"",""green"",""vert"",""up"",[0,-150],[-106,-106]]",diamond,green,vert,up,"[0,-150]","[-106,-106]",up,1,2.0509,,,,,,001,2025-03-10_21h17.46.836,SL_sali_41,2021.2.3,Win32,99.92006395,,,105,0,105,0,1,,,,,,,,
,,"[""circle"",""no_dis"",""vert"",""up"",[99999,99999],[-106,-106]]",circle,no_dis,vert,up,"[99999,99999]","[-106,-106]",up,1,1.241,,,,,,001,2025-03-10_21h17.46.836,SL_sali_41,2021.2.3,Win32,99.92006395,,,106,0,106,0,1,,,,,,,,
,,"[""diamond"",""green"",""hori"",""left"",[106,106],[150,0]]",diamond,green,hori,left,"[106,106]","[150,0]",left,1,1.4402,,,,,,001,2025-03-10_21h17.46.836,SL_sali_41,2021.2.3,Win32,99.92006395,,,107,0,107,0,1,,,,,,,,
,,"[""circle"",""red"",""vert"",""up"",[-106,106],[106,-106]]",circle,red,vert,up,"[-106,106]","[106,-106]",up,1,1.2805,,,,,,001,2025-03-10_21h17.46.836,SL_sali_41,2021.2.3,Win32,99.92006395,,,108,0,108,0,1,,,,,,,,
,,"[""diamond"",""green"",""vert"",""up"",[150,0],[106,106]]",diamond,green,vert,up,"[150,0]","[106,106]",up,1,1.5798,,,,,,001,2025-03-10_21h17.46.836,SL_sali_41,2021.2.3,Win32,99.92006395,,,109,0,109,0,1,,,,,,,,
,,"[""circle"",""no_dis"",""hori"",""left"",[99999,99999],[106,106]]",circle,no_dis,hori,left,"[99999,99999]","[106,106]",left,1,1.3205,,,,,,001,2025-03-10_21h17.46.836,SL_sali_41,2021.2.3,Win32,99.92006395,,,110,0,110,0,1,,,,,,,,
,,"[""circle"",""green"",""hori"",""left"",[106,-106],[-106,106]]",circle,green,hori,left,"[106,-106]","[-106,106]",left,1,1.5798,,,,,,001,2025-03-10_21h17.46.836,SL_sali_41,2021.2.3,Win32,99.92006395,,,111,0,111,0,1,,,,,,,,
,,"[""circle"",""red"",""vert"",""up"",[150,0],[106,106]]",circle,red,vert,up,"[150,0]","[106,106]",up,1,1.5806,,,,,,001,2025-03-10_21h17.46.836,SL_sali_41,2021.2.3,Win32,99.92006395,,,112,0,112,0,1,,,,,,,,
,,"[""diamond"",""no_dis"",""vert"",""up"",[99999,99999],[0,-150]]",diamond,no_dis,vert,up,"[99999,99999]","[0,-150]",up,1,0.9603,,,,,,001,2025-03-10_21h17.46.836,SL_sali_41,2021.2.3,Win32,99.92006395,,,113,0,113,0,1,,,,,,,,
,,"[""diamond"",""green"",""vert"",""up"",[0,-150],[150,0]]",diamond,green,vert,up,"[0,-150]","[150,0]",up,1,0.8909,,,,,,001,2025-03-10_21h17.46.836,SL_sali_41,2021.2.3,Win32,99.92006395,,,114,0,114,0,1,,,,,,,,
,,"[""diamond"",""no_dis"",""vert"",""up"",[99999,99999],[0,-150]]",diamond,no_dis,vert,up,"[99999,99999]","[0,-150]",up,1,0.9507,,,,,,001,2025-03-10_21h17.46.836,SL_sali_41,2021.2.3,Win32,99.92006395,,,115,0,115,0,1,,,,,,,,
,,"[""diamond"",""no_dis"",""vert"",""up"",[99999,99999],[106,-106]]",diamond,no_dis,vert,up,"[99999,99999]","[106,-106]",up,1,0.9302,,,,,,001,2025-03-10_21h17.46.836,SL_sali_41,2021.2.3,Win32,99.92006395,,,116,0,116,0,1,,,,,,,,
,,"[""circle"",""red"",""vert"",""up"",[0,-150],[150,0]]",circle,red,vert,up,"[0,-150]","[150,0]",up,1,0.9906,,,,,,001,2025-03-10_21h17.46.836,SL_sali_41,2021.2.3,Win32,99.92006395,,,117,0,117,0,1,,,,,,,,
,,"[""diamond"",""green"",""vert"",""up"",[150,0],[106,106]]",diamond,green,vert,up,"[150,0]","[106,106]",up,1,0.8608,,,,,,001,2025-03-10_21h17.46.836,SL_sali_41,2021.2.3,Win32,99.92006395,,,118,0,118,0,1,,,,,,,,
,,"[""circle"",""green"",""hori"",""left"",[0,-150],[150,0]]",circle,green,hori,left,"[0,-150]","[150,0]",left,1,1.5608,,,,,,001,2025-03-10_21h17.46.836,SL_sali_41,2021.2.3,Win32,99.92006395,,,119,0,119,0,1,,,,,,,,
,,"[""diamond"",""green"",""vert"",""up"",[-150,0],[0,-150]]",diamond,green,vert,up,"[-150,0]","[0,-150]",up,1,1.2708,,,,,,001,2025-03-10_21h17.46.836,SL_sali_41,2021.2.3,Win32,99.92006395,,,120,0,120,0,1,,,,,,,,
,,"[""diamond"",""red"",""vert"",""up"",[106,-106],[150,0]]",diamond,red,vert,up,"[106,-106]","[150,0]",up,1,1.1804,,,,,,001,2025-03-10_21h17.46.836,SL_sali_41,2021.2.3,Win32,99.92006395,,,121,0,121,0,1,,,,,,,,
,,"[""circle"",""red"",""vert"",""up"",[-150,0],[0,150]]",circle,red,vert,up,"[-150,0]","[0,150]",up,1,1.4496,,,,,,001,2025-03-10_21h17.46.836,SL_sali_41,2021.2.3,Win32,99.92006395,,,122,0,122,0,1,,,,,,,,
,,"[""circle"",""no_dis"",""vert"",""up"",[99999,99999],[106,-106]]",circle,no_dis,vert,up,"[99999,99999]","[106,-106]",left,0,1.5602,,,,,,001,2025-03-10_21h17.46.836,SL_sali_41,2021.2.3,Win32,99.92006395,,,123,0,123,0,1,,,,,,,,
,,"[""circle"",""no_dis"",""hori"",""left"",[99999,99999],[0,-150]]",circle,no_dis,hori,left,"[99999,99999]","[0,-150]",left,1,1.0899,,,,,,001,2025-03-10_21h17.46.836,SL_sali_41,2021.2.3,Win32,99.92006395,,,124,0,124,0,1,,,,,,,,
,,"[""diamond"",""no_dis"",""hori"",""left"",[99999,99999],[-106,106]]",diamond,no_dis,hori,left,"[99999,99999]","[-106,106]",left,1,2.1505,,,,,,001,2025-03-10_21h17.46.836,SL_sali_41,2021.2.3,Win32,99.92006395,,,125,0,125,0,1,,,,,,,,
,,"[""diamond"",""no_dis"",""vert"",""up"",[99999,99999],[-106,-106]]",diamond,no_dis,vert,up,"[99999,99999]","[-106,-106]",up,1,0.8605,,,,,,001,2025-03-10_21h17.46.836,SL_sali_41,2021.2.3,Win32,99.92006395,,,126,0,126,0,1,,,,,,,,
,,"[""circle"",""red"",""hori"",""left"",[106,-106],[150,0]]",circle,red,hori,left,"[106,-106]","[150,0]",left,1,2.2906,,,,,,001,2025-03-10_21h17.46.836,SL_sali_41,2021.2.3,Win32,99.92006395,,,127,0,127,0,1,,,,,,,,
,,,,,,,,,,,,,,,,,001,2025-03-10_21h17.46.836,SL_sali_41,2021.2.3,Win32,99.92006395,,,,,,,,1,space,37.7205,0,0,0,0,1
,,"[""circle"",""green"",""vert"",""up"",[150,0],[0,150]]",circle,green,vert,up,"[150,0]","[0,150]",left,0,1.6824,,,,,,001,2025-03-10_21h17.46.836,SL_sali_41,2021.2.3,Win32,99.92006395,,,0,0,0,0,1,,,,,,,,
,,"[""circle"",""green"",""vert"",""up"",[-106,106],[150,0]]",circle,green,vert,up,"[-106,106]","[150,0]",up,1,1.463,,,,,,001,2025-03-10_21h17.46.836,SL_sali_41,2021.2.3,Win32,99.92006395,,,1,0,1,0,1,,,,,,,,
,,"[""circle"",""red"",""vert"",""up"",[0,-150],[150,0]]",circle,red,vert,up,"[0,-150]","[150,0]",up,1,1.3503,,,,,,001,2025-03-10_21h17.46.836,SL_sali_41,2021.2.3,Win32,99.92006395,,,2,0,2,0,1,,,,,,,,
,,"[""diamond"",""red"",""hori"",""left"",[0,-150],[-150,0]]",diamond,red,hori,left,"[0,-150]","[-150,0]",left,1,1.8333,,,,,,001,2025-03-10_21h17.46.836,SL_sali_41,2021.2.3,Win32,99.92006395,,,3,0,3,0,1,,,,,,,,
,,"[""diamond"",""no_dis"",""hori"",""left"",[99999,99999],[150,0]]",diamond,no_dis,hori,left,"[99999,99999]","[150,0]",left,1,0.735,,,,,,001,2025-03-10_21h17.46.836,SL_sali_41,2021.2.3,Win32,99.92006395,,,4,0,4,0,1,,,,,,,,
,,"[""diamond"",""red"",""vert"",""up"",[-106,106],[-150,0]]",diamond,red,vert,up,"[-106,106]","[-150,0]",up,1,1.2294,,,,,,001,2025-03-10_21h17.46.836,SL_sali_41,2021.2.3,Win32,99.92006395,,,5,0,5,0,1,,,,,,,,
,,"[""diamond"",""green"",""hori"",""left"",[106,-106],[150,0]]",diamond,green,hori,left,"[106,-106]","[150,0]",left,1,0.8299,,,,,,001,2025-03-10_21h17.46.836,SL_sali_41,2021.2.3,Win32,99.92006395,,,6,0,6,0,1,,,,,,,,
,,"[""diamond"",""green"",""vert"",""up"",[106,-106],[-106,106]]",diamond,green,vert,up,"[106,-106]","[-106,106]",up,1,1.5402,,,,,,001,2025-03-10_21h17.46.836,SL_sali_41,2021.2.3,Win32,99.92006395,,,7,0,7,0,1,,,,,,,,
,,"[""circle"",""no_dis"",""vert"",""up"",[99999,99999],[-150,0]]",circle,no_dis,vert,up,"[99999,99999]","[-150,0]",up,1,1.6092,,,,,,001,2025-03-10_21h17.46.836,SL_sali_41,2021.2.3,Win32,99.92006395,,,8,0,8,0,1,,,,,,,,
,,"[""circle"",""no_dis"",""hori"",""left"",[99999,99999],[-150,0]]",circle,no_dis,hori,left,"[99999,99999]","[-150,0]",left,1,1.5528,,,,,,001,2025-03-10_21h17.46.836,SL_sali_41,2021.2.3,Win32,99.92006395,,,9,0,9,0,1,,,,,,,,
,,"[""diamond"",""green"",""hori"",""left"",[106,-106],[-106,-106]]",diamond,green,hori,left,"[106,-106]","[-106,-106]",left,1,1.7408,,,,,,001,2025-03-10_21h17.46.836,SL_sali_41,2021.2.3,Win32,99.92006395,,,10,0,10,0,1,,,,,,,,
,,"[""circle"",""red"",""vert"",""up"",[106,-106],[-150,0]]",circle,red,vert,up,"[106,-106]","[-150,0]",up,1,1.9223,,,,,,001,2025-03-10_21h17.46.836,SL_sali_41,2021.2.3,Win32,99.92006395,,,11,0,11,0,1,,,,,,,,
,,"[""diamond"",""red"",""hori"",""left"",[106,-106],[150,0]]",diamond,red,hori,left,"[106,-106]","[150,0]",left,1,1.6651,,,,,,001,2025-03-10_21h17.46.836,SL_sali_41,2021.2.3,Win32,99.92006395,,,12,0,12,0,1,,,,,,,,
,,"[""circle"",""green"",""vert"",""up"",[-106,-106],[106,106]]",circle,green,vert,up,"[-106,-106]","[106,106]",up,1,1.21,,,,,,001,2025-03-10_21h17.46.836,SL_sali_41,2021.2.3,Win32,99.92006395,,,13,0,13,0,1,,,,,,,,
,,"[""diamond"",""red"",""vert"",""up"",[0,150],[0,-150]]",diamond,red,vert,up,"[0,150]","[0,-150]",up,1,0.9605,,,,,,001,2025-03-10_21h17.46.836,SL_sali_41,2021.2.3,Win32,99.92006395,,,14,0,14,0,1,,,,,,,,
,,"[""diamond"",""red"",""hori"",""left"",[106,-106],[0,150]]",diamond,red,hori,left,"[106,-106]","[0,150]",left,1,0.9905,,,,,,001,2025-03-10_21h17.46.836,SL_sali_41,2021.2.3,Win32,99.92006395,,,15,0,15,0,1,,,,,,,,
,,"[""diamond"",""green"",""hori"",""left"",[106,-106],[0,150]]",diamond,green,hori,left,"[106,-106]","[0,150]",left,1,1.2301,,,,,,001,2025-03-10_21h17.46.836,SL_sali_41,2021.2.3,Win32,99.92006395,,,16,0,16,0,1,,,,,,,,
,,"[""circle"",""no_dis"",""vert"",""up"",[99999,99999],[150,0]]",circle,no_dis,vert,up,"[99999,99999]","[150,0]",up,1,1.1555,,,,,,001,2025-03-10_21h17.46.836,SL_sali_41,2021.2.3,Win32,99.92006395,,,17,0,17,0,1,,,,,,,,
,,"[""circle"",""no_dis"",""hori"",""left"",[99999,99999],[0,-150]]",circle,no_dis,hori,left,"[99999,99999]","[0,-150]",left,1,1.2313,,,,,,001,2025-03-10_21h17.46.836,SL_sali_41,2021.2.3,Win32,99.92006395,,,18,0,18,0,1,,,,,,,,
,,"[""circle"",""green"",""vert"",""up"",[-106,-106],[-106,106]]",circle,green,vert,up,"[-106,-106]","[-106,106]",up,1,2.8748,,,,,,001,2025-03-10_21h17.46.836,SL_sali_41,2021.2.3,Win32,99.92006395,,,19,0,19,0,1,,,,,,,,
,,"[""circle"",""green"",""hori"",""left"",[106,-106],[150,0]]",circle,green,hori,left,"[106,-106]","[150,0]",,0,,,,,,,001,2025-03-10_21h17.46.836,SL_sali_41,2021.2.3,Win32,99.92006395,,,20,0,20,0,1,,,,,,,,
,,"[""circle"",""green"",""hori"",""left"",[0,-150],[150,0]]",circle,green,hori,left,"[0,-150]","[150,0]",left,1,0.7803,,,,,,001,2025-03-10_21h17.46.836,SL_sali_41,2021.2.3,Win32,99.92006395,,,21,0,21,0,1,,,,,,,,
,,"[""circle"",""green"",""hori"",""left"",[106,-106],[0,-150]]",circle,green,hori,left,"[106,-106]","[0,-150]",left,1,1.0629,,,,,,001,2025-03-10_21h17.46.836,SL_sali_41,2021.2.3,Win32,99.92006395,,,22,0,22,0,1,,,,,,,,
,,"[""diamond"",""green"",""hori"",""left"",[-106,106],[150,0]]",diamond,green,hori,left,"[-106,106]","[150,0]",,0,,,,,,,001,2025-03-10_21h17.46.836,SL_sali_41,2021.2.3,Win32,99.92006395,,,23,0,23,0,1,,,,,,,,
,,"[""diamond"",""green"",""vert"",""up"",[0,-150],[-106,-106]]",diamond,green,vert,up,"[0,-150]","[-106,-106]",up,1,1.3503,,,,,,001,2025-03-10_21h17.46.836,SL_sali_41,2021.2.3,Win32,99.92006395,,,24,0,24,0,1,,,,,,,,
,,"[""diamond"",""no_dis"",""vert"",""up"",[99999,99999],[-106,106]]",diamond,no_dis,vert,up,"[99999,99999]","[-106,106]",up,1,0.7704,,,,,,001,2025-03-10_21h17.46.836,SL_sali_41,2021.2.3,Win32,99.92006395,,,25,0,25,0,1,,,,,,,,
,,"[""diamond"",""green"",""vert"",""up"",[-150,0],[0,-150]]",diamond,green,vert,up,"[-150,0]","[0,-150]",up,1,1.069,,,,,,001,2025-03-10_21h17.46.836,SL_sali_41,2021.2.3,Win32,99.92006395,,,26,0,26,0,1,,,,,,,,
,,"[""circle"",""green"",""vert"",""up"",[150,0],[106,-106]]",circle,green,vert,up,"[150,0]","[106,-106]",up,1,1.5686,,,,,,001,2025-03-10_21h17.46.836,SL_sali_41,2021.2.3,Win32,99.92006395,,,27,0,27,0,1,,,,,,,,
,,"[""diamond"",""red"",""hori"",""left"",[106,-106],[-106,-106]]",diamond,red,hori,left,"[106,-106]","[-106,-106]",left,1,1.7505,,,,,,001,2025-03-10_21h17.46.836,SL_sali_41,2021.2.3,Win32,99.92006395,,,28,0,28,0,1,,,,,,,,
,,"[""diamond"",""green"",""hori"",""left"",[0,150],[106,106]]",diamond,green,hori,left,"[0,150]","[106,106]",left,1,0.9408,,,,,,001,2025-03-10_21h17.46.836,SL_sali_41,2021.2.3,Win32,99.92006395,,,29,0,29,0,1,,,,,,,,
,,"[""diamond"",""red"",""hori"",""left"",[106,106],[150,0]]",diamond,red,hori,left,"[106,106]","[150,0]",left,1,1.931,,,,,,001,2025-03-10_21h17.46.836,SL_sali_41,2021.2.3,Win32,99.92006395,,,30,0,30,0,1,,,,,,,,
,,"[""diamond"",""green"",""hori"",""left"",[0,150],[-106,-106]]",diamond,green,hori,left,"[0,150]","[-106,-106]",left,1,0.9924,,,,,,001,2025-03-10_21h17.46.836,SL_sali_41,2021.2.3,Win32,99.92006395,,,31,0,31,0,1,,,,,,,,
,,"[""diamond"",""green"",""vert"",""up"",[-106,-106],[106,-106]]",diamond,green,vert,up,"[-106,-106]","[106,-106]",up,1,0.9227,,,,,,001,2025-03-10_21h17.46.836,SL_sali_41,2021.2.3,Win32,99.92006395,,,32,0,32,0,1,,,,,,,,
,,"[""circle"",""red"",""hori"",""left"",[106,-106],[-106,106]]",circle,red,hori,left,"[106,-106]","[-106,106]",left,1,1.4509,,,,,,001,2025-03-10_21h17.46.836,SL_sali_41,2021.2.3,Win32,99.92006395,,,33,0,33,0,1,,,,,,,,
,,"[""diamond"",""no_dis"",""vert"",""up"",[99999,99999],[106,106]]",diamond,no_dis,vert,up,"[99999,99999]","[106,106]",up,1,0.8111,,,,,,001,2025-03-10_21h17.46.836,SL_sali_41,2021.2.3,Win32,99.92006395,,,34,0,34,0,1,,,,,,,,
,,"[""circle"",""red"",""vert"",""up"",[106,-106],[-150,0]]",circle,red,vert,up,"[106,-106]","[-150,0]",up,1,1.365,,,,,,001,2025-03-10_21h17.46.836,SL_sali_41,2021.2.3,Win32,99.92006395,,,35,0,35,0,1,,,,,,,,
,,"[""diamond"",""red"",""vert"",""up"",[-106,106],[106,-106]]",diamond,red,vert,up,"[-106,106]","[106,-106]",up,1,1.073,,,,,,001,2025-03-10_21h17.46.836,SL_sali_41,2021.2.3,Win32,99.92006395,,,36,0,36,0,1,,,,,,,,
,,"[""circle"",""green"",""vert"",""up"",[-106,-106],[-150,0]]",circle,green,vert,up,"[-106,-106]","[-150,0]",up,1,1.3639,,,,,,001,2025-03-10_21h17.46.836,SL_sali_41,2021.2.3,Win32,99.92006395,,,37,0,37,0,1,,,,,,,,
,,"[""diamond"",""no_dis"",""hori"",""left"",[99999,99999],[0,150]]",diamond,no_dis,hori,left,"[99999,99999]","[0,150]",left,1,1.8302,,,,,,001,2025-03-10_21h17.46.836,SL_sali_41,2021.2.3,Win32,99.92006395,,,38,0,38,0,1,,,,,,,,
,,"[""diamond"",""green"",""hori"",""left"",[106,-106],[-106,-106]]",diamond,green,hori,left,"[106,-106]","[-106,-106]",left,1,0.7709,,,,,,001,2025-03-10_21h17.46.836,SL_sali_41,2021.2.3,Win32,99.92006395,,,39,0,39,0,1,,,,,,,,
,,"[""circle"",""red"",""vert"",""up"",[106,106],[150,0]]",circle,red,vert,up,"[106,106]","[150,0]",up,1,1.1694,,,,,,001,2025-03-10_21h17.46.836,SL_sali_41,2021.2.3,Win32,99.92006395,,,40,0,40,0,1,,,,,,,,
,,"[""circle"",""red"",""vert"",""up"",[-106,106],[106,-106]]",circle,red,vert,up,"[-106,106]","[106,-106]",up,1,0.9951,,,,,,001,2025-03-10_21h17.46.836,SL_sali_41,2021.2.3,Win32,99.92006395,,,41,0,41,0,1,,,,,,,,
,,"[""circle"",""green"",""vert"",""up"",[-106,106],[-150,0]]",circle,green,vert,up,"[-106,106]","[-150,0]",up,1,0.881,,,,,,001,2025-03-10_21h17.46.836,SL_sali_41,2021.2.3,Win32,99.92006395,,,42,0,42,0,1,,,,,,,,
,,"[""circle"",""green"",""vert"",""up"",[-106,-106],[-150,0]]",circle,green,vert,up,"[-106,-106]","[-150,0]",up,1,0.8348,,,,,,001,2025-03-10_21h17.46.836,SL_sali_41,2021.2.3,Win32,99.92006395,,,43,0,43,0,1,,,,,,,,
,,"[""circle"",""red"",""hori"",""left"",[-150,0],[106,106]]",circle,red,hori,left,"[-150,0]","[106,106]",left,1,0.7498,,,,,,001,2025-03-10_21h17.46.836,SL_sali_41,2021.2.3,Win32,99.92006395,,,44,0,44,0,1,,,,,,,,
,,"[""diamond"",""green"",""vert"",""up"",[150,0],[106,106]]",diamond,green,vert,up,"[150,0]","[106,106]",up,1,1.0197,,,,,,001,2025-03-10_21h17.46.836,SL_sali_41,2021.2.3,Win32,99.92006395,,,45,0,45,0,1,,,,,,,,
,,"[""circle"",""red"",""vert"",""up"",[0,150],[150,0]]",circle,red,vert,up,"[0,150]","[150,0]",up,1,1.3303,,,,,,001,2025-03-10_21h17.46.836,SL_sali_41,2021.2.3,Win32,99.92006395,,,46,0,46,0,1,,,,,,,,
,,"[""circle"",""red"",""vert"",""up"",[106,-106],[-106,106]]",circle,red,vert,up,"[106,-106]","[-106,106]",up,1,0.7608,,,,,,001,2025-03-10_21h17.46.836,SL_sali_41,2021.2.3,Win32,99.92006395,,,47,0,47,0,1,,,,,,,,
,,"[""circle"",""green"",""vert"",""up"",[150,0],[-106,106]]",circle,green,vert,up,"[150,0]","[-106,106]",up,1,0.9021,,,,,,001,2025-03-10_21h17.46.836,SL_sali_41,2021.2.3,Win32,99.92006395,,,48,0,48,0,1,,,,,,,,
,,"[""diamond"",""no_dis"",""hori"",""left"",[99999,99999],[-106,-106]]",diamond,no_dis,hori,left,"[99999,99999]","[-106,-106]",left,1,1.8512,,,,,,001,2025-03-10_21h17.46.836,SL_sali_41,2021.2.3,Win32,99.92006395,,,49,0,49,0,1,,,,,,,,
,,"[""diamond"",""green"",""vert"",""up"",[150,0],[106,106]]",diamond,green,vert,up,"[150,0]","[106,106]",up,1,0.9603,,,,,,001,2025-03-10_21h17.46.836,SL_sali_41,2021.2.3,Win32,99.92006395,,,50,0,50,0,1,,,,,,,,
,,"[""circle"",""no_dis"",""vert"",""up"",[99999,99999],[106,-106]]",circle,no_dis,vert,up,"[99999,99999]","[106,-106]",up,1,1.1801,,,,,,001,2025-03-10_21h17.46.836,SL_sali_41,2021.2.3,Win32,99.92006395,,,51,0,51,0,1,,,,,,,,
,,"[""diamond"",""no_dis"",""hori"",""left"",[99999,99999],[106,106]]",diamond,no_dis,hori,left,"[99999,99999]","[106,106]",left,1,1.0892,,,,,,001,2025-03-10_21h17.46.836,SL_sali_41,2021.2.3,Win32,99.92006395,,,52,0,52,0,1,,,,,,,,
,,"[""circle"",""red"",""hori"",""left"",[106,-106],[150,0]]",circle,red,hori,left,"[106,-106]","[150,0]",left,1,1.1431,,,,,,001,2025-03-10_21h17.46.836,SL_sali_41,2021.2.3,Win32,99.92006395,,,53,0,53,0,1,,,,,,,,
,,"[""diamond"",""green"",""vert"",""up"",[106,106],[0,-150]]",diamond,green,vert,up,"[106,106]","[0,-150]",up,1,1.0407,,,,,,001,2025-03-10_21h17.46.836,SL_sali_41,2021.2.3,Win32,99.92006395,,,54,0,54,0,1,,,,,,,,
,,"[""circle"",""no_dis"",""hori"",""left"",[99999,99999],[-106,-106]]",circle,no_dis,hori,left,"[99999,99999]","[-106,-106]",left,1,1.4252,,,,,,001,2025-03-10_21h17.46.836,SL_sali_41,2021.2.3,Win32,99.92006395,,,55,0,55,0,1,,,,,,,,
,,"[""diamond"",""red"",""hori"",""left"",[0,-150],[-150,0]]",diamond,red,hori,left,"[0,-150]","[-150,0]",left,1,1.1653,,,,,,001,2025-03-10_21h17.46.836,SL_sali_41,2021.2.3,Win32,99.92006395,,,56,0,56,0,1,,,,,,,,
,,"[""circle"",""red"",""hori"",""left"",[-106,-106],[106,106]]",circle,red,hori,left,"[-106,-106]","[106,106]",left,1,0.7402,,,,,,001,2025-03-10_21h17.46.836,SL_sali_41,2021.2.3,Win32,99.92006395,,,57,0,57,0,1,,,,,,,,
,,"[""diamond"",""red"",""hori"",""left"",[106,106],[150,0]]",diamond,red,hori,left,"[106,106]","[150,0]",left,1,0.9894,,,,,,001,2025-03-10_21h17.46.836,SL_sali_41,2021.2.3,Win32,99.92006395,,,58,0,58,0,1,,,,,,,,
,,"[""circle"",""red"",""hori"",""left"",[0,-150],[-106,106]]",circle,red,hori,left,"[0,-150]","[-106,106]",left,1,0.9204,,,,,,001,2025-03-10_21h17.46.836,SL_sali_41,2021.2.3,Win32,99.92006395,,,59,0,59,0,1,,,,,,,,
,,"[""diamond"",""red"",""vert"",""up"",[-106,-106],[150,0]]",diamond,red,vert,up,"[-106,-106]","[150,0]",up,1,0.8608,,,,,,001,2025-03-10_21h17.46.836,SL_sali_41,2021.2.3,Win32,99.92006395,,,60,0,60,0,1,,,,,,,,
,,"[""circle"",""green"",""hori"",""left"",[106,-106],[-106,106]]",circle,green,hori,left,"[106,-106]","[-106,106]",left,1,0.9197,,,,,,001,2025-03-10_21h17.46.836,SL_sali_41,2021.2.3,Win32,99.92006395,,,61,0,61,0,1,,,,,,,,
,,"[""circle"",""no_dis"",""vert"",""up"",[99999,99999],[-150,0]]",circle,no_dis,vert,up,"[99999,99999]","[-150,0]",up,1,1.2404,,,,,,001,2025-03-10_21h17.46.836,SL_sali_41,2021.2.3,Win32,99.92006395,,,62,0,62,0,1,,,,,,,,
,,"[""circle"",""green"",""hori"",""left"",[0,150],[-106,106]]",circle,green,hori,left,"[0,150]","[-106,106]",left,1,0.8908,,,,,,001,2025-03-10_21h17.46.836,SL_sali_41,2021.2.3,Win32,99.92006395,,,63,0,63,0,1,,,,,,,,
,,"[""diamond"",""no_dis"",""vert"",""up"",[99999,99999],[-106,-106]]",diamond,no_dis,vert,up,"[99999,99999]","[-106,-106]",up,1,1.6306,,,,,,001,2025-03-10_21h17.46.836,SL_sali_41,2021.2.3,Win32,99.92006395,,,64,0,64,0,1,,,,,,,,
,,"[""diamond"",""no_dis"",""vert"",""up"",[99999,99999],[106,-106]]",diamond,no_dis,vert,up,"[99999,99999]","[106,-106]",up,1,0.8723,,,,,,001,2025-03-10_21h17.46.836,SL_sali_41,2021.2.3,Win32,99.92006395,,,65,0,65,0,1,,,,,,,,
,,"[""circle"",""no_dis"",""vert"",""up"",[99999,99999],[-106,-106]]",circle,no_dis,vert,up,"[99999,99999]","[-106,-106]",up,1,1.7494,,,,,,001,2025-03-10_21h17.46.836,SL_sali_41,2021.2.3,Win32,99.92006395,,,66,0,66,0,1,,,,,,,,
,,"[""diamond"",""red"",""vert"",""up"",[106,-106],[0,150]]",diamond,red,vert,up,"[106,-106]","[0,150]",up,1,1.1705,,,,,,001,2025-03-10_21h17.46.836,SL_sali_41,2021.2.3,Win32,99.92006395,,,67,0,67,0,1,,,,,,,,
,,"[""circle"",""no_dis"",""hori"",""left"",[99999,99999],[-106,106]]",circle,no_dis,hori,left,"[99999,99999]","[-106,106]",left,1,1.1732,,,,,,001,2025-03-10_21h17.46.836,SL_sali_41,2021.2.3,Win32,99.92006395,,,68,0,68,0,1,,,,,,,,
,,"[""circle"",""no_dis"",""hori"",""left"",[99999,99999],[150,0]]",circle,no_dis,hori,left,"[99999,99999]","[150,0]",left,1,0.6002,,,,,,001,2025-03-10_21h17.46.836,SL_sali_41,2021.2.3,Win32,99.92006395,,,69,0,69,0,1,,,,,,,,
,,"[""diamond"",""no_dis"",""hori"",""left"",[99999,99999],[-106,106]]",diamond,no_dis,hori,left,"[99999,99999]","[-106,106]",left,1,1.1705,,,,,,001,2025-03-10_21h17.46.836,SL_sali_41,2021.2.3,Win32,99.92006395,,,70,0,70,0,1,,,,,,,,
,,"[""diamond"",""green"",""vert"",""up"",[-106,106],[0,-150]]",diamond,green,vert,up,"[-106,106]","[0,-150]",up,1,1.2094,,,,,,001,2025-03-10_21h17.46.836,SL_sali_41,2021.2.3,Win32,99.92006395,,,71,0,71,0,1,,,,,,,,
,,"[""diamond"",""red"",""hori"",""left"",[150,0],[0,-150]]",diamond,red,hori,left,"[150,0]","[0,-150]",left,1,1.0751,,,,,,001,2025-03-10_21h17.46.836,SL_sali_41,2021.2.3,Win32,99.92006395,,,72,0,72,0,1,,,,,,,,
,,"[""diamond"",""no_dis"",""vert"",""up"",[99999,99999],[0,-150]]",diamond,no_dis,vert,up,"[99999,99999]","[0,-150]",up,1,1.0305,,,,,,001,2025-03-10_21h17.46.836,SL_sali_41,2021.2.3,Win32,99.92006395,,,73,0,73,0,1,,,,,,,,
,,"[""circle"",""no_dis"",""hori"",""left"",[99999,99999],[0,150]]",circle,no_dis,hori,left,"[99999,99999]","[0,150]",left,1,1.0505,,,,,,001,2025-03-10_21h17.46.836,SL_sali_41,2021.2.3,Win32,99.92006395,,,74,0,74,0,1,,,,,,,,
,,"[""circle"",""red"",""vert"",""up"",[150,0],[106,106]]",circle,red,vert,up,"[150,0]","[106,106]",up,1,1.2306,,,,,,001,2025-03-10_21h17.46.836,SL_sali_41,2021.2.3,Win32,99.92006395,,,75,0,75,0,1,,,,,,,,
,,"[""circle"",""green"",""vert"",""up"",[106,106],[-106,106]]",circle,green,vert,up,"[106,106]","[-106,106]",up,1,2.1246,,,,,,001,2025-03-10_21h17.46.836,SL_sali_41,2021.2.3,Win32,99.92006395,,,76,0,76,0,1,,,,,,,,
,,"[""circle"",""green"",""vert"",""up"",[106,-106],[0,-150]]",circle,green,vert,up,"[106,-106]","[0,-150]",up,1,0.8003,,,,,,001,2025-03-10_21h17.46.836,SL_sali_41,2021.2.3,Win32,99.92006395,,,77,0,77,0,1,,,,,,,,
,,"[""diamond"",""green"",""hori"",""left"",[0,150],[-106,-106]]",diamond,green,hori,left,"[0,150]","[-106,-106]",left,1,0.9094,,,,,,001,2025-03-10_21h17.46.836,SL_sali_41,2021.2.3,Win32,99.92006395,,,78,0,78,0,1,,,,,,,,
,,"[""circle"",""green"",""hori"",""left"",[106,-106],[-106,-106]]",circle,green,hori,left,"[106,-106]","[-106,-106]",left,1,0.8103,,,,,,001,2025-03-10_21h17.46.836,SL_sali_41,2021.2.3,Win32,99.92006395,,,79,0,79,0,1,,,,,,,,
,,"[""circle"",""no_dis"",""hori"",""left"",[99999,99999],[106,-106]]",circle,no_dis,hori,left,"[99999,99999]","[106,-106]",left,1,0.801,,,,,,001,2025-03-10_21h17.46.836,SL_sali_41,2021.2.3,Win32,99.92006395,,,80,0,80,0,1,,,,,,,,
,,"[""diamond"",""no_dis"",""vert"",""up"",[99999,99999],[-150,0]]",diamond,no_dis,vert,up,"[99999,99999]","[-150,0]",up,1,1.0108,,,,,,001,2025-03-10_21h17.46.836,SL_sali_41,2021.2.3,Win32,99.92006395,,,81,0,81,0,1,,,,,,,,
,,"[""diamond"",""no_dis"",""vert"",""up"",[99999,99999],[0,-150]]",diamond,no_dis,vert,up,"[99999,99999]","[0,-150]",up,1,0.9306,,,,,,001,2025-03-10_21h17.46.836,SL_sali_41,2021.2.3,Win32,99.92006395,,,82,0,82,0,1,,,,,,,,
,,"[""diamond"",""red"",""vert"",""up"",[106,106],[0,150]]",diamond,red,vert,up,"[106,106]","[0,150]",up,1,0.7728,,,,,,001,2025-03-10_21h17.46.836,SL_sali_41,2021.2.3,Win32,99.92006395,,,83,0,83,0,1,,,,,,,,
,,"[""circle"",""no_dis"",""hori"",""left"",[99999,99999],[150,0]]",circle,no_dis,hori,left,"[99999,99999]","[150,0]",left,1,0.8625,,,,,,001,2025-03-10_21h17.46.836,SL_sali_41,2021.2.3,Win32,99.92006395,,,84,0,84,0,1,,,,,,,,
,,"[""diamond"",""red"",""hori"",""left"",[-150,0],[0,150]]",diamond,red,hori,left,"[-150,0]","[0,150]",left,1,1.0136,,,,,,001,2025-03-10_21h17.46.836,SL_sali_41,2021.2.3,Win32,99.92006395,,,85,0,85,0,1,,,,,,,,
,,"[""diamond"",""red"",""hori"",""left"",[106,-106],[-106,-106]]",diamond,red,hori,left,"[106,-106]","[-106,-106]",left,1,0.9212,,,,,,001,2025-03-10_21h17.46.836,SL_sali_41,2021.2.3,Win32,99.92006395,,,86,0,86,0,1,,,,,,,,
,,"[""diamond"",""red"",""vert"",""up"",[0,150],[-106,106]]",diamond,red,vert,up,"[0,150]","[-106,106]",up,1,1.1004,,,,,,001,2025-03-10_21h17.46.836,SL_sali_41,2021.2.3,Win32,99.92006395,,,87,0,87,0,1,,,,,,,,
,,"[""circle"",""green"",""hori"",""left"",[-150,0],[106,-106]]",circle,green,hori,left,"[-150,0]","[106,-106]",left,1,1.2403,,,,,,001,2025-03-10_21h17.46.836,SL_sali_41,2021.2.3,Win32,99.92006395,,,88,0,88,0,1,,,,,,,,
,,"[""circle"",""no_dis"",""vert"",""up"",[99999,99999],[106,106]]",circle,no_dis,vert,up,"[99999,99999]","[106,106]",up,1,0.9399,,,,,,001,2025-03-10_21h17.46.836,SL_sali_41,2021.2.3,Win32,99.92006395,,,89,0,89,0,1,,,,,,,,
,,"[""diamond"",""green"",""hori"",""left"",[106,-106],[106,106]]",diamond,green,hori,left,"[106,-106]","[106,106]",left,1,0.821,,,,,,001,2025-03-10_21h17.46.836,SL_sali_41,2021.2.3,Win32,99.92006395,,,90,0,90,0,1,,,,,,,,
,,"[""diamond"",""no_dis"",""vert"",""up"",[99999,99999],[0,-150]]",diamond,no_dis,vert,up,"[99999,99999]","[0,-150]",up,1,1.1591,,,,,,001,2025-03-10_21h17.46.836,SL_sali_41,2021.2.3,Win32,99.92006395,,,91,0,91,0,1,,,,,,,,
,,"[""circle"",""no_dis"",""vert"",""up"",[99999,99999],[106,106]]",circle,no_dis,vert,up,"[99999,99999]","[106,106]",up,1,1.0606,,,,,,001,2025-03-10_21h17.46.836,SL_sali_41,2021.2.3,Win32,99.92006395,,,92,0,92,0,1,,,,,,,,
,,"[""circle"",""no_dis"",""vert"",""up"",[99999,99999],[-106,-106]]",circle,no_dis,vert,up,"[99999,99999]","[-106,-106]",up,1,0.7024,,,,,,001,2025-03-10_21h17.46.836,SL_sali_41,2021.2.3,Win32,99.92006395,,,93,0,93,0,1,,,,,,,,
,,"[""diamond"",""no_dis"",""hori"",""left"",[99999,99999],[150,0]]",diamond,no_dis,hori,left,"[99999,99999]","[150,0]",left,1,0.9704,,,,,,001,2025-03-10_21h17.46.836,SL_sali_41,2021.2.3,Win32,99.92006395,,,94,0,94,0,1,,,,,,,,
,,"[""diamond"",""no_dis"",""hori"",""left"",[99999,99999],[0,150]]",diamond,no_dis,hori,left,"[99999,99999]","[0,150]",left,1,0.6315,,,,,,001,2025-03-10_21h17.46.836,SL_sali_41,2021.2.3,Win32,99.92006395,,,95,0,95,0,1,,,,,,,,
,,"[""circle"",""red"",""vert"",""up"",[106,-106],[0,-150]]",circle,red,vert,up,"[106,-106]","[0,-150]",up,1,1.1811,,,,,,001,2025-03-10_21h17.46.836,SL_sali_41,2021.2.3,Win32,99.92006395,,,96,0,96,0,1,,,,,,,,
,,"[""circle"",""red"",""hori"",""left"",[106,-106],[150,0]]",circle,red,hori,left,"[106,-106]","[150,0]",left,1,0.6205,,,,,,001,2025-03-10_21h17.46.836,SL_sali_41,2021.2.3,Win32,99.92006395,,,97,0,97,0,1,,,,,,,,
,,"[""diamond"",""no_dis"",""hori"",""left"",[99999,99999],[-150,0]]",diamond,no_dis,hori,left,"[99999,99999]","[-150,0]",left,1,0.7812,,,,,,001,2025-03-10_21h17.46.836,SL_sali_41,2021.2.3,Win32,99.92006395,,,98,0,98,0,1,,,,,,,,
,,"[""diamond"",""no_dis"",""vert"",""up"",[99999,99999],[0,150]]",diamond,no_dis,vert,up,"[99999,99999]","[0,150]",up,1,0.7607,,,,,,001,2025-03-10_21h17.46.836,SL_sali_41,2021.2.3,Win32,99.92006395,,,99,0,99,0,1,,,,,,,,
,,"[""diamond"",""red"",""vert"",""up"",[106,-106],[0,-150]]",diamond,red,vert,up,"[106,-106]","[0,-150]",up,1,0.9209,,,,,,001,2025-03-10_21h17.46.836,SL_sali_41,2021.2.3,Win32,99.92006395,,,100,0,100,0,1,,,,,,,,
,,"[""circle"",""red"",""hori"",""left"",[-106,-106],[-106,106]]",circle,red,hori,left,"[-106,-106]","[-106,106]",left,1,1.2203,,,,,,001,2025-03-10_21h17.46.836,SL_sali_41,2021.2.3,Win32,99.92006395,,,101,0,101,0,1,,,,,,,,
,,"[""circle"",""green"",""hori"",""left"",[106,-106],[0,150]]",circle,green,hori,left,"[106,-106]","[0,150]",left,1,0.7632,,,,,,001,2025-03-10_21h17.46.836,SL_sali_41,2021.2.3,Win32,99.92006395,,,102,0,102,0,1,,,,,,,,
,,"[""diamond"",""red"",""hori"",""left"",[0,150],[0,-150]]",diamond,red,hori,left,"[0,150]","[0,-150]",left,1,0.9703,,,,,,001,2025-03-10_21h17.46.836,SL_sali_41,2021.2.3,Win32,99.92006395,,,103,0,103,0,1,,,,,,,,
,,"[""diamond"",""red"",""vert"",""up"",[-150,0],[-106,-106]]",diamond,red,vert,up,"[-150,0]","[-106,-106]",up,1,0.9811,,,,,,001,2025-03-10_21h17.46.836,SL_sali_41,2021.2.3,Win32,99.92006395,,,104,0,104,0,1,,,,,,,,
,,"[""circle"",""green"",""hori"",""left"",[106,106],[-106,106]]",circle,green,hori,left,"[106,106]","[-106,106]",left,1,0.9523,,,,,,001,2025-03-10_21h17.46.836,SL_sali_41,2021.2.3,Win32,99.92006395,,,105,0,105,0,1,,,,,,,,
,,"[""diamond"",""no_dis"",""vert"",""up"",[99999,99999],[106,-106]]",diamond,no_dis,vert,up,"[99999,99999]","[106,-106]",up,1,1.0031,,,,,,001,2025-03-10_21h17.46.836,SL_sali_41,2021.2.3,Win32,99.92006395,,,106,0,106,0,1,,,,,,,,
,,"[""diamond"",""green"",""vert"",""up"",[106,-106],[0,-150]]",diamond,green,vert,up,"[106,-106]","[0,-150]",up,1,1.3828,,,,,,001,2025-03-10_21h17.46.836,SL_sali_41,2021.2.3,Win32,99.92006395,,,107,0,107,0,1,,,,,,,,
,,"[""circle"",""red"",""hori"",""left"",[-150,0],[106,106]]",circle,red,hori,left,"[-150,0]","[106,106]",left,1,0.7905,,,,,,001,2025-03-10_21h17.46.836,SL_sali_41,2021.2.3,Win32,99.92006395,,,108,0,108,0,1,,,,,,,,
,,"[""diamond"",""green"",""vert"",""up"",[0,-150],[106,-106]]",diamond,green,vert,up,"[0,-150]","[106,-106]",up,1,0.9733,,,,,,001,2025-03-10_21h17.46.836,SL_sali_41,2021.2.3,Win32,99.92006395,,,109,0,109,0,1,,,,,,,,
,,"[""diamond"",""green"",""vert"",""up"",[0,-150],[150,0]]",diamond,green,vert,up,"[0,-150]","[150,0]",up,1,0.8203,,,,,,001,2025-03-10_21h17.46.836,SL_sali_41,2021.2.3,Win32,99.92006395,,,110,0,110,0,1,,,,,,,,
,,"[""diamond"",""no_dis"",""hori"",""left"",[99999,99999],[-106,106]]",diamond,no_dis,hori,left,"[99999,99999]","[-106,106]",left,1,0.7502,,,,,,001,2025-03-10_21h17.46.836,SL_sali_41,2021.2.3,Win32,99.92006395,,,111,0,111,0,1,,,,,,,,
,,"[""circle"",""green"",""hori"",""left"",[-106,106],[0,-150]]",circle,green,hori,left,"[-106,106]","[0,-150]",left,1,1.1056,,,,,,001,2025-03-10_21h17.46.836,SL_sali_41,2021.2.3,Win32,99.92006395,,,112,0,112,0,1,,,,,,,,
,,"[""diamond"",""red"",""vert"",""up"",[150,0],[-150,0]]",diamond,red,vert,up,"[150,0]","[-150,0]",up,1,1.4105,,,,,,001,2025-03-10_21h17.46.836,SL_sali_41,2021.2.3,Win32,99.92006395,,,113,0,113,0,1,,,,,,,,
,,"[""circle"",""red"",""hori"",""left"",[-150,0],[0,-150]]",circle,red,hori,left,"[-150,0]","[0,-150]",left,1,0.8595,,,,,,001,2025-03-10_21h17.46.836,SL_sali_41,2021.2.3,Win32,99.92006395,,,114,0,114,0,1,,,,,,,,
,,"[""circle"",""no_dis"",""hori"",""left"",[99999,99999],[106,106]]",circle,no_dis,hori,left,"[99999,99999]","[106,106]",left,1,0.7404,,,,,,001,2025-03-10_21h17.46.836,SL_sali_41,2021.2.3,Win32,99.92006395,,,115,0,115,0,1,,,,,,,,
,,"[""circle"",""red"",""vert"",""up"",[106,-106],[-106,106]]",circle,red,vert,up,"[106,-106]","[-106,106]",up,1,0.8105,,,,,,001,2025-03-10_21h17.46.836,SL_sali_41,2021.2.3,Win32,99.92006395,,,116,0,116,0,1,,,,,,,,
,,"[""circle"",""no_dis"",""vert"",""up"",[99999,99999],[0,150]]",circle,no_dis,vert,up,"[99999,99999]","[0,150]",up,1,0.6953,,,,,,001,2025-03-10_21h17.46.836,SL_sali_41,2021.2.3,Win32,99.92006395,,,117,0,117,0,1,,,,,,,,
,,"[""circle"",""no_dis"",""vert"",""up"",[99999,99999],[-106,106]]",circle,no_dis,vert,up,"[99999,99999]","[-106,106]",up,1,0.7354,,,,,,001,2025-03-10_21h17.46.836,SL_sali_41,2021.2.3,Win32,99.92006395,,,118,0,118,0,1,,,,,,,,
,,"[""diamond"",""red"",""vert"",""up"",[106,-106],[150,0]]",diamond,red,vert,up,"[106,-106]","[150,0]",up,1,1.2496,,,,,,001,2025-03-10_21h17.46.836,SL_sali_41,2021.2.3,Win32,99.92006395,,,119,0,119,0,1,,,,,,,,
,,"[""diamond"",""green"",""hori"",""left"",[106,-106],[-106,106]]",diamond,green,hori,left,"[106,-106]","[-106,106]",left,1,0.7924,,,,,,001,2025-03-10_21h17.46.836,SL_sali_41,2021.2.3,Win32,99.92006395,,,120,0,120,0,1,,,,,,,,
,,"[""circle"",""green"",""hori"",""left"",[106,-106],[-106,106]]",circle,green,hori,left,"[106,-106]","[-106,106]",left,1,1.3426,,,,,,001,2025-03-10_21h17.46.836,SL_sali_41,2021.2.3,Win32,99.92006395,,,121,0,121,0,1,,,,,,,,
,,"[""circle"",""red"",""hori"",""left"",[106,-106],[150,0]]",circle,red,hori,left,"[106,-106]","[150,0]",left,1,0.8397,,,,,,001,2025-03-10_21h17.46.836,SL_sali_41,2021.2.3,Win32,99.92006395,,,122,0,122,0,1,,,,,,,,
,,"[""diamond"",""green"",""hori"",""left"",[106,106],[150,0]]",diamond,green,hori,left,"[106,106]","[150,0]",left,1,1.3311,,,,,,001,2025-03-10_21h17.46.836,SL_sali_41,2021.2.3,Win32,99.92006395,,,123,0,123,0,1,,,,,,,,
,,"[""circle"",""no_dis"",""hori"",""left"",[99999,99999],[0,-150]]",circle,no_dis,hori,left,"[99999,99999]","[0,-150]",left,1,1.021,,,,,,001,2025-03-10_21h17.46.836,SL_sali_41,2021.2.3,Win32,99.92006395,,,124,0,124,0,1,,,,,,,,
,,"[""circle"",""red"",""vert"",""up"",[-150,0],[0,150]]",circle,red,vert,up,"[-150,0]","[0,150]",up,1,0.6804,,,,,,001,2025-03-10_21h17.46.836,SL_sali_41,2021.2.3,Win32,99.92006395,,,125,0,125,0,1,,,,,,,,
,,"[""circle"",""red"",""hori"",""left"",[106,-106],[-150,0]]",circle,red,hori,left,"[106,-106]","[-150,0]",left,1,0.6907,,,,,,001,2025-03-10_21h17.46.836,SL_sali_41,2021.2.3,Win32,99.92006395,,,126,0,126,0,1,,,,,,,,
,,"[""diamond"",""no_dis"",""hori"",""left"",[99999,99999],[106,-106]]",diamond,no_dis,hori,left,"[99999,99999]","[106,-106]",left,1,0.98,,,,,,001,2025-03-10_21h17.46.836,SL_sali_41,2021.2.3,Win32,99.92006395,,,127,0,127,0,1,,,,,,,,
,,,,,,,,,,,,,,,,,001,2025-03-10_21h17.46.836,SL_sali_41,2021.2.3,Win32,99.92006395,,,,,,,,2,space,6.2507,1,0,1,0,1
,,"[""circle"",""green"",""hori"",""left"",[106,-106],[0,150]]",circle,green,hori,left,"[106,-106]","[0,150]",left,1,0.7847,,,,,,001,2025-03-10_21h17.46.836,SL_sali_41,2021.2.3,Win32,99.92006395,,,0,0,0,0,1,,,,,,,,
,,"[""circle"",""green"",""vert"",""up"",[-106,106],[150,0]]",circle,green,vert,up,"[-106,106]","[150,0]",up,1,0.8007,,,,,,001,2025-03-10_21h17.46.836,SL_sali_41,2021.2.3,Win32,99.92006395,,,1,0,1,0,1,,,,,,,,
,,"[""diamond"",""no_dis"",""vert"",""up"",[99999,99999],[-106,-106]]",diamond,no_dis,vert,up,"[99999,99999]","[-106,-106]",up,1,1.0598,,,,,,001,2025-03-10_21h17.46.836,SL_sali_41,2021.2.3,Win32,99.92006395,,,2,0,2,0,1,,,,,,,,
,,"[""circle"",""green"",""hori"",""left"",[106,-106],[-106,-106]]",circle,green,hori,left,"[106,-106]","[-106,-106]",left,1,0.8492,,,,,,001,2025-03-10_21h17.46.836,SL_sali_41,2021.2.3,Win32,99.92006395,,,3,0,3,0,1,,,,,,,,
,,"[""circle"",""red"",""hori"",""left"",[-150,0],[106,106]]",circle,red,hori,left,"[-150,0]","[106,106]",left,1,0.7303,,,,,,001,2025-03-10_21h17.46.836,SL_sali_41,2021.2.3,Win32,99.92006395,,,4,0,4,0,1,,,,,,,,
,,"[""circle"",""no_dis"",""hori"",""left"",[99999,99999],[-150,0]]",circle,no_dis,hori,left,"[99999,99999]","[-150,0]",left,1,0.6547,,,,,,001,2025-03-10_21h17.46.836,SL_sali_41,2021.2.3,Win32,99.92006395,,,5,0,5,0,1,,,,,,,,
,,"[""circle"",""no_dis"",""hori"",""left"",[99999,99999],[150,0]]",circle,no_dis,hori,left,"[99999,99999]","[150,0]",left,1,0.6151,,,,,,001,2025-03-10_21h17.46.836,SL_sali_41,2021.2.3,Win32,99.92006395,,,6,0,6,0,1,,,,,,,,
,,"[""diamond"",""red"",""hori"",""left"",[-150,0],[0,150]]",diamond,red,hori,left,"[-150,0]","[0,150]",left,1,1.0199,,,,,,001,2025-03-10_21h17.46.836,SL_sali_41,2021.2.3,Win32,99.92006395,,,7,0,7,0,1,,,,,,,,
,,"[""diamond"",""red"",""vert"",""up"",[150,0],[-150,0]]",diamond,red,vert,up,"[150,0]","[-150,0]",up,1,0.9008,,,,,,001,2025-03-10_21h17.46.836,SL_sali_41,2021.2.3,Win32,99.92006395,,,8,0,8,0,1,,,,,,,,
,,"[""circle"",""red"",""hori"",""left"",[106,-106],[150,0]]",circle,red,hori,left,"[106,-106]","[150,0]",left,1,1.6917,,,,,,001,2025-03-10_21h17.46.836,SL_sali_41,2021.2.3,Win32,99.92006395,,,9,0,9,0,1,,,,,,,,
,,"[""diamond"",""no_dis"",""vert"",""up"",[99999,99999],[-106,106]]",diamond,no_dis,vert,up,"[99999,99999]","[-106,106]",up,1,1.1494,,,,,,001,2025-03-10_21h17.46.836,SL_sali_41,2021.2.3,Win32,99.92006395,,,10,0,10,0,1,,,,,,,,
,,"[""diamond"",""green"",""hori"",""left"",[106,-106],[-106,106]]",diamond,green,hori,left,"[106,-106]","[-106,106]",left,1,0.9803,,,,,,001,2025-03-10_21h17.46.836,SL_sali_41,2021.2.3,Win32,99.92006395,,,11,0,11,0,1,,,,,,,,
,,"[""circle"",""no_dis"",""vert"",""up"",[99999,99999],[-106,-106]]",circle,no_dis,vert,up,"[99999,99999]","[-106,-106]",up,1,2.5101,,,,,,001,2025-03-10_21h17.46.836,SL_sali_41,2021.2.3,Win32,99.92006395,,,12,0,12,0,1,,,,,,,,
,,"[""diamond"",""red"",""hori"",""left"",[106,-106],[-106,-106]]",diamond,red,hori,left,"[106,-106]","[-106,-106]",left,1,1.3196,,,,,,001,2025-03-10_21h17.46.836,SL_sali_41,2021.2.3,Win32,99.92006395,,,13,0,13,0,1,,,,,,,,
,,"[""circle"",""green"",""vert"",""up"",[-106,-106],[106,106]]",circle,green,vert,up,"[-106,-106]","[106,106]",up,1,1.2153,,,,,,001,2025-03-10_21h17.46.836,SL_sali_41,2021.2.3,Win32,99.92006395,,,14,0,14,0,1,,,,,,,,
,,"[""diamond"",""green"",""vert"",""up"",[106,-106],[0,-150]]",diamond,green,vert,up,"[106,-106]","[0,-150]",up,1,2.0104,,,,,,001,2025-03-10_21h17.46.836,SL_sali_41,2021.2.3,Win32,99.92006395,,,15,0,15,0,1,,,,,,,,
,,"[""diamond"",""green"",""hori"",""left"",[0,150],[-106,-106]]",diamond,green,hori,left,"[0,150]","[-106,-106]",left,1,1.1409,,,,,,001,2025-03-10_21h17.46.836,SL_sali_41,2021.2.3,Win32,99.92006395,,,16,0,16,0,1,,,,,,,,
,,"[""diamond"",""green"",""hori"",""left"",[106,-106],[-106,-106]]",diamond,green,hori,left,"[106,-106]","[-106,-106]",left,1,1.5203,,,,,,001,2025-03-10_21h17.46.836,SL_sali_41,2021.2.3,Win32,99.92006395,,,17,0,17,0,1,,,,,,,,
,,"[""diamond"",""green"",""vert"",""up"",[0,-150],[-106,-106]]",diamond,green,vert,up,"[0,-150]","[-106,-106]",up,1,1.4501,,,,,,001,2025-03-10_21h17.46.836,SL_sali_41,2021.2.3,Win32,99.92006395,,,18,0,18,0,1,,,,,,,,
,,"[""circle"",""red"",""vert"",""up"",[106,-106],[-106,106]]",circle,red,vert,up,"[106,-106]","[-106,106]",up,1,1.8708,,,,,,001,2025-03-10_21h17.46.836,SL_sali_41,2021.2.3,Win32,99.92006395,,,19,0,19,0,1,,,,,,,,
,,"[""circle"",""green"",""hori"",""left"",[0,-150],[150,0]]",circle,green,hori,left,"[0,-150]","[150,0]",left,1,0.8002,,,,,,001,2025-03-10_21h17.46.836,SL_sali_41,2021.2.3,Win32,99.92006395,,,20,0,20,0,1,,,,,,,,
,,"[""circle"",""green"",""vert"",""up"",[150,0],[0,150]]",circle,green,vert,up,"[150,0]","[0,150]",up,1,0.9397,,,,,,001,2025-03-10_21h17.46.836,SL_sali_41,2021.2.3,Win32,99.92006395,,,21,0,21,0,1,,,,,,,,
,,"[""circle"",""green"",""hori"",""left"",[106,-106],[-106,106]]",circle,green,hori,left,"[106,-106]","[-106,106]",left,1,1.2131,,,,,,001,2025-03-10_21h17.46.836,SL_sali_41,2021.2.3,Win32,99.92006395,,,22,0,22,0,1,,,,,,,,
,,"[""diamond"",""no_dis"",""hori"",""left"",[99999,99999],[150,0]]",diamond,no_dis,hori,left,"[99999,99999]","[150,0]",left,1,1.0794,,,,,,001,2025-03-10_21h17.46.836,SL_sali_41,2021.2.3,Win32,99.92006395,,,23,0,23,0,1,,,,,,,,
,,"[""diamond"",""red"",""hori"",""left"",[106,-106],[150,0]]",diamond,red,hori,left,"[106,-106]","[150,0]",left,1,1.0702,,,,,,001,2025-03-10_21h17.46.836,SL_sali_41,2021.2.3,Win32,99.92006395,,,24,0,24,0,1,,,,,,,,
,,"[""diamond"",""no_dis"",""vert"",""up"",[99999,99999],[106,106]]",diamond,no_dis,vert,up,"[99999,99999]","[106,106]",up,1,1.4096,,,,,,001,2025-03-10_21h17.46.836,SL_sali_41,2021.2.3,Win32,99.92006395,,,25,0,25,0,1,,,,,,,,
,,"[""diamond"",""red"",""vert"",""up"",[0,150],[0,-150]]",diamond,red,vert,up,"[0,150]","[0,-150]",up,1,0.8827,,,,,,001,2025-03-10_21h17.46.836,SL_sali_41,2021.2.3,Win32,99.92006395,,,26,0,26,0,1,,,,,,,,
,,"[""circle"",""no_dis"",""vert"",""up"",[99999,99999],[106,-106]]",circle,no_dis,vert,up,"[99999,99999]","[106,-106]",up,1,1.1001,,,,,,001,2025-03-10_21h17.46.836,SL_sali_41,2021.2.3,Win32,99.92006395,,,27,0,27,0,1,,,,,,,,
,,"[""diamond"",""green"",""hori"",""left"",[-106,106],[150,0]]",diamond,green,hori,left,"[-106,106]","[150,0]",left,1,1.0708,,,,,,001,2025-03-10_21h17.46.836,SL_sali_41,2021.2.3,Win32,99.92006395,,,28,0,28,0,1,,,,,,,,
,,"[""circle"",""no_dis"",""vert"",""up"",[99999,99999],[150,0]]",circle,no_dis,vert,up,"[99999,99999]","[150,0]",up,1,1.5102,,,,,,001,2025-03-10_21h17.46.836,SL_sali_41,2021.2.3,Win32,99.92006395,,,29,0,29,0,1,,,,,,,,
,,"[""circle"",""red"",""hori"",""left"",[106,-106],[150,0]]",circle,red,hori,left,"[106,-106]","[150,0]",left,1,1.511,,,,,,001,2025-03-10_21h17.46.836,SL_sali_41,2021.2.3,Win32,99.92006395,,,30,0,30,0,1,,,,,,,,
,,"[""diamond"",""red"",""vert"",""up"",[106,-106],[150,0]]",diamond,red,vert,up,"[106,-106]","[150,0]",up,1,1.221,,,,,,001,2025-03-10_21h17.46.836,SL_sali_41,2021.2.3,Win32,99.92006395,,,31,0,31,0,1,,,,,,,,
,,"[""diamond"",""green"",""vert"",""up"",[-106,-106],[106,-106]]",diamond,green,vert,up,"[-106,-106]","[106,-106]",up,1,0.8091,,,,,,001,2025-03-10_21h17.46.836,SL_sali_41,2021.2.3,Win32,99.92006395,,,32,0,32,0,1,,,,,,,,
,,"[""circle"",""green"",""vert"",""up"",[-106,-106],[-150,0]]",circle,green,vert,up,"[-106,-106]","[-150,0]",left,0,1.1507,,,,,,001,2025-03-10_21h17.46.836,SL_sali_41,2021.2.3,Win32,99.92006395,,,33,0,33,0,1,,,,,,,,
,,"[""diamond"",""no_dis"",""hori"",""left"",[99999,99999],[-106,106]]",diamond,no_dis,hori,left,"[99999,99999]","[-106,106]",left,1,1.9009,,,,,,001,2025-03-10_21h17.46.836,SL_sali_41,2021.2.3,Win32,99.92006395,,,34,0,34,0,1,,,,,,,,
,,"[""diamond"",""no_dis"",""hori"",""left"",[99999,99999],[-106,-106]]",diamond,no_dis,hori,left,"[99999,99999]","[-106,-106]",left,1,1.3203,,,,,,001,2025-03-10_21h17.46.836,SL_sali_41,2021.2.3,Win32,99.92006395,,,35,0,35,0,1,,,,,,,,
,,"[""diamond"",""red"",""hori"",""left"",[106,-106],[0,150]]",diamond,red,hori,left,"[106,-106]","[0,150]",left,1,1.1104,,,,,,001,2025-03-10_21h17.46.836,SL_sali_41,2021.2.3,Win32,99.92006395,,,36,0,36,0,1,,,,,,,,
,,"[""diamond"",""green"",""vert"",""up"",[0,-150],[150,0]]",diamond,green,vert,up,"[0,-150]","[150,0]",up,1,1.0827,,,,,,001,2025-03-10_21h17.46.836,SL_sali_41,2021.2.3,Win32,99.92006395,,,37,0,37,0,1,,,,,,,,
,,"[""circle"",""green"",""hori"",""left"",[0,150],[-106,106]]",circle,green,hori,left,"[0,150]","[-106,106]",left,1,1.6812,,,,,,001,2025-03-10_21h17.46.836,SL_sali_41,2021.2.3,Win32,99.92006395,,,38,0,38,0,1,,,,,,,,
,,"[""diamond"",""green"",""hori"",""left"",[106,-106],[-106,-106]]",diamond,green,hori,left,"[106,-106]","[-106,-106]",left,1,1.0507,,,,,,001,2025-03-10_21h17.46.836,SL_sali_41,2021.2.3,Win32,99.92006395,,,39,0,39,0,1,,,,,,,,
,,"[""circle"",""red"",""vert"",""up"",[150,0],[106,106]]",circle,red,vert,up,"[150,0]","[106,106]",up,1,1.5025,,,,,,001,2025-03-10_21h17.46.836,SL_sali_41,2021.2.3,Win32,99.92006395,,,40,0,40,0,1,,,,,,,,
,,"[""diamond"",""green"",""vert"",""up"",[150,0],[106,106]]",diamond,green,vert,up,"[150,0]","[106,106]",up,1,1.8007,,,,,,001,2025-03-10_21h17.46.836,SL_sali_41,2021.2.3,Win32,99.92006395,,,41,0,41,0,1,,,,,,,,
,,"[""diamond"",""red"",""vert"",""up"",[0,150],[-106,106]]",diamond,red,vert,up,"[0,150]","[-106,106]",up,1,1.0805,,,,,,001,2025-03-10_21h17.46.836,SL_sali_41,2021.2.3,Win32,99.92006395,,,42,0,42,0,1,,,,,,,,
,,"[""circle"",""red"",""hori"",""left"",[-106,-106],[-106,106]]",circle,red,hori,left,"[-106,-106]","[-106,106]",left,1,1.2804,,,,,,001,2025-03-10_21h17.46.836,SL_sali_41,2021.2.3,Win32,99.92006395,,,43,0,43,0,1,,,,,,,,
,,"[""diamond"",""red"",""hori"",""left"",[0,-150],[-150,0]]",diamond,red,hori,left,"[0,-150]","[-150,0]",left,1,1.0352,,,,,,001,2025-03-10_21h17.46.836,SL_sali_41,2021.2.3,Win32,99.92006395,,,44,0,44,0,1,,,,,,,,
,,"[""circle"",""red"",""hori"",""left"",[106,-106],[-106,106]]",circle,red,hori,left,"[106,-106]","[-106,106]",left,1,1.9894,,,,,,001,2025-03-10_21h17.46.836,SL_sali_41,2021.2.3,Win32,99.92006395,,,45,0,45,0,1,,,,,,,,
,,"[""circle"",""no_dis"",""vert"",""up"",[99999,99999],[0,150]]",circle,no_dis,vert,up,"[99999,99999]","[0,150]",up,1,0.8704,,,,,,001,2025-03-10_21h17.46.836,SL_sali_41,2021.2.3,Win32,99.92006395,,,46,0,46,0,1,,,,,,,,
,,"[""circle"",""no_dis"",""hori"",""left"",[99999,99999],[106,106]]",circle,no_dis,hori,left,"[99999,99999]","[106,106]",left,1,0.9598,,,,,,001,2025-03-10_21h17.46.836,SL_sali_41,2021.2.3,Win32,99.92006395,,,47,0,47,0,1,,,,,,,,
,,"[""circle"",""green"",""vert"",""up"",[150,0],[106,-106]]",circle,green,vert,up,"[150,0]","[106,-106]",up,1,0.8405,,,,,,001,2025-03-10_21h17.46.836,SL_sali_41,2021.2.3,Win32,99.92006395,,,48,0,48,0,1,,,,,,,,
,,"[""circle"",""green"",""vert"",""up"",[106,-106],[0,-150]]",circle,green,vert,up,"[106,-106]","[0,-150]",up,1,0.8254,,,,,,001,2025-03-10_21h17.46.836,SL_sali_41,2021.2.3,Win32,99.92006395,,,49,0,49,0,1,,,,,,,,
,,"[""diamond"",""red"",""hori"",""left"",[0,150],[0,-150]]",diamond,red,hori,left,"[0,150]","[0,-150]",left,1,2.0403,,,,,,001,2025-03-10_21h17.46.836,SL_sali_41,2021.2.3,Win32,99.92006395,,,50,0,50,0,1,,,,,,,,
,,"[""circle"",""green"",""vert"",""up"",[-106,-106],[-150,0]]",circle,green,vert,up,"[-106,-106]","[-150,0]",up,1,1.3387,,,,,,001,2025-03-10_21h17.46.836,SL_sali_41,2021.2.3,Win32,99.92006395,,,51,0,51,0,1,,,,,,,,
,,"[""circle"",""no_dis"",""vert"",""up"",[99999,99999],[-106,106]]",circle,no_dis,vert,up,"[99999,99999]","[-106,106]",up,1,1.0753,,,,,,001,2025-03-10_21h17.46.836,SL_sali_41,2021.2.3,Win32,99.92006395,,,52,0,52,0,1,,,,,,,,
,,"[""circle"",""red"",""hori"",""left"",[-150,0],[0,-150]]",circle,red,hori,left,"[-150,0]","[0,-150]",left,1,0.8344,,,,,,001,2025-03-10_21h17.46.836,SL_sali_41,2021.2.3,Win32,99.92006395,,,53,0,53,0,1,,,,,,,,
,,"[""diamond"",""green"",""vert"",""up"",[-106,106],[0,-150]]",diamond,green,vert,up,"[-106,106]","[0,-150]",up,1,0.9905,,,,,,001,2025-03-10_21h17.46.836,SL_sali_41,2021.2.3,Win32,99.92006395,,,54,0,54,0,1,,,,,,,,
,,"[""circle"",""red"",""vert"",""up"",[0,150],[150,0]]",circle,red,vert,up,"[0,150]","[150,0]",up,1,1.6432,,,,,,001,2025-03-10_21h17.46.836,SL_sali_41,2021.2.3,Win32,99.92006395,,,55,0,55,0,1,,,,,,,,
,,"[""diamond"",""red"",""vert"",""up"",[-150,0],[-106,-106]]",diamond,red,vert,up,"[-150,0]","[-106,-106]",up,1,1.8104,,,,,,001,2025-03-10_21h17.46.836,SL_sali_41,2021.2.3,Win32,99.92006395,,,56,0,56,0,1,,,,,,,,
,,"[""circle"",""no_dis"",""hori"",""left"",[99999,99999],[0,-150]]",circle,no_dis,hori,left,"[99999,99999]","[0,-150]",left,1,0.7103,,,,,,001,2025-03-10_21h17.46.836,SL_sali_41,2021.2.3,Win32,99.92006395,,,57,0,57,0,1,,,,,,,,
,,"[""diamond"",""red"",""vert"",""up"",[-106,106],[-150,0]]",diamond,red,vert,up,"[-106,106]","[-150,0]",up,1,1.1733,,,,,,001,2025-03-10_21h17.46.836,SL_sali_41,2021.2.3,Win32,99.92006395,,,58,0,58,0,1,,,,,,,,
,,"[""diamond"",""no_dis"",""hori"",""left"",[99999,99999],[106,-106]]",diamond,no_dis,hori,left,"[99999,99999]","[106,-106]",left,1,1.5405,,,,,,001,2025-03-10_21h17.46.836,SL_sali_41,2021.2.3,Win32,99.92006395,,,59,0,59,0,1,,,,,,,,
,,"[""diamond"",""no_dis"",""hori"",""left"",[99999,99999],[106,106]]",diamond,no_dis,hori,left,"[99999,99999]","[106,106]",left,1,0.7592,,,,,,001,2025-03-10_21h17.46.836,SL_sali_41,2021.2.3,Win32,99.92006395,,,60,0,60,0,1,,,,,,,,
,,"[""circle"",""red"",""hori"",""left"",[106,-106],[-150,0]]",circle,red,hori,left,"[106,-106]","[-150,0]",left,1,1.2501,,,,,,001,2025-03-10_21h17.46.836,SL_sali_41,2021.2.3,Win32,99.92006395,,,61,0,61,0,1,,,,,,,,
,,"[""circle"",""green"",""vert"",""up"",[150,0],[-106,106]]",circle,green,vert,up,"[150,0]","[-106,106]",up,1,0.9697,,,,,,001,2025-03-10_21h17.46.836,SL_sali_41,2021.2.3,Win32,99.92006395,,,62,0,62,0,1,,,,,,,,
,,"[""diamond"",""green"",""hori"",""left"",[0,150],[106,106]]",diamond,green,hori,left,"[0,150]","[106,106]",left,1,1.0698,,,,,,001,2025-03-10_21h17.46.836,SL_sali_41,2021.2.3,Win32,99.92006395,,,63,0,63,0,1,,,,,,,,
,,"[""circle"",""red"",""hori"",""left"",[-106,-106],[106,106]]",circle,red,hori,left,"[-106,-106]","[106,106]",left,1,1.1304,,,,,,001,2025-03-10_21h17.46.836,SL_sali_41,2021.2.3,Win32,99.92006395,,,64,0,64,0,1,,,,,,,,
,,"[""diamond"",""red"",""vert"",""up"",[-106,-106],[150,0]]",diamond,red,vert,up,"[-106,-106]","[150,0]",up,1,0.7988,,,,,,001,2025-03-10_21h17.46.836,SL_sali_41,2021.2.3,Win32,99.92006395,,,65,0,65,0,1,,,,,,,,
,,"[""circle"",""green"",""hori"",""left"",[106,-106],[150,0]]",circle,green,hori,left,"[106,-106]","[150,0]",left,1,0.9102,,,,,,001,2025-03-10_21h17.46.836,SL_sali_41,2021.2.3,Win32,99.92006395,,,66,0,66,0,1,,,,,,,,
,,"[""circle"",""green"",""vert"",""up"",[106,106],[-106,106]]",circle,green,vert,up,"[106,106]","[-106,106]",up,1,0.8803,,,,,,001,2025-03-10_21h17.46.836,SL_sali_41,2021.2.3,Win32,99.92006395,,,67,0,67,0,1,,,,,,,,
,,"[""diamond"",""red"",""vert"",""up"",[106,-106],[0,150]]",diamond,red,vert,up,"[106,-106]","[0,150]",up,1,0.7606,,,,,,001,2025-03-10_21h17.46.836,SL_sali_41,2021.2.3,Win32,99.92006395,,,68,0,68,0,1,,,,,,,,
,,"[""diamond"",""no_dis"",""vert"",""up"",[99999,99999],[0,150]]",diamond,no_dis,vert,up,"[99999,99999]","[0,150]",up,1,1.3623,,,,,,001,2025-03-10_21h17.46.836,SL_sali_41,2021.2.3,Win32,99.92006395,,,69,0,69,0,1,,,,,,,,
,,"[""diamond"",""no_dis"",""vert"",""up"",[99999,99999],[0,-150]]",diamond,no_dis,vert,up,"[99999,99999]","[0,-150]",up,1,1.13,,,,,,001,2025-03-10_21h17.46.836,SL_sali_41,2021.2.3,Win32,99.92006395,,,70,0,70,0,1,,,,,,,,
,,"[""circle"",""red"",""vert"",""up"",[106,-106],[-150,0]]",circle,red,vert,up,"[106,-106]","[-150,0]",up,1,1.6904,,,,,,001,2025-03-10_21h17.46.836,SL_sali_41,2021.2.3,Win32,99.92006395,,,71,0,71,0,1,,,,,,,,
,,"[""diamond"",""green"",""hori"",""left"",[0,150],[-106,-106]]",diamond,green,hori,left,"[0,150]","[-106,-106]",left,1,1.1012,,,,,,001,2025-03-10_21h17.46.836,SL_sali_41,2021.2.3,Win32,99.92006395,,,72,0,72,0,1,,,,,,,,
,,"[""circle"",""green"",""hori"",""left"",[106,106],[-106,106]]",circle,green,hori,left,"[106,106]","[-106,106]",left,1,1.115,,,,,,001,2025-03-10_21h17.46.836,SL_sali_41,2021.2.3,Win32,99.92006395,,,73,0,73,0,1,,,,,,,,
,,"[""diamond"",""no_dis"",""vert"",""up"",[99999,99999],[0,-150]]",diamond,no_dis,vert,up,"[99999,99999]","[0,-150]",up,1,0.9605,,,,,,001,2025-03-10_21h17.46.836,SL_sali_41,2021.2.3,Win32,99.92006395,,,74,0,74,0,1,,,,,,,,
,,"[""circle"",""red"",""vert"",""up"",[106,-106],[-150,0]]",circle,red,vert,up,"[106,-106]","[-150,0]",up,1,1.61,,,,,,001,2025-03-10_21h17.46.836,SL_sali_41,2021.2.3,Win32,99.92006395,,,75,0,75,0,1,,,,,,,,
,,"[""circle"",""red"",""hori"",""left"",[-150,0],[106,106]]",circle,red,hori,left,"[-150,0]","[106,106]",left,1,1.3213,,,,,,001,2025-03-10_21h17.46.836,SL_sali_41,2021.2.3,Win32,99.92006395,,,76,0,76,0,1,,,,,,,,
,,"[""circle"",""red"",""vert"",""up"",[-106,106],[106,-106]]",circle,red,vert,up,"[-106,106]","[106,-106]",up,1,1.1306,,,,,,001,2025-03-10_21h17.46.836,SL_sali_41,2021.2.3,Win32,99.92006395,,,77,0,77,0,1,,,,,,,,
,,"[""circle"",""green"",""hori"",""left"",[106,-106],[0,-150]]",circle,green,hori,left,"[106,-106]","[0,-150]",left,1,0.742,,,,,,001,2025-03-10_21h17.46.836,SL_sali_41,2021.2.3,Win32,99.92006395,,,78,0,78,0,1,,,,,,,,
,,"[""circle"",""no_dis"",""hori"",""left"",[99999,99999],[0,-150]]",circle,no_dis,hori,left,"[99999,99999]","[0,-150]",left,1,0.68,,,,,,001,2025-03-10_21h17.46.836,SL_sali_41,2021.2.3,Win32,99.92006395,,,79,0,79,0,1,,,,,,,,
,,"[""circle"",""no_dis"",""hori"",""left"",[99999,99999],[-106,106]]",circle,no_dis,hori,left,"[99999,99999]","[-106,106]",left,1,0.7523,,,,,,001,2025-03-10_21h17.46.836,SL_sali_41,2021.2.3,Win32,99.92006395,,,80,0,80,0,1,,,,,,,,
,,"[""diamond"",""red"",""vert"",""up"",[106,106],[0,150]]",diamond,red,vert,up,"[106,106]","[0,150]",up,1,0.8995,,,,,,001,2025-03-10_21h17.46.836,SL_sali_41,2021.2.3,Win32,99.92006395,,,81,0,81,0,1,,,,,,,,
,,"[""diamond"",""green"",""hori"",""left"",[106,-106],[0,150]]",diamond,green,hori,left,"[106,-106]","[0,150]",left,1,1.2252,,,,,,001,2025-03-10_21h17.46.836,SL_sali_41,2021.2.3,Win32,99.92006395,,,82,0,82,0,1,,,,,,,,
,,"[""circle"",""no_dis"",""hori"",""left"",[99999,99999],[-106,-106]]",circle,no_dis,hori,left,"[99999,99999]","[-106,-106]",left,1,1.2631,,,,,,001,2025-03-10_21h17.46.836,SL_sali_41,2021.2.3,Win32,99.92006395,,,83,0,83,0,1,,,,,,,,
,,"[""diamond"",""red"",""vert"",""up"",[-106,106],[106,-106]]",diamond,red,vert,up,"[-106,106]","[106,-106]",up,1,1.185,,,,,,001,2025-03-10_21h17.46.836,SL_sali_41,2021.2.3,Win32,99.92006395,,,84,0,84,0,1,,,,,,,,
,,"[""circle"",""no_dis"",""vert"",""up"",[99999,99999],[106,106]]",circle,no_dis,vert,up,"[99999,99999]","[106,106]",up,1,1.0593,,,,,,001,2025-03-10_21h17.46.836,SL_sali_41,2021.2.3,Win32,99.92006395,,,85,0,85,0,1,,,,,,,,
,,"[""circle"",""red"",""vert"",""up"",[0,-150],[150,0]]",circle,red,vert,up,"[0,-150]","[150,0]",up,1,0.951,,,,,,001,2025-03-10_21h17.46.836,SL_sali_41,2021.2.3,Win32,99.92006395,,,86,0,86,0,1,,,,,,,,
,,"[""diamond"",""no_dis"",""vert"",""up"",[99999,99999],[-150,0]]",diamond,no_dis,vert,up,"[99999,99999]","[-150,0]",up,1,1.4902,,,,,,001,2025-03-10_21h17.46.836,SL_sali_41,2021.2.3,Win32,99.92006395,,,87,0,87,0,1,,,,,,,,
,,"[""diamond"",""green"",""vert"",""up"",[150,0],[106,106]]",diamond,green,vert,up,"[150,0]","[106,106]",up,1,0.9728,,,,,,001,2025-03-10_21h17.46.836,SL_sali_41,2021.2.3,Win32,99.92006395,,,88,0,88,0,1,,,,,,,,
,,"[""diamond"",""green"",""vert"",""up"",[106,-106],[-106,106]]",diamond,green,vert,up,"[106,-106]","[-106,106]",up,1,0.8702,,,,,,001,2025-03-10_21h17.46.836,SL_sali_41,2021.2.3,Win32,99.92006395,,,89,0,89,0,1,,,,,,,,
,,"[""diamond"",""green"",""vert"",""up"",[106,106],[0,-150]]",diamond,green,vert,up,"[106,106]","[0,-150]",up,1,0.6501,,,,,,001,2025-03-10_21h17.46.836,SL_sali_41,2021.2.3,Win32,99.92006395,,,90,0,90,0,1,,,,,,,,
,,"[""diamond"",""no_dis"",""hori"",""left"",[99999,99999],[-106,106]]",diamond,no_dis,hori,left,"[99999,99999]","[-106,106]",left,1,0.9551,,,,,,001,2025-03-10_21h17.46.836,SL_sali_41,2021.2.3,Win32,99.92006395,,,91,0,91,0,1,,,,,,,,
,,"[""circle"",""green"",""vert"",""up"",[-106,-106],[-106,106]]",circle,green,vert,up,"[-106,-106]","[-106,106]",up,1,2.1205,,,,,,001,2025-03-10_21h17.46.836,SL_sali_41,2021.2.3,Win32,99.92006395,,,92,0,92,0,1,,,,,,,,
,,"[""circle"",""red"",""vert"",""up"",[106,-106],[0,-150]]",circle,red,vert,up,"[106,-106]","[0,-150]",up,1,1.1453,,,,,,001,2025-03-10_21h17.46.836,SL_sali_41,2021.2.3,Win32,99.92006395,,,93,0,93,0,1,,,,,,,,
,,"[""circle"",""red"",""vert"",""up"",[106,-106],[-106,106]]",circle,red,vert,up,"[106,-106]","[-106,106]",up,1,1.2305,,,,,,001,2025-03-10_21h17.46.836,SL_sali_41,2021.2.3,Win32,99.92006395,,,94,0,94,0,1,,,,,,,,
,,"[""diamond"",""green"",""hori"",""left"",[106,106],[150,0]]",diamond,green,hori,left,"[106,106]","[150,0]",left,1,1.8043,,,,,,001,2025-03-10_21h17.46.836,SL_sali_41,2021.2.3,Win32,99.92006395,,,95,0,95,0,1,,,,,,,,
,,"[""diamond"",""no_dis"",""vert"",""up"",[99999,99999],[106,-106]]",diamond,no_dis,vert,up,"[99999,99999]","[106,-106]",up,1,1.123,,,,,,001,2025-03-10_21h17.46.836,SL_sali_41,2021.2.3,Win32,99.92006395,,,96,0,96,0,1,,,,,,,,
,,"[""circle"",""no_dis"",""hori"",""left"",[99999,99999],[106,-106]]",circle,no_dis,hori,left,"[99999,99999]","[106,-106]",left,1,0.7505,,,,,,001,2025-03-10_21h17.46.836,SL_sali_41,2021.2.3,Win32,99.92006395,,,97,0,97,0,1,,,,,,,,
,,"[""diamond"",""red"",""hori"",""left"",[0,-150],[-150,0]]",diamond,red,hori,left,"[0,-150]","[-150,0]",left,1,1.3308,,,,,,001,2025-03-10_21h17.46.836,SL_sali_41,2021.2.3,Win32,99.92006395,,,98,0,98,0,1,,,,,,,,
,,"[""circle"",""green"",""vert"",""up"",[-106,106],[-150,0]]",circle,green,vert,up,"[-106,106]","[-150,0]",up,1,1.8208,,,,,,001,2025-03-10_21h17.46.836,SL_sali_41,2021.2.3,Win32,99.92006395,,,99,0,99,0,1,,,,,,,,
,,"[""diamond"",""no_dis"",""hori"",""left"",[99999,99999],[-150,0]]",diamond,no_dis,hori,left,"[99999,99999]","[-150,0]",left,1,1.0405,,,,,,001,2025-03-10_21h17.46.836,SL_sali_41,2021.2.3,Win32,99.92006395,,,100,0,100,0,1,,,,,,,,
,,"[""circle"",""no_dis"",""vert"",""up"",[99999,99999],[-150,0]]",circle,no_dis,vert,up,"[99999,99999]","[-150,0]",up,1,1.8629,,,,,,001,2025-03-10_21h17.46.836,SL_sali_41,2021.2.3,Win32,99.92006395,,,101,0,101,0,1,,,,,,,,
,,"[""circle"",""red"",""hori"",""left"",[0,-150],[-106,106]]",circle,red,hori,left,"[0,-150]","[-106,106]",left,1,1.0093,,,,,,001,2025-03-10_21h17.46.836,SL_sali_41,2021.2.3,Win32,99.92006395,,,102,0,102,0,1,,,,,,,,
,,"[""diamond"",""no_dis"",""vert"",""up"",[99999,99999],[0,-150]]",diamond,no_dis,vert,up,"[99999,99999]","[0,-150]",up,1,0.7212,,,,,,001,2025-03-10_21h17.46.836,SL_sali_41,2021.2.3,Win32,99.92006395,,,103,0,103,0,1,,,,,,,,
,,"[""diamond"",""no_dis"",""hori"",""left"",[99999,99999],[0,150]]",diamond,no_dis,hori,left,"[99999,99999]","[0,150]",left,1,0.8808,,,,,,001,2025-03-10_21h17.46.836,SL_sali_41,2021.2.3,Win32,99.92006395,,,104,0,104,0,1,,,,,,,,
,,"[""diamond"",""no_dis"",""hori"",""left"",[99999,99999],[0,150]]",diamond,no_dis,hori,left,"[99999,99999]","[0,150]",left,1,0.813,,,,,,001,2025-03-10_21h17.46.836,SL_sali_41,2021.2.3,Win32,99.92006395,,,105,0,105,0,1,,,,,,,,
,,"[""circle"",""green"",""hori"",""left"",[-106,106],[0,-150]]",circle,green,hori,left,"[-106,106]","[0,-150]",left,1,0.8209,,,,,,001,2025-03-10_21h17.46.836,SL_sali_41,2021.2.3,Win32,99.92006395,,,106,0,106,0,1,,,,,,,,
,,"[""diamond"",""no_dis"",""vert"",""up"",[99999,99999],[106,-106]]",diamond,no_dis,vert,up,"[99999,99999]","[106,-106]",up,1,0.9105,,,,,,001,2025-03-10_21h17.46.836,SL_sali_41,2021.2.3,Win32,99.92006395,,,107,0,107,0,1,,,,,,,,
,,"[""diamond"",""red"",""hori"",""left"",[106,-106],[-106,-106]]",diamond,red,hori,left,"[106,-106]","[-106,-106]",left,1,1.1492,,,,,,001,2025-03-10_21h17.46.836,SL_sali_41,2021.2.3,Win32,99.92006395,,,108,0,108,0,1,,,,,,,,
,,"[""diamond"",""green"",""hori"",""left"",[106,-106],[150,0]]",diamond,green,hori,left,"[106,-106]","[150,0]",left,1,0.7905,,,,,,001,2025-03-10_21h17.46.836,SL_sali_41,2021.2.3,Win32,99.92006395,,,109,0,109,0,1,,,,,,,,
,,"[""circle"",""green"",""hori"",""left"",[106,-106],[-106,106]]",circle,green,hori,left,"[106,-106]","[-106,106]",left,1,1.4913,,,,,,001,2025-03-10_21h17.46.836,SL_sali_41,2021.2.3,Win32,99.92006395,,,110,0,110,0,1,,,,,,,,
,,"[""diamond"",""red"",""hori"",""left"",[150,0],[0,-150]]",diamond,red,hori,left,"[150,0]","[0,-150]",left,1,0.771,,,,,,001,2025-03-10_21h17.46.836,SL_sali_41,2021.2.3,Win32,99.92006395,,,111,0,111,0,1,,,,,,,,
,,"[""circle"",""no_dis"",""hori"",""left"",[99999,99999],[150,0]]",circle,no_dis,hori,left,"[99999,99999]","[150,0]",left,1,0.8005,,,,,,001,2025-03-10_21h17.46.836,SL_sali_41,2021.2.3,Win32,99.92006395,,,112,0,112,0,1,,,,,,,,
,,"[""circle"",""no_dis"",""vert"",""up"",[99999,99999],[-106,-106]]",circle,no_dis,vert,up,"[99999,99999]","[-106,-106]",up,1,0.773,,,,,,001,2025-03-10_21h17.46.836,SL_sali_41,2021.2.3,Win32,99.92006395,,,113,0,113,0,1,,,,,,,,
,,"[""diamond"",""red"",""vert"",""up"",[106,-106],[0,-150]]",diamond,red,vert,up,"[106,-106]","[0,-150]",up,1,0.7804,,,,,,001,2025-03-10_21h17.46.836,SL_sali_41,2021.2.3,Win32,99.92006395,,,114,0,114,0,1,,,,,,,,
,,"[""diamond"",""green"",""hori"",""left"",[106,-106],[106,106]]",diamond,green,hori,left,"[106,-106]","[106,106]",left,1,0.783,,,,,,001,2025-03-10_21h17.46.836,SL_sali_41,2021.2.3,Win32,99.92006395,,,115,0,115,0,1,,,,,,,,
,,"[""circle"",""no_dis"",""hori"",""left"",[99999,99999],[0,150]]",circle,no_dis,hori,left,"[99999,99999]","[0,150]",left,1,1.0301,,,,,,001,2025-03-10_21h17.46.836,SL_sali_41,2021.2.3,Win32,99.92006395,,,116,0,116,0,1,,,,,,,,
,,"[""diamond"",""green"",""vert"",""up"",[-150,0],[0,-150]]",diamond,green,vert,up,"[-150,0]","[0,-150]",up,1,0.8704,,,,,,001,2025-03-10_21h17.46.836,SL_sali_41,2021.2.3,Win32,99.92006395,,,117,0,117,0,1,,,,,,,,
,,"[""diamond"",""green"",""vert"",""up"",[0,-150],[106,-106]]",diamond,green,vert,up,"[0,-150]","[106,-106]",up,1,1.43,,,,,,001,2025-03-10_21h17.46.836,SL_sali_41,2021.2.3,Win32,99.92006395,,,118,0,118,0,1,,,,,,,,
,,"[""diamond"",""no_dis"",""hori"",""left"",[99999,99999],[150,0]]",diamond,no_dis,hori,left,"[99999,99999]","[150,0]",left,1,0.8808,,,,,,001,2025-03-10_21h17.46.836,SL_sali_41,2021.2.3,Win32,99.92006395,,,119,0,119,0,1,,,,,,,,
,,"[""circle"",""no_dis"",""vert"",""up"",[99999,99999],[106,106]]",circle,no_dis,vert,up,"[99999,99999]","[106,106]",up,1,1.0014,,,,,,001,2025-03-10_21h17.46.836,SL_sali_41,2021.2.3,Win32,99.92006395,,,120,0,120,0,1,,,,,,,,
,,"[""circle"",""no_dis"",""vert"",""up"",[99999,99999],[-150,0]]",circle,no_dis,vert,up,"[99999,99999]","[-150,0]",up,1,1.0806,,,,,,001,2025-03-10_21h17.46.836,SL_sali_41,2021.2.3,Win32,99.92006395,,,121,0,121,0,1,,,,,,,,
,,"[""diamond"",""red"",""hori"",""left"",[106,106],[150,0]]",diamond,red,hori,left,"[106,106]","[150,0]",left,1,1.1499,,,,,,001,2025-03-10_21h17.46.836,SL_sali_41,2021.2.3,Win32,99.92006395,,,122,0,122,0,1,,,,,,,,
,,"[""circle"",""red"",""vert"",""up"",[-150,0],[0,150]]",circle,red,vert,up,"[-150,0]","[0,150]",up,1,1.0631,,,,,,001,2025-03-10_21h17.46.836,SL_sali_41,2021.2.3,Win32,99.92006395,,,123,0,123,0,1,,,,,,,,
,,"[""circle"",""red"",""hori"",""left"",[106,-106],[150,0]]",circle,red,hori,left,"[106,-106]","[150,0]",left,1,0.7003,,,,,,001,2025-03-10_21h17.46.836,SL_sali_41,2021.2.3,Win32,99.92006395,,,124,0,124,0,1,,,,,,,,
,,"[""diamond"",""red"",""hori"",""left"",[106,106],[150,0]]",diamond,red,hori,left,"[106,106]","[150,0]",left,1,1.2707,,,,,,001,2025-03-10_21h17.46.836,SL_sali_41,2021.2.3,Win32,99.92006395,,,125,0,125,0,1,,,,,,,,
,,"[""circle"",""green"",""hori"",""left"",[-150,0],[106,-106]]",circle,green,hori,left,"[-150,0]","[106,-106]",left,1,1.5503,,,,,,001,2025-03-10_21h17.46.836,SL_sali_41,2021.2.3,Win32,99.92006395,,,126,0,126,0,1,,,,,,,,
,,"[""circle"",""red"",""vert"",""up"",[106,106],[150,0]]",circle,red,vert,up,"[106,106]","[150,0]",up,1,0.8105,,,,,,001,2025-03-10_21h17.46.836,SL_sali_41,2021.2.3,Win32,99.92006395,,,127,0,127,0,1,,,,,,,,
,,,,,,,,,,,,,,,,,001,2025-03-10_21h17.46.836,SL_sali_41,2021.2.3,Win32,99.92006395,,,,,,,,3,space,5.7501,2,0,2,0,1
,,"[""circle"",""red"",""hori"",""left"",[106,-106],[-106,106]]",circle,red,hori,left,"[106,-106]","[-106,106]",left,1,0.989,,,,,,001,2025-03-10_21h17.46.836,SL_sali_41,2021.2.3,Win32,99.92006395,,,0,0,0,0,1,,,,,,,,
,,"[""circle"",""green"",""vert"",""up"",[150,0],[-106,106]]",circle,green,vert,up,"[150,0]","[-106,106]",up,1,0.8301,,,,,,001,2025-03-10_21h17.46.836,SL_sali_41,2021.2.3,Win32,99.92006395,,,1,0,1,0,1,,,,,,,,
,,"[""circle"",""no_dis"",""hori"",""left"",[99999,99999],[0,-150]]",circle,no_dis,hori,left,"[99999,99999]","[0,-150]",left,1,0.9403,,,,,,001,2025-03-10_21h17.46.836,SL_sali_41,2021.2.3,Win32,99.92006395,,,2,0,2,0,1,,,,,,,,
,,"[""diamond"",""green"",""vert"",""up"",[0,-150],[-106,-106]]",diamond,green,vert,up,"[0,-150]","[-106,-106]",up,1,1.0211,,,,,,001,2025-03-10_21h17.46.836,SL_sali_41,2021.2.3,Win32,99.92006395,,,3,0,3,0,1,,,,,,,,
,,"[""diamond"",""red"",""hori"",""left"",[106,106],[150,0]]",diamond,red,hori,left,"[106,106]","[150,0]",left,1,1.1202,,,,,,001,2025-03-10_21h17.46.836,SL_sali_41,2021.2.3,Win32,99.92006395,,,4,0,4,0,1,,,,,,,,
,,"[""diamond"",""red"",""vert"",""up"",[106,-106],[0,150]]",diamond,red,vert,up,"[106,-106]","[0,150]",up,1,0.6704,,,,,,001,2025-03-10_21h17.46.836,SL_sali_41,2021.2.3,Win32,99.92006395,,,5,0,5,0,1,,,,,,,,
,,"[""circle"",""red"",""hori"",""left"",[106,-106],[150,0]]",circle,red,hori,left,"[106,-106]","[150,0]",left,1,0.8006,,,,,,001,2025-03-10_21h17.46.836,SL_sali_41,2021.2.3,Win32,99.92006395,,,6,0,6,0,1,,,,,,,,
,,"[""circle"",""no_dis"",""hori"",""left"",[99999,99999],[-106,-106]]",circle,no_dis,hori,left,"[99999,99999]","[-106,-106]",left,1,0.8105,,,,,,001,2025-03-10_21h17.46.836,SL_sali_41,2021.2.3,Win32,99.92006395,,,7,0,7,0,1,,,,,,,,
,,"[""diamond"",""green"",""hori"",""left"",[106,-106],[106,106]]",diamond,green,hori,left,"[106,-106]","[106,106]",left,1,0.8097,,,,,,001,2025-03-10_21h17.46.836,SL_sali_41,2021.2.3,Win32,99.92006395,,,8,0,8,0,1,,,,,,,,
,,"[""diamond"",""no_dis"",""vert"",""up"",[99999,99999],[106,106]]",diamond,no_dis,vert,up,"[99999,99999]","[106,106]",up,1,1.5129,,,,,,001,2025-03-10_21h17.46.836,SL_sali_41,2021.2.3,Win32,99.92006395,,,9,0,9,0,1,,,,,,,,
,,"[""circle"",""red"",""vert"",""up"",[106,-106],[-150,0]]",circle,red,vert,up,"[106,-106]","[-150,0]",up,1,0.9701,,,,,,001,2025-03-10_21h17.46.836,SL_sali_41,2021.2.3,Win32,99.92006395,,,10,0,10,0,1,,,,,,,,
,,"[""circle"",""red"",""hori"",""left"",[-150,0],[106,106]]",circle,red,hori,left,"[-150,0]","[106,106]",left,1,1.0299,,,,,,001,2025-03-10_21h17.46.836,SL_sali_41,2021.2.3,Win32,99.92006395,,,11,0,11,0,1,,,,,,,,
,,"[""circle"",""no_dis"",""vert"",""up"",[99999,99999],[106,-106]]",circle,no_dis,vert,up,"[99999,99999]","[106,-106]",up,1,0.8395,,,,,,001,2025-03-10_21h17.46.836,SL_sali_41,2021.2.3,Win32,99.92006395,,,12,0,12,0,1,,,,,,,,
,,"[""circle"",""green"",""hori"",""left"",[106,106],[-106,106]]",circle,green,hori,left,"[106,106]","[-106,106]",left,1,0.8415,,,,,,001,2025-03-10_21h17.46.836,SL_sali_41,2021.2.3,Win32,99.92006395,,,13,0,13,0,1,,,,,,,,
,,"[""diamond"",""red"",""hori"",""left"",[106,-106],[-106,-106]]",diamond,red,hori,left,"[106,-106]","[-106,-106]",left,1,0.961,,,,,,001,2025-03-10_21h17.46.836,SL_sali_41,2021.2.3,Win32,99.92006395,,,14,0,14,0,1,,,,,,,,
,,"[""diamond"",""red"",""vert"",""up"",[-150,0],[-106,-106]]",diamond,red,vert,up,"[-150,0]","[-106,-106]",up,1,1.0892,,,,,,001,2025-03-10_21h17.46.836,SL_sali_41,2021.2.3,Win32,99.92006395,,,15,0,15,0,1,,,,,,,,
,,"[""circle"",""green"",""vert"",""up"",[-106,106],[150,0]]",circle,green,vert,up,"[-106,106]","[150,0]",up,1,1.1129,,,,,,001,2025-03-10_21h17.46.836,SL_sali_41,2021.2.3,Win32,99.92006395,,,16,0,16,0,1,,,,,,,,
,,"[""circle"",""green"",""vert"",""up"",[-106,-106],[106,106]]",circle,green,vert,up,"[-106,-106]","[106,106]",up,1,0.9103,,,,,,001,2025-03-10_21h17.46.836,SL_sali_41,2021.2.3,Win32,99.92006395,,,17,0,17,0,1,,,,,,,,
,,"[""diamond"",""red"",""vert"",""up"",[0,150],[-106,106]]",diamond,red,vert,up,"[0,150]","[-106,106]",up,1,1.3202,,,,,,001,2025-03-10_21h17.46.836,SL_sali_41,2021.2.3,Win32,99.92006395,,,18,0,18,0,1,,,,,,,,
,,"[""diamond"",""green"",""vert"",""up"",[-106,-106],[106,-106]]",diamond,green,vert,up,"[-106,-106]","[106,-106]",up,1,1.435,,,,,,001,2025-03-10_21h17.46.836,SL_sali_41,2021.2.3,Win32,99.92006395,,,19,0,19,0,1,,,,,,,,
,,"[""diamond"",""green"",""hori"",""left"",[106,-106],[0,150]]",diamond,green,hori,left,"[106,-106]","[0,150]",left,1,0.961,,,,,,001,2025-03-10_21h17.46.836,SL_sali_41,2021.2.3,Win32,99.92006395,,,20,0,20,0,1,,,,,,,,
,,"[""circle"",""red"",""hori"",""left"",[-106,-106],[106,106]]",circle,red,hori,left,"[-106,-106]","[106,106]",left,1,1.2703,,,,,,001,2025-03-10_21h17.46.836,SL_sali_41,2021.2.3,Win32,99.92006395,,,21,0,21,0,1,,,,,,,,
,,"[""diamond"",""red"",""hori"",""left"",[0,-150],[-150,0]]",diamond,red,hori,left,"[0,-150]","[-150,0]",left,1,1.6133,,,,,,001,2025-03-10_21h17.46.836,SL_sali_41,2021.2.3,Win32,99.92006395,,,22,0,22,0,1,,,,,,,,
,,"[""diamond"",""no_dis"",""hori"",""left"",[99999,99999],[150,0]]",diamond,no_dis,hori,left,"[99999,99999]","[150,0]",left,1,0.8002,,,,,,001,2025-03-10_21h17.46.836,SL_sali_41,2021.2.3,Win32,99.92006395,,,23,0,23,0,1,,,,,,,,
,,"[""diamond"",""green"",""vert"",""up"",[0,-150],[150,0]]",diamond,green,vert,up,"[0,-150]","[150,0]",up,1,1.0702,,,,,,001,2025-03-10_21h17.46.836,SL_sali_41,2021.2.3,Win32,99.92006395,,,24,0,24,0,1,,,,,,,,
,,"[""circle"",""no_dis"",""hori"",""left"",[99999,99999],[0,-150]]",circle,no_dis,hori,left,"[99999,99999]","[0,-150]",left,1,0.9907,,,,,,001,2025-03-10_21h17.46.836,SL_sali_41,2021.2.3,Win32,99.92006395,,,25,0,25,0,1,,,,,,,,
,,"[""diamond"",""green"",""hori"",""left"",[106,-106],[-106,-106]]",diamond,green,hori,left,"[106,-106]","[-106,-106]",left,1,1.0226,,,,,,001,2025-03-10_21h17.46.836,SL_sali_41,2021.2.3,Win32,99.92006395,,,26,0,26,0,1,,,,,,,,
,,"[""circle"",""green"",""hori"",""left"",[-106,106],[0,-150]]",circle,green,hori,left,"[-106,106]","[0,-150]",left,1,1.0903,,,,,,001,2025-03-10_21h17.46.836,SL_sali_41,2021.2.3,Win32,99.92006395,,,27,0,27,0,1,,,,,,,,
,,"[""diamond"",""no_dis"",""vert"",""up"",[99999,99999],[0,150]]",diamond,no_dis,vert,up,"[99999,99999]","[0,150]",up,1,0.8699,,,,,,001,2025-03-10_21h17.46.836,SL_sali_41,2021.2.3,Win32,99.92006395,,,28,0,28,0,1,,,,,,,,
,,"[""diamond"",""green"",""vert"",""up"",[106,106],[0,-150]]",diamond,green,vert,up,"[106,106]","[0,-150]",up,1,1.2492,,,,,,001,2025-03-10_21h17.46.836,SL_sali_41,2021.2.3,Win32,99.92006395,,,29,0,29,0,1,,,,,,,,
,,"[""circle"",""red"",""vert"",""up"",[106,-106],[-150,0]]",circle,red,vert,up,"[106,-106]","[-150,0]",up,1,1.3446,,,,,,001,2025-03-10_21h17.46.836,SL_sali_41,2021.2.3,Win32,99.92006395,,,30,0,30,0,1,,,,,,,,
,,"[""diamond"",""no_dis"",""vert"",""up"",[99999,99999],[-106,106]]",diamond,no_dis,vert,up,"[99999,99999]","[-106,106]",up,1,1.07,,,,,,001,2025-03-10_21h17.46.836,SL_sali_41,2021.2.3,Win32,99.92006395,,,31,0,31,0,1,,,,,,,,
,,"[""diamond"",""no_dis"",""hori"",""left"",[99999,99999],[0,150]]",diamond,no_dis,hori,left,"[99999,99999]","[0,150]",left,1,0.9825,,,,,,001,2025-03-10_21h17.46.836,SL_sali_41,2021.2.3,Win32,99.92006395,,,32,0,32,0,1,,,,,,,,
,,"[""diamond"",""no_dis"",""hori"",""left"",[99999,99999],[150,0]]",diamond,no_dis,hori,left,"[99999,99999]","[150,0]",left,1,0.8224,,,,,,001,2025-03-10_21h17.46.836,SL_sali_41,2021.2.3,Win32,99.92006395,,,33,0,33,0,1,,,,,,,,
,,"[""diamond"",""green"",""hori"",""left"",[-106,106],[150,0]]",diamond,green,hori,left,"[-106,106]","[150,0]",left,1,0.8004,,,,,,001,2025-03-10_21h17.46.836,SL_sali_41,2021.2.3,Win32,99.92006395,,,34,0,34,0,1,,,,,,,,
,,"[""diamond"",""red"",""hori"",""left"",[106,-106],[0,150]]",diamond,red,hori,left,"[106,-106]","[0,150]",left,1,0.7699,,,,,,001,2025-03-10_21h17.46.836,SL_sali_41,2021.2.3,Win32,99.92006395,,,35,0,35,0,1,,,,,,,,
,,"[""diamond"",""green"",""hori"",""left"",[106,-106],[-106,106]]",diamond,green,hori,left,"[106,-106]","[-106,106]",left,1,0.8912,,,,,,001,2025-03-10_21h17.46.836,SL_sali_41,2021.2.3,Win32,99.92006395,,,36,0,36,0,1,,,,,,,,
,,"[""circle"",""no_dis"",""hori"",""left"",[99999,99999],[0,150]]",circle,no_dis,hori,left,"[99999,99999]","[0,150]",left,1,0.9205,,,,,,001,2025-03-10_21h17.46.836,SL_sali_41,2021.2.3,Win32,99.92006395,,,37,0,37,0,1,,,,,,,,
,,"[""circle"",""red"",""hori"",""left"",[106,-106],[-150,0]]",circle,red,hori,left,"[106,-106]","[-150,0]",left,1,1.1905,,,,,,001,2025-03-10_21h17.46.836,SL_sali_41,2021.2.3,Win32,99.92006395,,,38,0,38,0,1,,,,,,,,
,,"[""diamond"",""red"",""hori"",""left"",[-150,0],[0,150]]",diamond,red,hori,left,"[-150,0]","[0,150]",left,1,0.8401,,,,,,001,2025-03-10_21h17.46.836,SL_sali_41,2021.2.3,Win32,99.92006395,,,39,0,39,0,1,,,,,,,,
,,"[""diamond"",""red"",""hori"",""left"",[0,150],[0,-150]]",diamond,red,hori,left,"[0,150]","[0,-150]",left,1,0.9631,,,,,,001,2025-03-10_21h17.46.836,SL_sali_41,2021.2.3,Win32,99.92006395,,,40,0,40,0,1,,,,,,,,
,,"[""diamond"",""red"",""hori"",""left"",[150,0],[0,-150]]",diamond,red,hori,left,"[150,0]","[0,-150]",left,1,0.8403,,,,,,001,2025-03-10_21h17.46.836,SL_sali_41,2021.2.3,Win32,99.92006395,,,41,0,41,0,1,,,,,,,,
,,"[""circle"",""green"",""hori"",""left"",[106,-106],[0,150]]",circle,green,hori,left,"[106,-106]","[0,150]",left,1,1.0508,,,,,,001,2025-03-10_21h17.46.836,SL_sali_41,2021.2.3,Win32,99.92006395,,,42,0,42,0,1,,,,,,,,
,,"[""circle"",""red"",""hori"",""left"",[-106,-106],[-106,106]]",circle,red,hori,left,"[-106,-106]","[-106,106]",left,1,0.8205,,,,,,001,2025-03-10_21h17.46.836,SL_sali_41,2021.2.3,Win32,99.92006395,,,43,0,43,0,1,,,,,,,,
,,"[""circle"",""no_dis"",""vert"",""up"",[99999,99999],[106,106]]",circle,no_dis,vert,up,"[99999,99999]","[106,106]",up,1,0.7703,,,,,,001,2025-03-10_21h17.46.836,SL_sali_41,2021.2.3,Win32,99.92006395,,,44,0,44,0,1,,,,,,,,
,,"[""diamond"",""green"",""hori"",""left"",[106,106],[150,0]]",diamond,green,hori,left,"[106,106]","[150,0]",left,1,1.4503,,,,,,001,2025-03-10_21h17.46.836,SL_sali_41,2021.2.3,Win32,99.92006395,,,45,0,45,0,1,,,,,,,,
,,"[""circle"",""green"",""vert"",""up"",[106,106],[-106,106]]",circle,green,vert,up,"[106,106]","[-106,106]",up,1,1.3098,,,,,,001,2025-03-10_21h17.46.836,SL_sali_41,2021.2.3,Win32,99.92006395,,,46,0,46,0,1,,,,,,,,
,,"[""diamond"",""green"",""vert"",""up"",[-150,0],[0,-150]]",diamond,green,vert,up,"[-150,0]","[0,-150]",up,1,0.7322,,,,,,001,2025-03-10_21h17.46.836,SL_sali_41,2021.2.3,Win32,99.92006395,,,47,0,47,0,1,,,,,,,,
,,"[""diamond"",""red"",""vert"",""up"",[-106,106],[106,-106]]",diamond,red,vert,up,"[-106,106]","[106,-106]",up,1,1.2396,,,,,,001,2025-03-10_21h17.46.836,SL_sali_41,2021.2.3,Win32,99.92006395,,,48,0,48,0,1,,,,,,,,
,,"[""diamond"",""green"",""hori"",""left"",[0,150],[-106,-106]]",diamond,green,hori,left,"[0,150]","[-106,-106]",left,1,0.9206,,,,,,001,2025-03-10_21h17.46.836,SL_sali_41,2021.2.3,Win32,99.92006395,,,49,0,49,0,1,,,,,,,,
,,"[""diamond"",""red"",""hori"",""left"",[106,106],[150,0]]",diamond,red,hori,left,"[106,106]","[150,0]",left,1,0.6732,,,,,,001,2025-03-10_21h17.46.836,SL_sali_41,2021.2.3,Win32,99.92006395,,,50,0,50,0,1,,,,,,,,
,,"[""circle"",""red"",""vert"",""up"",[-106,106],[106,-106]]",circle,red,vert,up,"[-106,106]","[106,-106]",up,1,0.9805,,,,,,001,2025-03-10_21h17.46.836,SL_sali_41,2021.2.3,Win32,99.92006395,,,51,0,51,0,1,,,,,,,,
,,"[""diamond"",""no_dis"",""vert"",""up"",[99999,99999],[0,-150]]",diamond,no_dis,vert,up,"[99999,99999]","[0,-150]",up,1,0.7595,,,,,,001,2025-03-10_21h17.46.836,SL_sali_41,2021.2.3,Win32,99.92006395,,,52,0,52,0,1,,,,,,,,
,,"[""diamond"",""no_dis"",""vert"",""up"",[99999,99999],[-106,-106]]",diamond,no_dis,vert,up,"[99999,99999]","[-106,-106]",up,1,1.1604,,,,,,001,2025-03-10_21h17.46.836,SL_sali_41,2021.2.3,Win32,99.92006395,,,53,0,53,0,1,,,,,,,,
,,"[""diamond"",""no_dis"",""vert"",""up"",[99999,99999],[106,-106]]",diamond,no_dis,vert,up,"[99999,99999]","[106,-106]",up,1,0.6004,,,,,,001,2025-03-10_21h17.46.836,SL_sali_41,2021.2.3,Win32,99.92006395,,,54,0,54,0,1,,,,,,,,
,,"[""diamond"",""red"",""vert"",""up"",[150,0],[-150,0]]",diamond,red,vert,up,"[150,0]","[-150,0]",up,1,0.8006,,,,,,001,2025-03-10_21h17.46.836,SL_sali_41,2021.2.3,Win32,99.92006395,,,55,0,55,0,1,,,,,,,,
,,"[""diamond"",""red"",""vert"",""up"",[-106,106],[-150,0]]",diamond,red,vert,up,"[-106,106]","[-150,0]",up,1,0.7203,,,,,,001,2025-03-10_21h17.46.836,SL_sali_41,2021.2.3,Win32,99.92006395,,,56,0,56,0,1,,,,,,,,
,,"[""diamond"",""no_dis"",""vert"",""up"",[99999,99999],[106,-106]]",diamond,no_dis,vert,up,"[99999,99999]","[106,-106]",up,1,0.6301,,,,,,001,2025-03-10_21h17.46.836,SL_sali_41,2021.2.3,Win32,99.92006395,,,57,0,57,0,1,,,,,,,,
,,"[""circle"",""green"",""vert"",""up"",[106,-106],[0,-150]]",circle,green,vert,up,"[106,-106]","[0,-150]",up,1,0.9902,,,,,,001,2025-03-10_21h17.46.836,SL_sali_41,2021.2.3,Win32,99.92006395,,,58,0,58,0,1,,,,,,,,
,,"[""diamond"",""green"",""vert"",""up"",[106,-106],[-106,106]]",diamond,green,vert,up,"[106,-106]","[-106,106]",up,1,1.043,,,,,,001,2025-03-10_21h17.46.836,SL_sali_41,2021.2.3,Win32,99.92006395,,,59,0,59,0,1,,,,,,,,
