﻿key_resp.keys,key_resp.rt,trial_para,tar_shape,dis_color_condi,tar_line,cor_resp,dis_loc,tar_loc,resp.keys,resp.corr,resp.rt,trials.thisRepN,trials.thisTrialN,trials.thisN,trials.thisIndex,trials.ran,participant,date,expName,psychopyVersion,OS,frameRate,key_resp_2.keys,key_resp_2.rt,trials_2.thisRepN,trials_2.thisTrialN,trials_2.thisN,trials_2.thisIndex,trials_2.ran,block_num,key_resp_3.keys,key_resp_3.rt,trials_3.thisRepN,trials_3.thisTrialN,trials_3.thisN,trials_3.thisIndex,trials_3.ran
space,26.9718,"[""circle"",""no_dis"",""vert"",""up"",[99999,99999],[0,-150]]",circle,no_dis,vert,up,"[99999,99999]","[0,-150]",up,1,1.1045,0,0,0,0,1,001,2025-03-10_20h24.58.980,SL_sali_41,2021.2.3,Win32,120.4819277,,,,,,,,,,,,,,,
,,"[""diamond"",""no_dis"",""vert"",""up"",[99999,99999],[-106,106]]",diamond,no_dis,vert,up,"[99999,99999]","[-106,106]",up,1,1.5159,1,0,1,0,1,001,2025-03-10_20h24.58.980,SL_sali_41,2021.2.3,Win32,120.4819277,,,,,,,,,,,,,,,
,,"[""diamond"",""red"",""hori"",""left"",[0,150],[-150,0]]",diamond,red,hori,left,"[0,150]","[-150,0]",left,1,1.2342,2,0,2,0,1,001,2025-03-10_20h24.58.980,SL_sali_41,2021.2.3,Win32,120.4819277,,,,,,,,,,,,,,,
,,"[""diamond"",""green"",""vert"",""up"",[-106,-106],[106,106]]",diamond,green,vert,up,"[-106,-106]","[106,106]",up,1,0.8202,3,0,3,0,1,001,2025-03-10_20h24.58.980,SL_sali_41,2021.2.3,Win32,120.4819277,,,,,,,,,,,,,,,
,,"[""circle"",""red"",""vert"",""up"",[106,-106],[0,150]]",circle,red,vert,up,"[106,-106]","[0,150]",up,1,1.192,4,0,4,0,1,001,2025-03-10_20h24.58.980,SL_sali_41,2021.2.3,Win32,120.4819277,,,,,,,,,,,,,,,
,,"[""diamond"",""no_dis"",""vert"",""up"",[99999,99999],[-106,-106]]",diamond,no_dis,vert,up,"[99999,99999]","[-106,-106]",up,1,0.7005,5,0,5,0,1,001,2025-03-10_20h24.58.980,SL_sali_41,2021.2.3,Win32,120.4819277,,,,,,,,,,,,,,,
,,"[""circle"",""green"",""hori"",""left"",[-106,106],[0,-150]]",circle,green,hori,left,"[-106,106]","[0,-150]",left,1,0.8837,6,0,6,0,1,001,2025-03-10_20h24.58.980,SL_sali_41,2021.2.3,Win32,120.4819277,,,,,,,,,,,,,,,
,,"[""circle"",""no_dis"",""hori"",""left"",[99999,99999],[106,-106]]",circle,no_dis,hori,left,"[99999,99999]","[106,-106]",left,1,0.651,7,0,7,0,1,001,2025-03-10_20h24.58.980,SL_sali_41,2021.2.3,Win32,120.4819277,,,,,,,,,,,,,,,
,,"[""diamond"",""no_dis"",""hori"",""left"",[99999,99999],[-106,106]]",diamond,no_dis,hori,left,"[99999,99999]","[-106,106]",left,1,2.2065,8,0,8,0,1,001,2025-03-10_20h24.58.980,SL_sali_41,2021.2.3,Win32,120.4819277,,,,,,,,,,,,,,,
,,"[""circle"",""green"",""vert"",""up"",[0,-150],[150,0]]",circle,green,vert,up,"[0,-150]","[150,0]",left,0,1.3716,9,0,9,0,1,001,2025-03-10_20h24.58.980,SL_sali_41,2021.2.3,Win32,120.4819277,,,,,,,,,,,,,,,
,,"[""circle"",""no_dis"",""vert"",""up"",[99999,99999],[0,-150]]",circle,no_dis,vert,up,"[99999,99999]","[0,-150]",up,1,0.6671,,,,,,001,2025-03-10_20h24.58.980,SL_sali_41,2021.2.3,Win32,120.4819277,space,5.1493,0,0,0,0,1,,,,,,,,
,,"[""diamond"",""no_dis"",""vert"",""up"",[99999,99999],[-106,106]]",diamond,no_dis,vert,up,"[99999,99999]","[-106,106]",up,1,0.9748,,,,,,001,2025-03-10_20h24.58.980,SL_sali_41,2021.2.3,Win32,120.4819277,,,1,0,1,0,1,,,,,,,,
,,"[""diamond"",""red"",""hori"",""left"",[0,150],[-150,0]]",diamond,red,hori,left,"[0,150]","[-150,0]",left,1,1.4162,,,,,,001,2025-03-10_20h24.58.980,SL_sali_41,2021.2.3,Win32,120.4819277,,,2,0,2,0,1,,,,,,,,
,,"[""diamond"",""green"",""vert"",""up"",[-106,-106],[106,106]]",diamond,green,vert,up,"[-106,-106]","[106,106]",up,1,0.8364,,,,,,001,2025-03-10_20h24.58.980,SL_sali_41,2021.2.3,Win32,120.4819277,,,3,0,3,0,1,,,,,,,,
,,"[""circle"",""red"",""vert"",""up"",[106,-106],[0,150]]",circle,red,vert,up,"[106,-106]","[0,150]",up,1,0.8114,,,,,,001,2025-03-10_20h24.58.980,SL_sali_41,2021.2.3,Win32,120.4819277,,,4,0,4,0,1,,,,,,,,
,,"[""diamond"",""no_dis"",""vert"",""up"",[99999,99999],[-106,-106]]",diamond,no_dis,vert,up,"[99999,99999]","[-106,-106]",up,1,0.8821,,,,,,001,2025-03-10_20h24.58.980,SL_sali_41,2021.2.3,Win32,120.4819277,,,5,0,5,0,1,,,,,,,,
,,"[""circle"",""green"",""hori"",""left"",[-106,106],[0,-150]]",circle,green,hori,left,"[-106,106]","[0,-150]",left,1,0.7963,,,,,,001,2025-03-10_20h24.58.980,SL_sali_41,2021.2.3,Win32,120.4819277,,,6,0,6,0,1,,,,,,,,
,,"[""circle"",""no_dis"",""hori"",""left"",[99999,99999],[106,-106]]",circle,no_dis,hori,left,"[99999,99999]","[106,-106]",left,1,0.8022,,,,,,001,2025-03-10_20h24.58.980,SL_sali_41,2021.2.3,Win32,120.4819277,,,7,0,7,0,1,,,,,,,,
,,"[""diamond"",""no_dis"",""hori"",""left"",[99999,99999],[-106,106]]",diamond,no_dis,hori,left,"[99999,99999]","[-106,106]",left,1,1.3252,,,,,,001,2025-03-10_20h24.58.980,SL_sali_41,2021.2.3,Win32,120.4819277,,,8,0,8,0,1,,,,,,,,
,,"[""circle"",""green"",""vert"",""up"",[0,-150],[150,0]]",circle,green,vert,up,"[0,-150]","[150,0]",up,1,0.8518,,,,,,001,2025-03-10_20h24.58.980,SL_sali_41,2021.2.3,Win32,120.4819277,,,9,0,9,0,1,,,,,,,,
,,"[""circle"",""red"",""hori"",""left"",[106,106],[-150,0]]",circle,red,hori,left,"[106,106]","[-150,0]",left,1,0.9086,,,,,,001,2025-03-10_20h24.58.980,SL_sali_41,2021.2.3,Win32,120.4819277,,,10,0,10,0,1,,,,,,,,
,,"[""diamond"",""red"",""vert"",""up"",[106,-106],[-150,0]]",diamond,red,vert,up,"[106,-106]","[-150,0]",up,1,1.8903,,,,,,001,2025-03-10_20h24.58.980,SL_sali_41,2021.2.3,Win32,120.4819277,,,11,0,11,0,1,,,,,,,,
,,"[""circle"",""no_dis"",""hori"",""left"",[99999,99999],[-106,106]]",circle,no_dis,hori,left,"[99999,99999]","[-106,106]",left,1,0.7755,,,,,,001,2025-03-10_20h24.58.980,SL_sali_41,2021.2.3,Win32,120.4819277,,,12,0,12,0,1,,,,,,,,
,,"[""circle"",""red"",""hori"",""left"",[106,-106],[-150,0]]",circle,red,hori,left,"[106,-106]","[-150,0]",left,1,1.1442,,,,,,001,2025-03-10_20h24.58.980,SL_sali_41,2021.2.3,Win32,120.4819277,,,13,0,13,0,1,,,,,,,,
,,"[""circle"",""no_dis"",""hori"",""left"",[99999,99999],[0,150]]",circle,no_dis,hori,left,"[99999,99999]","[0,150]",left,1,0.6673,,,,,,001,2025-03-10_20h24.58.980,SL_sali_41,2021.2.3,Win32,120.4819277,,,14,0,14,0,1,,,,,,,,
,,"[""diamond"",""green"",""vert"",""up"",[-106,106],[150,0]]",diamond,green,vert,up,"[-106,106]","[150,0]",up,1,1.2112,,,,,,001,2025-03-10_20h24.58.980,SL_sali_41,2021.2.3,Win32,120.4819277,,,15,0,15,0,1,,,,,,,,
,,"[""diamond"",""red"",""hori"",""left"",[106,-106],[-106,-106]]",diamond,red,hori,left,"[106,-106]","[-106,-106]",left,1,1.264,,,,,,001,2025-03-10_20h24.58.980,SL_sali_41,2021.2.3,Win32,120.4819277,,,16,0,16,0,1,,,,,,,,
,,"[""circle"",""red"",""vert"",""up"",[106,106],[-106,106]]",circle,red,vert,up,"[106,106]","[-106,106]",up,1,1.4017,,,,,,001,2025-03-10_20h24.58.980,SL_sali_41,2021.2.3,Win32,120.4819277,,,17,0,17,0,1,,,,,,,,
,,"[""circle"",""red"",""vert"",""up"",[106,-106],[150,0]]",circle,red,vert,up,"[106,-106]","[150,0]",up,1,1.5277,,,,,,001,2025-03-10_20h24.58.980,SL_sali_41,2021.2.3,Win32,120.4819277,,,18,0,18,0,1,,,,,,,,
,,"[""circle"",""green"",""hori"",""left"",[106,106],[0,-150]]",circle,green,hori,left,"[106,106]","[0,-150]",left,1,0.6916,,,,,,001,2025-03-10_20h24.58.980,SL_sali_41,2021.2.3,Win32,120.4819277,,,19,0,19,0,1,,,,,,,,
,,"[""circle"",""no_dis"",""vert"",""up"",[99999,99999],[0,-150]]",circle,no_dis,vert,up,"[99999,99999]","[0,-150]",up,1,0.9169,,,,,,001,2025-03-10_20h24.58.980,SL_sali_41,2021.2.3,Win32,120.4819277,,,20,0,20,0,1,,,,,,,,
,,"[""diamond"",""green"",""vert"",""up"",[-106,106],[-106,-106]]",diamond,green,vert,up,"[-106,106]","[-106,-106]",up,1,1.0825,,,,,,001,2025-03-10_20h24.58.980,SL_sali_41,2021.2.3,Win32,120.4819277,,,21,0,21,0,1,,,,,,,,
,,"[""circle"",""red"",""vert"",""up"",[-106,106],[0,150]]",circle,red,vert,up,"[-106,106]","[0,150]",up,1,1.1179,,,,,,001,2025-03-10_20h24.58.980,SL_sali_41,2021.2.3,Win32,120.4819277,,,22,0,22,0,1,,,,,,,,
,,"[""circle"",""green"",""vert"",""up"",[0,-150],[-150,0]]",circle,green,vert,up,"[0,-150]","[-150,0]",up,1,1.2138,,,,,,001,2025-03-10_20h24.58.980,SL_sali_41,2021.2.3,Win32,120.4819277,,,23,0,23,0,1,,,,,,,,
,,"[""diamond"",""no_dis"",""vert"",""up"",[99999,99999],[0,150]]",diamond,no_dis,vert,up,"[99999,99999]","[0,150]",up,1,1.0217,,,,,,001,2025-03-10_20h24.58.980,SL_sali_41,2021.2.3,Win32,120.4819277,,,24,0,24,0,1,,,,,,,,
,,"[""diamond"",""red"",""vert"",""up"",[106,-106],[-106,106]]",diamond,red,vert,up,"[106,-106]","[-106,106]",up,1,1.1123,,,,,,001,2025-03-10_20h24.58.980,SL_sali_41,2021.2.3,Win32,120.4819277,,,25,0,25,0,1,,,,,,,,
,,"[""circle"",""green"",""vert"",""up"",[150,0],[106,106]]",circle,green,vert,up,"[150,0]","[106,106]",up,1,0.664,,,,,,001,2025-03-10_20h24.58.980,SL_sali_41,2021.2.3,Win32,120.4819277,,,26,0,26,0,1,,,,,,,,
,,"[""diamond"",""red"",""vert"",""up"",[150,0],[106,106]]",diamond,red,vert,up,"[150,0]","[106,106]",up,1,0.9979,,,,,,001,2025-03-10_20h24.58.980,SL_sali_41,2021.2.3,Win32,120.4819277,,,27,0,27,0,1,,,,,,,,
,,"[""diamond"",""red"",""vert"",""up"",[106,-106],[0,150]]",diamond,red,vert,up,"[106,-106]","[0,150]",up,1,1.028,,,,,,001,2025-03-10_20h24.58.980,SL_sali_41,2021.2.3,Win32,120.4819277,,,28,0,28,0,1,,,,,,,,
,,"[""circle"",""green"",""vert"",""up"",[0,150],[0,-150]]",circle,green,vert,up,"[0,150]","[0,-150]",up,1,0.7328,,,,,,001,2025-03-10_20h24.58.980,SL_sali_41,2021.2.3,Win32,120.4819277,,,29,0,29,0,1,,,,,,,,
,,"[""diamond"",""no_dis"",""hori"",""left"",[99999,99999],[106,-106]]",diamond,no_dis,hori,left,"[99999,99999]","[106,-106]",left,1,1.0953,,,,,,001,2025-03-10_20h24.58.980,SL_sali_41,2021.2.3,Win32,120.4819277,,,30,0,30,0,1,,,,,,,,
,,"[""diamond"",""red"",""hori"",""left"",[106,-106],[0,-150]]",diamond,red,hori,left,"[106,-106]","[0,-150]",left,1,1.329,,,,,,001,2025-03-10_20h24.58.980,SL_sali_41,2021.2.3,Win32,120.4819277,,,31,0,31,0,1,,,,,,,,
,,"[""diamond"",""no_dis"",""hori"",""left"",[99999,99999],[150,0]]",diamond,no_dis,hori,left,"[99999,99999]","[150,0]",left,1,1.0654,,,,,,001,2025-03-10_20h24.58.980,SL_sali_41,2021.2.3,Win32,120.4819277,,,32,0,32,0,1,,,,,,,,
,,"[""circle"",""red"",""hori"",""left"",[150,0],[0,-150]]",circle,red,hori,left,"[150,0]","[0,-150]",left,1,1.862,,,,,,001,2025-03-10_20h24.58.980,SL_sali_41,2021.2.3,Win32,120.4819277,,,33,0,33,0,1,,,,,,,,
,,"[""diamond"",""green"",""vert"",""up"",[106,-106],[-150,0]]",diamond,green,vert,up,"[106,-106]","[-150,0]",up,1,1.5565,,,,,,001,2025-03-10_20h24.58.980,SL_sali_41,2021.2.3,Win32,120.4819277,,,34,0,34,0,1,,,,,,,,
,,"[""circle"",""green"",""vert"",""up"",[-106,-106],[150,0]]",circle,green,vert,up,"[-106,-106]","[150,0]",up,1,0.7583,,,,,,001,2025-03-10_20h24.58.980,SL_sali_41,2021.2.3,Win32,120.4819277,,,35,0,35,0,1,,,,,,,,
,,"[""circle"",""green"",""hori"",""left"",[106,-106],[-106,106]]",circle,green,hori,left,"[106,-106]","[-106,106]",left,1,0.9968,,,,,,001,2025-03-10_20h24.58.980,SL_sali_41,2021.2.3,Win32,120.4819277,,,36,0,36,0,1,,,,,,,,
,,"[""circle"",""red"",""hori"",""left"",[106,-106],[-106,106]]",circle,red,hori,left,"[106,-106]","[-106,106]",left,1,0.7268,,,,,,001,2025-03-10_20h24.58.980,SL_sali_41,2021.2.3,Win32,120.4819277,,,37,0,37,0,1,,,,,,,,
,,"[""diamond"",""green"",""vert"",""up"",[0,-150],[-106,106]]",diamond,green,vert,up,"[0,-150]","[-106,106]",up,1,1.3313,,,,,,001,2025-03-10_20h24.58.980,SL_sali_41,2021.2.3,Win32,120.4819277,,,38,0,38,0,1,,,,,,,,
,,"[""diamond"",""green"",""hori"",""left"",[-106,-106],[106,106]]",diamond,green,hori,left,"[-106,-106]","[106,106]",left,1,1.6189,,,,,,001,2025-03-10_20h24.58.980,SL_sali_41,2021.2.3,Win32,120.4819277,,,39,0,39,0,1,,,,,,,,
,,"[""diamond"",""no_dis"",""vert"",""up"",[99999,99999],[0,150]]",diamond,no_dis,vert,up,"[99999,99999]","[0,150]",up,1,1.4775,,,,,,001,2025-03-10_20h24.58.980,SL_sali_41,2021.2.3,Win32,120.4819277,,,40,0,40,0,1,,,,,,,,
,,"[""circle"",""red"",""hori"",""left"",[106,106],[-106,106]]",circle,red,hori,left,"[106,106]","[-106,106]",left,1,1.4944,,,,,,001,2025-03-10_20h24.58.980,SL_sali_41,2021.2.3,Win32,120.4819277,,,41,0,41,0,1,,,,,,,,
,,"[""diamond"",""red"",""hori"",""left"",[-150,0],[0,150]]",diamond,red,hori,left,"[-150,0]","[0,150]",left,1,1.2822,,,,,,001,2025-03-10_20h24.58.980,SL_sali_41,2021.2.3,Win32,120.4819277,,,42,0,42,0,1,,,,,,,,
,,"[""circle"",""no_dis"",""vert"",""up"",[99999,99999],[-106,106]]",circle,no_dis,vert,up,"[99999,99999]","[-106,106]",up,1,0.939,,,,,,001,2025-03-10_20h24.58.980,SL_sali_41,2021.2.3,Win32,120.4819277,,,43,0,43,0,1,,,,,,,,
,,"[""diamond"",""green"",""vert"",""up"",[0,150],[150,0]]",diamond,green,vert,up,"[0,150]","[150,0]",up,1,1.4033,,,,,,001,2025-03-10_20h24.58.980,SL_sali_41,2021.2.3,Win32,120.4819277,,,44,0,44,0,1,,,,,,,,
,,"[""diamond"",""red"",""hori"",""left"",[-106,-106],[106,-106]]",diamond,red,hori,left,"[-106,-106]","[106,-106]",left,1,1.6344,,,,,,001,2025-03-10_20h24.58.980,SL_sali_41,2021.2.3,Win32,120.4819277,,,45,0,45,0,1,,,,,,,,
,,"[""circle"",""green"",""hori"",""left"",[106,-106],[-106,-106]]",circle,green,hori,left,"[106,-106]","[-106,-106]",left,1,0.8278,,,,,,001,2025-03-10_20h24.58.980,SL_sali_41,2021.2.3,Win32,120.4819277,,,46,0,46,0,1,,,,,,,,
,,"[""circle"",""red"",""hori"",""left"",[-106,-106],[106,106]]",circle,red,hori,left,"[-106,-106]","[106,106]",left,1,1.4764,,,,,,001,2025-03-10_20h24.58.980,SL_sali_41,2021.2.3,Win32,120.4819277,,,47,0,47,0,1,,,,,,,,
,,"[""diamond"",""red"",""vert"",""up"",[106,-106],[106,106]]",diamond,red,vert,up,"[106,-106]","[106,106]",up,1,1.3453,,,,,,001,2025-03-10_20h24.58.980,SL_sali_41,2021.2.3,Win32,120.4819277,,,48,0,48,0,1,,,,,,,,
,,"[""diamond"",""no_dis"",""vert"",""up"",[99999,99999],[-150,0]]",diamond,no_dis,vert,up,"[99999,99999]","[-150,0]",up,1,1.1008,,,,,,001,2025-03-10_20h24.58.980,SL_sali_41,2021.2.3,Win32,120.4819277,,,49,0,49,0,1,,,,,,,,
,,"[""diamond"",""no_dis"",""vert"",""up"",[99999,99999],[-150,0]]",diamond,no_dis,vert,up,"[99999,99999]","[-150,0]",up,1,1.0082,,,,,,001,2025-03-10_20h24.58.980,SL_sali_41,2021.2.3,Win32,120.4819277,,,50,0,50,0,1,,,,,,,,
,,"[""diamond"",""green"",""hori"",""left"",[-106,-106],[-106,106]]",diamond,green,hori,left,"[-106,-106]","[-106,106]",left,1,1.0167,,,,,,001,2025-03-10_20h24.58.980,SL_sali_41,2021.2.3,Win32,120.4819277,,,51,0,51,0,1,,,,,,,,
,,"[""diamond"",""no_dis"",""vert"",""up"",[99999,99999],[0,-150]]",diamond,no_dis,vert,up,"[99999,99999]","[0,-150]",up,1,0.6865,,,,,,001,2025-03-10_20h24.58.980,SL_sali_41,2021.2.3,Win32,120.4819277,,,52,0,52,0,1,,,,,,,,
,,"[""diamond"",""green"",""hori"",""left"",[106,-106],[0,150]]",diamond,green,hori,left,"[106,-106]","[0,150]",left,1,0.7004,,,,,,001,2025-03-10_20h24.58.980,SL_sali_41,2021.2.3,Win32,120.4819277,,,53,0,53,0,1,,,,,,,,
,,"[""diamond"",""red"",""hori"",""left"",[0,150],[-106,-106]]",diamond,red,hori,left,"[0,150]","[-106,-106]",left,1,1.1779,,,,,,001,2025-03-10_20h24.58.980,SL_sali_41,2021.2.3,Win32,120.4819277,,,54,0,54,0,1,,,,,,,,
,,"[""circle"",""red"",""hori"",""left"",[-150,0],[-106,106]]",circle,red,hori,left,"[-150,0]","[-106,106]",left,1,1.0004,,,,,,001,2025-03-10_20h24.58.980,SL_sali_41,2021.2.3,Win32,120.4819277,,,55,0,55,0,1,,,,,,,,
,,"[""diamond"",""red"",""hori"",""left"",[106,-106],[-150,0]]",diamond,red,hori,left,"[106,-106]","[-150,0]",left,1,0.7598,,,,,,001,2025-03-10_20h24.58.980,SL_sali_41,2021.2.3,Win32,120.4819277,,,56,0,56,0,1,,,,,,,,
,,"[""circle"",""no_dis"",""hori"",""left"",[99999,99999],[150,0]]",circle,no_dis,hori,left,"[99999,99999]","[150,0]",left,1,0.6758,,,,,,001,2025-03-10_20h24.58.980,SL_sali_41,2021.2.3,Win32,120.4819277,,,57,0,57,0,1,,,,,,,,
,,"[""circle"",""red"",""vert"",""up"",[106,106],[-106,106]]",circle,red,vert,up,"[106,106]","[-106,106]",up,1,1.8083,,,,,,001,2025-03-10_20h24.58.980,SL_sali_41,2021.2.3,Win32,120.4819277,,,58,0,58,0,1,,,,,,,,
,,"[""circle"",""no_dis"",""hori"",""left"",[99999,99999],[106,106]]",circle,no_dis,hori,left,"[99999,99999]","[106,106]",left,1,1.2012,,,,,,001,2025-03-10_20h24.58.980,SL_sali_41,2021.2.3,Win32,120.4819277,,,59,0,59,0,1,,,,,,,,
,,"[""diamond"",""red"",""hori"",""left"",[0,-150],[106,-106]]",diamond,red,hori,left,"[0,-150]","[106,-106]",left,1,2.2415,,,,,,001,2025-03-10_20h24.58.980,SL_sali_41,2021.2.3,Win32,120.4819277,,,60,0,60,0,1,,,,,,,,
,,"[""diamond"",""red"",""vert"",""up"",[106,-106],[0,150]]",diamond,red,vert,up,"[106,-106]","[0,150]",up,1,1.3589,,,,,,001,2025-03-10_20h24.58.980,SL_sali_41,2021.2.3,Win32,120.4819277,,,61,0,61,0,1,,,,,,,,
,,"[""circle"",""no_dis"",""hori"",""left"",[99999,99999],[106,106]]",circle,no_dis,hori,left,"[99999,99999]","[106,106]",left,1,0.7666,,,,,,001,2025-03-10_20h24.58.980,SL_sali_41,2021.2.3,Win32,120.4819277,,,62,0,62,0,1,,,,,,,,
,,"[""circle"",""red"",""vert"",""up"",[150,0],[0,150]]",circle,red,vert,up,"[150,0]","[0,150]",up,1,1.259,,,,,,001,2025-03-10_20h24.58.980,SL_sali_41,2021.2.3,Win32,120.4819277,,,63,0,63,0,1,,,,,,,,
,,"[""diamond"",""green"",""hori"",""left"",[106,106],[0,150]]",diamond,green,hori,left,"[106,106]","[0,150]",left,1,1.0086,,,,,,001,2025-03-10_20h24.58.980,SL_sali_41,2021.2.3,Win32,120.4819277,,,64,0,64,0,1,,,,,,,,
,,"[""circle"",""green"",""vert"",""up"",[150,0],[0,150]]",circle,green,vert,up,"[150,0]","[0,150]",up,1,0.6838,,,,,,001,2025-03-10_20h24.58.980,SL_sali_41,2021.2.3,Win32,120.4819277,,,65,0,65,0,1,,,,,,,,
,,"[""circle"",""green"",""hori"",""left"",[-150,0],[106,106]]",circle,green,hori,left,"[-150,0]","[106,106]",left,1,0.5948,,,,,,001,2025-03-10_20h24.58.980,SL_sali_41,2021.2.3,Win32,120.4819277,,,66,0,66,0,1,,,,,,,,
,,"[""diamond"",""green"",""hori"",""left"",[0,150],[150,0]]",diamond,green,hori,left,"[0,150]","[150,0]",left,1,1.1494,,,,,,001,2025-03-10_20h24.58.980,SL_sali_41,2021.2.3,Win32,120.4819277,,,67,0,67,0,1,,,,,,,,
,,"[""diamond"",""green"",""vert"",""up"",[0,-150],[-106,-106]]",diamond,green,vert,up,"[0,-150]","[-106,-106]",up,1,0.7332,,,,,,001,2025-03-10_20h24.58.980,SL_sali_41,2021.2.3,Win32,120.4819277,,,68,0,68,0,1,,,,,,,,
,,"[""circle"",""red"",""vert"",""up"",[-106,106],[-106,-106]]",circle,red,vert,up,"[-106,106]","[-106,-106]",up,1,1.9173,,,,,,001,2025-03-10_20h24.58.980,SL_sali_41,2021.2.3,Win32,120.4819277,,,69,0,69,0,1,,,,,,,,
,,"[""circle"",""no_dis"",""hori"",""left"",[99999,99999],[150,0]]",circle,no_dis,hori,left,"[99999,99999]","[150,0]",left,1,1.0613,,,,,,001,2025-03-10_20h24.58.980,SL_sali_41,2021.2.3,Win32,120.4819277,,,70,0,70,0,1,,,,,,,,
,,"[""circle"",""green"",""hori"",""left"",[150,0],[-150,0]]",circle,green,hori,left,"[150,0]","[-150,0]",left,1,0.6753,,,,,,001,2025-03-10_20h24.58.980,SL_sali_41,2021.2.3,Win32,120.4819277,,,71,0,71,0,1,,,,,,,,
,,"[""diamond"",""no_dis"",""vert"",""up"",[99999,99999],[106,-106]]",diamond,no_dis,vert,up,"[99999,99999]","[106,-106]",up,1,1.3504,,,,,,001,2025-03-10_20h24.58.980,SL_sali_41,2021.2.3,Win32,120.4819277,,,72,0,72,0,1,,,,,,,,
,,"[""circle"",""green"",""hori"",""left"",[106,106],[-106,106]]",circle,green,hori,left,"[106,106]","[-106,106]",left,1,1.9257,,,,,,001,2025-03-10_20h24.58.980,SL_sali_41,2021.2.3,Win32,120.4819277,,,73,0,73,0,1,,,,,,,,
,,"[""diamond"",""no_dis"",""hori"",""left"",[99999,99999],[-106,-106]]",diamond,no_dis,hori,left,"[99999,99999]","[-106,-106]",left,1,0.9262,,,,,,001,2025-03-10_20h24.58.980,SL_sali_41,2021.2.3,Win32,120.4819277,,,74,0,74,0,1,,,,,,,,
,,"[""circle"",""no_dis"",""vert"",""up"",[99999,99999],[-150,0]]",circle,no_dis,vert,up,"[99999,99999]","[-150,0]",up,1,0.6847,,,,,,001,2025-03-10_20h24.58.980,SL_sali_41,2021.2.3,Win32,120.4819277,,,75,0,75,0,1,,,,,,,,
,,"[""circle"",""red"",""vert"",""up"",[0,-150],[-106,-106]]",circle,red,vert,up,"[0,-150]","[-106,-106]",up,1,0.9254,,,,,,001,2025-03-10_20h24.58.980,SL_sali_41,2021.2.3,Win32,120.4819277,,,76,0,76,0,1,,,,,,,,
,,"[""diamond"",""green"",""vert"",""up"",[106,-106],[150,0]]",diamond,green,vert,up,"[106,-106]","[150,0]",up,1,0.7448,,,,,,001,2025-03-10_20h24.58.980,SL_sali_41,2021.2.3,Win32,120.4819277,,,77,0,77,0,1,,,,,,,,
,,"[""diamond"",""no_dis"",""hori"",""left"",[99999,99999],[0,-150]]",diamond,no_dis,hori,left,"[99999,99999]","[0,-150]",left,1,0.7329,,,,,,001,2025-03-10_20h24.58.980,SL_sali_41,2021.2.3,Win32,120.4819277,,,78,0,78,0,1,,,,,,,,
,,"[""circle"",""red"",""hori"",""left"",[106,-106],[150,0]]",circle,red,hori,left,"[106,-106]","[150,0]",left,1,0.726,,,,,,001,2025-03-10_20h24.58.980,SL_sali_41,2021.2.3,Win32,120.4819277,,,79,0,79,0,1,,,,,,,,
,,"[""circle"",""green"",""vert"",""up"",[106,-106],[0,150]]",circle,green,vert,up,"[106,-106]","[0,150]",up,1,0.6336,,,,,,001,2025-03-10_20h24.58.980,SL_sali_41,2021.2.3,Win32,120.4819277,,,80,0,80,0,1,,,,,,,,
,,"[""diamond"",""no_dis"",""hori"",""left"",[99999,99999],[-106,-106]]",diamond,no_dis,hori,left,"[99999,99999]","[-106,-106]",left,1,1.2286,,,,,,001,2025-03-10_20h24.58.980,SL_sali_41,2021.2.3,Win32,120.4819277,,,81,0,81,0,1,,,,,,,,
,,"[""circle"",""red"",""hori"",""left"",[106,-106],[106,106]]",circle,red,hori,left,"[106,-106]","[106,106]",left,1,0.859,,,,,,001,2025-03-10_20h24.58.980,SL_sali_41,2021.2.3,Win32,120.4819277,,,82,0,82,0,1,,,,,,,,
,,"[""circle"",""green"",""hori"",""left"",[106,-106],[-106,106]]",circle,green,hori,left,"[106,-106]","[-106,106]",left,1,0.6362,,,,,,001,2025-03-10_20h24.58.980,SL_sali_41,2021.2.3,Win32,120.4819277,,,83,0,83,0,1,,,,,,,,
,,"[""diamond"",""green"",""hori"",""left"",[-106,106],[150,0]]",diamond,green,hori,left,"[-106,106]","[150,0]",left,1,0.9415,,,,,,001,2025-03-10_20h24.58.980,SL_sali_41,2021.2.3,Win32,120.4819277,,,84,0,84,0,1,,,,,,,,
,,"[""circle"",""red"",""vert"",""up"",[-150,0],[150,0]]",circle,red,vert,up,"[-150,0]","[150,0]",up,1,0.8267,,,,,,001,2025-03-10_20h24.58.980,SL_sali_41,2021.2.3,Win32,120.4819277,,,85,0,85,0,1,,,,,,,,
,,"[""diamond"",""green"",""hori"",""left"",[150,0],[106,106]]",diamond,green,hori,left,"[150,0]","[106,106]",left,1,1.4525,,,,,,001,2025-03-10_20h24.58.980,SL_sali_41,2021.2.3,Win32,120.4819277,,,86,0,86,0,1,,,,,,,,
,,"[""circle"",""no_dis"",""vert"",""up"",[99999,99999],[-150,0]]",circle,no_dis,vert,up,"[99999,99999]","[-150,0]",up,1,1.3266,,,,,,001,2025-03-10_20h24.58.980,SL_sali_41,2021.2.3,Win32,120.4819277,,,87,0,87,0,1,,,,,,,,
,,"[""circle"",""no_dis"",""vert"",""up"",[99999,99999],[106,106]]",circle,no_dis,vert,up,"[99999,99999]","[106,106]",up,1,0.6256,,,,,,001,2025-03-10_20h24.58.980,SL_sali_41,2021.2.3,Win32,120.4819277,,,88,0,88,0,1,,,,,,,,
,,"[""circle"",""green"",""hori"",""left"",[-150,0],[-106,-106]]",circle,green,hori,left,"[-150,0]","[-106,-106]",left,1,0.9254,,,,,,001,2025-03-10_20h24.58.980,SL_sali_41,2021.2.3,Win32,120.4819277,,,89,0,89,0,1,,,,,,,,
,,"[""diamond"",""red"",""vert"",""up"",[0,-150],[106,-106]]",diamond,red,vert,up,"[0,-150]","[106,-106]",up,1,1.4751,,,,,,001,2025-03-10_20h24.58.980,SL_sali_41,2021.2.3,Win32,120.4819277,,,90,0,90,0,1,,,,,,,,
,,"[""diamond"",""green"",""hori"",""left"",[-106,-106],[-150,0]]",diamond,green,hori,left,"[-106,-106]","[-150,0]",left,1,1.2582,,,,,,001,2025-03-10_20h24.58.980,SL_sali_41,2021.2.3,Win32,120.4819277,,,91,0,91,0,1,,,,,,,,
,,"[""diamond"",""red"",""vert"",""up"",[106,-106],[-106,-106]]",diamond,red,vert,up,"[106,-106]","[-106,-106]",up,1,1.8026,,,,,,001,2025-03-10_20h24.58.980,SL_sali_41,2021.2.3,Win32,120.4819277,,,92,0,92,0,1,,,,,,,,
,,"[""circle"",""green"",""hori"",""left"",[-150,0],[0,-150]]",circle,green,hori,left,"[-150,0]","[0,-150]",left,1,2.2379,,,,,,001,2025-03-10_20h24.58.980,SL_sali_41,2021.2.3,Win32,120.4819277,,,93,0,93,0,1,,,,,,,,
,,"[""diamond"",""red"",""hori"",""left"",[106,-106],[0,-150]]",diamond,red,hori,left,"[106,-106]","[0,-150]",left,1,1.8115,,,,,,001,2025-03-10_20h24.58.980,SL_sali_41,2021.2.3,Win32,120.4819277,,,94,0,94,0,1,,,,,,,,
,,"[""diamond"",""green"",""vert"",""up"",[0,150],[106,-106]]",diamond,green,vert,up,"[0,150]","[106,-106]",up,1,1.3002,,,,,,001,2025-03-10_20h24.58.980,SL_sali_41,2021.2.3,Win32,120.4819277,,,95,0,95,0,1,,,,,,,,
,,"[""diamond"",""no_dis"",""hori"",""left"",[99999,99999],[150,0]]",diamond,no_dis,hori,left,"[99999,99999]","[150,0]",,0,,,,,,,001,2025-03-10_20h24.58.980,SL_sali_41,2021.2.3,Win32,120.4819277,,,96,0,96,0,1,,,,,,,,
,,"[""circle"",""green"",""vert"",""up"",[106,-106],[-150,0]]",circle,green,vert,up,"[106,-106]","[-150,0]",up,1,1.4504,,,,,,001,2025-03-10_20h24.58.980,SL_sali_41,2021.2.3,Win32,120.4819277,,,97,0,97,0,1,,,,,,,,
,,"[""circle"",""red"",""vert"",""up"",[106,-106],[0,-150]]",circle,red,vert,up,"[106,-106]","[0,-150]",up,1,1.1689,,,,,,001,2025-03-10_20h24.58.980,SL_sali_41,2021.2.3,Win32,120.4819277,,,98,0,98,0,1,,,,,,,,
,,"[""diamond"",""green"",""hori"",""left"",[150,0],[-150,0]]",diamond,green,hori,left,"[150,0]","[-150,0]",left,1,0.7843,,,,,,001,2025-03-10_20h24.58.980,SL_sali_41,2021.2.3,Win32,120.4819277,,,99,0,99,0,1,,,,,,,,
,,"[""diamond"",""green"",""hori"",""left"",[106,-106],[106,106]]",diamond,green,hori,left,"[106,-106]","[106,106]",up,0,0.7426,,,,,,001,2025-03-10_20h24.58.980,SL_sali_41,2021.2.3,Win32,120.4819277,,,100,0,100,0,1,,,,,,,,
,,"[""diamond"",""no_dis"",""hori"",""left"",[99999,99999],[0,150]]",diamond,no_dis,hori,left,"[99999,99999]","[0,150]",left,1,0.9448,,,,,,001,2025-03-10_20h24.58.980,SL_sali_41,2021.2.3,Win32,120.4819277,,,101,0,101,0,1,,,,,,,,
,,"[""diamond"",""red"",""vert"",""up"",[106,-106],[-106,106]]",diamond,red,vert,up,"[106,-106]","[-106,106]",up,1,0.7998,,,,,,001,2025-03-10_20h24.58.980,SL_sali_41,2021.2.3,Win32,120.4819277,,,102,0,102,0,1,,,,,,,,
,,"[""diamond"",""red"",""hori"",""left"",[106,-106],[0,-150]]",diamond,red,hori,left,"[106,-106]","[0,-150]",left,1,1.1285,,,,,,001,2025-03-10_20h24.58.980,SL_sali_41,2021.2.3,Win32,120.4819277,,,103,0,103,0,1,,,,,,,,
,,"[""circle"",""red"",""hori"",""left"",[106,-106],[0,150]]",circle,red,hori,left,"[106,-106]","[0,150]",left,1,1.0362,,,,,,001,2025-03-10_20h24.58.980,SL_sali_41,2021.2.3,Win32,120.4819277,,,104,0,104,0,1,,,,,,,,
,,"[""circle"",""red"",""vert"",""up"",[0,150],[-150,0]]",circle,red,vert,up,"[0,150]","[-150,0]",up,1,1.0337,,,,,,001,2025-03-10_20h24.58.980,SL_sali_41,2021.2.3,Win32,120.4819277,,,105,0,105,0,1,,,,,,,,
,,"[""diamond"",""no_dis"",""hori"",""left"",[99999,99999],[-106,106]]",diamond,no_dis,hori,left,"[99999,99999]","[-106,106]",left,1,1.2697,,,,,,001,2025-03-10_20h24.58.980,SL_sali_41,2021.2.3,Win32,120.4819277,,,106,0,106,0,1,,,,,,,,
,,"[""circle"",""no_dis"",""hori"",""left"",[99999,99999],[-106,-106]]",circle,no_dis,hori,left,"[99999,99999]","[-106,-106]",left,1,1.512,,,,,,001,2025-03-10_20h24.58.980,SL_sali_41,2021.2.3,Win32,120.4819277,,,107,0,107,0,1,,,,,,,,
,,"[""circle"",""green"",""vert"",""up"",[-150,0],[106,-106]]",circle,green,vert,up,"[-150,0]","[106,-106]",up,1,1.5763,,,,,,001,2025-03-10_20h24.58.980,SL_sali_41,2021.2.3,Win32,120.4819277,,,108,0,108,0,1,,,,,,,,
,,"[""diamond"",""red"",""vert"",""up"",[106,-106],[106,106]]",diamond,red,vert,up,"[106,-106]","[106,106]",left,0,1.3085,,,,,,001,2025-03-10_20h24.58.980,SL_sali_41,2021.2.3,Win32,120.4819277,,,109,0,109,0,1,,,,,,,,
,,"[""circle"",""no_dis"",""vert"",""up"",[99999,99999],[0,-150]]",circle,no_dis,vert,up,"[99999,99999]","[0,-150]",up,1,1.1082,,,,,,001,2025-03-10_20h24.58.980,SL_sali_41,2021.2.3,Win32,120.4819277,,,110,0,110,0,1,,,,,,,,
,,"[""circle"",""green"",""vert"",""up"",[106,106],[150,0]]",circle,green,vert,up,"[106,106]","[150,0]",up,1,1.4465,,,,,,001,2025-03-10_20h24.58.980,SL_sali_41,2021.2.3,Win32,120.4819277,,,111,0,111,0,1,,,,,,,,
,,"[""diamond"",""no_dis"",""vert"",""up"",[99999,99999],[150,0]]",diamond,no_dis,vert,up,"[99999,99999]","[150,0]",up,1,1.0753,,,,,,001,2025-03-10_20h24.58.980,SL_sali_41,2021.2.3,Win32,120.4819277,,,112,0,112,0,1,,,,,,,,
,,"[""circle"",""no_dis"",""hori"",""left"",[99999,99999],[106,-106]]",circle,no_dis,hori,left,"[99999,99999]","[106,-106]",left,1,0.8333,,,,,,001,2025-03-10_20h24.58.980,SL_sali_41,2021.2.3,Win32,120.4819277,,,113,0,113,0,1,,,,,,,,
,,"[""circle"",""no_dis"",""vert"",""up"",[99999,99999],[-106,-106]]",circle,no_dis,vert,up,"[99999,99999]","[-106,-106]",up,1,0.8673,,,,,,001,2025-03-10_20h24.58.980,SL_sali_41,2021.2.3,Win32,120.4819277,,,114,0,114,0,1,,,,,,,,
,,"[""diamond"",""green"",""vert"",""up"",[-106,-106],[106,-106]]",diamond,green,vert,up,"[-106,-106]","[106,-106]",up,1,1.891,,,,,,001,2025-03-10_20h24.58.980,SL_sali_41,2021.2.3,Win32,120.4819277,,,115,0,115,0,1,,,,,,,,
,,"[""diamond"",""no_dis"",""vert"",""up"",[99999,99999],[0,150]]",diamond,no_dis,vert,up,"[99999,99999]","[0,150]",up,1,0.8083,,,,,,001,2025-03-10_20h24.58.980,SL_sali_41,2021.2.3,Win32,120.4819277,,,116,0,116,0,1,,,,,,,,
,,"[""circle"",""no_dis"",""vert"",""up"",[99999,99999],[106,106]]",circle,no_dis,vert,up,"[99999,99999]","[106,106]",up,1,0.613,,,,,,001,2025-03-10_20h24.58.980,SL_sali_41,2021.2.3,Win32,120.4819277,,,117,0,117,0,1,,,,,,,,
,,"[""diamond"",""green"",""vert"",""up"",[0,150],[150,0]]",diamond,green,vert,up,"[0,150]","[150,0]",up,1,0.9159,,,,,,001,2025-03-10_20h24.58.980,SL_sali_41,2021.2.3,Win32,120.4819277,,,118,0,118,0,1,,,,,,,,
,,"[""circle"",""green"",""vert"",""up"",[-106,106],[-106,-106]]",circle,green,vert,up,"[-106,106]","[-106,-106]",up,1,1.7617,,,,,,001,2025-03-10_20h24.58.980,SL_sali_41,2021.2.3,Win32,120.4819277,,,119,0,119,0,1,,,,,,,,
,,"[""circle"",""green"",""hori"",""left"",[0,-150],[106,-106]]",circle,green,hori,left,"[0,-150]","[106,-106]",left,1,0.6923,,,,,,001,2025-03-10_20h24.58.980,SL_sali_41,2021.2.3,Win32,120.4819277,,,120,0,120,0,1,,,,,,,,
,,"[""diamond"",""no_dis"",""hori"",""left"",[99999,99999],[106,106]]",diamond,no_dis,hori,left,"[99999,99999]","[106,106]",left,1,1.1334,,,,,,001,2025-03-10_20h24.58.980,SL_sali_41,2021.2.3,Win32,120.4819277,,,121,0,121,0,1,,,,,,,,
,,"[""circle"",""red"",""hori"",""left"",[-150,0],[-106,-106]]",circle,red,hori,left,"[-150,0]","[-106,-106]",left,1,1.1122,,,,,,001,2025-03-10_20h24.58.980,SL_sali_41,2021.2.3,Win32,120.4819277,,,122,0,122,0,1,,,,,,,,
,,"[""circle"",""no_dis"",""hori"",""left"",[99999,99999],[106,-106]]",circle,no_dis,hori,left,"[99999,99999]","[106,-106]",left,1,1.0469,,,,,,001,2025-03-10_20h24.58.980,SL_sali_41,2021.2.3,Win32,120.4819277,,,123,0,123,0,1,,,,,,,,
,,"[""circle"",""no_dis"",""vert"",""up"",[99999,99999],[-150,0]]",circle,no_dis,vert,up,"[99999,99999]","[-150,0]",up,1,1.2838,,,,,,001,2025-03-10_20h24.58.980,SL_sali_41,2021.2.3,Win32,120.4819277,,,124,0,124,0,1,,,,,,,,
,,"[""diamond"",""red"",""vert"",""up"",[-106,106],[0,-150]]",diamond,red,vert,up,"[-106,106]","[0,-150]",,0,,,,,,,001,2025-03-10_20h24.58.980,SL_sali_41,2021.2.3,Win32,120.4819277,,,125,0,125,0,1,,,,,,,,
,,"[""diamond"",""green"",""hori"",""left"",[106,-106],[0,150]]",diamond,green,hori,left,"[106,-106]","[0,150]",left,1,0.8022,,,,,,001,2025-03-10_20h24.58.980,SL_sali_41,2021.2.3,Win32,120.4819277,,,126,0,126,0,1,,,,,,,,
,,"[""diamond"",""red"",""hori"",""left"",[106,-106],[0,150]]",diamond,red,hori,left,"[106,-106]","[0,150]",left,1,1.5854,,,,,,001,2025-03-10_20h24.58.980,SL_sali_41,2021.2.3,Win32,120.4819277,,,127,0,127,0,1,,,,,,,,
,,,,,,,,,,,,,,,,,001,2025-03-10_20h24.58.980,SL_sali_41,2021.2.3,Win32,120.4819277,,,,,,,,1,space,33.222,0,0,0,0,1
,,"[""diamond"",""no_dis"",""vert"",""up"",[99999,99999],[106,-106]]",diamond,no_dis,vert,up,"[99999,99999]","[106,-106]",up,1,1.1252,,,,,,001,2025-03-10_20h24.58.980,SL_sali_41,2021.2.3,Win32,120.4819277,,,0,0,0,0,1,,,,,,,,
,,"[""circle"",""green"",""hori"",""left"",[-150,0],[0,-150]]",circle,green,hori,left,"[-150,0]","[0,-150]",left,1,1.472,,,,,,001,2025-03-10_20h24.58.980,SL_sali_41,2021.2.3,Win32,120.4819277,,,1,0,1,0,1,,,,,,,,
,,"[""circle"",""no_dis"",""vert"",""up"",[99999,99999],[-150,0]]",circle,no_dis,vert,up,"[99999,99999]","[-150,0]",up,1,0.8174,,,,,,001,2025-03-10_20h24.58.980,SL_sali_41,2021.2.3,Win32,120.4819277,,,2,0,2,0,1,,,,,,,,
,,"[""diamond"",""no_dis"",""vert"",""up"",[99999,99999],[0,150]]",diamond,no_dis,vert,up,"[99999,99999]","[0,150]",up,1,1.1026,,,,,,001,2025-03-10_20h24.58.980,SL_sali_41,2021.2.3,Win32,120.4819277,,,3,0,3,0,1,,,,,,,,
,,"[""circle"",""no_dis"",""hori"",""left"",[99999,99999],[106,-106]]",circle,no_dis,hori,left,"[99999,99999]","[106,-106]",left,1,0.6595,,,,,,001,2025-03-10_20h24.58.980,SL_sali_41,2021.2.3,Win32,120.4819277,,,4,0,4,0,1,,,,,,,,
,,"[""diamond"",""red"",""hori"",""left"",[106,-106],[0,-150]]",diamond,red,hori,left,"[106,-106]","[0,-150]",left,1,1.2113,,,,,,001,2025-03-10_20h24.58.980,SL_sali_41,2021.2.3,Win32,120.4819277,,,5,0,5,0,1,,,,,,,,
,,"[""diamond"",""green"",""vert"",""up"",[0,-150],[-106,-106]]",diamond,green,vert,up,"[0,-150]","[-106,-106]",up,1,0.7631,,,,,,001,2025-03-10_20h24.58.980,SL_sali_41,2021.2.3,Win32,120.4819277,,,6,0,6,0,1,,,,,,,,
,,"[""diamond"",""red"",""vert"",""up"",[150,0],[106,106]]",diamond,red,vert,up,"[150,0]","[106,106]",up,1,1.0662,,,,,,001,2025-03-10_20h24.58.980,SL_sali_41,2021.2.3,Win32,120.4819277,,,7,0,7,0,1,,,,,,,,
,,"[""circle"",""green"",""hori"",""left"",[106,-106],[-106,106]]",circle,green,hori,left,"[106,-106]","[-106,106]",left,1,1.0251,,,,,,001,2025-03-10_20h24.58.980,SL_sali_41,2021.2.3,Win32,120.4819277,,,8,0,8,0,1,,,,,,,,
,,"[""diamond"",""no_dis"",""vert"",""up"",[99999,99999],[-150,0]]",diamond,no_dis,vert,up,"[99999,99999]","[-150,0]",up,1,0.8339,,,,,,001,2025-03-10_20h24.58.980,SL_sali_41,2021.2.3,Win32,120.4819277,,,9,0,9,0,1,,,,,,,,
,,"[""circle"",""no_dis"",""vert"",""up"",[99999,99999],[-106,-106]]",circle,no_dis,vert,up,"[99999,99999]","[-106,-106]",up,1,0.713,,,,,,001,2025-03-10_20h24.58.980,SL_sali_41,2021.2.3,Win32,120.4819277,,,10,0,10,0,1,,,,,,,,
,,"[""circle"",""no_dis"",""hori"",""left"",[99999,99999],[106,106]]",circle,no_dis,hori,left,"[99999,99999]","[106,106]",left,1,0.8757,,,,,,001,2025-03-10_20h24.58.980,SL_sali_41,2021.2.3,Win32,120.4819277,,,11,0,11,0,1,,,,,,,,
,,"[""diamond"",""no_dis"",""vert"",""up"",[99999,99999],[0,150]]",diamond,no_dis,vert,up,"[99999,99999]","[0,150]",up,1,0.7921,,,,,,001,2025-03-10_20h24.58.980,SL_sali_41,2021.2.3,Win32,120.4819277,,,12,0,12,0,1,,,,,,,,
,,"[""diamond"",""no_dis"",""vert"",""up"",[99999,99999],[0,150]]",diamond,no_dis,vert,up,"[99999,99999]","[0,150]",up,1,0.6525,,,,,,001,2025-03-10_20h24.58.980,SL_sali_41,2021.2.3,Win32,120.4819277,,,13,0,13,0,1,,,,,,,,
,,"[""circle"",""no_dis"",""vert"",""up"",[99999,99999],[0,-150]]",circle,no_dis,vert,up,"[99999,99999]","[0,-150]",up,1,0.9504,,,,,,001,2025-03-10_20h24.58.980,SL_sali_41,2021.2.3,Win32,120.4819277,,,14,0,14,0,1,,,,,,,,
,,"[""circle"",""green"",""vert"",""up"",[-106,-106],[150,0]]",circle,green,vert,up,"[-106,-106]","[150,0]",up,1,0.6422,,,,,,001,2025-03-10_20h24.58.980,SL_sali_41,2021.2.3,Win32,120.4819277,,,15,0,15,0,1,,,,,,,,
,,"[""circle"",""green"",""hori"",""left"",[106,-106],[-106,106]]",circle,green,hori,left,"[106,-106]","[-106,106]",left,1,0.6099,,,,,,001,2025-03-10_20h24.58.980,SL_sali_41,2021.2.3,Win32,120.4819277,,,16,0,16,0,1,,,,,,,,
,,"[""diamond"",""green"",""vert"",""up"",[0,150],[150,0]]",diamond,green,vert,up,"[0,150]","[150,0]",up,1,1.0341,,,,,,001,2025-03-10_20h24.58.980,SL_sali_41,2021.2.3,Win32,120.4819277,,,17,0,17,0,1,,,,,,,,
,,"[""circle"",""green"",""vert"",""up"",[106,-106],[0,150]]",circle,green,vert,up,"[106,-106]","[0,150]",up,1,0.7591,,,,,,001,2025-03-10_20h24.58.980,SL_sali_41,2021.2.3,Win32,120.4819277,,,18,0,18,0,1,,,,,,,,
,,"[""diamond"",""red"",""vert"",""up"",[106,-106],[106,106]]",diamond,red,vert,up,"[106,-106]","[106,106]",up,1,0.9755,,,,,,001,2025-03-10_20h24.58.980,SL_sali_41,2021.2.3,Win32,120.4819277,,,19,0,19,0,1,,,,,,,,
,,"[""diamond"",""green"",""vert"",""up"",[-106,106],[150,0]]",diamond,green,vert,up,"[-106,106]","[150,0]",up,1,0.9087,,,,,,001,2025-03-10_20h24.58.980,SL_sali_41,2021.2.3,Win32,120.4819277,,,20,0,20,0,1,,,,,,,,
,,"[""diamond"",""red"",""vert"",""up"",[106,-106],[106,106]]",diamond,red,vert,up,"[106,-106]","[106,106]",up,1,1.3163,,,,,,001,2025-03-10_20h24.58.980,SL_sali_41,2021.2.3,Win32,120.4819277,,,21,0,21,0,1,,,,,,,,
,,"[""diamond"",""green"",""hori"",""left"",[-106,-106],[-150,0]]",diamond,green,hori,left,"[-106,-106]","[-150,0]",left,1,1.008,,,,,,001,2025-03-10_20h24.58.980,SL_sali_41,2021.2.3,Win32,120.4819277,,,22,0,22,0,1,,,,,,,,
,,"[""diamond"",""no_dis"",""vert"",""up"",[99999,99999],[0,-150]]",diamond,no_dis,vert,up,"[99999,99999]","[0,-150]",up,1,0.7332,,,,,,001,2025-03-10_20h24.58.980,SL_sali_41,2021.2.3,Win32,120.4819277,,,23,0,23,0,1,,,,,,,,
,,"[""circle"",""green"",""vert"",""up"",[0,-150],[-150,0]]",circle,green,vert,up,"[0,-150]","[-150,0]",up,1,0.978,,,,,,001,2025-03-10_20h24.58.980,SL_sali_41,2021.2.3,Win32,120.4819277,,,24,0,24,0,1,,,,,,,,
,,"[""diamond"",""no_dis"",""hori"",""left"",[99999,99999],[150,0]]",diamond,no_dis,hori,left,"[99999,99999]","[150,0]",left,1,1.9918,,,,,,001,2025-03-10_20h24.58.980,SL_sali_41,2021.2.3,Win32,120.4819277,,,25,0,25,0,1,,,,,,,,
,,"[""circle"",""green"",""hori"",""left"",[106,106],[-106,106]]",circle,green,hori,left,"[106,106]","[-106,106]",left,1,1.7171,,,,,,001,2025-03-10_20h24.58.980,SL_sali_41,2021.2.3,Win32,120.4819277,,,26,0,26,0,1,,,,,,,,
,,"[""circle"",""red"",""hori"",""left"",[-106,-106],[106,106]]",circle,red,hori,left,"[-106,-106]","[106,106]",up,0,0.8677,,,,,,001,2025-03-10_20h24.58.980,SL_sali_41,2021.2.3,Win32,120.4819277,,,27,0,27,0,1,,,,,,,,
,,"[""circle"",""green"",""vert"",""up"",[0,-150],[150,0]]",circle,green,vert,up,"[0,-150]","[150,0]",up,1,0.744,,,,,,001,2025-03-10_20h24.58.980,SL_sali_41,2021.2.3,Win32,120.4819277,,,28,0,28,0,1,,,,,,,,
,,"[""circle"",""red"",""hori"",""left"",[106,-106],[-106,106]]",circle,red,hori,left,"[106,-106]","[-106,106]",left,1,1.0416,,,,,,001,2025-03-10_20h24.58.980,SL_sali_41,2021.2.3,Win32,120.4819277,,,29,0,29,0,1,,,,,,,,
,,"[""diamond"",""no_dis"",""hori"",""left"",[99999,99999],[-106,106]]",diamond,no_dis,hori,left,"[99999,99999]","[-106,106]",left,1,1.4958,,,,,,001,2025-03-10_20h24.58.980,SL_sali_41,2021.2.3,Win32,120.4819277,,,30,0,30,0,1,,,,,,,,
,,"[""circle"",""red"",""hori"",""left"",[106,-106],[150,0]]",circle,red,hori,left,"[106,-106]","[150,0]",left,1,0.8342,,,,,,001,2025-03-10_20h24.58.980,SL_sali_41,2021.2.3,Win32,120.4819277,,,31,0,31,0,1,,,,,,,,
,,"[""diamond"",""red"",""hori"",""left"",[-106,-106],[106,-106]]",diamond,red,hori,left,"[-106,-106]","[106,-106]",left,1,1.8101,,,,,,001,2025-03-10_20h24.58.980,SL_sali_41,2021.2.3,Win32,120.4819277,,,32,0,32,0,1,,,,,,,,
,,"[""diamond"",""green"",""hori"",""left"",[-106,-106],[-106,106]]",diamond,green,hori,left,"[-106,-106]","[-106,106]",left,1,0.7671,,,,,,001,2025-03-10_20h24.58.980,SL_sali_41,2021.2.3,Win32,120.4819277,,,33,0,33,0,1,,,,,,,,
,,"[""diamond"",""green"",""hori"",""left"",[106,106],[0,150]]",diamond,green,hori,left,"[106,106]","[0,150]",left,1,1.1192,,,,,,001,2025-03-10_20h24.58.980,SL_sali_41,2021.2.3,Win32,120.4819277,,,34,0,34,0,1,,,,,,,,
,,"[""diamond"",""red"",""vert"",""up"",[-106,106],[0,-150]]",diamond,red,vert,up,"[-106,106]","[0,-150]",up,1,1.277,,,,,,001,2025-03-10_20h24.58.980,SL_sali_41,2021.2.3,Win32,120.4819277,,,35,0,35,0,1,,,,,,,,
,,"[""diamond"",""red"",""hori"",""left"",[0,-150],[106,-106]]",diamond,red,hori,left,"[0,-150]","[106,-106]",left,1,1.7294,,,,,,001,2025-03-10_20h24.58.980,SL_sali_41,2021.2.3,Win32,120.4819277,,,36,0,36,0,1,,,,,,,,
,,"[""diamond"",""no_dis"",""hori"",""left"",[99999,99999],[106,106]]",diamond,no_dis,hori,left,"[99999,99999]","[106,106]",left,1,1.7422,,,,,,001,2025-03-10_20h24.58.980,SL_sali_41,2021.2.3,Win32,120.4819277,,,37,0,37,0,1,,,,,,,,
,,"[""diamond"",""red"",""hori"",""left"",[0,150],[-150,0]]",diamond,red,hori,left,"[0,150]","[-150,0]",left,1,1.1087,,,,,,001,2025-03-10_20h24.58.980,SL_sali_41,2021.2.3,Win32,120.4819277,,,38,0,38,0,1,,,,,,,,
,,"[""diamond"",""green"",""vert"",""up"",[106,-106],[-150,0]]",diamond,green,vert,up,"[106,-106]","[-150,0]",up,1,0.766,,,,,,001,2025-03-10_20h24.58.980,SL_sali_41,2021.2.3,Win32,120.4819277,,,39,0,39,0,1,,,,,,,,
,,"[""circle"",""green"",""vert"",""up"",[-106,106],[-106,-106]]",circle,green,vert,up,"[-106,106]","[-106,-106]",up,1,0.8837,,,,,,001,2025-03-10_20h24.58.980,SL_sali_41,2021.2.3,Win32,120.4819277,,,40,0,40,0,1,,,,,,,,
,,"[""diamond"",""green"",""hori"",""left"",[150,0],[-150,0]]",diamond,green,hori,left,"[150,0]","[-150,0]",left,1,0.6422,,,,,,001,2025-03-10_20h24.58.980,SL_sali_41,2021.2.3,Win32,120.4819277,,,41,0,41,0,1,,,,,,,,
,,"[""diamond"",""red"",""hori"",""left"",[106,-106],[0,-150]]",diamond,red,hori,left,"[106,-106]","[0,-150]",left,1,1.0592,,,,,,001,2025-03-10_20h24.58.980,SL_sali_41,2021.2.3,Win32,120.4819277,,,42,0,42,0,1,,,,,,,,
,,"[""circle"",""red"",""hori"",""left"",[106,106],[-106,106]]",circle,red,hori,left,"[106,106]","[-106,106]",left,1,1.5167,,,,,,001,2025-03-10_20h24.58.980,SL_sali_41,2021.2.3,Win32,120.4819277,,,43,0,43,0,1,,,,,,,,
,,"[""circle"",""no_dis"",""hori"",""left"",[99999,99999],[106,106]]",circle,no_dis,hori,left,"[99999,99999]","[106,106]",left,1,0.6047,,,,,,001,2025-03-10_20h24.58.980,SL_sali_41,2021.2.3,Win32,120.4819277,,,44,0,44,0,1,,,,,,,,
,,"[""circle"",""green"",""vert"",""up"",[150,0],[106,106]]",circle,green,vert,up,"[150,0]","[106,106]",up,1,0.684,,,,,,001,2025-03-10_20h24.58.980,SL_sali_41,2021.2.3,Win32,120.4819277,,,45,0,45,0,1,,,,,,,,
,,"[""circle"",""no_dis"",""hori"",""left"",[99999,99999],[150,0]]",circle,no_dis,hori,left,"[99999,99999]","[150,0]",left,1,0.6254,,,,,,001,2025-03-10_20h24.58.980,SL_sali_41,2021.2.3,Win32,120.4819277,,,46,0,46,0,1,,,,,,,,
,,"[""circle"",""red"",""vert"",""up"",[0,-150],[-106,-106]]",circle,red,vert,up,"[0,-150]","[-106,-106]",up,1,1.4005,,,,,,001,2025-03-10_20h24.58.980,SL_sali_41,2021.2.3,Win32,120.4819277,,,47,0,47,0,1,,,,,,,,
,,"[""diamond"",""green"",""vert"",""up"",[106,-106],[150,0]]",diamond,green,vert,up,"[106,-106]","[150,0]",up,1,1.0755,,,,,,001,2025-03-10_20h24.58.980,SL_sali_41,2021.2.3,Win32,120.4819277,,,48,0,48,0,1,,,,,,,,
,,"[""diamond"",""no_dis"",""hori"",""left"",[99999,99999],[150,0]]",diamond,no_dis,hori,left,"[99999,99999]","[150,0]",left,1,0.9961,,,,,,001,2025-03-10_20h24.58.980,SL_sali_41,2021.2.3,Win32,120.4819277,,,49,0,49,0,1,,,,,,,,
,,"[""diamond"",""red"",""vert"",""up"",[106,-106],[-106,-106]]",diamond,red,vert,up,"[106,-106]","[-106,-106]",up,1,0.8084,,,,,,001,2025-03-10_20h24.58.980,SL_sali_41,2021.2.3,Win32,120.4819277,,,50,0,50,0,1,,,,,,,,
,,"[""diamond"",""red"",""vert"",""up"",[0,-150],[106,-106]]",diamond,red,vert,up,"[0,-150]","[106,-106]",up,1,1.1921,,,,,,001,2025-03-10_20h24.58.980,SL_sali_41,2021.2.3,Win32,120.4819277,,,51,0,51,0,1,,,,,,,,
,,"[""circle"",""no_dis"",""hori"",""left"",[99999,99999],[-106,106]]",circle,no_dis,hori,left,"[99999,99999]","[-106,106]",left,1,1.0022,,,,,,001,2025-03-10_20h24.58.980,SL_sali_41,2021.2.3,Win32,120.4819277,,,52,0,52,0,1,,,,,,,,
,,"[""circle"",""no_dis"",""vert"",""up"",[99999,99999],[106,106]]",circle,no_dis,vert,up,"[99999,99999]","[106,106]",up,1,0.6667,,,,,,001,2025-03-10_20h24.58.980,SL_sali_41,2021.2.3,Win32,120.4819277,,,53,0,53,0,1,,,,,,,,
,,"[""circle"",""red"",""vert"",""up"",[-106,106],[-106,-106]]",circle,red,vert,up,"[-106,106]","[-106,-106]",up,1,1.3274,,,,,,001,2025-03-10_20h24.58.980,SL_sali_41,2021.2.3,Win32,120.4819277,,,54,0,54,0,1,,,,,,,,
,,"[""diamond"",""no_dis"",""hori"",""left"",[99999,99999],[-106,-106]]",diamond,no_dis,hori,left,"[99999,99999]","[-106,-106]",left,1,0.7422,,,,,,001,2025-03-10_20h24.58.980,SL_sali_41,2021.2.3,Win32,120.4819277,,,55,0,55,0,1,,,,,,,,
,,"[""circle"",""green"",""hori"",""left"",[106,-106],[-106,-106]]",circle,green,hori,left,"[106,-106]","[-106,-106]",left,1,1.1282,,,,,,001,2025-03-10_20h24.58.980,SL_sali_41,2021.2.3,Win32,120.4819277,,,56,0,56,0,1,,,,,,,,
,,"[""circle"",""red"",""hori"",""left"",[-150,0],[-106,106]]",circle,red,hori,left,"[-150,0]","[-106,106]",left,1,1.2205,,,,,,001,2025-03-10_20h24.58.980,SL_sali_41,2021.2.3,Win32,120.4819277,,,57,0,57,0,1,,,,,,,,
,,"[""circle"",""red"",""vert"",""up"",[-150,0],[150,0]]",circle,red,vert,up,"[-150,0]","[150,0]",up,1,0.9952,,,,,,001,2025-03-10_20h24.58.980,SL_sali_41,2021.2.3,Win32,120.4819277,,,58,0,58,0,1,,,,,,,,
,,"[""circle"",""red"",""hori"",""left"",[106,106],[-150,0]]",circle,red,hori,left,"[106,106]","[-150,0]",left,1,0.7921,,,,,,001,2025-03-10_20h24.58.980,SL_sali_41,2021.2.3,Win32,120.4819277,,,59,0,59,0,1,,,,,,,,
,,"[""diamond"",""red"",""hori"",""left"",[0,150],[-106,-106]]",diamond,red,hori,left,"[0,150]","[-106,-106]",left,1,1.0301,,,,,,001,2025-03-10_20h24.58.980,SL_sali_41,2021.2.3,Win32,120.4819277,,,60,0,60,0,1,,,,,,,,
,,"[""circle"",""green"",""hori"",""left"",[150,0],[-150,0]]",circle,green,hori,left,"[150,0]","[-150,0]",left,1,0.6504,,,,,,001,2025-03-10_20h24.58.980,SL_sali_41,2021.2.3,Win32,120.4819277,,,61,0,61,0,1,,,,,,,,
,,"[""circle"",""green"",""vert"",""up"",[150,0],[0,150]]",circle,green,vert,up,"[150,0]","[0,150]",up,1,0.767,,,,,,001,2025-03-10_20h24.58.980,SL_sali_41,2021.2.3,Win32,120.4819277,,,62,0,62,0,1,,,,,,,,
,,"[""diamond"",""no_dis"",""vert"",""up"",[99999,99999],[-106,-106]]",diamond,no_dis,vert,up,"[99999,99999]","[-106,-106]",up,1,1.4005,,,,,,001,2025-03-10_20h24.58.980,SL_sali_41,2021.2.3,Win32,120.4819277,,,63,0,63,0,1,,,,,,,,
,,"[""diamond"",""no_dis"",""vert"",""up"",[99999,99999],[150,0]]",diamond,no_dis,vert,up,"[99999,99999]","[150,0]",up,1,0.9254,,,,,,001,2025-03-10_20h24.58.980,SL_sali_41,2021.2.3,Win32,120.4819277,,,64,0,64,0,1,,,,,,,,
,,"[""diamond"",""green"",""hori"",""left"",[0,150],[150,0]]",diamond,green,hori,left,"[0,150]","[150,0]",left,1,0.7502,,,,,,001,2025-03-10_20h24.58.980,SL_sali_41,2021.2.3,Win32,120.4819277,,,65,0,65,0,1,,,,,,,,
,,"[""circle"",""green"",""vert"",""up"",[-150,0],[106,-106]]",circle,green,vert,up,"[-150,0]","[106,-106]",up,1,0.9584,,,,,,001,2025-03-10_20h24.58.980,SL_sali_41,2021.2.3,Win32,120.4819277,,,66,0,66,0,1,,,,,,,,
,,"[""circle"",""no_dis"",""vert"",""up"",[99999,99999],[106,106]]",circle,no_dis,vert,up,"[99999,99999]","[106,106]",up,1,0.7004,,,,,,001,2025-03-10_20h24.58.980,SL_sali_41,2021.2.3,Win32,120.4819277,,,67,0,67,0,1,,,,,,,,
,,"[""diamond"",""red"",""hori"",""left"",[106,-106],[-150,0]]",diamond,red,hori,left,"[106,-106]","[-150,0]",left,1,1.2208,,,,,,001,2025-03-10_20h24.58.980,SL_sali_41,2021.2.3,Win32,120.4819277,,,68,0,68,0,1,,,,,,,,
,,"[""diamond"",""green"",""vert"",""up"",[-106,-106],[106,-106]]",diamond,green,vert,up,"[-106,-106]","[106,-106]",up,1,0.9678,,,,,,001,2025-03-10_20h24.58.980,SL_sali_41,2021.2.3,Win32,120.4819277,,,69,0,69,0,1,,,,,,,,
,,"[""circle"",""red"",""vert"",""up"",[106,106],[-106,106]]",circle,red,vert,up,"[106,106]","[-106,106]",up,1,1.189,,,,,,001,2025-03-10_20h24.58.980,SL_sali_41,2021.2.3,Win32,120.4819277,,,70,0,70,0,1,,,,,,,,
,,"[""diamond"",""no_dis"",""vert"",""up"",[99999,99999],[-150,0]]",diamond,no_dis,vert,up,"[99999,99999]","[-150,0]",up,1,0.6999,,,,,,001,2025-03-10_20h24.58.980,SL_sali_41,2021.2.3,Win32,120.4819277,,,71,0,71,0,1,,,,,,,,
,,"[""circle"",""green"",""hori"",""left"",[-150,0],[106,106]]",circle,green,hori,left,"[-150,0]","[106,106]",left,1,0.7764,,,,,,001,2025-03-10_20h24.58.980,SL_sali_41,2021.2.3,Win32,120.4819277,,,72,0,72,0,1,,,,,,,,
,,"[""circle"",""no_dis"",""vert"",""up"",[99999,99999],[-150,0]]",circle,no_dis,vert,up,"[99999,99999]","[-150,0]",up,1,1.0064,,,,,,001,2025-03-10_20h24.58.980,SL_sali_41,2021.2.3,Win32,120.4819277,,,73,0,73,0,1,,,,,,,,
,,"[""diamond"",""red"",""hori"",""left"",[106,-106],[-106,-106]]",diamond,red,hori,left,"[106,-106]","[-106,-106]",left,1,1.4872,,,,,,001,2025-03-10_20h24.58.980,SL_sali_41,2021.2.3,Win32,120.4819277,,,74,0,74,0,1,,,,,,,,
,,"[""circle"",""red"",""hori"",""left"",[150,0],[0,-150]]",circle,red,hori,left,"[150,0]","[0,-150]",left,1,1.0823,,,,,,001,2025-03-10_20h24.58.980,SL_sali_41,2021.2.3,Win32,120.4819277,,,75,0,75,0,1,,,,,,,,
,,"[""diamond"",""green"",""hori"",""left"",[106,-106],[106,106]]",diamond,green,hori,left,"[106,-106]","[106,106]",left,1,0.9045,,,,,,001,2025-03-10_20h24.58.980,SL_sali_41,2021.2.3,Win32,120.4819277,,,76,0,76,0,1,,,,,,,,
,,"[""diamond"",""green"",""hori"",""left"",[106,-106],[0,150]]",diamond,green,hori,left,"[106,-106]","[0,150]",left,1,1.0127,,,,,,001,2025-03-10_20h24.58.980,SL_sali_41,2021.2.3,Win32,120.4819277,,,77,0,77,0,1,,,,,,,,
,,"[""diamond"",""green"",""hori"",""left"",[150,0],[106,106]]",diamond,green,hori,left,"[150,0]","[106,106]",left,1,0.5727,,,,,,001,2025-03-10_20h24.58.980,SL_sali_41,2021.2.3,Win32,120.4819277,,,78,0,78,0,1,,,,,,,,
,,"[""diamond"",""red"",""vert"",""up"",[106,-106],[0,150]]",diamond,red,vert,up,"[106,-106]","[0,150]",up,1,0.8546,,,,,,001,2025-03-10_20h24.58.980,SL_sali_41,2021.2.3,Win32,120.4819277,,,79,0,79,0,1,,,,,,,,
,,"[""circle"",""no_dis"",""hori"",""left"",[99999,99999],[106,-106]]",circle,no_dis,hori,left,"[99999,99999]","[106,-106]",left,1,0.5975,,,,,,001,2025-03-10_20h24.58.980,SL_sali_41,2021.2.3,Win32,120.4819277,,,80,0,80,0,1,,,,,,,,
,,"[""circle"",""red"",""hori"",""left"",[106,-106],[0,150]]",circle,red,hori,left,"[106,-106]","[0,150]",left,1,1.7425,,,,,,001,2025-03-10_20h24.58.980,SL_sali_41,2021.2.3,Win32,120.4819277,,,81,0,81,0,1,,,,,,,,
,,"[""circle"",""red"",""vert"",""up"",[150,0],[0,150]]",circle,red,vert,up,"[150,0]","[0,150]",up,1,1.1818,,,,,,001,2025-03-10_20h24.58.980,SL_sali_41,2021.2.3,Win32,120.4819277,,,82,0,82,0,1,,,,,,,,
,,"[""diamond"",""no_dis"",""hori"",""left"",[99999,99999],[106,-106]]",diamond,no_dis,hori,left,"[99999,99999]","[106,-106]",left,1,1.1368,,,,,,001,2025-03-10_20h24.58.980,SL_sali_41,2021.2.3,Win32,120.4819277,,,83,0,83,0,1,,,,,,,,
,,"[""circle"",""green"",""hori"",""left"",[106,106],[0,-150]]",circle,green,hori,left,"[106,106]","[0,-150]",left,1,0.6841,,,,,,001,2025-03-10_20h24.58.980,SL_sali_41,2021.2.3,Win32,120.4819277,,,84,0,84,0,1,,,,,,,,
,,"[""diamond"",""no_dis"",""hori"",""left"",[99999,99999],[-106,-106]]",diamond,no_dis,hori,left,"[99999,99999]","[-106,-106]",left,1,0.729,,,,,,001,2025-03-10_20h24.58.980,SL_sali_41,2021.2.3,Win32,120.4819277,,,85,0,85,0,1,,,,,,,,
,,"[""diamond"",""red"",""vert"",""up"",[106,-106],[-106,106]]",diamond,red,vert,up,"[106,-106]","[-106,106]",up,1,1.5316,,,,,,001,2025-03-10_20h24.58.980,SL_sali_41,2021.2.3,Win32,120.4819277,,,86,0,86,0,1,,,,,,,,
,,"[""circle"",""no_dis"",""vert"",""up"",[99999,99999],[0,-150]]",circle,no_dis,vert,up,"[99999,99999]","[0,-150]",up,1,1.0807,,,,,,001,2025-03-10_20h24.58.980,SL_sali_41,2021.2.3,Win32,120.4819277,,,87,0,87,0,1,,,,,,,,
,,"[""circle"",""red"",""hori"",""left"",[106,-106],[-150,0]]",circle,red,hori,left,"[106,-106]","[-150,0]",left,1,0.8203,,,,,,001,2025-03-10_20h24.58.980,SL_sali_41,2021.2.3,Win32,120.4819277,,,88,0,88,0,1,,,,,,,,
,,"[""diamond"",""green"",""hori"",""left"",[-106,-106],[106,106]]",diamond,green,hori,left,"[-106,-106]","[106,106]",left,1,0.8728,,,,,,001,2025-03-10_20h24.58.980,SL_sali_41,2021.2.3,Win32,120.4819277,,,89,0,89,0,1,,,,,,,,
,,"[""diamond"",""no_dis"",""hori"",""left"",[99999,99999],[0,-150]]",diamond,no_dis,hori,left,"[99999,99999]","[0,-150]",left,1,1.8371,,,,,,001,2025-03-10_20h24.58.980,SL_sali_41,2021.2.3,Win32,120.4819277,,,90,0,90,0,1,,,,,,,,
,,"[""circle"",""red"",""vert"",""up"",[106,-106],[150,0]]",circle,red,vert,up,"[106,-106]","[150,0]",up,1,0.8823,,,,,,001,2025-03-10_20h24.58.980,SL_sali_41,2021.2.3,Win32,120.4819277,,,91,0,91,0,1,,,,,,,,
,,"[""circle"",""no_dis"",""hori"",""left"",[99999,99999],[106,-106]]",circle,no_dis,hori,left,"[99999,99999]","[106,-106]",left,1,0.6219,,,,,,001,2025-03-10_20h24.58.980,SL_sali_41,2021.2.3,Win32,120.4819277,,,92,0,92,0,1,,,,,,,,
,,"[""circle"",""no_dis"",""hori"",""left"",[99999,99999],[-106,-106]]",circle,no_dis,hori,left,"[99999,99999]","[-106,-106]",left,1,0.6569,,,,,,001,2025-03-10_20h24.58.980,SL_sali_41,2021.2.3,Win32,120.4819277,,,93,0,93,0,1,,,,,,,,
,,"[""diamond"",""red"",""hori"",""left"",[106,-106],[0,-150]]",diamond,red,hori,left,"[106,-106]","[0,-150]",left,1,1.2217,,,,,,001,2025-03-10_20h24.58.980,SL_sali_41,2021.2.3,Win32,120.4819277,,,94,0,94,0,1,,,,,,,,
,,"[""diamond"",""green"",""vert"",""up"",[0,-150],[-106,106]]",diamond,green,vert,up,"[0,-150]","[-106,106]",up,1,1.8383,,,,,,001,2025-03-10_20h24.58.980,SL_sali_41,2021.2.3,Win32,120.4819277,,,95,0,95,0,1,,,,,,,,
,,"[""diamond"",""green"",""vert"",""up"",[0,150],[106,-106]]",diamond,green,vert,up,"[0,150]","[106,-106]",up,1,0.8371,,,,,,001,2025-03-10_20h24.58.980,SL_sali_41,2021.2.3,Win32,120.4819277,,,96,0,96,0,1,,,,,,,,
,,"[""circle"",""green"",""vert"",""up"",[106,-106],[-150,0]]",circle,green,vert,up,"[106,-106]","[-150,0]",up,1,0.7151,,,,,,001,2025-03-10_20h24.58.980,SL_sali_41,2021.2.3,Win32,120.4819277,,,97,0,97,0,1,,,,,,,,
,,"[""diamond"",""no_dis"",""hori"",""left"",[99999,99999],[-106,106]]",diamond,no_dis,hori,left,"[99999,99999]","[-106,106]",left,1,1.1472,,,,,,001,2025-03-10_20h24.58.980,SL_sali_41,2021.2.3,Win32,120.4819277,,,98,0,98,0,1,,,,,,,,
,,"[""diamond"",""red"",""hori"",""left"",[106,-106],[0,150]]",diamond,red,hori,left,"[106,-106]","[0,150]",left,1,1.4707,,,,,,001,2025-03-10_20h24.58.980,SL_sali_41,2021.2.3,Win32,120.4819277,,,99,0,99,0,1,,,,,,,,
,,"[""circle"",""green"",""vert"",""up"",[106,106],[150,0]]",circle,green,vert,up,"[106,106]","[150,0]",up,1,1.3051,,,,,,001,2025-03-10_20h24.58.980,SL_sali_41,2021.2.3,Win32,120.4819277,,,100,0,100,0,1,,,,,,,,
,,"[""diamond"",""red"",""vert"",""up"",[106,-106],[0,150]]",diamond,red,vert,up,"[106,-106]","[0,150]",up,1,0.9317,,,,,,001,2025-03-10_20h24.58.980,SL_sali_41,2021.2.3,Win32,120.4819277,,,101,0,101,0,1,,,,,,,,
,,"[""diamond"",""green"",""hori"",""left"",[106,-106],[0,150]]",diamond,green,hori,left,"[106,-106]","[0,150]",left,1,0.9116,,,,,,001,2025-03-10_20h24.58.980,SL_sali_41,2021.2.3,Win32,120.4819277,,,102,0,102,0,1,,,,,,,,
,,"[""circle"",""green"",""hori"",""left"",[-150,0],[-106,-106]]",circle,green,hori,left,"[-150,0]","[-106,-106]",left,1,1.1717,,,,,,001,2025-03-10_20h24.58.980,SL_sali_41,2021.2.3,Win32,120.4819277,,,103,0,103,0,1,,,,,,,,
,,"[""diamond"",""green"",""vert"",""up"",[0,150],[150,0]]",diamond,green,vert,up,"[0,150]","[150,0]",up,1,1.0461,,,,,,001,2025-03-10_20h24.58.980,SL_sali_41,2021.2.3,Win32,120.4819277,,,104,0,104,0,1,,,,,,,,
,,"[""diamond"",""no_dis"",""vert"",""up"",[99999,99999],[-106,106]]",diamond,no_dis,vert,up,"[99999,99999]","[-106,106]",up,1,1.3306,,,,,,001,2025-03-10_20h24.58.980,SL_sali_41,2021.2.3,Win32,120.4819277,,,105,0,105,0,1,,,,,,,,
,,"[""circle"",""red"",""vert"",""up"",[106,-106],[0,150]]",circle,red,vert,up,"[106,-106]","[0,150]",up,1,0.8239,,,,,,001,2025-03-10_20h24.58.980,SL_sali_41,2021.2.3,Win32,120.4819277,,,106,0,106,0,1,,,,,,,,
,,"[""diamond"",""green"",""hori"",""left"",[-106,106],[150,0]]",diamond,green,hori,left,"[-106,106]","[150,0]",left,1,1.0376,,,,,,001,2025-03-10_20h24.58.980,SL_sali_41,2021.2.3,Win32,120.4819277,,,107,0,107,0,1,,,,,,,,
,,"[""circle"",""no_dis"",""vert"",""up"",[99999,99999],[-106,106]]",circle,no_dis,vert,up,"[99999,99999]","[-106,106]",up,1,0.7837,,,,,,001,2025-03-10_20h24.58.980,SL_sali_41,2021.2.3,Win32,120.4819277,,,108,0,108,0,1,,,,,,,,
,,"[""diamond"",""green"",""vert"",""up"",[-106,106],[-106,-106]]",diamond,green,vert,up,"[-106,106]","[-106,-106]",up,1,1.3835,,,,,,001,2025-03-10_20h24.58.980,SL_sali_41,2021.2.3,Win32,120.4819277,,,109,0,109,0,1,,,,,,,,
,,"[""diamond"",""red"",""vert"",""up"",[106,-106],[-106,106]]",diamond,red,vert,up,"[106,-106]","[-106,106]",up,1,1.2694,,,,,,001,2025-03-10_20h24.58.980,SL_sali_41,2021.2.3,Win32,120.4819277,,,110,0,110,0,1,,,,,,,,
,,"[""circle"",""red"",""hori"",""left"",[106,-106],[106,106]]",circle,red,hori,left,"[106,-106]","[106,106]",left,1,1.1253,,,,,,001,2025-03-10_20h24.58.980,SL_sali_41,2021.2.3,Win32,120.4819277,,,111,0,111,0,1,,,,,,,,
,,"[""circle"",""red"",""vert"",""up"",[106,106],[-106,106]]",circle,red,vert,up,"[106,106]","[-106,106]",left,0,0.992,,,,,,001,2025-03-10_20h24.58.980,SL_sali_41,2021.2.3,Win32,120.4819277,,,112,0,112,0,1,,,,,,,,
,,"[""circle"",""red"",""hori"",""left"",[-150,0],[-106,-106]]",circle,red,hori,left,"[-150,0]","[-106,-106]",left,1,1.4666,,,,,,001,2025-03-10_20h24.58.980,SL_sali_41,2021.2.3,Win32,120.4819277,,,113,0,113,0,1,,,,,,,,
,,"[""diamond"",""no_dis"",""hori"",""left"",[99999,99999],[0,150]]",diamond,no_dis,hori,left,"[99999,99999]","[0,150]",left,1,2.203,,,,,,001,2025-03-10_20h24.58.980,SL_sali_41,2021.2.3,Win32,120.4819277,,,114,0,114,0,1,,,,,,,,
,,"[""circle"",""red"",""vert"",""up"",[-106,106],[0,150]]",circle,red,vert,up,"[-106,106]","[0,150]",up,1,1.4505,,,,,,001,2025-03-10_20h24.58.980,SL_sali_41,2021.2.3,Win32,120.4819277,,,115,0,115,0,1,,,,,,,,
,,"[""circle"",""green"",""vert"",""up"",[0,150],[0,-150]]",circle,green,vert,up,"[0,150]","[0,-150]",up,1,1.0379,,,,,,001,2025-03-10_20h24.58.980,SL_sali_41,2021.2.3,Win32,120.4819277,,,116,0,116,0,1,,,,,,,,
,,"[""circle"",""green"",""hori"",""left"",[-106,106],[0,-150]]",circle,green,hori,left,"[-106,106]","[0,-150]",left,1,0.6921,,,,,,001,2025-03-10_20h24.58.980,SL_sali_41,2021.2.3,Win32,120.4819277,,,117,0,117,0,1,,,,,,,,
,,"[""diamond"",""red"",""vert"",""up"",[106,-106],[-150,0]]",diamond,red,vert,up,"[106,-106]","[-150,0]",up,1,1.0832,,,,,,001,2025-03-10_20h24.58.980,SL_sali_41,2021.2.3,Win32,120.4819277,,,118,0,118,0,1,,,,,,,,
,,"[""diamond"",""red"",""hori"",""left"",[-150,0],[0,150]]",diamond,red,hori,left,"[-150,0]","[0,150]",left,1,1.1952,,,,,,001,2025-03-10_20h24.58.980,SL_sali_41,2021.2.3,Win32,120.4819277,,,119,0,119,0,1,,,,,,,,
,,"[""circle"",""no_dis"",""hori"",""left"",[99999,99999],[150,0]]",circle,no_dis,hori,left,"[99999,99999]","[150,0]",left,1,0.7265,,,,,,001,2025-03-10_20h24.58.980,SL_sali_41,2021.2.3,Win32,120.4819277,,,120,0,120,0,1,,,,,,,,
,,"[""circle"",""red"",""vert"",""up"",[0,150],[-150,0]]",circle,red,vert,up,"[0,150]","[-150,0]",up,1,1.1928,,,,,,001,2025-03-10_20h24.58.980,SL_sali_41,2021.2.3,Win32,120.4819277,,,121,0,121,0,1,,,,,,,,
,,"[""circle"",""red"",""vert"",""up"",[106,-106],[0,-150]]",circle,red,vert,up,"[106,-106]","[0,-150]",up,1,1.3171,,,,,,001,2025-03-10_20h24.58.980,SL_sali_41,2021.2.3,Win32,120.4819277,,,122,0,122,0,1,,,,,,,,
,,"[""circle"",""green"",""hori"",""left"",[0,-150],[106,-106]]",circle,green,hori,left,"[0,-150]","[106,-106]",left,1,0.6919,,,,,,001,2025-03-10_20h24.58.980,SL_sali_41,2021.2.3,Win32,120.4819277,,,123,0,123,0,1,,,,,,,,
,,"[""diamond"",""green"",""vert"",""up"",[-106,-106],[106,106]]",diamond,green,vert,up,"[-106,-106]","[106,106]",up,1,1.3753,,,,,,001,2025-03-10_20h24.58.980,SL_sali_41,2021.2.3,Win32,120.4819277,,,124,0,124,0,1,,,,,,,,
,,"[""circle"",""no_dis"",""vert"",""up"",[99999,99999],[-150,0]]",circle,no_dis,vert,up,"[99999,99999]","[-150,0]",up,1,1.386,,,,,,001,2025-03-10_20h24.58.980,SL_sali_41,2021.2.3,Win32,120.4819277,,,125,0,125,0,1,,,,,,,,
,,"[""circle"",""no_dis"",""vert"",""up"",[99999,99999],[0,-150]]",circle,no_dis,vert,up,"[99999,99999]","[0,-150]",up,1,1.6057,,,,,,001,2025-03-10_20h24.58.980,SL_sali_41,2021.2.3,Win32,120.4819277,,,126,0,126,0,1,,,,,,,,
,,"[""circle"",""no_dis"",""hori"",""left"",[99999,99999],[0,150]]",circle,no_dis,hori,left,"[99999,99999]","[0,150]",left,1,0.6417,,,,,,001,2025-03-10_20h24.58.980,SL_sali_41,2021.2.3,Win32,120.4819277,,,127,0,127,0,1,,,,,,,,
,,,,,,,,,,,,,,,,,001,2025-03-10_20h24.58.980,SL_sali_41,2021.2.3,Win32,120.4819277,,,,,,,,2,space,49.1112,1,0,1,0,1
,,"[""diamond"",""green"",""hori"",""left"",[106,-106],[0,150]]",diamond,green,hori,left,"[106,-106]","[0,150]",left,1,0.9007,,,,,,001,2025-03-10_20h24.58.980,SL_sali_41,2021.2.3,Win32,120.4819277,,,0,0,0,0,1,,,,,,,,
,,"[""diamond"",""red"",""vert"",""up"",[106,-106],[-150,0]]",diamond,red,vert,up,"[106,-106]","[-150,0]",up,1,1.1509,,,,,,001,2025-03-10_20h24.58.980,SL_sali_41,2021.2.3,Win32,120.4819277,,,1,0,1,0,1,,,,,,,,
,,"[""diamond"",""red"",""hori"",""left"",[0,150],[-150,0]]",diamond,red,hori,left,"[0,150]","[-150,0]",left,1,1.0584,,,,,,001,2025-03-10_20h24.58.980,SL_sali_41,2021.2.3,Win32,120.4819277,,,2,0,2,0,1,,,,,,,,
,,"[""diamond"",""no_dis"",""hori"",""left"",[99999,99999],[-106,-106]]",diamond,no_dis,hori,left,"[99999,99999]","[-106,-106]",left,1,0.6837,,,,,,001,2025-03-10_20h24.58.980,SL_sali_41,2021.2.3,Win32,120.4819277,,,3,0,3,0,1,,,,,,,,
,,"[""circle"",""green"",""hori"",""left"",[150,0],[-150,0]]",circle,green,hori,left,"[150,0]","[-150,0]",left,1,0.9836,,,,,,001,2025-03-10_20h24.58.980,SL_sali_41,2021.2.3,Win32,120.4819277,,,4,0,4,0,1,,,,,,,,
,,"[""diamond"",""green"",""vert"",""up"",[-106,106],[150,0]]",diamond,green,vert,up,"[-106,106]","[150,0]",up,1,0.6783,,,,,,001,2025-03-10_20h24.58.980,SL_sali_41,2021.2.3,Win32,120.4819277,,,5,0,5,0,1,,,,,,,,
,,"[""diamond"",""red"",""vert"",""up"",[106,-106],[0,150]]",diamond,red,vert,up,"[106,-106]","[0,150]",up,1,0.8406,,,,,,001,2025-03-10_20h24.58.980,SL_sali_41,2021.2.3,Win32,120.4819277,,,6,0,6,0,1,,,,,,,,
,,"[""circle"",""red"",""hori"",""left"",[106,-106],[-106,106]]",circle,red,hori,left,"[106,-106]","[-106,106]",left,1,0.7422,,,,,,001,2025-03-10_20h24.58.980,SL_sali_41,2021.2.3,Win32,120.4819277,,,7,0,7,0,1,,,,,,,,
,,"[""diamond"",""green"",""vert"",""up"",[0,150],[150,0]]",diamond,green,vert,up,"[0,150]","[150,0]",up,1,0.8831,,,,,,001,2025-03-10_20h24.58.980,SL_sali_41,2021.2.3,Win32,120.4819277,,,8,0,8,0,1,,,,,,,,
,,"[""circle"",""no_dis"",""vert"",""up"",[99999,99999],[0,-150]]",circle,no_dis,vert,up,"[99999,99999]","[0,-150]",up,1,0.8921,,,,,,001,2025-03-10_20h24.58.980,SL_sali_41,2021.2.3,Win32,120.4819277,,,9,0,9,0,1,,,,,,,,
,,"[""circle"",""red"",""vert"",""up"",[106,-106],[0,-150]]",circle,red,vert,up,"[106,-106]","[0,-150]",up,1,1.1591,,,,,,001,2025-03-10_20h24.58.980,SL_sali_41,2021.2.3,Win32,120.4819277,,,10,0,10,0,1,,,,,,,,
,,"[""circle"",""red"",""hori"",""left"",[-150,0],[-106,106]]",circle,red,hori,left,"[-150,0]","[-106,106]",left,1,1.3837,,,,,,001,2025-03-10_20h24.58.980,SL_sali_41,2021.2.3,Win32,120.4819277,,,11,0,11,0,1,,,,,,,,
,,"[""diamond"",""green"",""vert"",""up"",[106,-106],[-150,0]]",diamond,green,vert,up,"[106,-106]","[-150,0]",up,1,0.7175,,,,,,001,2025-03-10_20h24.58.980,SL_sali_41,2021.2.3,Win32,120.4819277,,,12,0,12,0,1,,,,,,,,
,,"[""diamond"",""red"",""vert"",""up"",[106,-106],[0,150]]",diamond,red,vert,up,"[106,-106]","[0,150]",up,1,1.0487,,,,,,001,2025-03-10_20h24.58.980,SL_sali_41,2021.2.3,Win32,120.4819277,,,13,0,13,0,1,,,,,,,,
,,"[""diamond"",""red"",""vert"",""up"",[-106,106],[0,-150]]",diamond,red,vert,up,"[-106,106]","[0,-150]",up,1,1.0962,,,,,,001,2025-03-10_20h24.58.980,SL_sali_41,2021.2.3,Win32,120.4819277,,,14,0,14,0,1,,,,,,,,
,,"[""diamond"",""green"",""vert"",""up"",[106,-106],[150,0]]",diamond,green,vert,up,"[106,-106]","[150,0]",up,1,1.192,,,,,,001,2025-03-10_20h24.58.980,SL_sali_41,2021.2.3,Win32,120.4819277,,,15,0,15,0,1,,,,,,,,
,,"[""circle"",""red"",""vert"",""up"",[-106,106],[0,150]]",circle,red,vert,up,"[-106,106]","[0,150]",up,1,1.0016,,,,,,001,2025-03-10_20h24.58.980,SL_sali_41,2021.2.3,Win32,120.4819277,,,16,0,16,0,1,,,,,,,,
,,"[""circle"",""red"",""hori"",""left"",[106,-106],[106,106]]",circle,red,hori,left,"[106,-106]","[106,106]",left,1,1.3395,,,,,,001,2025-03-10_20h24.58.980,SL_sali_41,2021.2.3,Win32,120.4819277,,,17,0,17,0,1,,,,,,,,
,,"[""diamond"",""red"",""vert"",""up"",[0,-150],[106,-106]]",diamond,red,vert,up,"[0,-150]","[106,-106]",left,0,2.3573,,,,,,001,2025-03-10_20h24.58.980,SL_sali_41,2021.2.3,Win32,120.4819277,,,18,0,18,0,1,,,,,,,,
,,"[""circle"",""no_dis"",""vert"",""up"",[99999,99999],[-150,0]]",circle,no_dis,vert,up,"[99999,99999]","[-150,0]",up,1,1.0061,,,,,,001,2025-03-10_20h24.58.980,SL_sali_41,2021.2.3,Win32,120.4819277,,,19,0,19,0,1,,,,,,,,
,,"[""diamond"",""green"",""hori"",""left"",[0,150],[150,0]]",diamond,green,hori,left,"[0,150]","[150,0]",up,0,1.7653,,,,,,001,2025-03-10_20h24.58.980,SL_sali_41,2021.2.3,Win32,120.4819277,,,20,0,20,0,1,,,,,,,,
,,"[""diamond"",""no_dis"",""vert"",""up"",[99999,99999],[-150,0]]",diamond,no_dis,vert,up,"[99999,99999]","[-150,0]",up,1,0.9977,,,,,,001,2025-03-10_20h24.58.980,SL_sali_41,2021.2.3,Win32,120.4819277,,,21,0,21,0,1,,,,,,,,
,,"[""diamond"",""no_dis"",""vert"",""up"",[99999,99999],[-106,106]]",diamond,no_dis,vert,up,"[99999,99999]","[-106,106]",up,1,1.8368,,,,,,001,2025-03-10_20h24.58.980,SL_sali_41,2021.2.3,Win32,120.4819277,,,22,0,22,0,1,,,,,,,,
,,"[""circle"",""red"",""vert"",""up"",[106,106],[-106,106]]",circle,red,vert,up,"[106,106]","[-106,106]",left,0,2.3604,,,,,,001,2025-03-10_20h24.58.980,SL_sali_41,2021.2.3,Win32,120.4819277,,,23,0,23,0,1,,,,,,,,
,,"[""circle"",""no_dis"",""hori"",""left"",[99999,99999],[150,0]]",circle,no_dis,hori,left,"[99999,99999]","[150,0]",left,1,1.2253,,,,,,001,2025-03-10_20h24.58.980,SL_sali_41,2021.2.3,Win32,120.4819277,,,24,0,24,0,1,,,,,,,,
,,"[""diamond"",""red"",""hori"",""left"",[106,-106],[-106,-106]]",diamond,red,hori,left,"[106,-106]","[-106,-106]",left,1,1.0543,,,,,,001,2025-03-10_20h24.58.980,SL_sali_41,2021.2.3,Win32,120.4819277,,,25,0,25,0,1,,,,,,,,
,,"[""diamond"",""green"",""vert"",""up"",[0,150],[106,-106]]",diamond,green,vert,up,"[0,150]","[106,-106]",up,1,0.8226,,,,,,001,2025-03-10_20h24.58.980,SL_sali_41,2021.2.3,Win32,120.4819277,,,26,0,26,0,1,,,,,,,,
,,"[""circle"",""red"",""hori"",""left"",[-150,0],[-106,-106]]",circle,red,hori,left,"[-150,0]","[-106,-106]",left,1,1.6808,,,,,,001,2025-03-10_20h24.58.980,SL_sali_41,2021.2.3,Win32,120.4819277,,,27,0,27,0,1,,,,,,,,
,,"[""circle"",""green"",""hori"",""left"",[-106,106],[0,-150]]",circle,green,hori,left,"[-106,106]","[0,-150]",left,1,1.1395,,,,,,001,2025-03-10_20h24.58.980,SL_sali_41,2021.2.3,Win32,120.4819277,,,28,0,28,0,1,,,,,,,,
,,"[""circle"",""red"",""hori"",""left"",[106,-106],[0,150]]",circle,red,hori,left,"[106,-106]","[0,150]",left,1,0.8974,,,,,,001,2025-03-10_20h24.58.980,SL_sali_41,2021.2.3,Win32,120.4819277,,,29,0,29,0,1,,,,,,,,
,,"[""diamond"",""no_dis"",""vert"",""up"",[99999,99999],[0,-150]]",diamond,no_dis,vert,up,"[99999,99999]","[0,-150]",up,1,1.0897,,,,,,001,2025-03-10_20h24.58.980,SL_sali_41,2021.2.3,Win32,120.4819277,,,30,0,30,0,1,,,,,,,,
,,"[""circle"",""no_dis"",""hori"",""left"",[99999,99999],[106,-106]]",circle,no_dis,hori,left,"[99999,99999]","[106,-106]",left,1,0.6463,,,,,,001,2025-03-10_20h24.58.980,SL_sali_41,2021.2.3,Win32,120.4819277,,,31,0,31,0,1,,,,,,,,
,,"[""circle"",""no_dis"",""vert"",""up"",[99999,99999],[106,106]]",circle,no_dis,vert,up,"[99999,99999]","[106,106]",up,1,0.589,,,,,,001,2025-03-10_20h24.58.980,SL_sali_41,2021.2.3,Win32,120.4819277,,,32,0,32,0,1,,,,,,,,
,,"[""circle"",""no_dis"",""vert"",""up"",[99999,99999],[0,-150]]",circle,no_dis,vert,up,"[99999,99999]","[0,-150]",up,1,0.6998,,,,,,001,2025-03-10_20h24.58.980,SL_sali_41,2021.2.3,Win32,120.4819277,,,33,0,33,0,1,,,,,,,,
,,"[""diamond"",""no_dis"",""hori"",""left"",[99999,99999],[-106,106]]",diamond,no_dis,hori,left,"[99999,99999]","[-106,106]",left,1,1.5306,,,,,,001,2025-03-10_20h24.58.980,SL_sali_41,2021.2.3,Win32,120.4819277,,,34,0,34,0,1,,,,,,,,
,,"[""circle"",""green"",""vert"",""up"",[106,106],[150,0]]",circle,green,vert,up,"[106,106]","[150,0]",up,1,0.7473,,,,,,001,2025-03-10_20h24.58.980,SL_sali_41,2021.2.3,Win32,120.4819277,,,35,0,35,0,1,,,,,,,,
,,"[""circle"",""no_dis"",""vert"",""up"",[99999,99999],[-106,-106]]",circle,no_dis,vert,up,"[99999,99999]","[-106,-106]",up,1,1.306,,,,,,001,2025-03-10_20h24.58.980,SL_sali_41,2021.2.3,Win32,120.4819277,,,36,0,36,0,1,,,,,,,,
,,"[""circle"",""green"",""hori"",""left"",[106,106],[-106,106]]",circle,green,hori,left,"[106,106]","[-106,106]",left,1,0.8925,,,,,,001,2025-03-10_20h24.58.980,SL_sali_41,2021.2.3,Win32,120.4819277,,,37,0,37,0,1,,,,,,,,
,,"[""diamond"",""red"",""hori"",""left"",[-150,0],[0,150]]",diamond,red,hori,left,"[-150,0]","[0,150]",left,1,1.4288,,,,,,001,2025-03-10_20h24.58.980,SL_sali_41,2021.2.3,Win32,120.4819277,,,38,0,38,0,1,,,,,,,,
,,"[""circle"",""red"",""vert"",""up"",[0,150],[-150,0]]",circle,red,vert,up,"[0,150]","[-150,0]",,0,,,,,,,001,2025-03-10_20h24.58.980,SL_sali_41,2021.2.3,Win32,120.4819277,,,39,0,39,0,1,,,,,,,,
,,"[""diamond"",""no_dis"",""vert"",""up"",[99999,99999],[0,150]]",diamond,no_dis,vert,up,"[99999,99999]","[0,150]",up,1,1.0558,,,,,,001,2025-03-10_20h24.58.980,SL_sali_41,2021.2.3,Win32,120.4819277,,,40,0,40,0,1,,,,,,,,
,,"[""diamond"",""green"",""vert"",""up"",[0,150],[150,0]]",diamond,green,vert,up,"[0,150]","[150,0]",up,1,2.277,,,,,,001,2025-03-10_20h24.58.980,SL_sali_41,2021.2.3,Win32,120.4819277,,,41,0,41,0,1,,,,,,,,
,,"[""diamond"",""no_dis"",""hori"",""left"",[99999,99999],[106,106]]",diamond,no_dis,hori,left,"[99999,99999]","[106,106]",,0,,,,,,,001,2025-03-10_20h24.58.980,SL_sali_41,2021.2.3,Win32,120.4819277,,,42,0,42,0,1,,,,,,,,
,,"[""circle"",""red"",""vert"",""up"",[0,-150],[-106,-106]]",circle,red,vert,up,"[0,-150]","[-106,-106]",left,0,1.6243,,,,,,001,2025-03-10_20h24.58.980,SL_sali_41,2021.2.3,Win32,120.4819277,,,43,0,43,0,1,,,,,,,,
,,"[""circle"",""green"",""vert"",""up"",[-150,0],[106,-106]]",circle,green,vert,up,"[-150,0]","[106,-106]",up,1,0.7057,,,,,,001,2025-03-10_20h24.58.980,SL_sali_41,2021.2.3,Win32,120.4819277,,,44,0,44,0,1,,,,,,,,
,,"[""diamond"",""no_dis"",""vert"",""up"",[99999,99999],[0,150]]",diamond,no_dis,vert,up,"[99999,99999]","[0,150]",up,1,0.9227,,,,,,001,2025-03-10_20h24.58.980,SL_sali_41,2021.2.3,Win32,120.4819277,,,45,0,45,0,1,,,,,,,,
,,"[""circle"",""green"",""vert"",""up"",[106,-106],[-150,0]]",circle,green,vert,up,"[106,-106]","[-150,0]",up,1,0.7096,,,,,,001,2025-03-10_20h24.58.980,SL_sali_41,2021.2.3,Win32,120.4819277,,,46,0,46,0,1,,,,,,,,
,,"[""diamond"",""green"",""vert"",""up"",[0,-150],[-106,-106]]",diamond,green,vert,up,"[0,-150]","[-106,-106]",up,1,0.6566,,,,,,001,2025-03-10_20h24.58.980,SL_sali_41,2021.2.3,Win32,120.4819277,,,47,0,47,0,1,,,,,,,,
,,"[""circle"",""green"",""vert"",""up"",[-106,-106],[150,0]]",circle,green,vert,up,"[-106,-106]","[150,0]",up,1,0.5729,,,,,,001,2025-03-10_20h24.58.980,SL_sali_41,2021.2.3,Win32,120.4819277,,,48,0,48,0,1,,,,,,,,
,,"[""circle"",""red"",""hori"",""left"",[106,-106],[150,0]]",circle,red,hori,left,"[106,-106]","[150,0]",left,1,0.7399,,,,,,001,2025-03-10_20h24.58.980,SL_sali_41,2021.2.3,Win32,120.4819277,,,49,0,49,0,1,,,,,,,,
,,"[""circle"",""green"",""vert"",""up"",[0,-150],[150,0]]",circle,green,vert,up,"[0,-150]","[150,0]",up,1,0.5812,,,,,,001,2025-03-10_20h24.58.980,SL_sali_41,2021.2.3,Win32,120.4819277,,,50,0,50,0,1,,,,,,,,
,,"[""diamond"",""no_dis"",""hori"",""left"",[99999,99999],[-106,-106]]",diamond,no_dis,hori,left,"[99999,99999]","[-106,-106]",left,1,1.1215,,,,,,001,2025-03-10_20h24.58.980,SL_sali_41,2021.2.3,Win32,120.4819277,,,51,0,51,0,1,,,,,,,,
,,"[""circle"",""no_dis"",""hori"",""left"",[99999,99999],[-106,-106]]",circle,no_dis,hori,left,"[99999,99999]","[-106,-106]",left,1,1.0983,,,,,,001,2025-03-10_20h24.58.980,SL_sali_41,2021.2.3,Win32,120.4819277,,,52,0,52,0,1,,,,,,,,
,,"[""circle"",""no_dis"",""vert"",""up"",[99999,99999],[0,-150]]",circle,no_dis,vert,up,"[99999,99999]","[0,-150]",up,1,0.7059,,,,,,001,2025-03-10_20h24.58.980,SL_sali_41,2021.2.3,Win32,120.4819277,,,53,0,53,0,1,,,,,,,,
,,"[""diamond"",""green"",""hori"",""left"",[106,106],[0,150]]",diamond,green,hori,left,"[106,106]","[0,150]",left,1,1.3285,,,,,,001,2025-03-10_20h24.58.980,SL_sali_41,2021.2.3,Win32,120.4819277,,,54,0,54,0,1,,,,,,,,
,,"[""diamond"",""no_dis"",""vert"",""up"",[99999,99999],[106,-106]]",diamond,no_dis,vert,up,"[99999,99999]","[106,-106]",up,1,0.9314,,,,,,001,2025-03-10_20h24.58.980,SL_sali_41,2021.2.3,Win32,120.4819277,,,55,0,55,0,1,,,,,,,,
,,"[""diamond"",""no_dis"",""hori"",""left"",[99999,99999],[150,0]]",diamond,no_dis,hori,left,"[99999,99999]","[150,0]",left,1,1.6738,,,,,,001,2025-03-10_20h24.58.980,SL_sali_41,2021.2.3,Win32,120.4819277,,,56,0,56,0,1,,,,,,,,
,,"[""circle"",""green"",""hori"",""left"",[106,106],[0,-150]]",circle,green,hori,left,"[106,106]","[0,-150]",left,1,1.2723,,,,,,001,2025-03-10_20h24.58.980,SL_sali_41,2021.2.3,Win32,120.4819277,,,57,0,57,0,1,,,,,,,,
,,"[""diamond"",""red"",""vert"",""up"",[106,-106],[106,106]]",diamond,red,vert,up,"[106,-106]","[106,106]",up,1,1.1458,,,,,,001,2025-03-10_20h24.58.980,SL_sali_41,2021.2.3,Win32,120.4819277,,,58,0,58,0,1,,,,,,,,
,,"[""circle"",""red"",""vert"",""up"",[-150,0],[150,0]]",circle,red,vert,up,"[-150,0]","[150,0]",up,1,0.9065,,,,,,001,2025-03-10_20h24.58.980,SL_sali_41,2021.2.3,Win32,120.4819277,,,59,0,59,0,1,,,,,,,,
,,"[""diamond"",""green"",""vert"",""up"",[0,-150],[-106,106]]",diamond,green,vert,up,"[0,-150]","[-106,106]",up,1,0.9376,,,,,,001,2025-03-10_20h24.58.980,SL_sali_41,2021.2.3,Win32,120.4819277,,,60,0,60,0,1,,,,,,,,
,,"[""circle"",""green"",""vert"",""up"",[0,-150],[-150,0]]",circle,green,vert,up,"[0,-150]","[-150,0]",up,1,0.9558,,,,,,001,2025-03-10_20h24.58.980,SL_sali_41,2021.2.3,Win32,120.4819277,,,61,0,61,0,1,,,,,,,,
,,"[""circle"",""no_dis"",""hori"",""left"",[99999,99999],[150,0]]",circle,no_dis,hori,left,"[99999,99999]","[150,0]",left,1,1.0245,,,,,,001,2025-03-10_20h24.58.980,SL_sali_41,2021.2.3,Win32,120.4819277,,,62,0,62,0,1,,,,,,,,
,,"[""diamond"",""red"",""vert"",""up"",[150,0],[106,106]]",diamond,red,vert,up,"[150,0]","[106,106]",up,1,1.6629,,,,,,001,2025-03-10_20h24.58.980,SL_sali_41,2021.2.3,Win32,120.4819277,,,63,0,63,0,1,,,,,,,,
,,"[""circle"",""red"",""hori"",""left"",[106,106],[-150,0]]",circle,red,hori,left,"[106,106]","[-150,0]",left,1,1.4253,,,,,,001,2025-03-10_20h24.58.980,SL_sali_41,2021.2.3,Win32,120.4819277,,,64,0,64,0,1,,,,,,,,
,,"[""diamond"",""green"",""hori"",""left"",[150,0],[-150,0]]",diamond,green,hori,left,"[150,0]","[-150,0]",left,1,1.6903,,,,,,001,2025-03-10_20h24.58.980,SL_sali_41,2021.2.3,Win32,120.4819277,,,65,0,65,0,1,,,,,,,,
,,"[""diamond"",""red"",""vert"",""up"",[106,-106],[-106,106]]",diamond,red,vert,up,"[106,-106]","[-106,106]",up,1,0.7282,,,,,,001,2025-03-10_20h24.58.980,SL_sali_41,2021.2.3,Win32,120.4819277,,,66,0,66,0,1,,,,,,,,
,,"[""circle"",""green"",""vert"",""up"",[106,-106],[0,150]]",circle,green,vert,up,"[106,-106]","[0,150]",up,1,0.5462,,,,,,001,2025-03-10_20h24.58.980,SL_sali_41,2021.2.3,Win32,120.4819277,,,67,0,67,0,1,,,,,,,,
,,"[""diamond"",""green"",""hori"",""left"",[-106,-106],[106,106]]",diamond,green,hori,left,"[-106,-106]","[106,106]",left,1,0.9249,,,,,,001,2025-03-10_20h24.58.980,SL_sali_41,2021.2.3,Win32,120.4819277,,,68,0,68,0,1,,,,,,,,
,,"[""diamond"",""no_dis"",""vert"",""up"",[99999,99999],[150,0]]",diamond,no_dis,vert,up,"[99999,99999]","[150,0]",up,1,1.6098,,,,,,001,2025-03-10_20h24.58.980,SL_sali_41,2021.2.3,Win32,120.4819277,,,69,0,69,0,1,,,,,,,,
,,"[""diamond"",""red"",""hori"",""left"",[-106,-106],[106,-106]]",diamond,red,hori,left,"[-106,-106]","[106,-106]",left,1,1.4795,,,,,,001,2025-03-10_20h24.58.980,SL_sali_41,2021.2.3,Win32,120.4819277,,,70,0,70,0,1,,,,,,,,
,,"[""circle"",""green"",""vert"",""up"",[150,0],[106,106]]",circle,green,vert,up,"[150,0]","[106,106]",up,1,0.8891,,,,,,001,2025-03-10_20h24.58.980,SL_sali_41,2021.2.3,Win32,120.4819277,,,71,0,71,0,1,,,,,,,,
,,"[""circle"",""no_dis"",""vert"",""up"",[99999,99999],[-150,0]]",circle,no_dis,vert,up,"[99999,99999]","[-150,0]",up,1,1.781,,,,,,001,2025-03-10_20h24.58.980,SL_sali_41,2021.2.3,Win32,120.4819277,,,72,0,72,0,1,,,,,,,,
,,"[""diamond"",""green"",""vert"",""up"",[-106,-106],[106,-106]]",diamond,green,vert,up,"[-106,-106]","[106,-106]",up,1,1.1708,,,,,,001,2025-03-10_20h24.58.980,SL_sali_41,2021.2.3,Win32,120.4819277,,,73,0,73,0,1,,,,,,,,
,,"[""diamond"",""green"",""hori"",""left"",[-106,-106],[-150,0]]",diamond,green,hori,left,"[-106,-106]","[-150,0]",left,1,0.7377,,,,,,001,2025-03-10_20h24.58.980,SL_sali_41,2021.2.3,Win32,120.4819277,,,74,0,74,0,1,,,,,,,,
,,"[""circle"",""green"",""vert"",""up"",[150,0],[0,150]]",circle,green,vert,up,"[150,0]","[0,150]",up,1,1.1415,,,,,,001,2025-03-10_20h24.58.980,SL_sali_41,2021.2.3,Win32,120.4819277,,,75,0,75,0,1,,,,,,,,
,,"[""circle"",""green"",""hori"",""left"",[106,-106],[-106,106]]",circle,green,hori,left,"[106,-106]","[-106,106]",left,1,1.135,,,,,,001,2025-03-10_20h24.58.980,SL_sali_41,2021.2.3,Win32,120.4819277,,,76,0,76,0,1,,,,,,,,
,,"[""circle"",""no_dis"",""hori"",""left"",[99999,99999],[106,-106]]",circle,no_dis,hori,left,"[99999,99999]","[106,-106]",left,1,1.4724,,,,,,001,2025-03-10_20h24.58.980,SL_sali_41,2021.2.3,Win32,120.4819277,,,77,0,77,0,1,,,,,,,,
,,"[""diamond"",""green"",""hori"",""left"",[150,0],[106,106]]",diamond,green,hori,left,"[150,0]","[106,106]",left,1,1.7844,,,,,,001,2025-03-10_20h24.58.980,SL_sali_41,2021.2.3,Win32,120.4819277,,,78,0,78,0,1,,,,,,,,
,,"[""circle"",""green"",""hori"",""left"",[-150,0],[-106,-106]]",circle,green,hori,left,"[-150,0]","[-106,-106]",left,1,1.4966,,,,,,001,2025-03-10_20h24.58.980,SL_sali_41,2021.2.3,Win32,120.4819277,,,79,0,79,0,1,,,,,,,,
,,"[""diamond"",""red"",""vert"",""up"",[106,-106],[-106,-106]]",diamond,red,vert,up,"[106,-106]","[-106,-106]",up,1,1.8974,,,,,,001,2025-03-10_20h24.58.980,SL_sali_41,2021.2.3,Win32,120.4819277,,,80,0,80,0,1,,,,,,,,
,,"[""circle"",""red"",""vert"",""up"",[-106,106],[-106,-106]]",circle,red,vert,up,"[-106,106]","[-106,-106]",up,1,1.4387,,,,,,001,2025-03-10_20h24.58.980,SL_sali_41,2021.2.3,Win32,120.4819277,,,81,0,81,0,1,,,,,,,,
,,"[""circle"",""green"",""hori"",""left"",[106,-106],[-106,106]]",circle,green,hori,left,"[106,-106]","[-106,106]",left,1,1.5987,,,,,,001,2025-03-10_20h24.58.980,SL_sali_41,2021.2.3,Win32,120.4819277,,,82,0,82,0,1,,,,,,,,
,,"[""circle"",""no_dis"",""hori"",""left"",[99999,99999],[106,106]]",circle,no_dis,hori,left,"[99999,99999]","[106,106]",left,1,0.9492,,,,,,001,2025-03-10_20h24.58.980,SL_sali_41,2021.2.3,Win32,120.4819277,,,83,0,83,0,1,,,,,,,,
,,"[""circle"",""green"",""hori"",""left"",[0,-150],[106,-106]]",circle,green,hori,left,"[0,-150]","[106,-106]",left,1,0.6974,,,,,,001,2025-03-10_20h24.58.980,SL_sali_41,2021.2.3,Win32,120.4819277,,,84,0,84,0,1,,,,,,,,
,,"[""circle"",""red"",""hori"",""left"",[106,-106],[-150,0]]",circle,red,hori,left,"[106,-106]","[-150,0]",left,1,1.1315,,,,,,001,2025-03-10_20h24.58.980,SL_sali_41,2021.2.3,Win32,120.4819277,,,85,0,85,0,1,,,,,,,,
,,"[""diamond"",""no_dis"",""hori"",""left"",[99999,99999],[106,-106]]",diamond,no_dis,hori,left,"[99999,99999]","[106,-106]",up,0,1.2199,,,,,,001,2025-03-10_20h24.58.980,SL_sali_41,2021.2.3,Win32,120.4819277,,,86,0,86,0,1,,,,,,,,
,,"[""diamond"",""red"",""vert"",""up"",[106,-106],[-106,106]]",diamond,red,vert,up,"[106,-106]","[-106,106]",up,1,1.5289,,,,,,001,2025-03-10_20h24.58.980,SL_sali_41,2021.2.3,Win32,120.4819277,,,87,0,87,0,1,,,,,,,,
,,"[""diamond"",""green"",""hori"",""left"",[-106,106],[150,0]]",diamond,green,hori,left,"[-106,106]","[150,0]",left,1,0.754,,,,,,001,2025-03-10_20h24.58.980,SL_sali_41,2021.2.3,Win32,120.4819277,,,88,0,88,0,1,,,,,,,,
,,"[""circle"",""green"",""hori"",""left"",[106,-106],[-106,-106]]",circle,green,hori,left,"[106,-106]","[-106,-106]",left,1,1.0487,,,,,,001,2025-03-10_20h24.58.980,SL_sali_41,2021.2.3,Win32,120.4819277,,,89,0,89,0,1,,,,,,,,
,,"[""diamond"",""no_dis"",""hori"",""left"",[99999,99999],[0,-150]]",diamond,no_dis,hori,left,"[99999,99999]","[0,-150]",left,1,2.4693,,,,,,001,2025-03-10_20h24.58.980,SL_sali_41,2021.2.3,Win32,120.4819277,,,90,0,90,0,1,,,,,,,,
,,"[""diamond"",""red"",""hori"",""left"",[106,-106],[0,-150]]",diamond,red,hori,left,"[106,-106]","[0,-150]",left,1,0.9395,,,,,,001,2025-03-10_20h24.58.980,SL_sali_41,2021.2.3,Win32,120.4819277,,,91,0,91,0,1,,,,,,,,
,,"[""circle"",""no_dis"",""hori"",""left"",[99999,99999],[0,150]]",circle,no_dis,hori,left,"[99999,99999]","[0,150]",left,1,0.9903,,,,,,001,2025-03-10_20h24.58.980,SL_sali_41,2021.2.3,Win32,120.4819277,,,92,0,92,0,1,,,,,,,,
,,"[""circle"",""red"",""vert"",""up"",[106,-106],[150,0]]",circle,red,vert,up,"[106,-106]","[150,0]",up,1,1.2819,,,,,,001,2025-03-10_20h24.58.980,SL_sali_41,2021.2.3,Win32,120.4819277,,,93,0,93,0,1,,,,,,,,
,,"[""circle"",""no_dis"",""vert"",""up"",[99999,99999],[-106,106]]",circle,no_dis,vert,up,"[99999,99999]","[-106,106]",up,1,0.6478,,,,,,001,2025-03-10_20h24.58.980,SL_sali_41,2021.2.3,Win32,120.4819277,,,94,0,94,0,1,,,,,,,,
,,"[""circle"",""no_dis"",""hori"",""left"",[99999,99999],[106,106]]",circle,no_dis,hori,left,"[99999,99999]","[106,106]",left,1,0.6484,,,,,,001,2025-03-10_20h24.58.980,SL_sali_41,2021.2.3,Win32,120.4819277,,,95,0,95,0,1,,,,,,,,
,,"[""diamond"",""no_dis"",""vert"",""up"",[99999,99999],[0,150]]",diamond,no_dis,vert,up,"[99999,99999]","[0,150]",up,1,1.0586,,,,,,001,2025-03-10_20h24.58.980,SL_sali_41,2021.2.3,Win32,120.4819277,,,96,0,96,0,1,,,,,,,,
,,"[""circle"",""red"",""hori"",""left"",[150,0],[0,-150]]",circle,red,hori,left,"[150,0]","[0,-150]",left,1,1.6467,,,,,,001,2025-03-10_20h24.58.980,SL_sali_41,2021.2.3,Win32,120.4819277,,,97,0,97,0,1,,,,,,,,
,,"[""diamond"",""no_dis"",""hori"",""left"",[99999,99999],[-106,106]]",diamond,no_dis,hori,left,"[99999,99999]","[-106,106]",left,1,1.2878,,,,,,001,2025-03-10_20h24.58.980,SL_sali_41,2021.2.3,Win32,120.4819277,,,98,0,98,0,1,,,,,,,,
,,"[""diamond"",""no_dis"",""vert"",""up"",[99999,99999],[-106,-106]]",diamond,no_dis,vert,up,"[99999,99999]","[-106,-106]",up,1,0.8767,,,,,,001,2025-03-10_20h24.58.980,SL_sali_41,2021.2.3,Win32,120.4819277,,,99,0,99,0,1,,,,,,,,
,,"[""circle"",""green"",""hori"",""left"",[-150,0],[0,-150]]",circle,green,hori,left,"[-150,0]","[0,-150]",left,1,0.6978,,,,,,001,2025-03-10_20h24.58.980,SL_sali_41,2021.2.3,Win32,120.4819277,,,100,0,100,0,1,,,,,,,,
,,"[""diamond"",""red"",""hori"",""left"",[106,-106],[0,-150]]",diamond,red,hori,left,"[106,-106]","[0,-150]",left,1,1.1497,,,,,,001,2025-03-10_20h24.58.980,SL_sali_41,2021.2.3,Win32,120.4819277,,,101,0,101,0,1,,,,,,,,
,,"[""diamond"",""no_dis"",""hori"",""left"",[99999,99999],[0,150]]",diamond,no_dis,hori,left,"[99999,99999]","[0,150]",left,1,0.7072,,,,,,001,2025-03-10_20h24.58.980,SL_sali_41,2021.2.3,Win32,120.4819277,,,102,0,102,0,1,,,,,,,,
,,"[""diamond"",""red"",""hori"",""left"",[106,-106],[0,150]]",diamond,red,hori,left,"[106,-106]","[0,150]",left,1,0.8104,,,,,,001,2025-03-10_20h24.58.980,SL_sali_41,2021.2.3,Win32,120.4819277,,,103,0,103,0,1,,,,,,,,
,,"[""circle"",""red"",""hori"",""left"",[-106,-106],[106,106]]",circle,red,hori,left,"[-106,-106]","[106,106]",up,0,1.4643,,,,,,001,2025-03-10_20h24.58.980,SL_sali_41,2021.2.3,Win32,120.4819277,,,104,0,104,0,1,,,,,,,,
,,"[""diamond"",""green"",""hori"",""left"",[106,-106],[0,150]]",diamond,green,hori,left,"[106,-106]","[0,150]",left,1,1.1407,,,,,,001,2025-03-10_20h24.58.980,SL_sali_41,2021.2.3,Win32,120.4819277,,,105,0,105,0,1,,,,,,,,
,,"[""diamond"",""red"",""vert"",""up"",[106,-106],[106,106]]",diamond,red,vert,up,"[106,-106]","[106,106]",up,1,2.7289,,,,,,001,2025-03-10_20h24.58.980,SL_sali_41,2021.2.3,Win32,120.4819277,,,106,0,106,0,1,,,,,,,,
,,"[""diamond"",""green"",""vert"",""up"",[-106,106],[-106,-106]]",diamond,green,vert,up,"[-106,106]","[-106,-106]",up,1,1.3946,,,,,,001,2025-03-10_20h24.58.980,SL_sali_41,2021.2.3,Win32,120.4819277,,,107,0,107,0,1,,,,,,,,
,,"[""circle"",""red"",""vert"",""up"",[106,106],[-106,106]]",circle,red,vert,up,"[106,106]","[-106,106]",,0,,,,,,,001,2025-03-10_20h24.58.980,SL_sali_41,2021.2.3,Win32,120.4819277,,,108,0,108,0,1,,,,,,,,
,,"[""diamond"",""no_dis"",""hori"",""left"",[99999,99999],[150,0]]",diamond,no_dis,hori,left,"[99999,99999]","[150,0]",left,1,0.8971,,,,,,001,2025-03-10_20h24.58.980,SL_sali_41,2021.2.3,Win32,120.4819277,,,109,0,109,0,1,,,,,,,,
,,"[""circle"",""red"",""vert"",""up"",[106,-106],[0,150]]",circle,red,vert,up,"[106,-106]","[0,150]",up,1,0.9975,,,,,,001,2025-03-10_20h24.58.980,SL_sali_41,2021.2.3,Win32,120.4819277,,,110,0,110,0,1,,,,,,,,
,,"[""diamond"",""green"",""hori"",""left"",[-106,-106],[-106,106]]",diamond,green,hori,left,"[-106,-106]","[-106,106]",left,1,0.8247,,,,,,001,2025-03-10_20h24.58.980,SL_sali_41,2021.2.3,Win32,120.4819277,,,111,0,111,0,1,,,,,,,,
,,"[""circle"",""red"",""vert"",""up"",[150,0],[0,150]]",circle,red,vert,up,"[150,0]","[0,150]",up,1,1.2648,,,,,,001,2025-03-10_20h24.58.980,SL_sali_41,2021.2.3,Win32,120.4819277,,,112,0,112,0,1,,,,,,,,
,,"[""circle"",""no_dis"",""hori"",""left"",[99999,99999],[106,-106]]",circle,no_dis,hori,left,"[99999,99999]","[106,-106]",left,1,0.6852,,,,,,001,2025-03-10_20h24.58.980,SL_sali_41,2021.2.3,Win32,120.4819277,,,113,0,113,0,1,,,,,,,,
,,"[""diamond"",""no_dis"",""vert"",""up"",[99999,99999],[-150,0]]",diamond,no_dis,vert,up,"[99999,99999]","[-150,0]",up,1,1.0643,,,,,,001,2025-03-10_20h24.58.980,SL_sali_41,2021.2.3,Win32,120.4819277,,,114,0,114,0,1,,,,,,,,
,,"[""diamond"",""red"",""hori"",""left"",[0,-150],[106,-106]]",diamond,red,hori,left,"[0,-150]","[106,-106]",left,1,1.7873,,,,,,001,2025-03-10_20h24.58.980,SL_sali_41,2021.2.3,Win32,120.4819277,,,115,0,115,0,1,,,,,,,,
,,"[""circle"",""no_dis"",""hori"",""left"",[99999,99999],[-106,106]]",circle,no_dis,hori,left,"[99999,99999]","[-106,106]",left,1,1.0559,,,,,,001,2025-03-10_20h24.58.980,SL_sali_41,2021.2.3,Win32,120.4819277,,,116,0,116,0,1,,,,,,,,
,,"[""circle"",""red"",""hori"",""left"",[106,106],[-106,106]]",circle,red,hori,left,"[106,106]","[-106,106]",left,1,1.5497,,,,,,001,2025-03-10_20h24.58.980,SL_sali_41,2021.2.3,Win32,120.4819277,,,117,0,117,0,1,,,,,,,,
,,"[""diamond"",""red"",""hori"",""left"",[106,-106],[0,-150]]",diamond,red,hori,left,"[106,-106]","[0,-150]",left,1,0.9045,,,,,,001,2025-03-10_20h24.58.980,SL_sali_41,2021.2.3,Win32,120.4819277,,,118,0,118,0,1,,,,,,,,
,,"[""diamond"",""red"",""hori"",""left"",[0,150],[-106,-106]]",diamond,red,hori,left,"[0,150]","[-106,-106]",left,1,0.9302,,,,,,001,2025-03-10_20h24.58.980,SL_sali_41,2021.2.3,Win32,120.4819277,,,119,0,119,0,1,,,,,,,,
,,"[""diamond"",""green"",""hori"",""left"",[106,-106],[106,106]]",diamond,green,hori,left,"[106,-106]","[106,106]",left,1,1.3283,,,,,,001,2025-03-10_20h24.58.980,SL_sali_41,2021.2.3,Win32,120.4819277,,,120,0,120,0,1,,,,,,,,
,,"[""diamond"",""green"",""vert"",""up"",[-106,-106],[106,106]]",diamond,green,vert,up,"[-106,-106]","[106,106]",up,1,0.762,,,,,,001,2025-03-10_20h24.58.980,SL_sali_41,2021.2.3,Win32,120.4819277,,,121,0,121,0,1,,,,,,,,
,,"[""diamond"",""red"",""hori"",""left"",[106,-106],[-150,0]]",diamond,red,hori,left,"[106,-106]","[-150,0]",left,1,0.714,,,,,,001,2025-03-10_20h24.58.980,SL_sali_41,2021.2.3,Win32,120.4819277,,,122,0,122,0,1,,,,,,,,
,,"[""circle"",""no_dis"",""vert"",""up"",[99999,99999],[106,106]]",circle,no_dis,vert,up,"[99999,99999]","[106,106]",up,1,0.9743,,,,,,001,2025-03-10_20h24.58.980,SL_sali_41,2021.2.3,Win32,120.4819277,,,123,0,123,0,1,,,,,,,,
,,"[""circle"",""green"",""hori"",""left"",[-150,0],[106,106]]",circle,green,hori,left,"[-150,0]","[106,106]",left,1,1.2222,,,,,,001,2025-03-10_20h24.58.980,SL_sali_41,2021.2.3,Win32,120.4819277,,,124,0,124,0,1,,,,,,,,
,,"[""circle"",""no_dis"",""vert"",""up"",[99999,99999],[-150,0]]",circle,no_dis,vert,up,"[99999,99999]","[-150,0]",up,1,0.683,,,,,,001,2025-03-10_20h24.58.980,SL_sali_41,2021.2.3,Win32,120.4819277,,,125,0,125,0,1,,,,,,,,
,,"[""circle"",""green"",""vert"",""up"",[-106,106],[-106,-106]]",circle,green,vert,up,"[-106,106]","[-106,-106]",left,0,2.7143,,,,,,001,2025-03-10_20h24.58.980,SL_sali_41,2021.2.3,Win32,120.4819277,,,126,0,126,0,1,,,,,,,,
,,"[""circle"",""green"",""vert"",""up"",[0,150],[0,-150]]",circle,green,vert,up,"[0,150]","[0,-150]",up,1,0.732,,,,,,001,2025-03-10_20h24.58.980,SL_sali_41,2021.2.3,Win32,120.4819277,,,127,0,127,0,1,,,,,,,,
,,,,,,,,,,,,,,,,,001,2025-03-10_20h24.58.980,SL_sali_41,2021.2.3,Win32,120.4819277,,,,,,,,3,space,50.8844,2,0,2,0,1
,,"[""circle"",""no_dis"",""hori"",""left"",[99999,99999],[150,0]]",circle,no_dis,hori,left,"[99999,99999]","[150,0]",left,1,1.5826,,,,,,001,2025-03-10_20h24.58.980,SL_sali_41,2021.2.3,Win32,120.4819277,,,0,0,0,0,1,,,,,,,,
,,"[""diamond"",""red"",""hori"",""left"",[0,150],[-150,0]]",diamond,red,hori,left,"[0,150]","[-150,0]",left,1,0.946,,,,,,001,2025-03-10_20h24.58.980,SL_sali_41,2021.2.3,Win32,120.4819277,,,1,0,1,0,1,,,,,,,,
,,"[""diamond"",""no_dis"",""vert"",""up"",[99999,99999],[106,-106]]",diamond,no_dis,vert,up,"[99999,99999]","[106,-106]",up,1,0.7707,,,,,,001,2025-03-10_20h24.58.980,SL_sali_41,2021.2.3,Win32,120.4819277,,,2,0,2,0,1,,,,,,,,
,,"[""circle"",""red"",""vert"",""up"",[-150,0],[150,0]]",circle,red,vert,up,"[-150,0]","[150,0]",up,1,0.8552,,,,,,001,2025-03-10_20h24.58.980,SL_sali_41,2021.2.3,Win32,120.4819277,,,3,0,3,0,1,,,,,,,,
,,"[""circle"",""green"",""hori"",""left"",[106,106],[0,-150]]",circle,green,hori,left,"[106,106]","[0,-150]",left,1,0.6865,,,,,,001,2025-03-10_20h24.58.980,SL_sali_41,2021.2.3,Win32,120.4819277,,,4,0,4,0,1,,,,,,,,
,,"[""circle"",""red"",""hori"",""left"",[106,-106],[-106,106]]",circle,red,hori,left,"[106,-106]","[-106,106]",left,1,0.8588,,,,,,001,2025-03-10_20h24.58.980,SL_sali_41,2021.2.3,Win32,120.4819277,,,5,0,5,0,1,,,,,,,,
,,"[""diamond"",""red"",""hori"",""left"",[106,-106],[0,-150]]",diamond,red,hori,left,"[106,-106]","[0,-150]",left,1,1.067,,,,,,001,2025-03-10_20h24.58.980,SL_sali_41,2021.2.3,Win32,120.4819277,,,6,0,6,0,1,,,,,,,,
,,"[""diamond"",""no_dis"",""vert"",""up"",[99999,99999],[0,150]]",diamond,no_dis,vert,up,"[99999,99999]","[0,150]",up,1,1.4173,,,,,,001,2025-03-10_20h24.58.980,SL_sali_41,2021.2.3,Win32,120.4819277,,,7,0,7,0,1,,,,,,,,
,,"[""circle"",""no_dis"",""vert"",""up"",[99999,99999],[-150,0]]",circle,no_dis,vert,up,"[99999,99999]","[-150,0]",left,0,0.6338,,,,,,001,2025-03-10_20h24.58.980,SL_sali_41,2021.2.3,Win32,120.4819277,,,8,0,8,0,1,,,,,,,,
,,"[""diamond"",""no_dis"",""vert"",""up"",[99999,99999],[0,150]]",diamond,no_dis,vert,up,"[99999,99999]","[0,150]",up,1,0.6167,,,,,,001,2025-03-10_20h24.58.980,SL_sali_41,2021.2.3,Win32,120.4819277,,,9,0,9,0,1,,,,,,,,
,,"[""diamond"",""red"",""hori"",""left"",[106,-106],[0,-150]]",diamond,red,hori,left,"[106,-106]","[0,-150]",left,1,0.9254,,,,,,001,2025-03-10_20h24.58.980,SL_sali_41,2021.2.3,Win32,120.4819277,,,10,0,10,0,1,,,,,,,,
,,"[""diamond"",""no_dis"",""hori"",""left"",[99999,99999],[-106,106]]",diamond,no_dis,hori,left,"[99999,99999]","[-106,106]",left,1,0.9944,,,,,,001,2025-03-10_20h24.58.980,SL_sali_41,2021.2.3,Win32,120.4819277,,,11,0,11,0,1,,,,,,,,
,,"[""diamond"",""red"",""vert"",""up"",[106,-106],[-150,0]]",diamond,red,vert,up,"[106,-106]","[-150,0]",up,1,0.8753,,,,,,001,2025-03-10_20h24.58.980,SL_sali_41,2021.2.3,Win32,120.4819277,,,12,0,12,0,1,,,,,,,,
,,"[""circle"",""no_dis"",""vert"",""up"",[99999,99999],[-150,0]]",circle,no_dis,vert,up,"[99999,99999]","[-150,0]",up,1,1.3287,,,,,,001,2025-03-10_20h24.58.980,SL_sali_41,2021.2.3,Win32,120.4819277,,,13,0,13,0,1,,,,,,,,
,,"[""diamond"",""no_dis"",""vert"",""up"",[99999,99999],[-150,0]]",diamond,no_dis,vert,up,"[99999,99999]","[-150,0]",up,1,0.8562,,,,,,001,2025-03-10_20h24.58.980,SL_sali_41,2021.2.3,Win32,120.4819277,,,14,0,14,0,1,,,,,,,,
,,"[""circle"",""red"",""hori"",""left"",[106,-106],[0,150]]",circle,red,hori,left,"[106,-106]","[0,150]",left,1,2.3572,,,,,,001,2025-03-10_20h24.58.980,SL_sali_41,2021.2.3,Win32,120.4819277,,,15,0,15,0,1,,,,,,,,
,,"[""diamond"",""no_dis"",""hori"",""left"",[99999,99999],[150,0]]",diamond,no_dis,hori,left,"[99999,99999]","[150,0]",left,1,1.2344,,,,,,001,2025-03-10_20h24.58.980,SL_sali_41,2021.2.3,Win32,120.4819277,,,16,0,16,0,1,,,,,,,,
,,"[""diamond"",""green"",""hori"",""left"",[150,0],[-150,0]]",diamond,green,hori,left,"[150,0]","[-150,0]",left,1,0.7131,,,,,,001,2025-03-10_20h24.58.980,SL_sali_41,2021.2.3,Win32,120.4819277,,,17,0,17,0,1,,,,,,,,
,,"[""diamond"",""green"",""hori"",""left"",[-106,-106],[-150,0]]",diamond,green,hori,left,"[-106,-106]","[-150,0]",left,1,1.092,,,,,,001,2025-03-10_20h24.58.980,SL_sali_41,2021.2.3,Win32,120.4819277,,,18,0,18,0,1,,,,,,,,
,,"[""circle"",""green"",""vert"",""up"",[106,-106],[0,150]]",circle,green,vert,up,"[106,-106]","[0,150]",up,1,0.8047,,,,,,001,2025-03-10_20h24.58.980,SL_sali_41,2021.2.3,Win32,120.4819277,,,19,0,19,0,1,,,,,,,,
,,"[""circle"",""green"",""hori"",""left"",[-150,0],[106,106]]",circle,green,hori,left,"[-150,0]","[106,106]",left,1,0.7087,,,,,,001,2025-03-10_20h24.58.980,SL_sali_41,2021.2.3,Win32,120.4819277,,,20,0,20,0,1,,,,,,,,
,,"[""circle"",""no_dis"",""vert"",""up"",[99999,99999],[-106,106]]",circle,no_dis,vert,up,"[99999,99999]","[-106,106]",up,1,0.9501,,,,,,001,2025-03-10_20h24.58.980,SL_sali_41,2021.2.3,Win32,120.4819277,,,21,0,21,0,1,,,,,,,,
,,"[""circle"",""no_dis"",""hori"",""left"",[99999,99999],[-106,-106]]",circle,no_dis,hori,left,"[99999,99999]","[-106,-106]",left,1,0.7674,,,,,,001,2025-03-10_20h24.58.980,SL_sali_41,2021.2.3,Win32,120.4819277,,,22,0,22,0,1,,,,,,,,
,,"[""circle"",""red"",""vert"",""up"",[106,-106],[0,150]]",circle,red,vert,up,"[106,-106]","[0,150]",up,1,1.4052,,,,,,001,2025-03-10_20h24.58.980,SL_sali_41,2021.2.3,Win32,120.4819277,,,23,0,23,0,1,,,,,,,,
,,"[""diamond"",""green"",""vert"",""up"",[106,-106],[150,0]]",diamond,green,vert,up,"[106,-106]","[150,0]",up,1,0.8752,,,,,,001,2025-03-10_20h24.58.980,SL_sali_41,2021.2.3,Win32,120.4819277,,,24,0,24,0,1,,,,,,,,
,,"[""circle"",""no_dis"",""vert"",""up"",[99999,99999],[-150,0]]",circle,no_dis,vert,up,"[99999,99999]","[-150,0]",up,1,0.728,,,,,,001,2025-03-10_20h24.58.980,SL_sali_41,2021.2.3,Win32,120.4819277,,,25,0,25,0,1,,,,,,,,
,,"[""diamond"",""no_dis"",""hori"",""left"",[99999,99999],[150,0]]",diamond,no_dis,hori,left,"[99999,99999]","[150,0]",left,1,1.0921,,,,,,001,2025-03-10_20h24.58.980,SL_sali_41,2021.2.3,Win32,120.4819277,,,26,0,26,0,1,,,,,,,,
,,"[""diamond"",""no_dis"",""vert"",""up"",[99999,99999],[0,150]]",diamond,no_dis,vert,up,"[99999,99999]","[0,150]",up,1,0.6963,,,,,,001,2025-03-10_20h24.58.980,SL_sali_41,2021.2.3,Win32,120.4819277,,,27,0,27,0,1,,,,,,,,
,,"[""diamond"",""no_dis"",""vert"",""up"",[99999,99999],[0,-150]]",diamond,no_dis,vert,up,"[99999,99999]","[0,-150]",up,1,1.0285,,,,,,001,2025-03-10_20h24.58.980,SL_sali_41,2021.2.3,Win32,120.4819277,,,28,0,28,0,1,,,,,,,,
,,"[""diamond"",""no_dis"",""vert"",""up"",[99999,99999],[-106,-106]]",diamond,no_dis,vert,up,"[99999,99999]","[-106,-106]",up,1,0.8255,,,,,,001,2025-03-10_20h24.58.980,SL_sali_41,2021.2.3,Win32,120.4819277,,,29,0,29,0,1,,,,,,,,
,,"[""diamond"",""red"",""hori"",""left"",[0,-150],[106,-106]]",diamond,red,hori,left,"[0,-150]","[106,-106]",left,1,1.2303,,,,,,001,2025-03-10_20h24.58.980,SL_sali_41,2021.2.3,Win32,120.4819277,,,30,0,30,0,1,,,,,,,,
,,"[""diamond"",""red"",""vert"",""up"",[106,-106],[-106,106]]",diamond,red,vert,up,"[106,-106]","[-106,106]",up,1,1.3332,,,,,,001,2025-03-10_20h24.58.980,SL_sali_41,2021.2.3,Win32,120.4819277,,,31,0,31,0,1,,,,,,,,
,,"[""diamond"",""green"",""hori"",""left"",[106,106],[0,150]]",diamond,green,hori,left,"[106,106]","[0,150]",left,1,0.8115,,,,,,001,2025-03-10_20h24.58.980,SL_sali_41,2021.2.3,Win32,120.4819277,,,32,0,32,0,1,,,,,,,,
,,"[""circle"",""no_dis"",""hori"",""left"",[99999,99999],[106,106]]",circle,no_dis,hori,left,"[99999,99999]","[106,106]",left,1,1.0589,,,,,,001,2025-03-10_20h24.58.980,SL_sali_41,2021.2.3,Win32,120.4819277,,,33,0,33,0,1,,,,,,,,
,,"[""circle"",""no_dis"",""hori"",""left"",[99999,99999],[106,-106]]",circle,no_dis,hori,left,"[99999,99999]","[106,-106]",left,1,0.7836,,,,,,001,2025-03-10_20h24.58.980,SL_sali_41,2021.2.3,Win32,120.4819277,,,34,0,34,0,1,,,,,,,,
,,"[""diamond"",""green"",""hori"",""left"",[-106,-106],[-106,106]]",diamond,green,hori,left,"[-106,-106]","[-106,106]",left,1,1.2988,,,,,,001,2025-03-10_20h24.58.980,SL_sali_41,2021.2.3,Win32,120.4819277,,,35,0,35,0,1,,,,,,,,
,,"[""circle"",""green"",""hori"",""left"",[-150,0],[-106,-106]]",circle,green,hori,left,"[-150,0]","[-106,-106]",left,1,2.1584,,,,,,001,2025-03-10_20h24.58.980,SL_sali_41,2021.2.3,Win32,120.4819277,,,36,0,36,0,1,,,,,,,,
,,"[""diamond"",""green"",""hori"",""left"",[106,-106],[0,150]]",diamond,green,hori,left,"[106,-106]","[0,150]",left,1,1.6585,,,,,,001,2025-03-10_20h24.58.980,SL_sali_41,2021.2.3,Win32,120.4819277,,,37,0,37,0,1,,,,,,,,
,,"[""circle"",""green"",""hori"",""left"",[106,-106],[-106,-106]]",circle,green,hori,left,"[106,-106]","[-106,-106]",left,1,1.2418,,,,,,001,2025-03-10_20h24.58.980,SL_sali_41,2021.2.3,Win32,120.4819277,,,38,0,38,0,1,,,,,,,,
,,"[""circle"",""no_dis"",""vert"",""up"",[99999,99999],[106,106]]",circle,no_dis,vert,up,"[99999,99999]","[106,106]",up,1,0.9835,,,,,,001,2025-03-10_20h24.58.980,SL_sali_41,2021.2.3,Win32,120.4819277,,,39,0,39,0,1,,,,,,,,
,,"[""circle"",""red"",""hori"",""left"",[-150,0],[-106,-106]]",circle,red,hori,left,"[-150,0]","[-106,-106]",left,1,1.9249,,,,,,001,2025-03-10_20h24.58.980,SL_sali_41,2021.2.3,Win32,120.4819277,,,40,0,40,0,1,,,,,,,,
,,"[""circle"",""green"",""vert"",""up"",[0,-150],[150,0]]",circle,green,vert,up,"[0,-150]","[150,0]",up,1,0.9614,,,,,,001,2025-03-10_20h24.58.980,SL_sali_41,2021.2.3,Win32,120.4819277,,,41,0,41,0,1,,,,,,,,
,,"[""circle"",""red"",""hori"",""left"",[-106,-106],[106,106]]",circle,red,hori,left,"[-106,-106]","[106,106]",up,0,1.2087,,,,,,001,2025-03-10_20h24.58.980,SL_sali_41,2021.2.3,Win32,120.4819277,,,42,0,42,0,1,,,,,,,,
,,"[""circle"",""green"",""hori"",""left"",[-106,106],[0,-150]]",circle,green,hori,left,"[-106,106]","[0,-150]",left,1,1.0338,,,,,,001,2025-03-10_20h24.58.980,SL_sali_41,2021.2.3,Win32,120.4819277,,,43,0,43,0,1,,,,,,,,
,,"[""circle"",""no_dis"",""vert"",""up"",[99999,99999],[-106,-106]]",circle,no_dis,vert,up,"[99999,99999]","[-106,-106]",up,1,1.4338,,,,,,001,2025-03-10_20h24.58.980,SL_sali_41,2021.2.3,Win32,120.4819277,,,44,0,44,0,1,,,,,,,,
,,"[""circle"",""red"",""hori"",""left"",[106,-106],[106,106]]",circle,red,hori,left,"[106,-106]","[106,106]",left,1,0.718,,,,,,001,2025-03-10_20h24.58.980,SL_sali_41,2021.2.3,Win32,120.4819277,,,45,0,45,0,1,,,,,,,,
,,"[""circle"",""green"",""vert"",""up"",[106,-106],[-150,0]]",circle,green,vert,up,"[106,-106]","[-150,0]",up,1,0.7339,,,,,,001,2025-03-10_20h24.58.980,SL_sali_41,2021.2.3,Win32,120.4819277,,,46,0,46,0,1,,,,,,,,
,,"[""diamond"",""no_dis"",""hori"",""left"",[99999,99999],[-106,-106]]",diamond,no_dis,hori,left,"[99999,99999]","[-106,-106]",left,1,0.9836,,,,,,001,2025-03-10_20h24.58.980,SL_sali_41,2021.2.3,Win32,120.4819277,,,47,0,47,0,1,,,,,,,,
,,"[""diamond"",""no_dis"",""hori"",""left"",[99999,99999],[0,150]]",diamond,no_dis,hori,left,"[99999,99999]","[0,150]",left,1,1.0666,,,,,,001,2025-03-10_20h24.58.980,SL_sali_41,2021.2.3,Win32,120.4819277,,,48,0,48,0,1,,,,,,,,
,,"[""diamond"",""green"",""hori"",""left"",[150,0],[106,106]]",diamond,green,hori,left,"[150,0]","[106,106]",left,1,1.867,,,,,,001,2025-03-10_20h24.58.980,SL_sali_41,2021.2.3,Win32,120.4819277,,,49,0,49,0,1,,,,,,,,
,,"[""diamond"",""green"",""hori"",""left"",[-106,-106],[106,106]]",diamond,green,hori,left,"[-106,-106]","[106,106]",left,1,0.7748,,,,,,001,2025-03-10_20h24.58.980,SL_sali_41,2021.2.3,Win32,120.4819277,,,50,0,50,0,1,,,,,,,,
,,"[""diamond"",""red"",""vert"",""up"",[106,-106],[106,106]]",diamond,red,vert,up,"[106,-106]","[106,106]",up,1,1.7182,,,,,,001,2025-03-10_20h24.58.980,SL_sali_41,2021.2.3,Win32,120.4819277,,,51,0,51,0,1,,,,,,,,
,,"[""diamond"",""no_dis"",""vert"",""up"",[99999,99999],[150,0]]",diamond,no_dis,vert,up,"[99999,99999]","[150,0]",up,1,1.3753,,,,,,001,2025-03-10_20h24.58.980,SL_sali_41,2021.2.3,Win32,120.4819277,,,52,0,52,0,1,,,,,,,,
,,"[""circle"",""green"",""hori"",""left"",[106,106],[-106,106]]",circle,green,hori,left,"[106,106]","[-106,106]",left,1,0.9831,,,,,,001,2025-03-10_20h24.58.980,SL_sali_41,2021.2.3,Win32,120.4819277,,,53,0,53,0,1,,,,,,,,
,,"[""circle"",""red"",""hori"",""left"",[106,-106],[150,0]]",circle,red,hori,left,"[106,-106]","[150,0]",left,1,1.1002,,,,,,001,2025-03-10_20h24.58.980,SL_sali_41,2021.2.3,Win32,120.4819277,,,54,0,54,0,1,,,,,,,,
,,"[""circle"",""red"",""hori"",""left"",[106,-106],[-150,0]]",circle,red,hori,left,"[106,-106]","[-150,0]",left,1,0.7172,,,,,,001,2025-03-10_20h24.58.980,SL_sali_41,2021.2.3,Win32,120.4819277,,,55,0,55,0,1,,,,,,,,
,,"[""diamond"",""green"",""vert"",""up"",[0,-150],[-106,106]]",diamond,green,vert,up,"[0,-150]","[-106,106]",up,1,1.4001,,,,,,001,2025-03-10_20h24.58.980,SL_sali_41,2021.2.3,Win32,120.4819277,,,56,0,56,0,1,,,,,,,,
,,"[""circle"",""red"",""hori"",""left"",[106,106],[-106,106]]",circle,red,hori,left,"[106,106]","[-106,106]",left,1,1.8083,,,,,,001,2025-03-10_20h24.58.980,SL_sali_41,2021.2.3,Win32,120.4819277,,,57,0,57,0,1,,,,,,,,
,,"[""diamond"",""green"",""vert"",""up"",[0,150],[106,-106]]",diamond,green,vert,up,"[0,150]","[106,-106]",up,1,1.2421,,,,,,001,2025-03-10_20h24.58.980,SL_sali_41,2021.2.3,Win32,120.4819277,,,58,0,58,0,1,,,,,,,,
