﻿key_resp.keys,key_resp.rt,trial_para,tar_shape,dis_color_condi,tar_line,cor_resp,dis_loc,tar_loc,resp.keys,resp.corr,resp.rt,trials.thisRepN,trials.thisTrialN,trials.thisN,trials.thisIndex,trials.ran,participant,date,expName,psychopyVersion,OS,frameRate,key_resp_2.keys,key_resp_2.rt,trials_2.thisRepN,trials_2.thisTrialN,trials_2.thisN,trials_2.thisIndex,trials_2.ran,block_num,key_resp_3.keys,key_resp_3.rt,trials_3.thisRepN,trials_3.thisTrialN,trials_3.thisN,trials_3.thisIndex,trials_3.ran
space,57.2418,"[""diamond"",""red"",""hori"",""left"",[150,0],[-150,0]]",diamond,red,hori,left,"[150,0]","[-150,0]",left,1,1.5615,0,0,0,0,1,001,2025-03-18_09h53.53.115,SL_sali_41,2021.2.3,Win32,30.03003003,,,,,,,,,,,,,,,
,,"[""circle"",""no_dis"",""vert"",""up"",[99999,99999],[106,-106]]",circle,no_dis,vert,up,"[99999,99999]","[106,-106]",up,1,1.9167,1,0,1,0,1,001,2025-03-18_09h53.53.115,SL_sali_41,2021.2.3,Win32,30.03003003,,,,,,,,,,,,,,,
,,"[""circle"",""red"",""vert"",""up"",[150,0],[0,-150]]",circle,red,vert,up,"[150,0]","[0,-150]",left,0,1.644,2,0,2,0,1,001,2025-03-18_09h53.53.115,SL_sali_41,2021.2.3,Win32,30.03003003,,,,,,,,,,,,,,,
,,"[""diamond"",""no_dis"",""vert"",""up"",[99999,99999],[0,-150]]",diamond,no_dis,vert,up,"[99999,99999]","[0,-150]",up,1,1.3779,3,0,3,0,1,001,2025-03-18_09h53.53.115,SL_sali_41,2021.2.3,Win32,30.03003003,,,,,,,,,,,,,,,
,,"[""diamond"",""red"",""vert"",""up"",[0,150],[106,-106]]",diamond,red,vert,up,"[0,150]","[106,-106]",up,1,1.4589,4,0,4,0,1,001,2025-03-18_09h53.53.115,SL_sali_41,2021.2.3,Win32,30.03003003,,,,,,,,,,,,,,,
,,"[""circle"",""no_dis"",""vert"",""up"",[99999,99999],[-106,106]]",circle,no_dis,vert,up,"[99999,99999]","[-106,106]",up,1,1.377,5,0,5,0,1,001,2025-03-18_09h53.53.115,SL_sali_41,2021.2.3,Win32,30.03003003,,,,,,,,,,,,,,,
,,"[""circle"",""red"",""hori"",""left"",[106,-106],[150,0]]",circle,red,hori,left,"[106,-106]","[150,0]",up,0,0.8674,6,0,6,0,1,001,2025-03-18_09h53.53.115,SL_sali_41,2021.2.3,Win32,30.03003003,,,,,,,,,,,,,,,
,,"[""diamond"",""red"",""vert"",""up"",[106,106],[-150,0]]",diamond,red,vert,up,"[106,106]","[-150,0]",up,1,1.2281,7,0,7,0,1,001,2025-03-18_09h53.53.115,SL_sali_41,2021.2.3,Win32,30.03003003,,,,,,,,,,,,,,,
,,"[""diamond"",""red"",""vert"",""up"",[-106,-106],[-106,106]]",diamond,red,vert,up,"[-106,-106]","[-106,106]",up,1,2.4776,8,0,8,0,1,001,2025-03-18_09h53.53.115,SL_sali_41,2021.2.3,Win32,30.03003003,,,,,,,,,,,,,,,
,,"[""circle"",""red"",""vert"",""up"",[-106,106],[106,-106]]",circle,red,vert,up,"[-106,106]","[106,-106]",up,1,1.4298,9,0,9,0,1,001,2025-03-18_09h53.53.115,SL_sali_41,2021.2.3,Win32,30.03003003,,,,,,,,,,,,,,,
,,"[""diamond"",""red"",""hori"",""left"",[150,0],[-150,0]]",diamond,red,hori,left,"[150,0]","[-150,0]",up,0,1.0063,,,,,,001,2025-03-18_09h53.53.115,SL_sali_41,2021.2.3,Win32,30.03003003,space,10.2375,0,0,0,0,1,,,,,,,,
,,"[""circle"",""no_dis"",""vert"",""up"",[99999,99999],[106,-106]]",circle,no_dis,vert,up,"[99999,99999]","[106,-106]",up,1,2.4779,,,,,,001,2025-03-18_09h53.53.115,SL_sali_41,2021.2.3,Win32,30.03003003,,,1,0,1,0,1,,,,,,,,
,,"[""circle"",""red"",""vert"",""up"",[150,0],[0,-150]]",circle,red,vert,up,"[150,0]","[0,-150]",up,1,1.5849,,,,,,001,2025-03-18_09h53.53.115,SL_sali_41,2021.2.3,Win32,30.03003003,,,2,0,2,0,1,,,,,,,,
,,"[""diamond"",""no_dis"",""vert"",""up"",[99999,99999],[0,-150]]",diamond,no_dis,vert,up,"[99999,99999]","[0,-150]",up,1,1.38,,,,,,001,2025-03-18_09h53.53.115,SL_sali_41,2021.2.3,Win32,30.03003003,,,3,0,3,0,1,,,,,,,,
,,"[""diamond"",""red"",""vert"",""up"",[0,150],[106,-106]]",diamond,red,vert,up,"[0,150]","[106,-106]",up,1,1.1928,,,,,,001,2025-03-18_09h53.53.115,SL_sali_41,2021.2.3,Win32,30.03003003,,,4,0,4,0,1,,,,,,,,
,,"[""circle"",""no_dis"",""vert"",""up"",[99999,99999],[-106,106]]",circle,no_dis,vert,up,"[99999,99999]","[-106,106]",up,1,1.8705,,,,,,001,2025-03-18_09h53.53.115,SL_sali_41,2021.2.3,Win32,30.03003003,,,5,0,5,0,1,,,,,,,,
,,"[""circle"",""red"",""hori"",""left"",[106,-106],[150,0]]",circle,red,hori,left,"[106,-106]","[150,0]",left,1,1.6431,,,,,,001,2025-03-18_09h53.53.115,SL_sali_41,2021.2.3,Win32,30.03003003,,,6,0,6,0,1,,,,,,,,
,,"[""diamond"",""red"",""vert"",""up"",[106,106],[-150,0]]",diamond,red,vert,up,"[106,106]","[-150,0]",up,1,1.4626,,,,,,001,2025-03-18_09h53.53.115,SL_sali_41,2021.2.3,Win32,30.03003003,,,7,0,7,0,1,,,,,,,,
,,"[""diamond"",""red"",""vert"",""up"",[-106,-106],[-106,106]]",diamond,red,vert,up,"[-106,-106]","[-106,106]",up,1,1.0976,,,,,,001,2025-03-18_09h53.53.115,SL_sali_41,2021.2.3,Win32,30.03003003,,,8,0,8,0,1,,,,,,,,
,,"[""circle"",""red"",""vert"",""up"",[-106,106],[106,-106]]",circle,red,vert,up,"[-106,106]","[106,-106]",up,1,1.1477,,,,,,001,2025-03-18_09h53.53.115,SL_sali_41,2021.2.3,Win32,30.03003003,,,9,0,9,0,1,,,,,,,,
,,"[""circle"",""green"",""vert"",""up"",[0,-150],[-106,-106]]",circle,green,vert,up,"[0,-150]","[-106,-106]",up,1,1.4617,,,,,,001,2025-03-18_09h53.53.115,SL_sali_41,2021.2.3,Win32,30.03003003,,,10,0,10,0,1,,,,,,,,
,,"[""circle"",""red"",""hori"",""left"",[106,-106],[0,150]]",circle,red,hori,left,"[106,-106]","[0,150]",left,1,0.9522,,,,,,001,2025-03-18_09h53.53.115,SL_sali_41,2021.2.3,Win32,30.03003003,,,11,0,11,0,1,,,,,,,,
,,"[""circle"",""red"",""vert"",""up"",[0,150],[0,-150]]",circle,red,vert,up,"[0,150]","[0,-150]",up,1,1.9398,,,,,,001,2025-03-18_09h53.53.115,SL_sali_41,2021.2.3,Win32,30.03003003,,,12,0,12,0,1,,,,,,,,
,,"[""circle"",""red"",""vert"",""up"",[-150,0],[0,-150]]",circle,red,vert,up,"[-150,0]","[0,-150]",up,1,1.005,,,,,,001,2025-03-18_09h53.53.115,SL_sali_41,2021.2.3,Win32,30.03003003,,,13,0,13,0,1,,,,,,,,
,,"[""diamond"",""red"",""vert"",""up"",[-106,106],[-150,0]]",diamond,red,vert,up,"[-106,106]","[-150,0]",up,1,1.1946,,,,,,001,2025-03-18_09h53.53.115,SL_sali_41,2021.2.3,Win32,30.03003003,,,14,0,14,0,1,,,,,,,,
,,"[""circle"",""no_dis"",""hori"",""left"",[99999,99999],[106,-106]]",circle,no_dis,hori,left,"[99999,99999]","[106,-106]",left,1,1.0201,,,,,,001,2025-03-18_09h53.53.115,SL_sali_41,2021.2.3,Win32,30.03003003,,,15,0,15,0,1,,,,,,,,
,,"[""diamond"",""green"",""vert"",""up"",[0,150],[-150,0]]",diamond,green,vert,up,"[0,150]","[-150,0]",up,1,1.0347,,,,,,001,2025-03-18_09h53.53.115,SL_sali_41,2021.2.3,Win32,30.03003003,,,16,0,16,0,1,,,,,,,,
,,"[""circle"",""no_dis"",""hori"",""left"",[99999,99999],[-150,0]]",circle,no_dis,hori,left,"[99999,99999]","[-150,0]",left,1,1.2312,,,,,,001,2025-03-18_09h53.53.115,SL_sali_41,2021.2.3,Win32,30.03003003,,,17,0,17,0,1,,,,,,,,
,,"[""circle"",""red"",""vert"",""up"",[-150,0],[0,-150]]",circle,red,vert,up,"[-150,0]","[0,-150]",up,1,2.274,,,,,,001,2025-03-18_09h53.53.115,SL_sali_41,2021.2.3,Win32,30.03003003,,,18,0,18,0,1,,,,,,,,
,,"[""circle"",""green"",""hori"",""left"",[-106,106],[106,106]]",circle,green,hori,left,"[-106,106]","[106,106]",left,1,0.8888,,,,,,001,2025-03-18_09h53.53.115,SL_sali_41,2021.2.3,Win32,30.03003003,,,19,0,19,0,1,,,,,,,,
,,"[""circle"",""green"",""vert"",""up"",[-106,-106],[0,-150]]",circle,green,vert,up,"[-106,-106]","[0,-150]",up,1,1.0346,,,,,,001,2025-03-18_09h53.53.115,SL_sali_41,2021.2.3,Win32,30.03003003,,,20,0,20,0,1,,,,,,,,
,,"[""diamond"",""red"",""hori"",""left"",[0,-150],[-106,-106]]",diamond,red,hori,left,"[0,-150]","[-106,-106]",up,0,1.8708,,,,,,001,2025-03-18_09h53.53.115,SL_sali_41,2021.2.3,Win32,30.03003003,,,21,0,21,0,1,,,,,,,,
,,"[""circle"",""green"",""hori"",""left"",[-150,0],[150,0]]",circle,green,hori,left,"[-150,0]","[150,0]",left,1,0.8922,,,,,,001,2025-03-18_09h53.53.115,SL_sali_41,2021.2.3,Win32,30.03003003,,,22,0,22,0,1,,,,,,,,
,,"[""diamond"",""red"",""vert"",""up"",[0,-150],[-150,0]]",diamond,red,vert,up,"[0,-150]","[-150,0]",up,1,1.1157,,,,,,001,2025-03-18_09h53.53.115,SL_sali_41,2021.2.3,Win32,30.03003003,,,23,0,23,0,1,,,,,,,,
,,"[""diamond"",""green"",""hori"",""left"",[150,0],[0,-150]]",diamond,green,hori,left,"[150,0]","[0,-150]",left,1,1.2696,,,,,,001,2025-03-18_09h53.53.115,SL_sali_41,2021.2.3,Win32,30.03003003,,,24,0,24,0,1,,,,,,,,
,,"[""circle"",""green"",""hori"",""left"",[-106,-106],[-150,0]]",circle,green,hori,left,"[-106,-106]","[-150,0]",left,1,1.2267,,,,,,001,2025-03-18_09h53.53.115,SL_sali_41,2021.2.3,Win32,30.03003003,,,25,0,25,0,1,,,,,,,,
,,"[""circle"",""red"",""vert"",""up"",[-106,-106],[-150,0]]",circle,red,vert,up,"[-106,-106]","[-150,0]",up,1,1.2778,,,,,,001,2025-03-18_09h53.53.115,SL_sali_41,2021.2.3,Win32,30.03003003,,,26,0,26,0,1,,,,,,,,
,,"[""diamond"",""no_dis"",""vert"",""up"",[99999,99999],[0,150]]",diamond,no_dis,vert,up,"[99999,99999]","[0,150]",up,1,1.0307,,,,,,001,2025-03-18_09h53.53.115,SL_sali_41,2021.2.3,Win32,30.03003003,,,27,0,27,0,1,,,,,,,,
,,"[""circle"",""red"",""vert"",""up"",[150,0],[-106,-106]]",circle,red,vert,up,"[150,0]","[-106,-106]",up,1,1.2,,,,,,001,2025-03-18_09h53.53.115,SL_sali_41,2021.2.3,Win32,30.03003003,,,28,0,28,0,1,,,,,,,,
,,"[""circle"",""green"",""vert"",""up"",[106,-106],[0,-150]]",circle,green,vert,up,"[106,-106]","[0,-150]",left,0,0.768,,,,,,001,2025-03-18_09h53.53.115,SL_sali_41,2021.2.3,Win32,30.03003003,,,29,0,29,0,1,,,,,,,,
,,"[""diamond"",""red"",""hori"",""left"",[-106,106],[0,-150]]",diamond,red,hori,left,"[-106,106]","[0,-150]",left,1,1.3663,,,,,,001,2025-03-18_09h53.53.115,SL_sali_41,2021.2.3,Win32,30.03003003,,,30,0,30,0,1,,,,,,,,
,,"[""circle"",""red"",""hori"",""left"",[-150,0],[0,-150]]",circle,red,hori,left,"[-150,0]","[0,-150]",left,1,1.0238,,,,,,001,2025-03-18_09h53.53.115,SL_sali_41,2021.2.3,Win32,30.03003003,,,31,0,31,0,1,,,,,,,,
,,"[""circle"",""red"",""hori"",""left"",[-106,106],[-150,0]]",circle,red,hori,left,"[-106,106]","[-150,0]",left,1,1.6259,,,,,,001,2025-03-18_09h53.53.115,SL_sali_41,2021.2.3,Win32,30.03003003,,,32,0,32,0,1,,,,,,,,
,,"[""circle"",""no_dis"",""hori"",""left"",[99999,99999],[-106,106]]",circle,no_dis,hori,left,"[99999,99999]","[-106,106]",left,1,2.0885,,,,,,001,2025-03-18_09h53.53.115,SL_sali_41,2021.2.3,Win32,30.03003003,,,33,0,33,0,1,,,,,,,,
,,"[""diamond"",""red"",""hori"",""left"",[106,106],[-106,106]]",diamond,red,hori,left,"[106,106]","[-106,106]",left,1,1.3106,,,,,,001,2025-03-18_09h53.53.115,SL_sali_41,2021.2.3,Win32,30.03003003,,,34,0,34,0,1,,,,,,,,
,,"[""circle"",""no_dis"",""hori"",""left"",[99999,99999],[150,0]]",circle,no_dis,hori,left,"[99999,99999]","[150,0]",left,1,1.1381,,,,,,001,2025-03-18_09h53.53.115,SL_sali_41,2021.2.3,Win32,30.03003003,,,35,0,35,0,1,,,,,,,,
,,"[""diamond"",""red"",""vert"",""up"",[150,0],[-106,106]]",diamond,red,vert,up,"[150,0]","[-106,106]",up,1,1.3839,,,,,,001,2025-03-18_09h53.53.115,SL_sali_41,2021.2.3,Win32,30.03003003,,,36,0,36,0,1,,,,,,,,
,,"[""circle"",""no_dis"",""hori"",""left"",[99999,99999],[106,106]]",circle,no_dis,hori,left,"[99999,99999]","[106,106]",left,1,1.3662,,,,,,001,2025-03-18_09h53.53.115,SL_sali_41,2021.2.3,Win32,30.03003003,,,37,0,37,0,1,,,,,,,,
,,"[""diamond"",""red"",""hori"",""left"",[0,-150],[-106,-106]]",diamond,red,hori,left,"[0,-150]","[-106,-106]",left,1,1.1879,,,,,,001,2025-03-18_09h53.53.115,SL_sali_41,2021.2.3,Win32,30.03003003,,,38,0,38,0,1,,,,,,,,
,,"[""circle"",""no_dis"",""hori"",""left"",[99999,99999],[106,106]]",circle,no_dis,hori,left,"[99999,99999]","[106,106]",left,1,0.697,,,,,,001,2025-03-18_09h53.53.115,SL_sali_41,2021.2.3,Win32,30.03003003,,,39,0,39,0,1,,,,,,,,
,,"[""circle"",""green"",""hori"",""left"",[0,-150],[0,150]]",circle,green,hori,left,"[0,-150]","[0,150]",left,1,1.5767,,,,,,001,2025-03-18_09h53.53.115,SL_sali_41,2021.2.3,Win32,30.03003003,,,40,0,40,0,1,,,,,,,,
,,"[""circle"",""green"",""vert"",""up"",[150,0],[-150,0]]",circle,green,vert,up,"[150,0]","[-150,0]",up,1,1.4865,,,,,,001,2025-03-18_09h53.53.115,SL_sali_41,2021.2.3,Win32,30.03003003,,,41,0,41,0,1,,,,,,,,
,,"[""circle"",""green"",""vert"",""up"",[-150,0],[-106,-106]]",circle,green,vert,up,"[-150,0]","[-106,-106]",up,1,1.2632,,,,,,001,2025-03-18_09h53.53.115,SL_sali_41,2021.2.3,Win32,30.03003003,,,42,0,42,0,1,,,,,,,,
,,"[""diamond"",""green"",""vert"",""up"",[0,150],[-150,0]]",diamond,green,vert,up,"[0,150]","[-150,0]",left,0,0.818,,,,,,001,2025-03-18_09h53.53.115,SL_sali_41,2021.2.3,Win32,30.03003003,,,43,0,43,0,1,,,,,,,,
,,"[""diamond"",""no_dis"",""hori"",""left"",[99999,99999],[0,150]]",diamond,no_dis,hori,left,"[99999,99999]","[0,150]",left,1,1.3421,,,,,,001,2025-03-18_09h53.53.115,SL_sali_41,2021.2.3,Win32,30.03003003,,,44,0,44,0,1,,,,,,,,
,,"[""circle"",""red"",""hori"",""left"",[150,0],[0,150]]",circle,red,hori,left,"[150,0]","[0,150]",left,1,1.8279,,,,,,001,2025-03-18_09h53.53.115,SL_sali_41,2021.2.3,Win32,30.03003003,,,45,0,45,0,1,,,,,,,,
,,"[""circle"",""green"",""hori"",""left"",[106,106],[-150,0]]",circle,green,hori,left,"[106,106]","[-150,0]",left,1,1.9961,,,,,,001,2025-03-18_09h53.53.115,SL_sali_41,2021.2.3,Win32,30.03003003,,,46,0,46,0,1,,,,,,,,
,,"[""diamond"",""green"",""hori"",""left"",[106,106],[-106,-106]]",diamond,green,hori,left,"[106,106]","[-106,-106]",left,1,1.0089,,,,,,001,2025-03-18_09h53.53.115,SL_sali_41,2021.2.3,Win32,30.03003003,,,47,0,47,0,1,,,,,,,,
,,"[""circle"",""green"",""hori"",""left"",[0,-150],[106,-106]]",circle,green,hori,left,"[0,-150]","[106,-106]",left,1,1.3898,,,,,,001,2025-03-18_09h53.53.115,SL_sali_41,2021.2.3,Win32,30.03003003,,,48,0,48,0,1,,,,,,,,
,,"[""diamond"",""green"",""hori"",""left"",[106,-106],[106,106]]",diamond,green,hori,left,"[106,-106]","[106,106]",left,1,2.0678,,,,,,001,2025-03-18_09h53.53.115,SL_sali_41,2021.2.3,Win32,30.03003003,,,49,0,49,0,1,,,,,,,,
,,"[""circle"",""green"",""hori"",""left"",[0,150],[150,0]]",circle,green,hori,left,"[0,150]","[150,0]",left,1,1.6167,,,,,,001,2025-03-18_09h53.53.115,SL_sali_41,2021.2.3,Win32,30.03003003,,,50,0,50,0,1,,,,,,,,
,,"[""diamond"",""red"",""vert"",""up"",[106,-106],[-106,106]]",diamond,red,vert,up,"[106,-106]","[-106,106]",up,1,0.8728,,,,,,001,2025-03-18_09h53.53.115,SL_sali_41,2021.2.3,Win32,30.03003003,,,51,0,51,0,1,,,,,,,,
,,"[""diamond"",""no_dis"",""hori"",""left"",[99999,99999],[106,106]]",diamond,no_dis,hori,left,"[99999,99999]","[106,106]",left,1,0.8758,,,,,,001,2025-03-18_09h53.53.115,SL_sali_41,2021.2.3,Win32,30.03003003,,,52,0,52,0,1,,,,,,,,
,,"[""diamond"",""green"",""hori"",""left"",[150,0],[-106,106]]",diamond,green,hori,left,"[150,0]","[-106,106]",left,1,1.0604,,,,,,001,2025-03-18_09h53.53.115,SL_sali_41,2021.2.3,Win32,30.03003003,,,53,0,53,0,1,,,,,,,,
,,"[""circle"",""green"",""vert"",""up"",[150,0],[106,106]]",circle,green,vert,up,"[150,0]","[106,106]",up,1,1.8299,,,,,,001,2025-03-18_09h53.53.115,SL_sali_41,2021.2.3,Win32,30.03003003,,,54,0,54,0,1,,,,,,,,
,,"[""diamond"",""red"",""hori"",""left"",[150,0],[-106,-106]]",diamond,red,hori,left,"[150,0]","[-106,-106]",left,1,1.4557,,,,,,001,2025-03-18_09h53.53.115,SL_sali_41,2021.2.3,Win32,30.03003003,,,55,0,55,0,1,,,,,,,,
,,"[""diamond"",""green"",""hori"",""left"",[0,150],[-150,0]]",diamond,green,hori,left,"[0,150]","[-150,0]",left,1,2.3211,,,,,,001,2025-03-18_09h53.53.115,SL_sali_41,2021.2.3,Win32,30.03003003,,,56,0,56,0,1,,,,,,,,
,,"[""diamond"",""green"",""vert"",""up"",[-106,106],[-150,0]]",diamond,green,vert,up,"[-106,106]","[-150,0]",left,0,1.1848,,,,,,001,2025-03-18_09h53.53.115,SL_sali_41,2021.2.3,Win32,30.03003003,,,57,0,57,0,1,,,,,,,,
,,"[""diamond"",""red"",""hori"",""left"",[-150,0],[106,106]]",diamond,red,hori,left,"[-150,0]","[106,106]",left,1,1.4639,,,,,,001,2025-03-18_09h53.53.115,SL_sali_41,2021.2.3,Win32,30.03003003,,,58,0,58,0,1,,,,,,,,
,,"[""circle"",""red"",""hori"",""left"",[-106,-106],[106,-106]]",circle,red,hori,left,"[-106,-106]","[106,-106]",up,0,1.4532,,,,,,001,2025-03-18_09h53.53.115,SL_sali_41,2021.2.3,Win32,30.03003003,,,59,0,59,0,1,,,,,,,,
,,"[""circle"",""green"",""vert"",""up"",[150,0],[0,-150]]",circle,green,vert,up,"[150,0]","[0,-150]",up,1,1.9812,,,,,,001,2025-03-18_09h53.53.115,SL_sali_41,2021.2.3,Win32,30.03003003,,,60,0,60,0,1,,,,,,,,
,,"[""diamond"",""red"",""hori"",""left"",[150,0],[-106,106]]",diamond,red,hori,left,"[150,0]","[-106,106]",left,1,1.5587,,,,,,001,2025-03-18_09h53.53.115,SL_sali_41,2021.2.3,Win32,30.03003003,,,61,0,61,0,1,,,,,,,,
,,"[""diamond"",""green"",""hori"",""left"",[0,150],[-106,106]]",diamond,green,hori,left,"[0,150]","[-106,106]",left,1,0.9626,,,,,,001,2025-03-18_09h53.53.115,SL_sali_41,2021.2.3,Win32,30.03003003,,,62,0,62,0,1,,,,,,,,
,,"[""diamond"",""red"",""vert"",""up"",[150,0],[106,-106]]",diamond,red,vert,up,"[150,0]","[106,-106]",up,1,1.0657,,,,,,001,2025-03-18_09h53.53.115,SL_sali_41,2021.2.3,Win32,30.03003003,,,63,0,63,0,1,,,,,,,,
,,"[""circle"",""red"",""hori"",""left"",[0,-150],[150,0]]",circle,red,hori,left,"[0,-150]","[150,0]",left,1,2.3235,,,,,,001,2025-03-18_09h53.53.115,SL_sali_41,2021.2.3,Win32,30.03003003,,,64,0,64,0,1,,,,,,,,
,,"[""diamond"",""no_dis"",""hori"",""left"",[99999,99999],[106,-106]]",diamond,no_dis,hori,left,"[99999,99999]","[106,-106]",left,1,1.7998,,,,,,001,2025-03-18_09h53.53.115,SL_sali_41,2021.2.3,Win32,30.03003003,,,65,0,65,0,1,,,,,,,,
,,"[""diamond"",""red"",""hori"",""left"",[-150,0],[106,106]]",diamond,red,hori,left,"[-150,0]","[106,106]",left,1,1.4301,,,,,,001,2025-03-18_09h53.53.115,SL_sali_41,2021.2.3,Win32,30.03003003,,,66,0,66,0,1,,,,,,,,
,,"[""diamond"",""green"",""vert"",""up"",[150,0],[-150,0]]",diamond,green,vert,up,"[150,0]","[-150,0]",up,1,1.2457,,,,,,001,2025-03-18_09h53.53.115,SL_sali_41,2021.2.3,Win32,30.03003003,,,67,0,67,0,1,,,,,,,,
,,"[""diamond"",""no_dis"",""vert"",""up"",[99999,99999],[0,-150]]",diamond,no_dis,vert,up,"[99999,99999]","[0,-150]",up,1,1.2081,,,,,,001,2025-03-18_09h53.53.115,SL_sali_41,2021.2.3,Win32,30.03003003,,,68,0,68,0,1,,,,,,,,
,,"[""diamond"",""green"",""vert"",""up"",[150,0],[106,106]]",diamond,green,vert,up,"[150,0]","[106,106]",up,1,1.0572,,,,,,001,2025-03-18_09h53.53.115,SL_sali_41,2021.2.3,Win32,30.03003003,,,69,0,69,0,1,,,,,,,,
,,"[""circle"",""red"",""hori"",""left"",[150,0],[-106,106]]",circle,red,hori,left,"[150,0]","[-106,106]",left,1,1.3184,,,,,,001,2025-03-18_09h53.53.115,SL_sali_41,2021.2.3,Win32,30.03003003,,,70,0,70,0,1,,,,,,,,
,,"[""circle"",""no_dis"",""hori"",""left"",[99999,99999],[-106,106]]",circle,no_dis,hori,left,"[99999,99999]","[-106,106]",left,1,1.1713,,,,,,001,2025-03-18_09h53.53.115,SL_sali_41,2021.2.3,Win32,30.03003003,,,71,0,71,0,1,,,,,,,,
,,"[""circle"",""green"",""hori"",""left"",[106,106],[0,-150]]",circle,green,hori,left,"[106,106]","[0,-150]",left,1,0.8199,,,,,,001,2025-03-18_09h53.53.115,SL_sali_41,2021.2.3,Win32,30.03003003,,,72,0,72,0,1,,,,,,,,
,,"[""circle"",""red"",""vert"",""up"",[150,0],[0,150]]",circle,red,vert,up,"[150,0]","[0,150]",up,1,1.2355,,,,,,001,2025-03-18_09h53.53.115,SL_sali_41,2021.2.3,Win32,30.03003003,,,73,0,73,0,1,,,,,,,,
,,"[""diamond"",""green"",""vert"",""up"",[150,0],[-106,106]]",diamond,green,vert,up,"[150,0]","[-106,106]",up,1,1.5828,,,,,,001,2025-03-18_09h53.53.115,SL_sali_41,2021.2.3,Win32,30.03003003,,,74,0,74,0,1,,,,,,,,
,,"[""circle"",""no_dis"",""vert"",""up"",[99999,99999],[0,-150]]",circle,no_dis,vert,up,"[99999,99999]","[0,-150]",up,1,0.9521,,,,,,001,2025-03-18_09h53.53.115,SL_sali_41,2021.2.3,Win32,30.03003003,,,75,0,75,0,1,,,,,,,,
,,"[""circle"",""red"",""vert"",""up"",[-150,0],[0,-150]]",circle,red,vert,up,"[-150,0]","[0,-150]",up,1,0.907,,,,,,001,2025-03-18_09h53.53.115,SL_sali_41,2021.2.3,Win32,30.03003003,,,76,0,76,0,1,,,,,,,,
,,"[""circle"",""green"",""vert"",""up"",[150,0],[-106,106]]",circle,green,vert,up,"[150,0]","[-106,106]",up,1,0.7785,,,,,,001,2025-03-18_09h53.53.115,SL_sali_41,2021.2.3,Win32,30.03003003,,,77,0,77,0,1,,,,,,,,
,,"[""diamond"",""green"",""hori"",""left"",[150,0],[0,150]]",diamond,green,hori,left,"[150,0]","[0,150]",left,1,0.8541,,,,,,001,2025-03-18_09h53.53.115,SL_sali_41,2021.2.3,Win32,30.03003003,,,78,0,78,0,1,,,,,,,,
,,"[""diamond"",""no_dis"",""hori"",""left"",[99999,99999],[-106,106]]",diamond,no_dis,hori,left,"[99999,99999]","[-106,106]",left,1,0.8425,,,,,,001,2025-03-18_09h53.53.115,SL_sali_41,2021.2.3,Win32,30.03003003,,,79,0,79,0,1,,,,,,,,
,,"[""diamond"",""red"",""vert"",""up"",[150,0],[-106,-106]]",diamond,red,vert,up,"[150,0]","[-106,-106]",up,1,0.9349,,,,,,001,2025-03-18_09h53.53.115,SL_sali_41,2021.2.3,Win32,30.03003003,,,80,0,80,0,1,,,,,,,,
,,"[""circle"",""no_dis"",""vert"",""up"",[99999,99999],[0,150]]",circle,no_dis,vert,up,"[99999,99999]","[0,150]",up,1,1.0621,,,,,,001,2025-03-18_09h53.53.115,SL_sali_41,2021.2.3,Win32,30.03003003,,,81,0,81,0,1,,,,,,,,
,,"[""diamond"",""no_dis"",""vert"",""up"",[99999,99999],[-106,-106]]",diamond,no_dis,vert,up,"[99999,99999]","[-106,-106]",up,1,0.851,,,,,,001,2025-03-18_09h53.53.115,SL_sali_41,2021.2.3,Win32,30.03003003,,,82,0,82,0,1,,,,,,,,
,,"[""diamond"",""red"",""vert"",""up"",[-106,106],[0,150]]",diamond,red,vert,up,"[-106,106]","[0,150]",up,1,2.1418,,,,,,001,2025-03-18_09h53.53.115,SL_sali_41,2021.2.3,Win32,30.03003003,,,83,0,83,0,1,,,,,,,,
,,"[""circle"",""red"",""vert"",""up"",[-106,106],[106,106]]",circle,red,vert,up,"[-106,106]","[106,106]",up,1,1.0063,,,,,,001,2025-03-18_09h53.53.115,SL_sali_41,2021.2.3,Win32,30.03003003,,,84,0,84,0,1,,,,,,,,
,,"[""circle"",""no_dis"",""vert"",""up"",[99999,99999],[-150,0]]",circle,no_dis,vert,up,"[99999,99999]","[-150,0]",up,1,0.7145,,,,,,001,2025-03-18_09h53.53.115,SL_sali_41,2021.2.3,Win32,30.03003003,,,85,0,85,0,1,,,,,,,,
,,"[""circle"",""no_dis"",""hori"",""left"",[99999,99999],[-106,-106]]",circle,no_dis,hori,left,"[99999,99999]","[-106,-106]",left,1,0.7193,,,,,,001,2025-03-18_09h53.53.115,SL_sali_41,2021.2.3,Win32,30.03003003,,,86,0,86,0,1,,,,,,,,
,,"[""diamond"",""red"",""hori"",""left"",[106,106],[-106,-106]]",diamond,red,hori,left,"[106,106]","[-106,-106]",left,1,0.9963,,,,,,001,2025-03-18_09h53.53.115,SL_sali_41,2021.2.3,Win32,30.03003003,,,87,0,87,0,1,,,,,,,,
,,"[""diamond"",""no_dis"",""hori"",""left"",[99999,99999],[-150,0]]",diamond,no_dis,hori,left,"[99999,99999]","[-150,0]",left,1,0.9469,,,,,,001,2025-03-18_09h53.53.115,SL_sali_41,2021.2.3,Win32,30.03003003,,,88,0,88,0,1,,,,,,,,
,,"[""circle"",""no_dis"",""vert"",""up"",[99999,99999],[150,0]]",circle,no_dis,vert,up,"[99999,99999]","[150,0]",up,1,0.7297,,,,,,001,2025-03-18_09h53.53.115,SL_sali_41,2021.2.3,Win32,30.03003003,,,89,0,89,0,1,,,,,,,,
,,"[""circle"",""green"",""hori"",""left"",[150,0],[-106,-106]]",circle,green,hori,left,"[150,0]","[-106,-106]",left,1,0.8724,,,,,,001,2025-03-18_09h53.53.115,SL_sali_41,2021.2.3,Win32,30.03003003,,,90,0,90,0,1,,,,,,,,
,,"[""diamond"",""no_dis"",""hori"",""left"",[99999,99999],[150,0]]",diamond,no_dis,hori,left,"[99999,99999]","[150,0]",left,1,1.4442,,,,,,001,2025-03-18_09h53.53.115,SL_sali_41,2021.2.3,Win32,30.03003003,,,91,0,91,0,1,,,,,,,,
,,"[""diamond"",""green"",""hori"",""left"",[106,106],[-150,0]]",diamond,green,hori,left,"[106,106]","[-150,0]",left,1,1.2977,,,,,,001,2025-03-18_09h53.53.115,SL_sali_41,2021.2.3,Win32,30.03003003,,,92,0,92,0,1,,,,,,,,
,,"[""diamond"",""green"",""hori"",""left"",[150,0],[-106,106]]",diamond,green,hori,left,"[150,0]","[-106,106]",left,1,0.9603,,,,,,001,2025-03-18_09h53.53.115,SL_sali_41,2021.2.3,Win32,30.03003003,,,93,0,93,0,1,,,,,,,,
,,"[""circle"",""green"",""vert"",""up"",[150,0],[106,106]]",circle,green,vert,up,"[150,0]","[106,106]",up,1,1.7864,,,,,,001,2025-03-18_09h53.53.115,SL_sali_41,2021.2.3,Win32,30.03003003,,,94,0,94,0,1,,,,,,,,
,,"[""diamond"",""no_dis"",""vert"",""up"",[99999,99999],[-106,-106]]",diamond,no_dis,vert,up,"[99999,99999]","[-106,-106]",up,1,1.1952,,,,,,001,2025-03-18_09h53.53.115,SL_sali_41,2021.2.3,Win32,30.03003003,,,95,0,95,0,1,,,,,,,,
,,"[""diamond"",""no_dis"",""hori"",""left"",[99999,99999],[150,0]]",diamond,no_dis,hori,left,"[99999,99999]","[150,0]",left,1,1.2563,,,,,,001,2025-03-18_09h53.53.115,SL_sali_41,2021.2.3,Win32,30.03003003,,,96,0,96,0,1,,,,,,,,
,,"[""diamond"",""no_dis"",""hori"",""left"",[99999,99999],[-150,0]]",diamond,no_dis,hori,left,"[99999,99999]","[-150,0]",left,1,0.7381,,,,,,001,2025-03-18_09h53.53.115,SL_sali_41,2021.2.3,Win32,30.03003003,,,97,0,97,0,1,,,,,,,,
,,"[""circle"",""no_dis"",""hori"",""left"",[99999,99999],[106,106]]",circle,no_dis,hori,left,"[99999,99999]","[106,106]",left,1,1.2794,,,,,,001,2025-03-18_09h53.53.115,SL_sali_41,2021.2.3,Win32,30.03003003,,,98,0,98,0,1,,,,,,,,
,,"[""circle"",""no_dis"",""vert"",""up"",[99999,99999],[0,150]]",circle,no_dis,vert,up,"[99999,99999]","[0,150]",up,1,1.1564,,,,,,001,2025-03-18_09h53.53.115,SL_sali_41,2021.2.3,Win32,30.03003003,,,99,0,99,0,1,,,,,,,,
,,"[""circle"",""no_dis"",""vert"",""up"",[99999,99999],[150,0]]",circle,no_dis,vert,up,"[99999,99999]","[150,0]",up,1,1.0225,,,,,,001,2025-03-18_09h53.53.115,SL_sali_41,2021.2.3,Win32,30.03003003,,,100,0,100,0,1,,,,,,,,
,,"[""diamond"",""no_dis"",""vert"",""up"",[99999,99999],[-106,106]]",diamond,no_dis,vert,up,"[99999,99999]","[-106,106]",up,1,0.8413,,,,,,001,2025-03-18_09h53.53.115,SL_sali_41,2021.2.3,Win32,30.03003003,,,101,0,101,0,1,,,,,,,,
,,"[""circle"",""green"",""vert"",""up"",[106,-106],[-106,-106]]",circle,green,vert,up,"[106,-106]","[-106,-106]",up,1,1.1172,,,,,,001,2025-03-18_09h53.53.115,SL_sali_41,2021.2.3,Win32,30.03003003,,,102,0,102,0,1,,,,,,,,
,,"[""diamond"",""no_dis"",""hori"",""left"",[99999,99999],[106,-106]]",diamond,no_dis,hori,left,"[99999,99999]","[106,-106]",left,1,1.6834,,,,,,001,2025-03-18_09h53.53.115,SL_sali_41,2021.2.3,Win32,30.03003003,,,103,0,103,0,1,,,,,,,,
,,"[""circle"",""green"",""vert"",""up"",[106,106],[0,-150]]",circle,green,vert,up,"[106,106]","[0,-150]",up,1,1.1089,,,,,,001,2025-03-18_09h53.53.115,SL_sali_41,2021.2.3,Win32,30.03003003,,,104,0,104,0,1,,,,,,,,
,,"[""circle"",""no_dis"",""vert"",""up"",[99999,99999],[106,106]]",circle,no_dis,vert,up,"[99999,99999]","[106,106]",up,1,1.021,,,,,,001,2025-03-18_09h53.53.115,SL_sali_41,2021.2.3,Win32,30.03003003,,,105,0,105,0,1,,,,,,,,
,,"[""circle"",""red"",""hori"",""left"",[0,-150],[150,0]]",circle,red,hori,left,"[0,-150]","[150,0]",left,1,0.9591,,,,,,001,2025-03-18_09h53.53.115,SL_sali_41,2021.2.3,Win32,30.03003003,,,106,0,106,0,1,,,,,,,,
,,"[""circle"",""red"",""hori"",""left"",[106,-106],[-106,-106]]",circle,red,hori,left,"[106,-106]","[-106,-106]",left,1,1.2123,,,,,,001,2025-03-18_09h53.53.115,SL_sali_41,2021.2.3,Win32,30.03003003,,,107,0,107,0,1,,,,,,,,
,,"[""diamond"",""no_dis"",""vert"",""up"",[99999,99999],[-150,0]]",diamond,no_dis,vert,up,"[99999,99999]","[-150,0]",up,1,0.7104,,,,,,001,2025-03-18_09h53.53.115,SL_sali_41,2021.2.3,Win32,30.03003003,,,108,0,108,0,1,,,,,,,,
,,"[""circle"",""no_dis"",""hori"",""left"",[99999,99999],[106,-106]]",circle,no_dis,hori,left,"[99999,99999]","[106,-106]",left,1,0.9125,,,,,,001,2025-03-18_09h53.53.115,SL_sali_41,2021.2.3,Win32,30.03003003,,,109,0,109,0,1,,,,,,,,
,,"[""diamond"",""red"",""vert"",""up"",[106,-106],[106,106]]",diamond,red,vert,up,"[106,-106]","[106,106]",up,1,1.1313,,,,,,001,2025-03-18_09h53.53.115,SL_sali_41,2021.2.3,Win32,30.03003003,,,110,0,110,0,1,,,,,,,,
,,"[""diamond"",""green"",""vert"",""up"",[-106,-106],[0,-150]]",diamond,green,vert,up,"[-106,-106]","[0,-150]",up,1,1.4401,,,,,,001,2025-03-18_09h53.53.115,SL_sali_41,2021.2.3,Win32,30.03003003,,,111,0,111,0,1,,,,,,,,
,,"[""diamond"",""red"",""hori"",""left"",[0,150],[106,-106]]",diamond,red,hori,left,"[0,150]","[106,-106]",left,1,1.0511,,,,,,001,2025-03-18_09h53.53.115,SL_sali_41,2021.2.3,Win32,30.03003003,,,112,0,112,0,1,,,,,,,,
,,"[""circle"",""red"",""vert"",""up"",[150,0],[0,150]]",circle,red,vert,up,"[150,0]","[0,150]",up,1,1.1688,,,,,,001,2025-03-18_09h53.53.115,SL_sali_41,2021.2.3,Win32,30.03003003,,,113,0,113,0,1,,,,,,,,
,,"[""circle"",""green"",""hori"",""left"",[150,0],[-106,106]]",circle,green,hori,left,"[150,0]","[-106,106]",left,1,0.892,,,,,,001,2025-03-18_09h53.53.115,SL_sali_41,2021.2.3,Win32,30.03003003,,,114,0,114,0,1,,,,,,,,
,,"[""diamond"",""no_dis"",""vert"",""up"",[99999,99999],[0,150]]",diamond,no_dis,vert,up,"[99999,99999]","[0,150]",up,1,0.7213,,,,,,001,2025-03-18_09h53.53.115,SL_sali_41,2021.2.3,Win32,30.03003003,,,115,0,115,0,1,,,,,,,,
,,"[""diamond"",""green"",""vert"",""up"",[150,0],[106,106]]",diamond,green,vert,up,"[150,0]","[106,106]",up,1,1.0219,,,,,,001,2025-03-18_09h53.53.115,SL_sali_41,2021.2.3,Win32,30.03003003,,,116,0,116,0,1,,,,,,,,
,,"[""diamond"",""green"",""vert"",""up"",[-106,-106],[-106,106]]",diamond,green,vert,up,"[-106,-106]","[-106,106]",up,1,1.095,,,,,,001,2025-03-18_09h53.53.115,SL_sali_41,2021.2.3,Win32,30.03003003,,,117,0,117,0,1,,,,,,,,
,,"[""diamond"",""no_dis"",""hori"",""left"",[99999,99999],[0,-150]]",diamond,no_dis,hori,left,"[99999,99999]","[0,-150]",left,1,0.7863,,,,,,001,2025-03-18_09h53.53.115,SL_sali_41,2021.2.3,Win32,30.03003003,,,118,0,118,0,1,,,,,,,,
,,"[""diamond"",""green"",""vert"",""up"",[-106,-106],[150,0]]",diamond,green,vert,up,"[-106,-106]","[150,0]",up,1,0.903,,,,,,001,2025-03-18_09h53.53.115,SL_sali_41,2021.2.3,Win32,30.03003003,,,119,0,119,0,1,,,,,,,,
,,"[""circle"",""green"",""hori"",""left"",[150,0],[0,150]]",circle,green,hori,left,"[150,0]","[0,150]",left,1,1.0317,,,,,,001,2025-03-18_09h53.53.115,SL_sali_41,2021.2.3,Win32,30.03003003,,,120,0,120,0,1,,,,,,,,
,,"[""diamond"",""no_dis"",""vert"",""up"",[99999,99999],[0,-150]]",diamond,no_dis,vert,up,"[99999,99999]","[0,-150]",up,1,1.0219,,,,,,001,2025-03-18_09h53.53.115,SL_sali_41,2021.2.3,Win32,30.03003003,,,121,0,121,0,1,,,,,,,,
,,"[""diamond"",""no_dis"",""vert"",""up"",[99999,99999],[-106,-106]]",diamond,no_dis,vert,up,"[99999,99999]","[-106,-106]",up,1,0.6109,,,,,,001,2025-03-18_09h53.53.115,SL_sali_41,2021.2.3,Win32,30.03003003,,,122,0,122,0,1,,,,,,,,
,,"[""diamond"",""green"",""hori"",""left"",[150,0],[-150,0]]",diamond,green,hori,left,"[150,0]","[-150,0]",left,1,0.6491,,,,,,001,2025-03-18_09h53.53.115,SL_sali_41,2021.2.3,Win32,30.03003003,,,123,0,123,0,1,,,,,,,,
,,"[""circle"",""no_dis"",""vert"",""up"",[99999,99999],[-106,-106]]",circle,no_dis,vert,up,"[99999,99999]","[-106,-106]",up,1,0.9973,,,,,,001,2025-03-18_09h53.53.115,SL_sali_41,2021.2.3,Win32,30.03003003,,,124,0,124,0,1,,,,,,,,
,,"[""diamond"",""green"",""vert"",""up"",[150,0],[0,150]]",diamond,green,vert,up,"[150,0]","[0,150]",up,1,0.6138,,,,,,001,2025-03-18_09h53.53.115,SL_sali_41,2021.2.3,Win32,30.03003003,,,125,0,125,0,1,,,,,,,,
,,"[""diamond"",""green"",""hori"",""left"",[150,0],[-106,-106]]",diamond,green,hori,left,"[150,0]","[-106,-106]",left,1,0.6811,,,,,,001,2025-03-18_09h53.53.115,SL_sali_41,2021.2.3,Win32,30.03003003,,,126,0,126,0,1,,,,,,,,
,,"[""circle"",""red"",""hori"",""left"",[150,0],[-106,-106]]",circle,red,hori,left,"[150,0]","[-106,-106]",left,1,0.7257,,,,,,001,2025-03-18_09h53.53.115,SL_sali_41,2021.2.3,Win32,30.03003003,,,127,0,127,0,1,,,,,,,,
,,,,,,,,,,,,,,,,,001,2025-03-18_09h53.53.115,SL_sali_41,2021.2.3,Win32,30.03003003,,,,,,,,1,space,7.8818,0,0,0,0,1
,,"[""diamond"",""no_dis"",""vert"",""up"",[99999,99999],[-106,-106]]",diamond,no_dis,vert,up,"[99999,99999]","[-106,-106]",up,1,0.8264,,,,,,001,2025-03-18_09h53.53.115,SL_sali_41,2021.2.3,Win32,30.03003003,,,0,0,0,0,1,,,,,,,,
,,"[""diamond"",""red"",""vert"",""up"",[-106,-106],[-106,106]]",diamond,red,vert,up,"[-106,-106]","[-106,106]",up,1,1.0985,,,,,,001,2025-03-18_09h53.53.115,SL_sali_41,2021.2.3,Win32,30.03003003,,,1,0,1,0,1,,,,,,,,
,,"[""diamond"",""red"",""hori"",""left"",[0,150],[106,-106]]",diamond,red,hori,left,"[0,150]","[106,-106]",left,1,0.8674,,,,,,001,2025-03-18_09h53.53.115,SL_sali_41,2021.2.3,Win32,30.03003003,,,2,0,2,0,1,,,,,,,,
,,"[""circle"",""no_dis"",""hori"",""left"",[99999,99999],[-106,106]]",circle,no_dis,hori,left,"[99999,99999]","[-106,106]",left,1,0.6391,,,,,,001,2025-03-18_09h53.53.115,SL_sali_41,2021.2.3,Win32,30.03003003,,,3,0,3,0,1,,,,,,,,
,,"[""diamond"",""red"",""hori"",""left"",[106,106],[-106,106]]",diamond,red,hori,left,"[106,106]","[-106,106]",left,1,1.0172,,,,,,001,2025-03-18_09h53.53.115,SL_sali_41,2021.2.3,Win32,30.03003003,,,4,0,4,0,1,,,,,,,,
,,"[""diamond"",""no_dis"",""hori"",""left"",[99999,99999],[106,106]]",diamond,no_dis,hori,left,"[99999,99999]","[106,106]",left,1,0.9079,,,,,,001,2025-03-18_09h53.53.115,SL_sali_41,2021.2.3,Win32,30.03003003,,,5,0,5,0,1,,,,,,,,
,,"[""circle"",""red"",""hori"",""left"",[150,0],[0,150]]",circle,red,hori,left,"[150,0]","[0,150]",left,1,0.8277,,,,,,001,2025-03-18_09h53.53.115,SL_sali_41,2021.2.3,Win32,30.03003003,,,6,0,6,0,1,,,,,,,,
,,"[""circle"",""green"",""vert"",""up"",[106,106],[0,-150]]",circle,green,vert,up,"[106,106]","[0,-150]",up,1,0.851,,,,,,001,2025-03-18_09h53.53.115,SL_sali_41,2021.2.3,Win32,30.03003003,,,7,0,7,0,1,,,,,,,,
,,"[""diamond"",""green"",""vert"",""up"",[-106,-106],[150,0]]",diamond,green,vert,up,"[-106,-106]","[150,0]",,0,,,,,,,001,2025-03-18_09h53.53.115,SL_sali_41,2021.2.3,Win32,30.03003003,,,8,0,8,0,1,,,,,,,,
,,"[""circle"",""no_dis"",""vert"",""up"",[99999,99999],[150,0]]",circle,no_dis,vert,up,"[99999,99999]","[150,0]",up,1,1.556,,,,,,001,2025-03-18_09h53.53.115,SL_sali_41,2021.2.3,Win32,30.03003003,,,9,0,9,0,1,,,,,,,,
,,"[""circle"",""red"",""vert"",""up"",[-106,106],[106,106]]",circle,red,vert,up,"[-106,106]","[106,106]",up,1,1.0022,,,,,,001,2025-03-18_09h53.53.115,SL_sali_41,2021.2.3,Win32,30.03003003,,,10,0,10,0,1,,,,,,,,
,,"[""circle"",""green"",""hori"",""left"",[150,0],[0,150]]",circle,green,hori,left,"[150,0]","[0,150]",left,1,0.6372,,,,,,001,2025-03-18_09h53.53.115,SL_sali_41,2021.2.3,Win32,30.03003003,,,11,0,11,0,1,,,,,,,,
,,"[""diamond"",""red"",""vert"",""up"",[150,0],[106,-106]]",diamond,red,vert,up,"[150,0]","[106,-106]",up,1,1.1476,,,,,,001,2025-03-18_09h53.53.115,SL_sali_41,2021.2.3,Win32,30.03003003,,,12,0,12,0,1,,,,,,,,
,,"[""diamond"",""green"",""vert"",""up"",[150,0],[106,106]]",diamond,green,vert,up,"[150,0]","[106,106]",up,1,2.0511,,,,,,001,2025-03-18_09h53.53.115,SL_sali_41,2021.2.3,Win32,30.03003003,,,13,0,13,0,1,,,,,,,,
,,"[""diamond"",""red"",""vert"",""up"",[106,-106],[106,106]]",diamond,red,vert,up,"[106,-106]","[106,106]",up,1,0.9631,,,,,,001,2025-03-18_09h53.53.115,SL_sali_41,2021.2.3,Win32,30.03003003,,,14,0,14,0,1,,,,,,,,
,,"[""circle"",""red"",""hori"",""left"",[150,0],[-106,-106]]",circle,red,hori,left,"[150,0]","[-106,-106]",left,1,0.696,,,,,,001,2025-03-18_09h53.53.115,SL_sali_41,2021.2.3,Win32,30.03003003,,,15,0,15,0,1,,,,,,,,
,,"[""diamond"",""no_dis"",""vert"",""up"",[99999,99999],[-150,0]]",diamond,no_dis,vert,up,"[99999,99999]","[-150,0]",up,1,0.7332,,,,,,001,2025-03-18_09h53.53.115,SL_sali_41,2021.2.3,Win32,30.03003003,,,16,0,16,0,1,,,,,,,,
,,"[""circle"",""red"",""hori"",""left"",[150,0],[-106,106]]",circle,red,hori,left,"[150,0]","[-106,106]",left,1,0.7398,,,,,,001,2025-03-18_09h53.53.115,SL_sali_41,2021.2.3,Win32,30.03003003,,,17,0,17,0,1,,,,,,,,
,,"[""circle"",""green"",""hori"",""left"",[-106,106],[106,106]]",circle,green,hori,left,"[-106,106]","[106,106]",left,1,1.1074,,,,,,001,2025-03-18_09h53.53.115,SL_sali_41,2021.2.3,Win32,30.03003003,,,18,0,18,0,1,,,,,,,,
,,"[""circle"",""green"",""hori"",""left"",[0,-150],[106,-106]]",circle,green,hori,left,"[0,-150]","[106,-106]",up,0,1.4437,,,,,,001,2025-03-18_09h53.53.115,SL_sali_41,2021.2.3,Win32,30.03003003,,,19,0,19,0,1,,,,,,,,
,,"[""circle"",""no_dis"",""hori"",""left"",[99999,99999],[106,-106]]",circle,no_dis,hori,left,"[99999,99999]","[106,-106]",left,1,1.7655,,,,,,001,2025-03-18_09h53.53.115,SL_sali_41,2021.2.3,Win32,30.03003003,,,20,0,20,0,1,,,,,,,,
,,"[""diamond"",""no_dis"",""vert"",""up"",[99999,99999],[0,-150]]",diamond,no_dis,vert,up,"[99999,99999]","[0,-150]",up,1,0.7384,,,,,,001,2025-03-18_09h53.53.115,SL_sali_41,2021.2.3,Win32,30.03003003,,,21,0,21,0,1,,,,,,,,
,,"[""diamond"",""red"",""vert"",""up"",[106,106],[-150,0]]",diamond,red,vert,up,"[106,106]","[-150,0]",up,1,0.999,,,,,,001,2025-03-18_09h53.53.115,SL_sali_41,2021.2.3,Win32,30.03003003,,,22,0,22,0,1,,,,,,,,
,,"[""diamond"",""no_dis"",""hori"",""left"",[99999,99999],[106,-106]]",diamond,no_dis,hori,left,"[99999,99999]","[106,-106]",left,1,0.8549,,,,,,001,2025-03-18_09h53.53.115,SL_sali_41,2021.2.3,Win32,30.03003003,,,23,0,23,0,1,,,,,,,,
,,"[""circle"",""red"",""hori"",""left"",[-150,0],[0,-150]]",circle,red,hori,left,"[-150,0]","[0,-150]",left,1,0.8762,,,,,,001,2025-03-18_09h53.53.115,SL_sali_41,2021.2.3,Win32,30.03003003,,,24,0,24,0,1,,,,,,,,
,,"[""circle"",""red"",""vert"",""up"",[150,0],[0,-150]]",circle,red,vert,up,"[150,0]","[0,-150]",left,0,0.7986,,,,,,001,2025-03-18_09h53.53.115,SL_sali_41,2021.2.3,Win32,30.03003003,,,25,0,25,0,1,,,,,,,,
,,"[""diamond"",""no_dis"",""vert"",""up"",[99999,99999],[0,-150]]",diamond,no_dis,vert,up,"[99999,99999]","[0,-150]",up,1,0.7395,,,,,,001,2025-03-18_09h53.53.115,SL_sali_41,2021.2.3,Win32,30.03003003,,,26,0,26,0,1,,,,,,,,
,,"[""circle"",""green"",""hori"",""left"",[0,150],[150,0]]",circle,green,hori,left,"[0,150]","[150,0]",left,1,1.2497,,,,,,001,2025-03-18_09h53.53.115,SL_sali_41,2021.2.3,Win32,30.03003003,,,27,0,27,0,1,,,,,,,,
,,"[""circle"",""red"",""vert"",""up"",[0,150],[0,-150]]",circle,red,vert,up,"[0,150]","[0,-150]",up,1,1.3743,,,,,,001,2025-03-18_09h53.53.115,SL_sali_41,2021.2.3,Win32,30.03003003,,,28,0,28,0,1,,,,,,,,
,,"[""diamond"",""no_dis"",""hori"",""left"",[99999,99999],[-150,0]]",diamond,no_dis,hori,left,"[99999,99999]","[-150,0]",left,1,1.0806,,,,,,001,2025-03-18_09h53.53.115,SL_sali_41,2021.2.3,Win32,30.03003003,,,29,0,29,0,1,,,,,,,,
,,"[""circle"",""no_dis"",""vert"",""up"",[99999,99999],[-106,106]]",circle,no_dis,vert,up,"[99999,99999]","[-106,106]",up,1,1.4667,,,,,,001,2025-03-18_09h53.53.115,SL_sali_41,2021.2.3,Win32,30.03003003,,,30,0,30,0,1,,,,,,,,
,,"[""circle"",""green"",""vert"",""up"",[150,0],[106,106]]",circle,green,vert,up,"[150,0]","[106,106]",up,1,0.8914,,,,,,001,2025-03-18_09h53.53.115,SL_sali_41,2021.2.3,Win32,30.03003003,,,31,0,31,0,1,,,,,,,,
,,"[""diamond"",""green"",""hori"",""left"",[0,150],[-106,106]]",diamond,green,hori,left,"[0,150]","[-106,106]",left,1,1.2084,,,,,,001,2025-03-18_09h53.53.115,SL_sali_41,2021.2.3,Win32,30.03003003,,,32,0,32,0,1,,,,,,,,
,,"[""circle"",""red"",""vert"",""up"",[-150,0],[0,-150]]",circle,red,vert,up,"[-150,0]","[0,-150]",up,1,0.8987,,,,,,001,2025-03-18_09h53.53.115,SL_sali_41,2021.2.3,Win32,30.03003003,,,33,0,33,0,1,,,,,,,,
,,"[""circle"",""red"",""hori"",""left"",[106,-106],[-106,-106]]",circle,red,hori,left,"[106,-106]","[-106,-106]",left,1,0.7468,,,,,,001,2025-03-18_09h53.53.115,SL_sali_41,2021.2.3,Win32,30.03003003,,,34,0,34,0,1,,,,,,,,
,,"[""diamond"",""red"",""vert"",""up"",[0,150],[106,-106]]",diamond,red,vert,up,"[0,150]","[106,-106]",up,1,0.8781,,,,,,001,2025-03-18_09h53.53.115,SL_sali_41,2021.2.3,Win32,30.03003003,,,35,0,35,0,1,,,,,,,,
,,"[""diamond"",""no_dis"",""hori"",""left"",[99999,99999],[-150,0]]",diamond,no_dis,hori,left,"[99999,99999]","[-150,0]",up,0,0.7756,,,,,,001,2025-03-18_09h53.53.115,SL_sali_41,2021.2.3,Win32,30.03003003,,,36,0,36,0,1,,,,,,,,
,,"[""diamond"",""green"",""hori"",""left"",[106,-106],[106,106]]",diamond,green,hori,left,"[106,-106]","[106,106]",up,0,0.9446,,,,,,001,2025-03-18_09h53.53.115,SL_sali_41,2021.2.3,Win32,30.03003003,,,37,0,37,0,1,,,,,,,,
,,"[""circle"",""green"",""hori"",""left"",[106,106],[-150,0]]",circle,green,hori,left,"[106,106]","[-150,0]",left,1,0.8012,,,,,,001,2025-03-18_09h53.53.115,SL_sali_41,2021.2.3,Win32,30.03003003,,,38,0,38,0,1,,,,,,,,
,,"[""circle"",""red"",""hori"",""left"",[106,-106],[150,0]]",circle,red,hori,left,"[106,-106]","[150,0]",left,1,1.3652,,,,,,001,2025-03-18_09h53.53.115,SL_sali_41,2021.2.3,Win32,30.03003003,,,39,0,39,0,1,,,,,,,,
,,"[""diamond"",""green"",""vert"",""up"",[-106,-106],[-106,106]]",diamond,green,vert,up,"[-106,-106]","[-106,106]",up,1,0.8645,,,,,,001,2025-03-18_09h53.53.115,SL_sali_41,2021.2.3,Win32,30.03003003,,,40,0,40,0,1,,,,,,,,
,,"[""diamond"",""no_dis"",""hori"",""left"",[99999,99999],[150,0]]",diamond,no_dis,hori,left,"[99999,99999]","[150,0]",left,1,0.9032,,,,,,001,2025-03-18_09h53.53.115,SL_sali_41,2021.2.3,Win32,30.03003003,,,41,0,41,0,1,,,,,,,,
,,"[""circle"",""red"",""vert"",""up"",[150,0],[-106,-106]]",circle,red,vert,up,"[150,0]","[-106,-106]",up,1,0.7719,,,,,,001,2025-03-18_09h53.53.115,SL_sali_41,2021.2.3,Win32,30.03003003,,,42,0,42,0,1,,,,,,,,
,,"[""diamond"",""green"",""hori"",""left"",[106,106],[-106,-106]]",diamond,green,hori,left,"[106,106]","[-106,-106]",left,1,0.8545,,,,,,001,2025-03-18_09h53.53.115,SL_sali_41,2021.2.3,Win32,30.03003003,,,43,0,43,0,1,,,,,,,,
,,"[""diamond"",""red"",""hori"",""left"",[-150,0],[106,106]]",diamond,red,hori,left,"[-150,0]","[106,106]",left,1,1.1005,,,,,,001,2025-03-18_09h53.53.115,SL_sali_41,2021.2.3,Win32,30.03003003,,,44,0,44,0,1,,,,,,,,
,,"[""circle"",""red"",""hori"",""left"",[0,-150],[150,0]]",circle,red,hori,left,"[0,-150]","[150,0]",left,1,0.9974,,,,,,001,2025-03-18_09h53.53.115,SL_sali_41,2021.2.3,Win32,30.03003003,,,45,0,45,0,1,,,,,,,,
,,"[""circle"",""no_dis"",""hori"",""left"",[99999,99999],[-106,-106]]",circle,no_dis,hori,left,"[99999,99999]","[-106,-106]",left,1,0.9293,,,,,,001,2025-03-18_09h53.53.115,SL_sali_41,2021.2.3,Win32,30.03003003,,,46,0,46,0,1,,,,,,,,
,,"[""diamond"",""green"",""vert"",""up"",[150,0],[0,150]]",diamond,green,vert,up,"[150,0]","[0,150]",up,1,0.8979,,,,,,001,2025-03-18_09h53.53.115,SL_sali_41,2021.2.3,Win32,30.03003003,,,47,0,47,0,1,,,,,,,,
,,"[""circle"",""no_dis"",""hori"",""left"",[99999,99999],[-106,106]]",circle,no_dis,hori,left,"[99999,99999]","[-106,106]",left,1,0.7668,,,,,,001,2025-03-18_09h53.53.115,SL_sali_41,2021.2.3,Win32,30.03003003,,,48,0,48,0,1,,,,,,,,
,,"[""circle"",""red"",""hori"",""left"",[0,-150],[150,0]]",circle,red,hori,left,"[0,-150]","[150,0]",left,1,0.8071,,,,,,001,2025-03-18_09h53.53.115,SL_sali_41,2021.2.3,Win32,30.03003003,,,49,0,49,0,1,,,,,,,,
,,"[""circle"",""no_dis"",""vert"",""up"",[99999,99999],[-106,-106]]",circle,no_dis,vert,up,"[99999,99999]","[-106,-106]",up,1,0.7431,,,,,,001,2025-03-18_09h53.53.115,SL_sali_41,2021.2.3,Win32,30.03003003,,,50,0,50,0,1,,,,,,,,
,,"[""circle"",""no_dis"",""vert"",""up"",[99999,99999],[0,150]]",circle,no_dis,vert,up,"[99999,99999]","[0,150]",up,1,0.6717,,,,,,001,2025-03-18_09h53.53.115,SL_sali_41,2021.2.3,Win32,30.03003003,,,51,0,51,0,1,,,,,,,,
,,"[""diamond"",""red"",""vert"",""up"",[-106,106],[0,150]]",diamond,red,vert,up,"[-106,106]","[0,150]",up,1,0.9091,,,,,,001,2025-03-18_09h53.53.115,SL_sali_41,2021.2.3,Win32,30.03003003,,,52,0,52,0,1,,,,,,,,
,,"[""circle"",""no_dis"",""vert"",""up"",[99999,99999],[0,150]]",circle,no_dis,vert,up,"[99999,99999]","[0,150]",left,0,1.1694,,,,,,001,2025-03-18_09h53.53.115,SL_sali_41,2021.2.3,Win32,30.03003003,,,53,0,53,0,1,,,,,,,,
,,"[""circle"",""green"",""hori"",""left"",[-150,0],[150,0]]",circle,green,hori,left,"[-150,0]","[150,0]",left,1,0.7514,,,,,,001,2025-03-18_09h53.53.115,SL_sali_41,2021.2.3,Win32,30.03003003,,,54,0,54,0,1,,,,,,,,
,,"[""diamond"",""green"",""hori"",""left"",[150,0],[-106,106]]",diamond,green,hori,left,"[150,0]","[-106,106]",left,1,0.8631,,,,,,001,2025-03-18_09h53.53.115,SL_sali_41,2021.2.3,Win32,30.03003003,,,55,0,55,0,1,,,,,,,,
,,"[""circle"",""green"",""vert"",""up"",[150,0],[-150,0]]",circle,green,vert,up,"[150,0]","[-150,0]",up,1,1.302,,,,,,001,2025-03-18_09h53.53.115,SL_sali_41,2021.2.3,Win32,30.03003003,,,56,0,56,0,1,,,,,,,,
,,"[""circle"",""green"",""vert"",""up"",[150,0],[0,-150]]",circle,green,vert,up,"[150,0]","[0,-150]",up,1,1.1436,,,,,,001,2025-03-18_09h53.53.115,SL_sali_41,2021.2.3,Win32,30.03003003,,,57,0,57,0,1,,,,,,,,
,,"[""circle"",""no_dis"",""vert"",""up"",[99999,99999],[0,-150]]",circle,no_dis,vert,up,"[99999,99999]","[0,-150]",up,1,0.6834,,,,,,001,2025-03-18_09h53.53.115,SL_sali_41,2021.2.3,Win32,30.03003003,,,58,0,58,0,1,,,,,,,,
,,"[""circle"",""no_dis"",""vert"",""up"",[99999,99999],[106,-106]]",circle,no_dis,vert,up,"[99999,99999]","[106,-106]",up,1,0.7487,,,,,,001,2025-03-18_09h53.53.115,SL_sali_41,2021.2.3,Win32,30.03003003,,,59,0,59,0,1,,,,,,,,
,,"[""diamond"",""green"",""vert"",""up"",[-106,-106],[0,-150]]",diamond,green,vert,up,"[-106,-106]","[0,-150]",up,1,1.2204,,,,,,001,2025-03-18_09h53.53.115,SL_sali_41,2021.2.3,Win32,30.03003003,,,60,0,60,0,1,,,,,,,,
,,"[""diamond"",""green"",""hori"",""left"",[0,150],[-150,0]]",diamond,green,hori,left,"[0,150]","[-150,0]",left,1,1.4245,,,,,,001,2025-03-18_09h53.53.115,SL_sali_41,2021.2.3,Win32,30.03003003,,,61,0,61,0,1,,,,,,,,
,,"[""diamond"",""no_dis"",""vert"",""up"",[99999,99999],[-106,106]]",diamond,no_dis,vert,up,"[99999,99999]","[-106,106]",up,1,2.147,,,,,,001,2025-03-18_09h53.53.115,SL_sali_41,2021.2.3,Win32,30.03003003,,,62,0,62,0,1,,,,,,,,
,,"[""circle"",""green"",""hori"",""left"",[150,0],[-106,106]]",circle,green,hori,left,"[150,0]","[-106,106]",left,1,1.4986,,,,,,001,2025-03-18_09h53.53.115,SL_sali_41,2021.2.3,Win32,30.03003003,,,63,0,63,0,1,,,,,,,,
,,"[""diamond"",""red"",""vert"",""up"",[-106,106],[-150,0]]",diamond,red,vert,up,"[-106,106]","[-150,0]",up,1,1.6625,,,,,,001,2025-03-18_09h53.53.115,SL_sali_41,2021.2.3,Win32,30.03003003,,,64,0,64,0,1,,,,,,,,
,,"[""circle"",""no_dis"",""hori"",""left"",[99999,99999],[106,-106]]",circle,no_dis,hori,left,"[99999,99999]","[106,-106]",left,1,1.1831,,,,,,001,2025-03-18_09h53.53.115,SL_sali_41,2021.2.3,Win32,30.03003003,,,65,0,65,0,1,,,,,,,,
,,"[""diamond"",""green"",""vert"",""up"",[-106,106],[-150,0]]",diamond,green,vert,up,"[-106,106]","[-150,0]",up,1,1.163,,,,,,001,2025-03-18_09h53.53.115,SL_sali_41,2021.2.3,Win32,30.03003003,,,66,0,66,0,1,,,,,,,,
,,"[""diamond"",""no_dis"",""vert"",""up"",[99999,99999],[-106,-106]]",diamond,no_dis,vert,up,"[99999,99999]","[-106,-106]",up,1,0.8427,,,,,,001,2025-03-18_09h53.53.115,SL_sali_41,2021.2.3,Win32,30.03003003,,,67,0,67,0,1,,,,,,,,
,,"[""circle"",""green"",""hori"",""left"",[0,-150],[0,150]]",circle,green,hori,left,"[0,-150]","[0,150]",left,1,0.9447,,,,,,001,2025-03-18_09h53.53.115,SL_sali_41,2021.2.3,Win32,30.03003003,,,68,0,68,0,1,,,,,,,,
,,"[""diamond"",""no_dis"",""hori"",""left"",[99999,99999],[-106,106]]",diamond,no_dis,hori,left,"[99999,99999]","[-106,106]",left,1,0.8571,,,,,,001,2025-03-18_09h53.53.115,SL_sali_41,2021.2.3,Win32,30.03003003,,,69,0,69,0,1,,,,,,,,
,,"[""diamond"",""green"",""hori"",""left"",[106,106],[-150,0]]",diamond,green,hori,left,"[106,106]","[-150,0]",left,1,0.7766,,,,,,001,2025-03-18_09h53.53.115,SL_sali_41,2021.2.3,Win32,30.03003003,,,70,0,70,0,1,,,,,,,,
,,"[""circle"",""no_dis"",""vert"",""up"",[99999,99999],[150,0]]",circle,no_dis,vert,up,"[99999,99999]","[150,0]",up,1,0.7569,,,,,,001,2025-03-18_09h53.53.115,SL_sali_41,2021.2.3,Win32,30.03003003,,,71,0,71,0,1,,,,,,,,
,,"[""diamond"",""red"",""hori"",""left"",[-106,106],[0,-150]]",diamond,red,hori,left,"[-106,106]","[0,-150]",up,0,1.0452,,,,,,001,2025-03-18_09h53.53.115,SL_sali_41,2021.2.3,Win32,30.03003003,,,72,0,72,0,1,,,,,,,,
,,"[""circle"",""red"",""hori"",""left"",[-106,106],[-150,0]]",circle,red,hori,left,"[-106,106]","[-150,0]",left,1,1.0321,,,,,,001,2025-03-18_09h53.53.115,SL_sali_41,2021.2.3,Win32,30.03003003,,,73,0,73,0,1,,,,,,,,
,,"[""circle"",""green"",""hori"",""left"",[-106,-106],[-150,0]]",circle,green,hori,left,"[-106,-106]","[-150,0]",left,1,0.7971,,,,,,001,2025-03-18_09h53.53.115,SL_sali_41,2021.2.3,Win32,30.03003003,,,74,0,74,0,1,,,,,,,,
,,"[""diamond"",""no_dis"",""vert"",""up"",[99999,99999],[0,150]]",diamond,no_dis,vert,up,"[99999,99999]","[0,150]",up,1,0.8296,,,,,,001,2025-03-18_09h53.53.115,SL_sali_41,2021.2.3,Win32,30.03003003,,,75,0,75,0,1,,,,,,,,
,,"[""circle"",""no_dis"",""hori"",""left"",[99999,99999],[-150,0]]",circle,no_dis,hori,left,"[99999,99999]","[-150,0]",left,1,0.7852,,,,,,001,2025-03-18_09h53.53.115,SL_sali_41,2021.2.3,Win32,30.03003003,,,76,0,76,0,1,,,,,,,,
,,"[""diamond"",""no_dis"",""hori"",""left"",[99999,99999],[0,150]]",diamond,no_dis,hori,left,"[99999,99999]","[0,150]",left,1,0.7953,,,,,,001,2025-03-18_09h53.53.115,SL_sali_41,2021.2.3,Win32,30.03003003,,,77,0,77,0,1,,,,,,,,
,,"[""diamond"",""green"",""vert"",""up"",[150,0],[-106,106]]",diamond,green,vert,up,"[150,0]","[-106,106]",up,1,0.9514,,,,,,001,2025-03-18_09h53.53.115,SL_sali_41,2021.2.3,Win32,30.03003003,,,78,0,78,0,1,,,,,,,,
,,"[""circle"",""no_dis"",""hori"",""left"",[99999,99999],[106,106]]",circle,no_dis,hori,left,"[99999,99999]","[106,106]",left,1,0.791,,,,,,001,2025-03-18_09h53.53.115,SL_sali_41,2021.2.3,Win32,30.03003003,,,79,0,79,0,1,,,,,,,,
,,"[""diamond"",""green"",""hori"",""left"",[150,0],[-106,106]]",diamond,green,hori,left,"[150,0]","[-106,106]",left,1,0.8963,,,,,,001,2025-03-18_09h53.53.115,SL_sali_41,2021.2.3,Win32,30.03003003,,,80,0,80,0,1,,,,,,,,
,,"[""diamond"",""red"",""hori"",""left"",[0,-150],[-106,-106]]",diamond,red,hori,left,"[0,-150]","[-106,-106]",left,1,2.7996,,,,,,001,2025-03-18_09h53.53.115,SL_sali_41,2021.2.3,Win32,30.03003003,,,81,0,81,0,1,,,,,,,,
,,"[""diamond"",""green"",""vert"",""up"",[0,150],[-150,0]]",diamond,green,vert,up,"[0,150]","[-150,0]",up,1,0.9325,,,,,,001,2025-03-18_09h53.53.115,SL_sali_41,2021.2.3,Win32,30.03003003,,,82,0,82,0,1,,,,,,,,
,,"[""diamond"",""red"",""hori"",""left"",[-150,0],[106,106]]",diamond,red,hori,left,"[-150,0]","[106,106]",left,1,1.0059,,,,,,001,2025-03-18_09h53.53.115,SL_sali_41,2021.2.3,Win32,30.03003003,,,83,0,83,0,1,,,,,,,,
,,"[""circle"",""green"",""vert"",""up"",[0,-150],[-106,-106]]",circle,green,vert,up,"[0,-150]","[-106,-106]",up,1,1.0042,,,,,,001,2025-03-18_09h53.53.115,SL_sali_41,2021.2.3,Win32,30.03003003,,,84,0,84,0,1,,,,,,,,
,,"[""circle"",""no_dis"",""vert"",""up"",[99999,99999],[-150,0]]",circle,no_dis,vert,up,"[99999,99999]","[-150,0]",up,1,0.7492,,,,,,001,2025-03-18_09h53.53.115,SL_sali_41,2021.2.3,Win32,30.03003003,,,85,0,85,0,1,,,,,,,,
,,"[""diamond"",""red"",""hori"",""left"",[106,106],[-106,-106]]",diamond,red,hori,left,"[106,106]","[-106,-106]",left,1,1.0656,,,,,,001,2025-03-18_09h53.53.115,SL_sali_41,2021.2.3,Win32,30.03003003,,,86,0,86,0,1,,,,,,,,
,,"[""diamond"",""green"",""hori"",""left"",[150,0],[-150,0]]",diamond,green,hori,left,"[150,0]","[-150,0]",left,1,0.6983,,,,,,001,2025-03-18_09h53.53.115,SL_sali_41,2021.2.3,Win32,30.03003003,,,87,0,87,0,1,,,,,,,,
,,"[""diamond"",""red"",""vert"",""up"",[150,0],[-106,106]]",diamond,red,vert,up,"[150,0]","[-106,106]",up,1,0.6963,,,,,,001,2025-03-18_09h53.53.115,SL_sali_41,2021.2.3,Win32,30.03003003,,,88,0,88,0,1,,,,,,,,
,,"[""diamond"",""green"",""vert"",""up"",[0,150],[-150,0]]",diamond,green,vert,up,"[0,150]","[-150,0]",up,1,1.0342,,,,,,001,2025-03-18_09h53.53.115,SL_sali_41,2021.2.3,Win32,30.03003003,,,89,0,89,0,1,,,,,,,,
,,"[""circle"",""no_dis"",""hori"",""left"",[99999,99999],[150,0]]",circle,no_dis,hori,left,"[99999,99999]","[150,0]",left,1,0.788,,,,,,001,2025-03-18_09h53.53.115,SL_sali_41,2021.2.3,Win32,30.03003003,,,90,0,90,0,1,,,,,,,,
,,"[""diamond"",""no_dis"",""hori"",""left"",[99999,99999],[150,0]]",diamond,no_dis,hori,left,"[99999,99999]","[150,0]",left,1,0.8659,,,,,,001,2025-03-18_09h53.53.115,SL_sali_41,2021.2.3,Win32,30.03003003,,,91,0,91,0,1,,,,,,,,
,,"[""diamond"",""green"",""vert"",""up"",[150,0],[106,106]]",diamond,green,vert,up,"[150,0]","[106,106]",up,1,0.8876,,,,,,001,2025-03-18_09h53.53.115,SL_sali_41,2021.2.3,Win32,30.03003003,,,92,0,92,0,1,,,,,,,,
,,"[""diamond"",""red"",""vert"",""up"",[0,-150],[-150,0]]",diamond,red,vert,up,"[0,-150]","[-150,0]",up,1,0.7938,,,,,,001,2025-03-18_09h53.53.115,SL_sali_41,2021.2.3,Win32,30.03003003,,,93,0,93,0,1,,,,,,,,
,,"[""diamond"",""green"",""hori"",""left"",[150,0],[0,-150]]",diamond,green,hori,left,"[150,0]","[0,-150]",left,1,0.9258,,,,,,001,2025-03-18_09h53.53.115,SL_sali_41,2021.2.3,Win32,30.03003003,,,94,0,94,0,1,,,,,,,,
,,"[""circle"",""red"",""vert"",""up"",[-106,-106],[-150,0]]",circle,red,vert,up,"[-106,-106]","[-150,0]",up,1,0.9655,,,,,,001,2025-03-18_09h53.53.115,SL_sali_41,2021.2.3,Win32,30.03003003,,,95,0,95,0,1,,,,,,,,
,,"[""circle"",""green"",""vert"",""up"",[-150,0],[-106,-106]]",circle,green,vert,up,"[-150,0]","[-106,-106]",up,1,0.8273,,,,,,001,2025-03-18_09h53.53.115,SL_sali_41,2021.2.3,Win32,30.03003003,,,96,0,96,0,1,,,,,,,,
,,"[""circle"",""red"",""hori"",""left"",[-106,-106],[106,-106]]",circle,red,hori,left,"[-106,-106]","[106,-106]",left,1,0.7666,,,,,,001,2025-03-18_09h53.53.115,SL_sali_41,2021.2.3,Win32,30.03003003,,,97,0,97,0,1,,,,,,,,
,,"[""circle"",""green"",""vert"",""up"",[106,-106],[0,-150]]",circle,green,vert,up,"[106,-106]","[0,-150]",up,1,0.9335,,,,,,001,2025-03-18_09h53.53.115,SL_sali_41,2021.2.3,Win32,30.03003003,,,98,0,98,0,1,,,,,,,,
,,"[""diamond"",""no_dis"",""vert"",""up"",[99999,99999],[-106,-106]]",diamond,no_dis,vert,up,"[99999,99999]","[-106,-106]",up,1,0.7807,,,,,,001,2025-03-18_09h53.53.115,SL_sali_41,2021.2.3,Win32,30.03003003,,,99,0,99,0,1,,,,,,,,
,,"[""diamond"",""green"",""hori"",""left"",[150,0],[0,150]]",diamond,green,hori,left,"[150,0]","[0,150]",left,1,0.7009,,,,,,001,2025-03-18_09h53.53.115,SL_sali_41,2021.2.3,Win32,30.03003003,,,100,0,100,0,1,,,,,,,,
,,"[""diamond"",""no_dis"",""hori"",""left"",[99999,99999],[106,-106]]",diamond,no_dis,hori,left,"[99999,99999]","[106,-106]",left,1,0.9621,,,,,,001,2025-03-18_09h53.53.115,SL_sali_41,2021.2.3,Win32,30.03003003,,,101,0,101,0,1,,,,,,,,
,,"[""circle"",""red"",""vert"",""up"",[-150,0],[0,-150]]",circle,red,vert,up,"[-150,0]","[0,-150]",up,1,0.8967,,,,,,001,2025-03-18_09h53.53.115,SL_sali_41,2021.2.3,Win32,30.03003003,,,102,0,102,0,1,,,,,,,,
,,"[""diamond"",""red"",""hori"",""left"",[150,0],[-150,0]]",diamond,red,hori,left,"[150,0]","[-150,0]",left,1,0.9316,,,,,,001,2025-03-18_09h53.53.115,SL_sali_41,2021.2.3,Win32,30.03003003,,,103,0,103,0,1,,,,,,,,
,,"[""diamond"",""red"",""hori"",""left"",[150,0],[-106,-106]]",diamond,red,hori,left,"[150,0]","[-106,-106]",left,1,0.8267,,,,,,001,2025-03-18_09h53.53.115,SL_sali_41,2021.2.3,Win32,30.03003003,,,104,0,104,0,1,,,,,,,,
,,"[""circle"",""green"",""hori"",""left"",[106,106],[0,-150]]",circle,green,hori,left,"[106,106]","[0,-150]",left,1,1.1228,,,,,,001,2025-03-18_09h53.53.115,SL_sali_41,2021.2.3,Win32,30.03003003,,,105,0,105,0,1,,,,,,,,
,,"[""diamond"",""red"",""hori"",""left"",[150,0],[-106,106]]",diamond,red,hori,left,"[150,0]","[-106,106]",left,1,0.8184,,,,,,001,2025-03-18_09h53.53.115,SL_sali_41,2021.2.3,Win32,30.03003003,,,106,0,106,0,1,,,,,,,,
,,"[""circle"",""red"",""hori"",""left"",[106,-106],[0,150]]",circle,red,hori,left,"[106,-106]","[0,150]",left,1,0.7369,,,,,,001,2025-03-18_09h53.53.115,SL_sali_41,2021.2.3,Win32,30.03003003,,,107,0,107,0,1,,,,,,,,
,,"[""diamond"",""no_dis"",""vert"",""up"",[99999,99999],[0,-150]]",diamond,no_dis,vert,up,"[99999,99999]","[0,-150]",up,1,0.7023,,,,,,001,2025-03-18_09h53.53.115,SL_sali_41,2021.2.3,Win32,30.03003003,,,108,0,108,0,1,,,,,,,,
,,"[""diamond"",""no_dis"",""vert"",""up"",[99999,99999],[0,150]]",diamond,no_dis,vert,up,"[99999,99999]","[0,150]",up,1,1.1093,,,,,,001,2025-03-18_09h53.53.115,SL_sali_41,2021.2.3,Win32,30.03003003,,,109,0,109,0,1,,,,,,,,
,,"[""diamond"",""green"",""hori"",""left"",[150,0],[-106,-106]]",diamond,green,hori,left,"[150,0]","[-106,-106]",left,1,0.798,,,,,,001,2025-03-18_09h53.53.115,SL_sali_41,2021.2.3,Win32,30.03003003,,,110,0,110,0,1,,,,,,,,
,,"[""diamond"",""green"",""vert"",""up"",[150,0],[-150,0]]",diamond,green,vert,up,"[150,0]","[-150,0]",up,1,0.7651,,,,,,001,2025-03-18_09h53.53.115,SL_sali_41,2021.2.3,Win32,30.03003003,,,111,0,111,0,1,,,,,,,,
,,"[""diamond"",""red"",""hori"",""left"",[0,-150],[-106,-106]]",diamond,red,hori,left,"[0,-150]","[-106,-106]",left,1,0.7962,,,,,,001,2025-03-18_09h53.53.115,SL_sali_41,2021.2.3,Win32,30.03003003,,,112,0,112,0,1,,,,,,,,
,,"[""circle"",""red"",""vert"",""up"",[150,0],[0,150]]",circle,red,vert,up,"[150,0]","[0,150]",up,1,1.5637,,,,,,001,2025-03-18_09h53.53.115,SL_sali_41,2021.2.3,Win32,30.03003003,,,113,0,113,0,1,,,,,,,,
,,"[""circle"",""green"",""vert"",""up"",[-106,-106],[0,-150]]",circle,green,vert,up,"[-106,-106]","[0,-150]",up,1,0.9816,,,,,,001,2025-03-18_09h53.53.115,SL_sali_41,2021.2.3,Win32,30.03003003,,,114,0,114,0,1,,,,,,,,
,,"[""circle"",""green"",""vert"",""up"",[150,0],[-106,106]]",circle,green,vert,up,"[150,0]","[-106,106]",up,1,0.6996,,,,,,001,2025-03-18_09h53.53.115,SL_sali_41,2021.2.3,Win32,30.03003003,,,115,0,115,0,1,,,,,,,,
,,"[""diamond"",""red"",""vert"",""up"",[150,0],[-106,-106]]",diamond,red,vert,up,"[150,0]","[-106,-106]",up,1,0.9966,,,,,,001,2025-03-18_09h53.53.115,SL_sali_41,2021.2.3,Win32,30.03003003,,,116,0,116,0,1,,,,,,,,
,,"[""circle"",""red"",""vert"",""up"",[-150,0],[0,-150]]",circle,red,vert,up,"[-150,0]","[0,-150]",up,1,0.9642,,,,,,001,2025-03-18_09h53.53.115,SL_sali_41,2021.2.3,Win32,30.03003003,,,117,0,117,0,1,,,,,,,,
,,"[""circle"",""red"",""vert"",""up"",[-106,106],[106,-106]]",circle,red,vert,up,"[-106,106]","[106,-106]",up,1,0.8791,,,,,,001,2025-03-18_09h53.53.115,SL_sali_41,2021.2.3,Win32,30.03003003,,,118,0,118,0,1,,,,,,,,
,,"[""circle"",""no_dis"",""hori"",""left"",[99999,99999],[106,106]]",circle,no_dis,hori,left,"[99999,99999]","[106,106]",left,1,0.6495,,,,,,001,2025-03-18_09h53.53.115,SL_sali_41,2021.2.3,Win32,30.03003003,,,119,0,119,0,1,,,,,,,,
,,"[""diamond"",""no_dis"",""hori"",""left"",[99999,99999],[0,-150]]",diamond,no_dis,hori,left,"[99999,99999]","[0,-150]",left,1,1.2481,,,,,,001,2025-03-18_09h53.53.115,SL_sali_41,2021.2.3,Win32,30.03003003,,,120,0,120,0,1,,,,,,,,
,,"[""diamond"",""red"",""vert"",""up"",[106,-106],[-106,106]]",diamond,red,vert,up,"[106,-106]","[-106,106]",up,1,0.8406,,,,,,001,2025-03-18_09h53.53.115,SL_sali_41,2021.2.3,Win32,30.03003003,,,121,0,121,0,1,,,,,,,,
,,"[""circle"",""red"",""vert"",""up"",[150,0],[0,150]]",circle,red,vert,up,"[150,0]","[0,150]",up,1,0.6281,,,,,,001,2025-03-18_09h53.53.115,SL_sali_41,2021.2.3,Win32,30.03003003,,,122,0,122,0,1,,,,,,,,
,,"[""circle"",""green"",""vert"",""up"",[150,0],[106,106]]",circle,green,vert,up,"[150,0]","[106,106]",up,1,0.8498,,,,,,001,2025-03-18_09h53.53.115,SL_sali_41,2021.2.3,Win32,30.03003003,,,123,0,123,0,1,,,,,,,,
,,"[""circle"",""no_dis"",""hori"",""left"",[99999,99999],[106,106]]",circle,no_dis,hori,left,"[99999,99999]","[106,106]",left,1,0.7233,,,,,,001,2025-03-18_09h53.53.115,SL_sali_41,2021.2.3,Win32,30.03003003,,,124,0,124,0,1,,,,,,,,
,,"[""circle"",""green"",""hori"",""left"",[150,0],[-106,-106]]",circle,green,hori,left,"[150,0]","[-106,-106]",left,1,0.7632,,,,,,001,2025-03-18_09h53.53.115,SL_sali_41,2021.2.3,Win32,30.03003003,,,125,0,125,0,1,,,,,,,,
,,"[""circle"",""no_dis"",""vert"",""up"",[99999,99999],[106,106]]",circle,no_dis,vert,up,"[99999,99999]","[106,106]",up,1,0.8482,,,,,,001,2025-03-18_09h53.53.115,SL_sali_41,2021.2.3,Win32,30.03003003,,,126,0,126,0,1,,,,,,,,
,,"[""circle"",""green"",""vert"",""up"",[106,-106],[-106,-106]]",circle,green,vert,up,"[106,-106]","[-106,-106]",up,1,1.0798,,,,,,001,2025-03-18_09h53.53.115,SL_sali_41,2021.2.3,Win32,30.03003003,,,127,0,127,0,1,,,,,,,,
,,,,,,,,,,,,,,,,,001,2025-03-18_09h53.53.115,SL_sali_41,2021.2.3,Win32,30.03003003,,,,,,,,2,space,8.859,1,0,1,0,1
,,"[""circle"",""red"",""vert"",""up"",[150,0],[0,150]]",circle,red,vert,up,"[150,0]","[0,150]",up,1,0.6884,,,,,,001,2025-03-18_09h53.53.115,SL_sali_41,2021.2.3,Win32,30.03003003,,,0,0,0,0,1,,,,,,,,
,,"[""circle"",""red"",""vert"",""up"",[-106,106],[106,-106]]",circle,red,vert,up,"[-106,106]","[106,-106]",up,1,0.6817,,,,,,001,2025-03-18_09h53.53.115,SL_sali_41,2021.2.3,Win32,30.03003003,,,1,0,1,0,1,,,,,,,,
,,"[""diamond"",""green"",""vert"",""up"",[-106,-106],[0,-150]]",diamond,green,vert,up,"[-106,-106]","[0,-150]",up,1,0.9402,,,,,,001,2025-03-18_09h53.53.115,SL_sali_41,2021.2.3,Win32,30.03003003,,,2,0,2,0,1,,,,,,,,
,,"[""diamond"",""green"",""hori"",""left"",[106,106],[-106,-106]]",diamond,green,hori,left,"[106,106]","[-106,-106]",left,1,0.7896,,,,,,001,2025-03-18_09h53.53.115,SL_sali_41,2021.2.3,Win32,30.03003003,,,3,0,3,0,1,,,,,,,,
,,"[""diamond"",""green"",""hori"",""left"",[150,0],[0,-150]]",diamond,green,hori,left,"[150,0]","[0,-150]",left,1,1.1425,,,,,,001,2025-03-18_09h53.53.115,SL_sali_41,2021.2.3,Win32,30.03003003,,,4,0,4,0,1,,,,,,,,
,,"[""circle"",""green"",""vert"",""up"",[150,0],[0,-150]]",circle,green,vert,up,"[150,0]","[0,-150]",up,1,0.8626,,,,,,001,2025-03-18_09h53.53.115,SL_sali_41,2021.2.3,Win32,30.03003003,,,5,0,5,0,1,,,,,,,,
,,"[""diamond"",""no_dis"",""vert"",""up"",[99999,99999],[0,150]]",diamond,no_dis,vert,up,"[99999,99999]","[0,150]",up,1,0.705,,,,,,001,2025-03-18_09h53.53.115,SL_sali_41,2021.2.3,Win32,30.03003003,,,6,0,6,0,1,,,,,,,,
,,"[""diamond"",""no_dis"",""vert"",""up"",[99999,99999],[0,-150]]",diamond,no_dis,vert,up,"[99999,99999]","[0,-150]",up,1,0.6634,,,,,,001,2025-03-18_09h53.53.115,SL_sali_41,2021.2.3,Win32,30.03003003,,,7,0,7,0,1,,,,,,,,
,,"[""circle"",""red"",""hori"",""left"",[-106,-106],[106,-106]]",circle,red,hori,left,"[-106,-106]","[106,-106]",left,1,0.6875,,,,,,001,2025-03-18_09h53.53.115,SL_sali_41,2021.2.3,Win32,30.03003003,,,8,0,8,0,1,,,,,,,,
,,"[""diamond"",""green"",""hori"",""left"",[150,0],[-106,-106]]",diamond,green,hori,left,"[150,0]","[-106,-106]",left,1,0.9306,,,,,,001,2025-03-18_09h53.53.115,SL_sali_41,2021.2.3,Win32,30.03003003,,,9,0,9,0,1,,,,,,,,
,,"[""circle"",""no_dis"",""hori"",""left"",[99999,99999],[-106,-106]]",circle,no_dis,hori,left,"[99999,99999]","[-106,-106]",left,1,0.6724,,,,,,001,2025-03-18_09h53.53.115,SL_sali_41,2021.2.3,Win32,30.03003003,,,10,0,10,0,1,,,,,,,,
,,"[""circle"",""green"",""vert"",""up"",[150,0],[106,106]]",circle,green,vert,up,"[150,0]","[106,106]",up,1,0.6324,,,,,,001,2025-03-18_09h53.53.115,SL_sali_41,2021.2.3,Win32,30.03003003,,,11,0,11,0,1,,,,,,,,
,,"[""circle"",""red"",""hori"",""left"",[0,-150],[150,0]]",circle,red,hori,left,"[0,-150]","[150,0]",left,1,0.8779,,,,,,001,2025-03-18_09h53.53.115,SL_sali_41,2021.2.3,Win32,30.03003003,,,12,0,12,0,1,,,,,,,,
,,"[""diamond"",""red"",""hori"",""left"",[0,-150],[-106,-106]]",diamond,red,hori,left,"[0,-150]","[-106,-106]",left,1,0.9666,,,,,,001,2025-03-18_09h53.53.115,SL_sali_41,2021.2.3,Win32,30.03003003,,,13,0,13,0,1,,,,,,,,
,,"[""circle"",""red"",""vert"",""up"",[150,0],[0,150]]",circle,red,vert,up,"[150,0]","[0,150]",up,1,0.6268,,,,,,001,2025-03-18_09h53.53.115,SL_sali_41,2021.2.3,Win32,30.03003003,,,14,0,14,0,1,,,,,,,,
,,"[""diamond"",""red"",""hori"",""left"",[-150,0],[106,106]]",diamond,red,hori,left,"[-150,0]","[106,106]",left,1,1.2419,,,,,,001,2025-03-18_09h53.53.115,SL_sali_41,2021.2.3,Win32,30.03003003,,,15,0,15,0,1,,,,,,,,
,,"[""diamond"",""red"",""vert"",""up"",[106,-106],[106,106]]",diamond,red,vert,up,"[106,-106]","[106,106]",up,1,0.9033,,,,,,001,2025-03-18_09h53.53.115,SL_sali_41,2021.2.3,Win32,30.03003003,,,16,0,16,0,1,,,,,,,,
,,"[""diamond"",""green"",""vert"",""up"",[-106,106],[-150,0]]",diamond,green,vert,up,"[-106,106]","[-150,0]",up,1,1.1253,,,,,,001,2025-03-18_09h53.53.115,SL_sali_41,2021.2.3,Win32,30.03003003,,,17,0,17,0,1,,,,,,,,
,,"[""circle"",""no_dis"",""hori"",""left"",[99999,99999],[106,-106]]",circle,no_dis,hori,left,"[99999,99999]","[106,-106]",left,1,0.7143,,,,,,001,2025-03-18_09h53.53.115,SL_sali_41,2021.2.3,Win32,30.03003003,,,18,0,18,0,1,,,,,,,,
,,"[""circle"",""red"",""hori"",""left"",[150,0],[-106,-106]]",circle,red,hori,left,"[150,0]","[-106,-106]",left,1,0.6767,,,,,,001,2025-03-18_09h53.53.115,SL_sali_41,2021.2.3,Win32,30.03003003,,,19,0,19,0,1,,,,,,,,
,,"[""circle"",""green"",""vert"",""up"",[150,0],[-150,0]]",circle,green,vert,up,"[150,0]","[-150,0]",up,1,0.7101,,,,,,001,2025-03-18_09h53.53.115,SL_sali_41,2021.2.3,Win32,30.03003003,,,20,0,20,0,1,,,,,,,,
,,"[""circle"",""no_dis"",""hori"",""left"",[99999,99999],[106,-106]]",circle,no_dis,hori,left,"[99999,99999]","[106,-106]",left,1,0.5932,,,,,,001,2025-03-18_09h53.53.115,SL_sali_41,2021.2.3,Win32,30.03003003,,,21,0,21,0,1,,,,,,,,
,,"[""diamond"",""no_dis"",""hori"",""left"",[99999,99999],[106,106]]",diamond,no_dis,hori,left,"[99999,99999]","[106,106]",left,1,0.7879,,,,,,001,2025-03-18_09h53.53.115,SL_sali_41,2021.2.3,Win32,30.03003003,,,22,0,22,0,1,,,,,,,,
,,"[""diamond"",""green"",""vert"",""up"",[150,0],[106,106]]",diamond,green,vert,up,"[150,0]","[106,106]",up,1,0.5769,,,,,,001,2025-03-18_09h53.53.115,SL_sali_41,2021.2.3,Win32,30.03003003,,,23,0,23,0,1,,,,,,,,
,,"[""circle"",""no_dis"",""vert"",""up"",[99999,99999],[0,150]]",circle,no_dis,vert,up,"[99999,99999]","[0,150]",up,1,0.6091,,,,,,001,2025-03-18_09h53.53.115,SL_sali_41,2021.2.3,Win32,30.03003003,,,24,0,24,0,1,,,,,,,,
,,"[""circle"",""no_dis"",""hori"",""left"",[99999,99999],[106,106]]",circle,no_dis,hori,left,"[99999,99999]","[106,106]",left,1,0.5762,,,,,,001,2025-03-18_09h53.53.115,SL_sali_41,2021.2.3,Win32,30.03003003,,,25,0,25,0,1,,,,,,,,
,,"[""circle"",""red"",""hori"",""left"",[-106,106],[-150,0]]",circle,red,hori,left,"[-106,106]","[-150,0]",left,1,1.6215,,,,,,001,2025-03-18_09h53.53.115,SL_sali_41,2021.2.3,Win32,30.03003003,,,26,0,26,0,1,,,,,,,,
,,"[""diamond"",""red"",""hori"",""left"",[106,106],[-106,-106]]",diamond,red,hori,left,"[106,106]","[-106,-106]",left,1,1.1116,,,,,,001,2025-03-18_09h53.53.115,SL_sali_41,2021.2.3,Win32,30.03003003,,,27,0,27,0,1,,,,,,,,
,,"[""circle"",""green"",""vert"",""up"",[-150,0],[-106,-106]]",circle,green,vert,up,"[-150,0]","[-106,-106]",up,1,0.7751,,,,,,001,2025-03-18_09h53.53.115,SL_sali_41,2021.2.3,Win32,30.03003003,,,28,0,28,0,1,,,,,,,,
,,"[""circle"",""no_dis"",""vert"",""up"",[99999,99999],[-150,0]]",circle,no_dis,vert,up,"[99999,99999]","[-150,0]",left,0,0.6697,,,,,,001,2025-03-18_09h53.53.115,SL_sali_41,2021.2.3,Win32,30.03003003,,,29,0,29,0,1,,,,,,,,
,,"[""diamond"",""red"",""vert"",""up"",[0,-150],[-150,0]]",diamond,red,vert,up,"[0,-150]","[-150,0]",up,1,0.8452,,,,,,001,2025-03-18_09h53.53.115,SL_sali_41,2021.2.3,Win32,30.03003003,,,30,0,30,0,1,,,,,,,,
,,"[""diamond"",""red"",""vert"",""up"",[106,-106],[-106,106]]",diamond,red,vert,up,"[106,-106]","[-106,106]",up,1,0.7287,,,,,,001,2025-03-18_09h53.53.115,SL_sali_41,2021.2.3,Win32,30.03003003,,,31,0,31,0,1,,,,,,,,
,,"[""circle"",""no_dis"",""hori"",""left"",[99999,99999],[106,106]]",circle,no_dis,hori,left,"[99999,99999]","[106,106]",left,1,0.5941,,,,,,001,2025-03-18_09h53.53.115,SL_sali_41,2021.2.3,Win32,30.03003003,,,32,0,32,0,1,,,,,,,,
,,"[""diamond"",""red"",""hori"",""left"",[-150,0],[106,106]]",diamond,red,hori,left,"[-150,0]","[106,106]",left,1,0.9161,,,,,,001,2025-03-18_09h53.53.115,SL_sali_41,2021.2.3,Win32,30.03003003,,,33,0,33,0,1,,,,,,,,
,,"[""diamond"",""green"",""vert"",""up"",[150,0],[106,106]]",diamond,green,vert,up,"[150,0]","[106,106]",up,1,0.6463,,,,,,001,2025-03-18_09h53.53.115,SL_sali_41,2021.2.3,Win32,30.03003003,,,34,0,34,0,1,,,,,,,,
,,"[""diamond"",""no_dis"",""hori"",""left"",[99999,99999],[0,150]]",diamond,no_dis,hori,left,"[99999,99999]","[0,150]",left,1,0.7769,,,,,,001,2025-03-18_09h53.53.115,SL_sali_41,2021.2.3,Win32,30.03003003,,,35,0,35,0,1,,,,,,,,
,,"[""circle"",""red"",""hori"",""left"",[-150,0],[0,-150]]",circle,red,hori,left,"[-150,0]","[0,-150]",left,1,0.8011,,,,,,001,2025-03-18_09h53.53.115,SL_sali_41,2021.2.3,Win32,30.03003003,,,36,0,36,0,1,,,,,,,,
,,"[""circle"",""green"",""hori"",""left"",[150,0],[-106,106]]",circle,green,hori,left,"[150,0]","[-106,106]",left,1,0.6552,,,,,,001,2025-03-18_09h53.53.115,SL_sali_41,2021.2.3,Win32,30.03003003,,,37,0,37,0,1,,,,,,,,
,,"[""circle"",""red"",""vert"",""up"",[150,0],[-106,-106]]",circle,red,vert,up,"[150,0]","[-106,-106]",up,1,0.8059,,,,,,001,2025-03-18_09h53.53.115,SL_sali_41,2021.2.3,Win32,30.03003003,,,38,0,38,0,1,,,,,,,,
,,"[""circle"",""green"",""hori"",""left"",[106,106],[0,-150]]",circle,green,hori,left,"[106,106]","[0,-150]",left,1,0.8346,,,,,,001,2025-03-18_09h53.53.115,SL_sali_41,2021.2.3,Win32,30.03003003,,,39,0,39,0,1,,,,,,,,
,,"[""circle"",""green"",""hori"",""left"",[0,-150],[106,-106]]",circle,green,hori,left,"[0,-150]","[106,-106]",left,1,0.6718,,,,,,001,2025-03-18_09h53.53.115,SL_sali_41,2021.2.3,Win32,30.03003003,,,40,0,40,0,1,,,,,,,,
,,"[""circle"",""no_dis"",""vert"",""up"",[99999,99999],[-106,-106]]",circle,no_dis,vert,up,"[99999,99999]","[-106,-106]",up,1,0.7698,,,,,,001,2025-03-18_09h53.53.115,SL_sali_41,2021.2.3,Win32,30.03003003,,,41,0,41,0,1,,,,,,,,
,,"[""diamond"",""red"",""vert"",""up"",[0,150],[106,-106]]",diamond,red,vert,up,"[0,150]","[106,-106]",up,1,1.1775,,,,,,001,2025-03-18_09h53.53.115,SL_sali_41,2021.2.3,Win32,30.03003003,,,42,0,42,0,1,,,,,,,,
,,"[""circle"",""green"",""vert"",""up"",[106,-106],[0,-150]]",circle,green,vert,up,"[106,-106]","[0,-150]",up,1,0.7377,,,,,,001,2025-03-18_09h53.53.115,SL_sali_41,2021.2.3,Win32,30.03003003,,,43,0,43,0,1,,,,,,,,
,,"[""diamond"",""red"",""hori"",""left"",[106,106],[-106,106]]",diamond,red,hori,left,"[106,106]","[-106,106]",up,0,0.8973,,,,,,001,2025-03-18_09h53.53.115,SL_sali_41,2021.2.3,Win32,30.03003003,,,44,0,44,0,1,,,,,,,,
,,"[""circle"",""red"",""vert"",""up"",[-150,0],[0,-150]]",circle,red,vert,up,"[-150,0]","[0,-150]",up,1,0.7668,,,,,,001,2025-03-18_09h53.53.115,SL_sali_41,2021.2.3,Win32,30.03003003,,,45,0,45,0,1,,,,,,,,
,,"[""diamond"",""no_dis"",""vert"",""up"",[99999,99999],[0,150]]",diamond,no_dis,vert,up,"[99999,99999]","[0,150]",up,1,0.6213,,,,,,001,2025-03-18_09h53.53.115,SL_sali_41,2021.2.3,Win32,30.03003003,,,46,0,46,0,1,,,,,,,,
,,"[""diamond"",""no_dis"",""vert"",""up"",[99999,99999],[0,-150]]",diamond,no_dis,vert,up,"[99999,99999]","[0,-150]",up,1,0.6898,,,,,,001,2025-03-18_09h53.53.115,SL_sali_41,2021.2.3,Win32,30.03003003,,,47,0,47,0,1,,,,,,,,
,,"[""circle"",""green"",""hori"",""left"",[-106,106],[106,106]]",circle,green,hori,left,"[-106,106]","[106,106]",left,1,0.6635,,,,,,001,2025-03-18_09h53.53.115,SL_sali_41,2021.2.3,Win32,30.03003003,,,48,0,48,0,1,,,,,,,,
,,"[""diamond"",""no_dis"",""hori"",""left"",[99999,99999],[-106,106]]",diamond,no_dis,hori,left,"[99999,99999]","[-106,106]",left,1,0.7441,,,,,,001,2025-03-18_09h53.53.115,SL_sali_41,2021.2.3,Win32,30.03003003,,,49,0,49,0,1,,,,,,,,
,,"[""diamond"",""green"",""vert"",""up"",[-106,-106],[-106,106]]",diamond,green,vert,up,"[-106,-106]","[-106,106]",up,1,0.9177,,,,,,001,2025-03-18_09h53.53.115,SL_sali_41,2021.2.3,Win32,30.03003003,,,50,0,50,0,1,,,,,,,,
,,"[""diamond"",""green"",""vert"",""up"",[-106,-106],[150,0]]",diamond,green,vert,up,"[-106,-106]","[150,0]",up,1,0.7855,,,,,,001,2025-03-18_09h53.53.115,SL_sali_41,2021.2.3,Win32,30.03003003,,,51,0,51,0,1,,,,,,,,
,,"[""diamond"",""green"",""hori"",""left"",[0,150],[-106,106]]",diamond,green,hori,left,"[0,150]","[-106,106]",left,1,0.7853,,,,,,001,2025-03-18_09h53.53.115,SL_sali_41,2021.2.3,Win32,30.03003003,,,52,0,52,0,1,,,,,,,,
,,"[""circle"",""green"",""vert"",""up"",[0,-150],[-106,-106]]",circle,green,vert,up,"[0,-150]","[-106,-106]",left,0,0.8356,,,,,,001,2025-03-18_09h53.53.115,SL_sali_41,2021.2.3,Win32,30.03003003,,,53,0,53,0,1,,,,,,,,
,,"[""circle"",""red"",""hori"",""left"",[106,-106],[0,150]]",circle,red,hori,left,"[106,-106]","[0,150]",left,1,0.7146,,,,,,001,2025-03-18_09h53.53.115,SL_sali_41,2021.2.3,Win32,30.03003003,,,54,0,54,0,1,,,,,,,,
,,"[""circle"",""no_dis"",""vert"",""up"",[99999,99999],[150,0]]",circle,no_dis,vert,up,"[99999,99999]","[150,0]",up,1,0.7209,,,,,,001,2025-03-18_09h53.53.115,SL_sali_41,2021.2.3,Win32,30.03003003,,,55,0,55,0,1,,,,,,,,
,,"[""circle"",""no_dis"",""hori"",""left"",[99999,99999],[150,0]]",circle,no_dis,hori,left,"[99999,99999]","[150,0]",left,1,0.6425,,,,,,001,2025-03-18_09h53.53.115,SL_sali_41,2021.2.3,Win32,30.03003003,,,56,0,56,0,1,,,,,,,,
,,"[""diamond"",""green"",""vert"",""up"",[0,150],[-150,0]]",diamond,green,vert,up,"[0,150]","[-150,0]",up,1,0.8641,,,,,,001,2025-03-18_09h53.53.115,SL_sali_41,2021.2.3,Win32,30.03003003,,,57,0,57,0,1,,,,,,,,
,,"[""diamond"",""no_dis"",""vert"",""up"",[99999,99999],[-106,-106]]",diamond,no_dis,vert,up,"[99999,99999]","[-106,-106]",up,1,1.0345,,,,,,001,2025-03-18_09h53.53.115,SL_sali_41,2021.2.3,Win32,30.03003003,,,58,0,58,0,1,,,,,,,,
,,"[""diamond"",""red"",""vert"",""up"",[150,0],[-106,106]]",diamond,red,vert,up,"[150,0]","[-106,106]",up,1,0.6122,,,,,,001,2025-03-18_09h53.53.115,SL_sali_41,2021.2.3,Win32,30.03003003,,,59,0,59,0,1,,,,,,,,
,,"[""diamond"",""red"",""hori"",""left"",[150,0],[-106,106]]",diamond,red,hori,left,"[150,0]","[-106,106]",left,1,0.6811,,,,,,001,2025-03-18_09h53.53.115,SL_sali_41,2021.2.3,Win32,30.03003003,,,60,0,60,0,1,,,,,,,,
,,"[""diamond"",""no_dis"",""hori"",""left"",[99999,99999],[150,0]]",diamond,no_dis,hori,left,"[99999,99999]","[150,0]",left,1,1.0348,,,,,,001,2025-03-18_09h53.53.115,SL_sali_41,2021.2.3,Win32,30.03003003,,,61,0,61,0,1,,,,,,,,
,,"[""circle"",""no_dis"",""hori"",""left"",[99999,99999],[-150,0]]",circle,no_dis,hori,left,"[99999,99999]","[-150,0]",left,1,1.018,,,,,,001,2025-03-18_09h53.53.115,SL_sali_41,2021.2.3,Win32,30.03003003,,,62,0,62,0,1,,,,,,,,
,,"[""diamond"",""red"",""hori"",""left"",[-106,106],[0,-150]]",diamond,red,hori,left,"[-106,106]","[0,-150]",left,1,0.9622,,,,,,001,2025-03-18_09h53.53.115,SL_sali_41,2021.2.3,Win32,30.03003003,,,63,0,63,0,1,,,,,,,,
,,"[""circle"",""green"",""vert"",""up"",[150,0],[-106,106]]",circle,green,vert,up,"[150,0]","[-106,106]",up,1,0.5541,,,,,,001,2025-03-18_09h53.53.115,SL_sali_41,2021.2.3,Win32,30.03003003,,,64,0,64,0,1,,,,,,,,
,,"[""circle"",""red"",""hori"",""left"",[150,0],[0,150]]",circle,red,hori,left,"[150,0]","[0,150]",left,1,1.5792,,,,,,001,2025-03-18_09h53.53.115,SL_sali_41,2021.2.3,Win32,30.03003003,,,65,0,65,0,1,,,,,,,,
,,"[""circle"",""green"",""hori"",""left"",[150,0],[-106,-106]]",circle,green,hori,left,"[150,0]","[-106,-106]",left,1,1.0438,,,,,,001,2025-03-18_09h53.53.115,SL_sali_41,2021.2.3,Win32,30.03003003,,,66,0,66,0,1,,,,,,,,
,,"[""diamond"",""red"",""vert"",""up"",[150,0],[106,-106]]",diamond,red,vert,up,"[150,0]","[106,-106]",up,1,0.9425,,,,,,001,2025-03-18_09h53.53.115,SL_sali_41,2021.2.3,Win32,30.03003003,,,67,0,67,0,1,,,,,,,,
,,"[""diamond"",""no_dis"",""hori"",""left"",[99999,99999],[150,0]]",diamond,no_dis,hori,left,"[99999,99999]","[150,0]",left,1,0.7517,,,,,,001,2025-03-18_09h53.53.115,SL_sali_41,2021.2.3,Win32,30.03003003,,,68,0,68,0,1,,,,,,,,
,,"[""circle"",""green"",""vert"",""up"",[106,-106],[-106,-106]]",circle,green,vert,up,"[106,-106]","[-106,-106]",up,1,0.975,,,,,,001,2025-03-18_09h53.53.115,SL_sali_41,2021.2.3,Win32,30.03003003,,,69,0,69,0,1,,,,,,,,
,,"[""diamond"",""red"",""hori"",""left"",[0,-150],[-106,-106]]",diamond,red,hori,left,"[0,-150]","[-106,-106]",left,1,0.8373,,,,,,001,2025-03-18_09h53.53.115,SL_sali_41,2021.2.3,Win32,30.03003003,,,70,0,70,0,1,,,,,,,,
,,"[""diamond"",""no_dis"",""hori"",""left"",[99999,99999],[106,-106]]",diamond,no_dis,hori,left,"[99999,99999]","[106,-106]",left,1,0.7772,,,,,,001,2025-03-18_09h53.53.115,SL_sali_41,2021.2.3,Win32,30.03003003,,,71,0,71,0,1,,,,,,,,
,,"[""circle"",""no_dis"",""vert"",""up"",[99999,99999],[106,106]]",circle,no_dis,vert,up,"[99999,99999]","[106,106]",up,1,0.5757,,,,,,001,2025-03-18_09h53.53.115,SL_sali_41,2021.2.3,Win32,30.03003003,,,72,0,72,0,1,,,,,,,,
,,"[""diamond"",""green"",""hori"",""left"",[150,0],[-150,0]]",diamond,green,hori,left,"[150,0]","[-150,0]",left,1,0.731,,,,,,001,2025-03-18_09h53.53.115,SL_sali_41,2021.2.3,Win32,30.03003003,,,73,0,73,0,1,,,,,,,,
,,"[""diamond"",""green"",""hori"",""left"",[150,0],[0,150]]",diamond,green,hori,left,"[150,0]","[0,150]",left,1,0.649,,,,,,001,2025-03-18_09h53.53.115,SL_sali_41,2021.2.3,Win32,30.03003003,,,74,0,74,0,1,,,,,,,,
,,"[""circle"",""red"",""vert"",""up"",[150,0],[0,-150]]",circle,red,vert,up,"[150,0]","[0,-150]",up,1,1.1356,,,,,,001,2025-03-18_09h53.53.115,SL_sali_41,2021.2.3,Win32,30.03003003,,,75,0,75,0,1,,,,,,,,
,,"[""diamond"",""red"",""hori"",""left"",[150,0],[-106,-106]]",diamond,red,hori,left,"[150,0]","[-106,-106]",left,1,0.8723,,,,,,001,2025-03-18_09h53.53.115,SL_sali_41,2021.2.3,Win32,30.03003003,,,76,0,76,0,1,,,,,,,,
,,"[""circle"",""no_dis"",""vert"",""up"",[99999,99999],[-106,106]]",circle,no_dis,vert,up,"[99999,99999]","[-106,106]",up,1,0.6464,,,,,,001,2025-03-18_09h53.53.115,SL_sali_41,2021.2.3,Win32,30.03003003,,,77,0,77,0,1,,,,,,,,
,,"[""diamond"",""green"",""vert"",""up"",[0,150],[-150,0]]",diamond,green,vert,up,"[0,150]","[-150,0]",up,1,0.9681,,,,,,001,2025-03-18_09h53.53.115,SL_sali_41,2021.2.3,Win32,30.03003003,,,78,0,78,0,1,,,,,,,,
,,"[""circle"",""no_dis"",""vert"",""up"",[99999,99999],[106,-106]]",circle,no_dis,vert,up,"[99999,99999]","[106,-106]",up,1,0.6013,,,,,,001,2025-03-18_09h53.53.115,SL_sali_41,2021.2.3,Win32,30.03003003,,,79,0,79,0,1,,,,,,,,
,,"[""diamond"",""red"",""vert"",""up"",[-106,-106],[-106,106]]",diamond,red,vert,up,"[-106,-106]","[-106,106]",up,1,0.8965,,,,,,001,2025-03-18_09h53.53.115,SL_sali_41,2021.2.3,Win32,30.03003003,,,80,0,80,0,1,,,,,,,,
,,"[""diamond"",""green"",""hori"",""left"",[150,0],[-106,106]]",diamond,green,hori,left,"[150,0]","[-106,106]",left,1,0.9219,,,,,,001,2025-03-18_09h53.53.115,SL_sali_41,2021.2.3,Win32,30.03003003,,,81,0,81,0,1,,,,,,,,
,,"[""diamond"",""red"",""vert"",""up"",[-106,106],[-150,0]]",diamond,red,vert,up,"[-106,106]","[-150,0]",up,1,0.9694,,,,,,001,2025-03-18_09h53.53.115,SL_sali_41,2021.2.3,Win32,30.03003003,,,82,0,82,0,1,,,,,,,,
,,"[""circle"",""no_dis"",""vert"",""up"",[99999,99999],[0,150]]",circle,no_dis,vert,up,"[99999,99999]","[0,150]",up,1,0.5521,,,,,,001,2025-03-18_09h53.53.115,SL_sali_41,2021.2.3,Win32,30.03003003,,,83,0,83,0,1,,,,,,,,
,,"[""circle"",""green"",""hori"",""left"",[0,150],[150,0]]",circle,green,hori,left,"[0,150]","[150,0]",left,1,0.7641,,,,,,001,2025-03-18_09h53.53.115,SL_sali_41,2021.2.3,Win32,30.03003003,,,84,0,84,0,1,,,,,,,,
,,"[""circle"",""green"",""hori"",""left"",[-150,0],[150,0]]",circle,green,hori,left,"[-150,0]","[150,0]",left,1,0.6365,,,,,,001,2025-03-18_09h53.53.115,SL_sali_41,2021.2.3,Win32,30.03003003,,,85,0,85,0,1,,,,,,,,
,,"[""circle"",""no_dis"",""vert"",""up"",[99999,99999],[150,0]]",circle,no_dis,vert,up,"[99999,99999]","[150,0]",up,1,0.6465,,,,,,001,2025-03-18_09h53.53.115,SL_sali_41,2021.2.3,Win32,30.03003003,,,86,0,86,0,1,,,,,,,,
,,"[""diamond"",""no_dis"",""vert"",""up"",[99999,99999],[0,-150]]",diamond,no_dis,vert,up,"[99999,99999]","[0,-150]",up,1,0.9208,,,,,,001,2025-03-18_09h53.53.115,SL_sali_41,2021.2.3,Win32,30.03003003,,,87,0,87,0,1,,,,,,,,
,,"[""circle"",""no_dis"",""hori"",""left"",[99999,99999],[106,106]]",circle,no_dis,hori,left,"[99999,99999]","[106,106]",left,1,0.7365,,,,,,001,2025-03-18_09h53.53.115,SL_sali_41,2021.2.3,Win32,30.03003003,,,88,0,88,0,1,,,,,,,,
,,"[""diamond"",""no_dis"",""hori"",""left"",[99999,99999],[-150,0]]",diamond,no_dis,hori,left,"[99999,99999]","[-150,0]",left,1,0.7794,,,,,,001,2025-03-18_09h53.53.115,SL_sali_41,2021.2.3,Win32,30.03003003,,,89,0,89,0,1,,,,,,,,
,,"[""diamond"",""no_dis"",""hori"",""left"",[99999,99999],[-150,0]]",diamond,no_dis,hori,left,"[99999,99999]","[-150,0]",left,1,0.6467,,,,,,001,2025-03-18_09h53.53.115,SL_sali_41,2021.2.3,Win32,30.03003003,,,90,0,90,0,1,,,,,,,,
,,"[""circle"",""no_dis"",""hori"",""left"",[99999,99999],[-106,106]]",circle,no_dis,hori,left,"[99999,99999]","[-106,106]",left,1,0.7529,,,,,,001,2025-03-18_09h53.53.115,SL_sali_41,2021.2.3,Win32,30.03003003,,,91,0,91,0,1,,,,,,,,
,,"[""circle"",""no_dis"",""vert"",""up"",[99999,99999],[0,-150]]",circle,no_dis,vert,up,"[99999,99999]","[0,-150]",up,1,0.7852,,,,,,001,2025-03-18_09h53.53.115,SL_sali_41,2021.2.3,Win32,30.03003003,,,92,0,92,0,1,,,,,,,,
,,"[""circle"",""red"",""hori"",""left"",[0,-150],[150,0]]",circle,red,hori,left,"[0,-150]","[150,0]",left,1,0.6547,,,,,,001,2025-03-18_09h53.53.115,SL_sali_41,2021.2.3,Win32,30.03003003,,,93,0,93,0,1,,,,,,,,
,,"[""diamond"",""no_dis"",""vert"",""up"",[99999,99999],[-106,106]]",diamond,no_dis,vert,up,"[99999,99999]","[-106,106]",up,1,0.6653,,,,,,001,2025-03-18_09h53.53.115,SL_sali_41,2021.2.3,Win32,30.03003003,,,94,0,94,0,1,,,,,,,,
,,"[""diamond"",""green"",""hori"",""left"",[150,0],[-106,106]]",diamond,green,hori,left,"[150,0]","[-106,106]",left,1,0.7868,,,,,,001,2025-03-18_09h53.53.115,SL_sali_41,2021.2.3,Win32,30.03003003,,,95,0,95,0,1,,,,,,,,
,,"[""circle"",""red"",""hori"",""left"",[150,0],[-106,106]]",circle,red,hori,left,"[150,0]","[-106,106]",left,1,0.6332,,,,,,001,2025-03-18_09h53.53.115,SL_sali_41,2021.2.3,Win32,30.03003003,,,96,0,96,0,1,,,,,,,,
,,"[""circle"",""green"",""hori"",""left"",[106,106],[-150,0]]",circle,green,hori,left,"[106,106]","[-150,0]",left,1,0.6511,,,,,,001,2025-03-18_09h53.53.115,SL_sali_41,2021.2.3,Win32,30.03003003,,,97,0,97,0,1,,,,,,,,
,,"[""diamond"",""red"",""vert"",""up"",[-106,106],[0,150]]",diamond,red,vert,up,"[-106,106]","[0,150]",up,1,0.6498,,,,,,001,2025-03-18_09h53.53.115,SL_sali_41,2021.2.3,Win32,30.03003003,,,98,0,98,0,1,,,,,,,,
,,"[""diamond"",""green"",""hori"",""left"",[0,150],[-150,0]]",diamond,green,hori,left,"[0,150]","[-150,0]",left,1,0.6458,,,,,,001,2025-03-18_09h53.53.115,SL_sali_41,2021.2.3,Win32,30.03003003,,,99,0,99,0,1,,,,,,,,
,,"[""circle"",""red"",""vert"",""up"",[-106,-106],[-150,0]]",circle,red,vert,up,"[-106,-106]","[-150,0]",left,0,0.8198,,,,,,001,2025-03-18_09h53.53.115,SL_sali_41,2021.2.3,Win32,30.03003003,,,100,0,100,0,1,,,,,,,,
,,"[""circle"",""green"",""vert"",""up"",[-106,-106],[0,-150]]",circle,green,vert,up,"[-106,-106]","[0,-150]",up,1,1.1325,,,,,,001,2025-03-18_09h53.53.115,SL_sali_41,2021.2.3,Win32,30.03003003,,,101,0,101,0,1,,,,,,,,
,,"[""circle"",""red"",""hori"",""left"",[106,-106],[-106,-106]]",circle,red,hori,left,"[106,-106]","[-106,-106]",left,1,0.7038,,,,,,001,2025-03-18_09h53.53.115,SL_sali_41,2021.2.3,Win32,30.03003003,,,102,0,102,0,1,,,,,,,,
,,"[""diamond"",""green"",""vert"",""up"",[150,0],[-106,106]]",diamond,green,vert,up,"[150,0]","[-106,106]",up,1,0.8018,,,,,,001,2025-03-18_09h53.53.115,SL_sali_41,2021.2.3,Win32,30.03003003,,,103,0,103,0,1,,,,,,,,
,,"[""diamond"",""red"",""vert"",""up"",[106,106],[-150,0]]",diamond,red,vert,up,"[106,106]","[-150,0]",up,1,0.6628,,,,,,001,2025-03-18_09h53.53.115,SL_sali_41,2021.2.3,Win32,30.03003003,,,104,0,104,0,1,,,,,,,,
,,"[""diamond"",""no_dis"",""hori"",""left"",[99999,99999],[0,-150]]",diamond,no_dis,hori,left,"[99999,99999]","[0,-150]",left,1,0.6442,,,,,,001,2025-03-18_09h53.53.115,SL_sali_41,2021.2.3,Win32,30.03003003,,,105,0,105,0,1,,,,,,,,
,,"[""diamond"",""red"",""vert"",""up"",[150,0],[-106,-106]]",diamond,red,vert,up,"[150,0]","[-106,-106]",up,1,0.7832,,,,,,001,2025-03-18_09h53.53.115,SL_sali_41,2021.2.3,Win32,30.03003003,,,106,0,106,0,1,,,,,,,,
,,"[""diamond"",""green"",""vert"",""up"",[150,0],[0,150]]",diamond,green,vert,up,"[150,0]","[0,150]",up,1,0.5635,,,,,,001,2025-03-18_09h53.53.115,SL_sali_41,2021.2.3,Win32,30.03003003,,,107,0,107,0,1,,,,,,,,
,,"[""diamond"",""red"",""hori"",""left"",[0,150],[106,-106]]",diamond,red,hori,left,"[0,150]","[106,-106]",left,1,0.7962,,,,,,001,2025-03-18_09h53.53.115,SL_sali_41,2021.2.3,Win32,30.03003003,,,108,0,108,0,1,,,,,,,,
,,"[""circle"",""green"",""hori"",""left"",[-106,-106],[-150,0]]",circle,green,hori,left,"[-106,-106]","[-150,0]",up,0,0.9074,,,,,,001,2025-03-18_09h53.53.115,SL_sali_41,2021.2.3,Win32,30.03003003,,,109,0,109,0,1,,,,,,,,
,,"[""circle"",""red"",""vert"",""up"",[-150,0],[0,-150]]",circle,red,vert,up,"[-150,0]","[0,-150]",up,1,1.374,,,,,,001,2025-03-18_09h53.53.115,SL_sali_41,2021.2.3,Win32,30.03003003,,,110,0,110,0,1,,,,,,,,
,,"[""diamond"",""no_dis"",""vert"",""up"",[99999,99999],[-106,-106]]",diamond,no_dis,vert,up,"[99999,99999]","[-106,-106]",up,1,0.9317,,,,,,001,2025-03-18_09h53.53.115,SL_sali_41,2021.2.3,Win32,30.03003003,,,111,0,111,0,1,,,,,,,,
,,"[""circle"",""green"",""hori"",""left"",[0,-150],[0,150]]",circle,green,hori,left,"[0,-150]","[0,150]",left,1,0.8767,,,,,,001,2025-03-18_09h53.53.115,SL_sali_41,2021.2.3,Win32,30.03003003,,,112,0,112,0,1,,,,,,,,
,,"[""circle"",""green"",""vert"",""up"",[150,0],[106,106]]",circle,green,vert,up,"[150,0]","[106,106]",left,0,0.7722,,,,,,001,2025-03-18_09h53.53.115,SL_sali_41,2021.2.3,Win32,30.03003003,,,113,0,113,0,1,,,,,,,,
,,"[""diamond"",""no_dis"",""vert"",""up"",[99999,99999],[-150,0]]",diamond,no_dis,vert,up,"[99999,99999]","[-150,0]",up,1,0.8062,,,,,,001,2025-03-18_09h53.53.115,SL_sali_41,2021.2.3,Win32,30.03003003,,,114,0,114,0,1,,,,,,,,
,,"[""diamond"",""no_dis"",""hori"",""left"",[99999,99999],[106,-106]]",diamond,no_dis,hori,left,"[99999,99999]","[106,-106]",up,0,0.8755,,,,,,001,2025-03-18_09h53.53.115,SL_sali_41,2021.2.3,Win32,30.03003003,,,115,0,115,0,1,,,,,,,,
,,"[""circle"",""red"",""vert"",""up"",[-150,0],[0,-150]]",circle,red,vert,up,"[-150,0]","[0,-150]",up,1,1.3719,,,,,,001,2025-03-18_09h53.53.115,SL_sali_41,2021.2.3,Win32,30.03003003,,,116,0,116,0,1,,,,,,,,
,,"[""circle"",""green"",""hori"",""left"",[150,0],[0,150]]",circle,green,hori,left,"[150,0]","[0,150]",left,1,0.5688,,,,,,001,2025-03-18_09h53.53.115,SL_sali_41,2021.2.3,Win32,30.03003003,,,117,0,117,0,1,,,,,,,,
,,"[""circle"",""no_dis"",""hori"",""left"",[99999,99999],[-106,106]]",circle,no_dis,hori,left,"[99999,99999]","[-106,106]",left,1,0.7811,,,,,,001,2025-03-18_09h53.53.115,SL_sali_41,2021.2.3,Win32,30.03003003,,,118,0,118,0,1,,,,,,,,
,,"[""circle"",""red"",""vert"",""up"",[-106,106],[106,106]]",circle,red,vert,up,"[-106,106]","[106,106]",up,1,0.6965,,,,,,001,2025-03-18_09h53.53.115,SL_sali_41,2021.2.3,Win32,30.03003003,,,119,0,119,0,1,,,,,,,,
,,"[""diamond"",""no_dis"",""vert"",""up"",[99999,99999],[-106,-106]]",diamond,no_dis,vert,up,"[99999,99999]","[-106,-106]",up,1,1.0458,,,,,,001,2025-03-18_09h53.53.115,SL_sali_41,2021.2.3,Win32,30.03003003,,,120,0,120,0,1,,,,,,,,
,,"[""diamond"",""green"",""hori"",""left"",[106,-106],[106,106]]",diamond,green,hori,left,"[106,-106]","[106,106]",left,1,1.4231,,,,,,001,2025-03-18_09h53.53.115,SL_sali_41,2021.2.3,Win32,30.03003003,,,121,0,121,0,1,,,,,,,,
,,"[""circle"",""red"",""hori"",""left"",[106,-106],[150,0]]",circle,red,hori,left,"[106,-106]","[150,0]",left,1,1.0017,,,,,,001,2025-03-18_09h53.53.115,SL_sali_41,2021.2.3,Win32,30.03003003,,,122,0,122,0,1,,,,,,,,
,,"[""circle"",""green"",""vert"",""up"",[106,106],[0,-150]]",circle,green,vert,up,"[106,106]","[0,-150]",up,1,1.0634,,,,,,001,2025-03-18_09h53.53.115,SL_sali_41,2021.2.3,Win32,30.03003003,,,123,0,123,0,1,,,,,,,,
,,"[""diamond"",""green"",""hori"",""left"",[106,106],[-150,0]]",diamond,green,hori,left,"[106,106]","[-150,0]",left,1,0.9411,,,,,,001,2025-03-18_09h53.53.115,SL_sali_41,2021.2.3,Win32,30.03003003,,,124,0,124,0,1,,,,,,,,
,,"[""diamond"",""green"",""vert"",""up"",[150,0],[-150,0]]",diamond,green,vert,up,"[150,0]","[-150,0]",up,1,0.7004,,,,,,001,2025-03-18_09h53.53.115,SL_sali_41,2021.2.3,Win32,30.03003003,,,125,0,125,0,1,,,,,,,,
,,"[""circle"",""red"",""vert"",""up"",[0,150],[0,-150]]",circle,red,vert,up,"[0,150]","[0,-150]",up,1,0.7965,,,,,,001,2025-03-18_09h53.53.115,SL_sali_41,2021.2.3,Win32,30.03003003,,,126,0,126,0,1,,,,,,,,
,,"[""diamond"",""red"",""hori"",""left"",[150,0],[-150,0]]",diamond,red,hori,left,"[150,0]","[-150,0]",left,1,0.7955,,,,,,001,2025-03-18_09h53.53.115,SL_sali_41,2021.2.3,Win32,30.03003003,,,127,0,127,0,1,,,,,,,,
,,,,,,,,,,,,,,,,,001,2025-03-18_09h53.53.115,SL_sali_41,2021.2.3,Win32,30.03003003,,,,,,,,3,space,52.5129,2,0,2,0,1
,,"[""diamond"",""green"",""vert"",""up"",[150,0],[-106,106]]",diamond,green,vert,up,"[150,0]","[-106,106]",up,1,0.8624,,,,,,001,2025-03-18_09h53.53.115,SL_sali_41,2021.2.3,Win32,30.03003003,,,0,0,0,0,1,,,,,,,,
,,"[""diamond"",""red"",""vert"",""up"",[-106,-106],[-106,106]]",diamond,red,vert,up,"[-106,-106]","[-106,106]",up,1,0.9647,,,,,,001,2025-03-18_09h53.53.115,SL_sali_41,2021.2.3,Win32,30.03003003,,,1,0,1,0,1,,,,,,,,
,,"[""diamond"",""no_dis"",""vert"",""up"",[99999,99999],[0,-150]]",diamond,no_dis,vert,up,"[99999,99999]","[0,-150]",up,1,0.7299,,,,,,001,2025-03-18_09h53.53.115,SL_sali_41,2021.2.3,Win32,30.03003003,,,2,0,2,0,1,,,,,,,,
,,"[""diamond"",""no_dis"",""hori"",""left"",[99999,99999],[0,150]]",diamond,no_dis,hori,left,"[99999,99999]","[0,150]",left,1,0.5864,,,,,,001,2025-03-18_09h53.53.115,SL_sali_41,2021.2.3,Win32,30.03003003,,,3,0,3,0,1,,,,,,,,
,,"[""circle"",""red"",""vert"",""up"",[-150,0],[0,-150]]",circle,red,vert,up,"[-150,0]","[0,-150]",up,1,0.776,,,,,,001,2025-03-18_09h53.53.115,SL_sali_41,2021.2.3,Win32,30.03003003,,,4,0,4,0,1,,,,,,,,
,,"[""diamond"",""no_dis"",""hori"",""left"",[99999,99999],[106,-106]]",diamond,no_dis,hori,left,"[99999,99999]","[106,-106]",left,1,0.797,,,,,,001,2025-03-18_09h53.53.115,SL_sali_41,2021.2.3,Win32,30.03003003,,,5,0,5,0,1,,,,,,,,
,,"[""circle"",""no_dis"",""hori"",""left"",[99999,99999],[106,106]]",circle,no_dis,hori,left,"[99999,99999]","[106,106]",left,1,0.7053,,,,,,001,2025-03-18_09h53.53.115,SL_sali_41,2021.2.3,Win32,30.03003003,,,6,0,6,0,1,,,,,,,,
,,"[""circle"",""red"",""hori"",""left"",[-150,0],[0,-150]]",circle,red,hori,left,"[-150,0]","[0,-150]",left,1,0.8651,,,,,,001,2025-03-18_09h53.53.115,SL_sali_41,2021.2.3,Win32,30.03003003,,,7,0,7,0,1,,,,,,,,
,,"[""circle"",""red"",""hori"",""left"",[106,-106],[0,150]]",circle,red,hori,left,"[106,-106]","[0,150]",left,1,0.645,,,,,,001,2025-03-18_09h53.53.115,SL_sali_41,2021.2.3,Win32,30.03003003,,,8,0,8,0,1,,,,,,,,
,,"[""diamond"",""red"",""vert"",""up"",[106,106],[-150,0]]",diamond,red,vert,up,"[106,106]","[-150,0]",up,1,0.7832,,,,,,001,2025-03-18_09h53.53.115,SL_sali_41,2021.2.3,Win32,30.03003003,,,9,0,9,0,1,,,,,,,,
,,"[""circle"",""green"",""hori"",""left"",[106,106],[-150,0]]",circle,green,hori,left,"[106,106]","[-150,0]",left,1,0.7478,,,,,,001,2025-03-18_09h53.53.115,SL_sali_41,2021.2.3,Win32,30.03003003,,,10,0,10,0,1,,,,,,,,
,,"[""circle"",""green"",""vert"",""up"",[150,0],[106,106]]",circle,green,vert,up,"[150,0]","[106,106]",up,1,0.6695,,,,,,001,2025-03-18_09h53.53.115,SL_sali_41,2021.2.3,Win32,30.03003003,,,11,0,11,0,1,,,,,,,,
,,"[""circle"",""red"",""hori"",""left"",[-106,-106],[106,-106]]",circle,red,hori,left,"[-106,-106]","[106,-106]",left,1,0.8269,,,,,,001,2025-03-18_09h53.53.115,SL_sali_41,2021.2.3,Win32,30.03003003,,,12,0,12,0,1,,,,,,,,
,,"[""circle"",""green"",""vert"",""up"",[106,-106],[-106,-106]]",circle,green,vert,up,"[106,-106]","[-106,-106]",left,0,0.9914,,,,,,001,2025-03-18_09h53.53.115,SL_sali_41,2021.2.3,Win32,30.03003003,,,13,0,13,0,1,,,,,,,,
,,"[""diamond"",""green"",""vert"",""up"",[-106,106],[-150,0]]",diamond,green,vert,up,"[-106,106]","[-150,0]",up,1,0.876,,,,,,001,2025-03-18_09h53.53.115,SL_sali_41,2021.2.3,Win32,30.03003003,,,14,0,14,0,1,,,,,,,,
,,"[""circle"",""green"",""vert"",""up"",[0,-150],[-106,-106]]",circle,green,vert,up,"[0,-150]","[-106,-106]",up,1,1.1874,,,,,,001,2025-03-18_09h53.53.115,SL_sali_41,2021.2.3,Win32,30.03003003,,,15,0,15,0,1,,,,,,,,
,,"[""circle"",""no_dis"",""hori"",""left"",[99999,99999],[106,-106]]",circle,no_dis,hori,left,"[99999,99999]","[106,-106]",left,1,0.6875,,,,,,001,2025-03-18_09h53.53.115,SL_sali_41,2021.2.3,Win32,30.03003003,,,16,0,16,0,1,,,,,,,,
,,"[""diamond"",""red"",""hori"",""left"",[0,150],[106,-106]]",diamond,red,hori,left,"[0,150]","[106,-106]",left,1,1.3467,,,,,,001,2025-03-18_09h53.53.115,SL_sali_41,2021.2.3,Win32,30.03003003,,,17,0,17,0,1,,,,,,,,
,,"[""circle"",""green"",""hori"",""left"",[-106,-106],[-150,0]]",circle,green,hori,left,"[-106,-106]","[-150,0]",left,1,0.9164,,,,,,001,2025-03-18_09h53.53.115,SL_sali_41,2021.2.3,Win32,30.03003003,,,18,0,18,0,1,,,,,,,,
,,"[""diamond"",""red"",""hori"",""left"",[150,0],[-106,-106]]",diamond,red,hori,left,"[150,0]","[-106,-106]",up,0,1.0157,,,,,,001,2025-03-18_09h53.53.115,SL_sali_41,2021.2.3,Win32,30.03003003,,,19,0,19,0,1,,,,,,,,
,,"[""diamond"",""red"",""vert"",""up"",[106,-106],[106,106]]",diamond,red,vert,up,"[106,-106]","[106,106]",up,1,0.8708,,,,,,001,2025-03-18_09h53.53.115,SL_sali_41,2021.2.3,Win32,30.03003003,,,20,0,20,0,1,,,,,,,,
,,"[""circle"",""green"",""hori"",""left"",[-150,0],[150,0]]",circle,green,hori,left,"[-150,0]","[150,0]",left,1,1.0183,,,,,,001,2025-03-18_09h53.53.115,SL_sali_41,2021.2.3,Win32,30.03003003,,,21,0,21,0,1,,,,,,,,
,,"[""diamond"",""green"",""vert"",""up"",[-106,-106],[-106,106]]",diamond,green,vert,up,"[-106,-106]","[-106,106]",up,1,0.7364,,,,,,001,2025-03-18_09h53.53.115,SL_sali_41,2021.2.3,Win32,30.03003003,,,22,0,22,0,1,,,,,,,,
,,"[""diamond"",""green"",""vert"",""up"",[150,0],[106,106]]",diamond,green,vert,up,"[150,0]","[106,106]",up,1,0.7572,,,,,,001,2025-03-18_09h53.53.115,SL_sali_41,2021.2.3,Win32,30.03003003,,,23,0,23,0,1,,,,,,,,
,,"[""diamond"",""green"",""hori"",""left"",[150,0],[0,-150]]",diamond,green,hori,left,"[150,0]","[0,-150]",left,1,0.7438,,,,,,001,2025-03-18_09h53.53.115,SL_sali_41,2021.2.3,Win32,30.03003003,,,24,0,24,0,1,,,,,,,,
,,"[""circle"",""no_dis"",""hori"",""left"",[99999,99999],[106,-106]]",circle,no_dis,hori,left,"[99999,99999]","[106,-106]",left,1,0.7559,,,,,,001,2025-03-18_09h53.53.115,SL_sali_41,2021.2.3,Win32,30.03003003,,,25,0,25,0,1,,,,,,,,
,,"[""circle"",""red"",""hori"",""left"",[0,-150],[150,0]]",circle,red,hori,left,"[0,-150]","[150,0]",left,1,0.5996,,,,,,001,2025-03-18_09h53.53.115,SL_sali_41,2021.2.3,Win32,30.03003003,,,26,0,26,0,1,,,,,,,,
,,"[""diamond"",""no_dis"",""hori"",""left"",[99999,99999],[150,0]]",diamond,no_dis,hori,left,"[99999,99999]","[150,0]",left,1,0.8928,,,,,,001,2025-03-18_09h53.53.115,SL_sali_41,2021.2.3,Win32,30.03003003,,,27,0,27,0,1,,,,,,,,
,,"[""circle"",""no_dis"",""hori"",""left"",[99999,99999],[-106,106]]",circle,no_dis,hori,left,"[99999,99999]","[-106,106]",up,0,0.7001,,,,,,001,2025-03-18_09h53.53.115,SL_sali_41,2021.2.3,Win32,30.03003003,,,28,0,28,0,1,,,,,,,,
,,"[""circle"",""red"",""vert"",""up"",[150,0],[0,-150]]",circle,red,vert,up,"[150,0]","[0,-150]",up,1,0.915,,,,,,001,2025-03-18_09h53.53.115,SL_sali_41,2021.2.3,Win32,30.03003003,,,29,0,29,0,1,,,,,,,,
,,"[""circle"",""green"",""vert"",""up"",[150,0],[106,106]]",circle,green,vert,up,"[150,0]","[106,106]",up,1,1.5063,,,,,,001,2025-03-18_09h53.53.115,SL_sali_41,2021.2.3,Win32,30.03003003,,,30,0,30,0,1,,,,,,,,
,,"[""diamond"",""green"",""hori"",""left"",[150,0],[-106,106]]",diamond,green,hori,left,"[150,0]","[-106,106]",left,1,0.7695,,,,,,001,2025-03-18_09h53.53.115,SL_sali_41,2021.2.3,Win32,30.03003003,,,31,0,31,0,1,,,,,,,,
,,"[""circle"",""green"",""vert"",""up"",[-106,-106],[0,-150]]",circle,green,vert,up,"[-106,-106]","[0,-150]",up,1,0.864,,,,,,001,2025-03-18_09h53.53.115,SL_sali_41,2021.2.3,Win32,30.03003003,,,32,0,32,0,1,,,,,,,,
,,"[""circle"",""no_dis"",""vert"",""up"",[99999,99999],[-150,0]]",circle,no_dis,vert,up,"[99999,99999]","[-150,0]",up,1,0.8345,,,,,,001,2025-03-18_09h53.53.115,SL_sali_41,2021.2.3,Win32,30.03003003,,,33,0,33,0,1,,,,,,,,
,,"[""diamond"",""red"",""hori"",""left"",[150,0],[-150,0]]",diamond,red,hori,left,"[150,0]","[-150,0]",left,1,1.1012,,,,,,001,2025-03-18_09h53.53.115,SL_sali_41,2021.2.3,Win32,30.03003003,,,34,0,34,0,1,,,,,,,,
,,"[""diamond"",""no_dis"",""vert"",""up"",[99999,99999],[-106,-106]]",diamond,no_dis,vert,up,"[99999,99999]","[-106,-106]",up,1,1.2859,,,,,,001,2025-03-18_09h53.53.115,SL_sali_41,2021.2.3,Win32,30.03003003,,,35,0,35,0,1,,,,,,,,
,,"[""circle"",""red"",""vert"",""up"",[-150,0],[0,-150]]",circle,red,vert,up,"[-150,0]","[0,-150]",up,1,0.6737,,,,,,001,2025-03-18_09h53.53.115,SL_sali_41,2021.2.3,Win32,30.03003003,,,36,0,36,0,1,,,,,,,,
,,"[""diamond"",""no_dis"",""vert"",""up"",[99999,99999],[-106,-106]]",diamond,no_dis,vert,up,"[99999,99999]","[-106,-106]",up,1,0.9831,,,,,,001,2025-03-18_09h53.53.115,SL_sali_41,2021.2.3,Win32,30.03003003,,,37,0,37,0,1,,,,,,,,
,,"[""diamond"",""green"",""vert"",""up"",[-106,-106],[150,0]]",diamond,green,vert,up,"[-106,-106]","[150,0]",up,1,1.3874,,,,,,001,2025-03-18_09h53.53.115,SL_sali_41,2021.2.3,Win32,30.03003003,,,38,0,38,0,1,,,,,,,,
,,"[""diamond"",""no_dis"",""vert"",""up"",[99999,99999],[0,-150]]",diamond,no_dis,vert,up,"[99999,99999]","[0,-150]",up,1,0.6152,,,,,,001,2025-03-18_09h53.53.115,SL_sali_41,2021.2.3,Win32,30.03003003,,,39,0,39,0,1,,,,,,,,
,,"[""diamond"",""no_dis"",""vert"",""up"",[99999,99999],[0,150]]",diamond,no_dis,vert,up,"[99999,99999]","[0,150]",up,1,0.5629,,,,,,001,2025-03-18_09h53.53.115,SL_sali_41,2021.2.3,Win32,30.03003003,,,40,0,40,0,1,,,,,,,,
,,"[""diamond"",""green"",""vert"",""up"",[-106,-106],[0,-150]]",diamond,green,vert,up,"[-106,-106]","[0,-150]",up,1,0.8077,,,,,,001,2025-03-18_09h53.53.115,SL_sali_41,2021.2.3,Win32,30.03003003,,,41,0,41,0,1,,,,,,,,
,,"[""circle"",""red"",""hori"",""left"",[150,0],[-106,106]]",circle,red,hori,left,"[150,0]","[-106,106]",left,1,0.6837,,,,,,001,2025-03-18_09h53.53.115,SL_sali_41,2021.2.3,Win32,30.03003003,,,42,0,42,0,1,,,,,,,,
,,"[""diamond"",""green"",""hori"",""left"",[150,0],[-106,106]]",diamond,green,hori,left,"[150,0]","[-106,106]",left,1,0.7067,,,,,,001,2025-03-18_09h53.53.115,SL_sali_41,2021.2.3,Win32,30.03003003,,,43,0,43,0,1,,,,,,,,
,,"[""circle"",""no_dis"",""hori"",""left"",[99999,99999],[150,0]]",circle,no_dis,hori,left,"[99999,99999]","[150,0]",left,1,0.6334,,,,,,001,2025-03-18_09h53.53.115,SL_sali_41,2021.2.3,Win32,30.03003003,,,44,0,44,0,1,,,,,,,,
,,"[""diamond"",""red"",""vert"",""up"",[150,0],[-106,106]]",diamond,red,vert,up,"[150,0]","[-106,106]",up,1,0.637,,,,,,001,2025-03-18_09h53.53.115,SL_sali_41,2021.2.3,Win32,30.03003003,,,45,0,45,0,1,,,,,,,,
,,"[""circle"",""green"",""vert"",""up"",[150,0],[-106,106]]",circle,green,vert,up,"[150,0]","[-106,106]",up,1,1.1624,,,,,,001,2025-03-18_09h53.53.115,SL_sali_41,2021.2.3,Win32,30.03003003,,,46,0,46,0,1,,,,,,,,
,,"[""circle"",""red"",""hori"",""left"",[106,-106],[150,0]]",circle,red,hori,left,"[106,-106]","[150,0]",left,1,0.6336,,,,,,001,2025-03-18_09h53.53.115,SL_sali_41,2021.2.3,Win32,30.03003003,,,47,0,47,0,1,,,,,,,,
,,"[""diamond"",""green"",""vert"",""up"",[150,0],[0,150]]",diamond,green,vert,up,"[150,0]","[0,150]",up,1,0.6567,,,,,,001,2025-03-18_09h53.53.115,SL_sali_41,2021.2.3,Win32,30.03003003,,,48,0,48,0,1,,,,,,,,
,,"[""diamond"",""green"",""hori"",""left"",[0,150],[-106,106]]",diamond,green,hori,left,"[0,150]","[-106,106]",left,1,0.9542,,,,,,001,2025-03-18_09h53.53.115,SL_sali_41,2021.2.3,Win32,30.03003003,,,49,0,49,0,1,,,,,,,,
,,"[""diamond"",""green"",""hori"",""left"",[150,0],[-106,-106]]",diamond,green,hori,left,"[150,0]","[-106,-106]",left,1,0.7998,,,,,,001,2025-03-18_09h53.53.115,SL_sali_41,2021.2.3,Win32,30.03003003,,,50,0,50,0,1,,,,,,,,
,,"[""diamond"",""red"",""hori"",""left"",[0,-150],[-106,-106]]",diamond,red,hori,left,"[0,-150]","[-106,-106]",left,1,0.8818,,,,,,001,2025-03-18_09h53.53.115,SL_sali_41,2021.2.3,Win32,30.03003003,,,51,0,51,0,1,,,,,,,,
,,"[""circle"",""red"",""hori"",""left"",[0,-150],[150,0]]",circle,red,hori,left,"[0,-150]","[150,0]",up,0,0.8337,,,,,,001,2025-03-18_09h53.53.115,SL_sali_41,2021.2.3,Win32,30.03003003,,,52,0,52,0,1,,,,,,,,
,,"[""diamond"",""red"",""vert"",""up"",[-106,106],[-150,0]]",diamond,red,vert,up,"[-106,106]","[-150,0]",up,1,1.0454,,,,,,001,2025-03-18_09h53.53.115,SL_sali_41,2021.2.3,Win32,30.03003003,,,53,0,53,0,1,,,,,,,,
,,"[""diamond"",""red"",""vert"",""up"",[106,-106],[-106,106]]",diamond,red,vert,up,"[106,-106]","[-106,106]",up,1,0.7148,,,,,,001,2025-03-18_09h53.53.115,SL_sali_41,2021.2.3,Win32,30.03003003,,,54,0,54,0,1,,,,,,,,
,,"[""diamond"",""no_dis"",""hori"",""left"",[99999,99999],[-106,106]]",diamond,no_dis,hori,left,"[99999,99999]","[-106,106]",left,1,0.7788,,,,,,001,2025-03-18_09h53.53.115,SL_sali_41,2021.2.3,Win32,30.03003003,,,55,0,55,0,1,,,,,,,,
,,"[""diamond"",""no_dis"",""vert"",""up"",[99999,99999],[-150,0]]",diamond,no_dis,vert,up,"[99999,99999]","[-150,0]",up,1,0.7844,,,,,,001,2025-03-18_09h53.53.115,SL_sali_41,2021.2.3,Win32,30.03003003,,,56,0,56,0,1,,,,,,,,
,,"[""circle"",""no_dis"",""hori"",""left"",[99999,99999],[106,106]]",circle,no_dis,hori,left,"[99999,99999]","[106,106]",up,0,0.8332,,,,,,001,2025-03-18_09h53.53.115,SL_sali_41,2021.2.3,Win32,30.03003003,,,57,0,57,0,1,,,,,,,,
,,"[""diamond"",""red"",""hori"",""left"",[-106,106],[0,-150]]",diamond,red,hori,left,"[-106,106]","[0,-150]",up,0,0.9094,,,,,,001,2025-03-18_09h53.53.115,SL_sali_41,2021.2.3,Win32,30.03003003,,,58,0,58,0,1,,,,,,,,
,,"[""circle"",""green"",""hori"",""left"",[150,0],[-106,-106]]",circle,green,hori,left,"[150,0]","[-106,-106]",left,1,0.9838,,,,,,001,2025-03-18_09h53.53.115,SL_sali_41,2021.2.3,Win32,30.03003003,,,59,0,59,0,1,,,,,,,,
,,"[""circle"",""no_dis"",""hori"",""left"",[99999,99999],[106,106]]",circle,no_dis,hori,left,"[99999,99999]","[106,106]",up,0,1.0023,,,,,,001,2025-03-18_09h53.53.115,SL_sali_41,2021.2.3,Win32,30.03003003,,,60,0,60,0,1,,,,,,,,
,,"[""circle"",""red"",""vert"",""up"",[150,0],[-106,-106]]",circle,red,vert,up,"[150,0]","[-106,-106]",up,1,1.3089,,,,,,001,2025-03-18_09h53.53.115,SL_sali_41,2021.2.3,Win32,30.03003003,,,61,0,61,0,1,,,,,,,,
