﻿key_resp.keys,key_resp.rt,trial_para,tar_shape,dis_color_condi,tar_line,cor_resp,dis_loc,tar_loc,resp.keys,resp.corr,resp.rt,trials.thisRepN,trials.thisTrialN,trials.thisN,trials.thisIndex,trials.ran,participant,date,expName,psychopyVersion,OS,frameRate,key_resp_2.keys,key_resp_2.rt,trials_2.thisRepN,trials_2.thisTrialN,trials_2.thisN,trials_2.thisIndex,trials_2.ran,block_num,key_resp_3.keys,key_resp_3.rt,trials_3.thisRepN,trials_3.thisTrialN,trials_3.thisN,trials_3.thisIndex,trials_3.ran
space,24.4229,"[""diamond"",""no_dis"",""hori"",""left"",[99999,99999],[150,0]]",diamond,no_dis,hori,left,"[99999,99999]","[150,0]",left,1,1.4154,0,0,0,0,1,001,2025-03-10_16h52.54.584,SL_sali_41,2021.2.3,Win32,147.0588235,,,,,,,,,,,,,,,
,,"[""circle"",""no_dis"",""hori"",""left"",[99999,99999],[0,150]]",circle,no_dis,hori,left,"[99999,99999]","[0,150]",left,1,1.7266,1,0,1,0,1,001,2025-03-10_16h52.54.584,SL_sali_41,2021.2.3,Win32,147.0588235,,,,,,,,,,,,,,,
,,"[""diamond"",""no_dis"",""hori"",""left"",[99999,99999],[150,0]]",diamond,no_dis,hori,left,"[99999,99999]","[150,0]",left,1,1.7543,2,0,2,0,1,001,2025-03-10_16h52.54.584,SL_sali_41,2021.2.3,Win32,147.0588235,,,,,,,,,,,,,,,
,,"[""circle"",""green"",""hori"",""left"",[0,150],[106,-106]]",circle,green,hori,left,"[0,150]","[106,-106]",left,1,1.6249,3,0,3,0,1,001,2025-03-10_16h52.54.584,SL_sali_41,2021.2.3,Win32,147.0588235,,,,,,,,,,,,,,,
,,"[""circle"",""no_dis"",""hori"",""left"",[99999,99999],[106,106]]",circle,no_dis,hori,left,"[99999,99999]","[106,106]",left,1,1.356,4,0,4,0,1,001,2025-03-10_16h52.54.584,SL_sali_41,2021.2.3,Win32,147.0588235,,,,,,,,,,,,,,,
,,"[""diamond"",""green"",""vert"",""up"",[0,-150],[-106,106]]",diamond,green,vert,up,"[0,-150]","[-106,106]",up,1,0.9211,5,0,5,0,1,001,2025-03-10_16h52.54.584,SL_sali_41,2021.2.3,Win32,147.0588235,,,,,,,,,,,,,,,
,,"[""diamond"",""red"",""hori"",""left"",[-150,0],[106,-106]]",diamond,red,hori,left,"[-150,0]","[106,-106]",left,1,1.1109,6,0,6,0,1,001,2025-03-10_16h52.54.584,SL_sali_41,2021.2.3,Win32,147.0588235,,,,,,,,,,,,,,,
,,"[""circle"",""green"",""hori"",""left"",[106,106],[-150,0]]",circle,green,hori,left,"[106,106]","[-150,0]",left,1,1.2344,7,0,7,0,1,001,2025-03-10_16h52.54.584,SL_sali_41,2021.2.3,Win32,147.0588235,,,,,,,,,,,,,,,
,,"[""circle"",""green"",""hori"",""left"",[0,150],[-150,0]]",circle,green,hori,left,"[0,150]","[-150,0]",left,1,0.9409,8,0,8,0,1,001,2025-03-10_16h52.54.584,SL_sali_41,2021.2.3,Win32,147.0588235,,,,,,,,,,,,,,,
,,"[""circle"",""no_dis"",""vert"",""up"",[99999,99999],[0,-150]]",circle,no_dis,vert,up,"[99999,99999]","[0,-150]",up,1,1.5258,9,0,9,0,1,001,2025-03-10_16h52.54.584,SL_sali_41,2021.2.3,Win32,147.0588235,,,,,,,,,,,,,,,
,,"[""diamond"",""no_dis"",""hori"",""left"",[99999,99999],[150,0]]",diamond,no_dis,hori,left,"[99999,99999]","[150,0]",left,1,1.0098,,,,,,001,2025-03-10_16h52.54.584,SL_sali_41,2021.2.3,Win32,147.0588235,space,8.2699,0,0,0,0,1,,,,,,,,
,,"[""circle"",""no_dis"",""hori"",""left"",[99999,99999],[0,150]]",circle,no_dis,hori,left,"[99999,99999]","[0,150]",left,1,1.3131,,,,,,001,2025-03-10_16h52.54.584,SL_sali_41,2021.2.3,Win32,147.0588235,,,1,0,1,0,1,,,,,,,,
,,"[""diamond"",""no_dis"",""hori"",""left"",[99999,99999],[150,0]]",diamond,no_dis,hori,left,"[99999,99999]","[150,0]",left,1,1.7921,,,,,,001,2025-03-10_16h52.54.584,SL_sali_41,2021.2.3,Win32,147.0588235,,,2,0,2,0,1,,,,,,,,
,,"[""circle"",""green"",""hori"",""left"",[0,150],[106,-106]]",circle,green,hori,left,"[0,150]","[106,-106]",left,1,1.1161,,,,,,001,2025-03-10_16h52.54.584,SL_sali_41,2021.2.3,Win32,147.0588235,,,3,0,3,0,1,,,,,,,,
,,"[""circle"",""no_dis"",""hori"",""left"",[99999,99999],[106,106]]",circle,no_dis,hori,left,"[99999,99999]","[106,106]",left,1,1.364,,,,,,001,2025-03-10_16h52.54.584,SL_sali_41,2021.2.3,Win32,147.0588235,,,4,0,4,0,1,,,,,,,,
,,"[""diamond"",""green"",""vert"",""up"",[0,-150],[-106,106]]",diamond,green,vert,up,"[0,-150]","[-106,106]",up,1,0.9904,,,,,,001,2025-03-10_16h52.54.584,SL_sali_41,2021.2.3,Win32,147.0588235,,,5,0,5,0,1,,,,,,,,
,,"[""diamond"",""red"",""hori"",""left"",[-150,0],[106,-106]]",diamond,red,hori,left,"[-150,0]","[106,-106]",left,1,0.8122,,,,,,001,2025-03-10_16h52.54.584,SL_sali_41,2021.2.3,Win32,147.0588235,,,6,0,6,0,1,,,,,,,,
,,"[""circle"",""green"",""hori"",""left"",[106,106],[-150,0]]",circle,green,hori,left,"[106,106]","[-150,0]",up,0,1.043,,,,,,001,2025-03-10_16h52.54.584,SL_sali_41,2021.2.3,Win32,147.0588235,,,7,0,7,0,1,,,,,,,,
,,"[""circle"",""green"",""hori"",""left"",[0,150],[-150,0]]",circle,green,hori,left,"[0,150]","[-150,0]",left,1,0.9908,,,,,,001,2025-03-10_16h52.54.584,SL_sali_41,2021.2.3,Win32,147.0588235,,,8,0,8,0,1,,,,,,,,
,,"[""circle"",""no_dis"",""vert"",""up"",[99999,99999],[0,-150]]",circle,no_dis,vert,up,"[99999,99999]","[0,-150]",up,1,1.2341,,,,,,001,2025-03-10_16h52.54.584,SL_sali_41,2021.2.3,Win32,147.0588235,,,9,0,9,0,1,,,,,,,,
,,"[""circle"",""green"",""hori"",""left"",[0,150],[-106,-106]]",circle,green,hori,left,"[0,150]","[-106,-106]",up,0,0.9863,,,,,,001,2025-03-10_16h52.54.584,SL_sali_41,2021.2.3,Win32,147.0588235,,,10,0,10,0,1,,,,,,,,
,,"[""diamond"",""red"",""vert"",""up"",[-106,-106],[-106,106]]",diamond,red,vert,up,"[-106,-106]","[-106,106]",up,1,0.8854,,,,,,001,2025-03-10_16h52.54.584,SL_sali_41,2021.2.3,Win32,147.0588235,,,11,0,11,0,1,,,,,,,,
,,"[""circle"",""red"",""hori"",""left"",[-150,0],[106,-106]]",circle,red,hori,left,"[-150,0]","[106,-106]",left,1,0.8833,,,,,,001,2025-03-10_16h52.54.584,SL_sali_41,2021.2.3,Win32,147.0588235,,,12,0,12,0,1,,,,,,,,
,,"[""diamond"",""green"",""hori"",""left"",[-106,-106],[-106,106]]",diamond,green,hori,left,"[-106,-106]","[-106,106]",up,0,1.1784,,,,,,001,2025-03-10_16h52.54.584,SL_sali_41,2021.2.3,Win32,147.0588235,,,13,0,13,0,1,,,,,,,,
,,"[""circle"",""green"",""hori"",""left"",[106,106],[106,-106]]",circle,green,hori,left,"[106,106]","[106,-106]",left,1,1.1414,,,,,,001,2025-03-10_16h52.54.584,SL_sali_41,2021.2.3,Win32,147.0588235,,,14,0,14,0,1,,,,,,,,
,,"[""circle"",""red"",""vert"",""up"",[106,-106],[-150,0]]",circle,red,vert,up,"[106,-106]","[-150,0]",up,1,2.0362,,,,,,001,2025-03-10_16h52.54.584,SL_sali_41,2021.2.3,Win32,147.0588235,,,15,0,15,0,1,,,,,,,,
,,"[""circle"",""red"",""vert"",""up"",[0,150],[-106,-106]]",circle,red,vert,up,"[0,150]","[-106,-106]",left,0,1.079,,,,,,001,2025-03-10_16h52.54.584,SL_sali_41,2021.2.3,Win32,147.0588235,,,16,0,16,0,1,,,,,,,,
,,"[""diamond"",""no_dis"",""hori"",""left"",[99999,99999],[-106,-106]]",diamond,no_dis,hori,left,"[99999,99999]","[-106,-106]",left,1,1.6657,,,,,,001,2025-03-10_16h52.54.584,SL_sali_41,2021.2.3,Win32,147.0588235,,,17,0,17,0,1,,,,,,,,
,,"[""circle"",""green"",""vert"",""up"",[106,106],[0,-150]]",circle,green,vert,up,"[106,106]","[0,-150]",left,0,0.9181,,,,,,001,2025-03-10_16h52.54.584,SL_sali_41,2021.2.3,Win32,147.0588235,,,18,0,18,0,1,,,,,,,,
,,"[""diamond"",""red"",""hori"",""left"",[-106,106],[0,150]]",diamond,red,hori,left,"[-106,106]","[0,150]",up,0,1.5072,,,,,,001,2025-03-10_16h52.54.584,SL_sali_41,2021.2.3,Win32,147.0588235,,,19,0,19,0,1,,,,,,,,
,,"[""diamond"",""green"",""vert"",""up"",[0,150],[150,0]]",diamond,green,vert,up,"[0,150]","[150,0]",left,0,1.1733,,,,,,001,2025-03-10_16h52.54.584,SL_sali_41,2021.2.3,Win32,147.0588235,,,20,0,20,0,1,,,,,,,,
,,"[""circle"",""green"",""vert"",""up"",[-106,106],[0,150]]",circle,green,vert,up,"[-106,106]","[0,150]",up,1,1.5388,,,,,,001,2025-03-10_16h52.54.584,SL_sali_41,2021.2.3,Win32,147.0588235,,,21,0,21,0,1,,,,,,,,
,,"[""circle"",""red"",""vert"",""up"",[106,106],[106,-106]]",circle,red,vert,up,"[106,106]","[106,-106]",left,0,1.6322,,,,,,001,2025-03-10_16h52.54.584,SL_sali_41,2021.2.3,Win32,147.0588235,,,22,0,22,0,1,,,,,,,,
,,"[""circle"",""no_dis"",""hori"",""left"",[99999,99999],[106,-106]]",circle,no_dis,hori,left,"[99999,99999]","[106,-106]",left,1,1.0673,,,,,,001,2025-03-10_16h52.54.584,SL_sali_41,2021.2.3,Win32,147.0588235,,,23,0,23,0,1,,,,,,,,
,,"[""circle"",""no_dis"",""vert"",""up"",[99999,99999],[0,-150]]",circle,no_dis,vert,up,"[99999,99999]","[0,-150]",up,1,1.0972,,,,,,001,2025-03-10_16h52.54.584,SL_sali_41,2021.2.3,Win32,147.0588235,,,24,0,24,0,1,,,,,,,,
,,"[""diamond"",""no_dis"",""vert"",""up"",[99999,99999],[-106,-106]]",diamond,no_dis,vert,up,"[99999,99999]","[-106,-106]",left,0,2.1424,,,,,,001,2025-03-10_16h52.54.584,SL_sali_41,2021.2.3,Win32,147.0588235,,,25,0,25,0,1,,,,,,,,
,,"[""circle"",""no_dis"",""hori"",""left"",[99999,99999],[106,106]]",circle,no_dis,hori,left,"[99999,99999]","[106,106]",left,1,1.2969,,,,,,001,2025-03-10_16h52.54.584,SL_sali_41,2021.2.3,Win32,147.0588235,,,26,0,26,0,1,,,,,,,,
,,"[""diamond"",""red"",""hori"",""left"",[-106,106],[0,150]]",diamond,red,hori,left,"[-106,106]","[0,150]",up,0,0.9072,,,,,,001,2025-03-10_16h52.54.584,SL_sali_41,2021.2.3,Win32,147.0588235,,,27,0,27,0,1,,,,,,,,
,,"[""circle"",""red"",""vert"",""up"",[-106,-106],[-106,106]]",circle,red,vert,up,"[-106,-106]","[-106,106]",up,1,1.9023,,,,,,001,2025-03-10_16h52.54.584,SL_sali_41,2021.2.3,Win32,147.0588235,,,28,0,28,0,1,,,,,,,,
,,"[""diamond"",""red"",""vert"",""up"",[0,150],[106,106]]",diamond,red,vert,up,"[0,150]","[106,106]",up,1,2.0979,,,,,,001,2025-03-10_16h52.54.584,SL_sali_41,2021.2.3,Win32,147.0588235,,,29,0,29,0,1,,,,,,,,
,,"[""circle"",""no_dis"",""vert"",""up"",[99999,99999],[0,-150]]",circle,no_dis,vert,up,"[99999,99999]","[0,-150]",up,1,1.3677,,,,,,001,2025-03-10_16h52.54.584,SL_sali_41,2021.2.3,Win32,147.0588235,,,30,0,30,0,1,,,,,,,,
,,"[""diamond"",""red"",""hori"",""left"",[0,150],[106,-106]]",diamond,red,hori,left,"[0,150]","[106,-106]",up,0,2.0026,,,,,,001,2025-03-10_16h52.54.584,SL_sali_41,2021.2.3,Win32,147.0588235,,,31,0,31,0,1,,,,,,,,
,,"[""circle"",""red"",""vert"",""up"",[0,150],[0,-150]]",circle,red,vert,up,"[0,150]","[0,-150]",up,1,1.6529,,,,,,001,2025-03-10_16h52.54.584,SL_sali_41,2021.2.3,Win32,147.0588235,,,32,0,32,0,1,,,,,,,,
,,"[""circle"",""red"",""vert"",""up"",[-106,106],[-150,0]]",circle,red,vert,up,"[-106,106]","[-150,0]",up,1,1.515,,,,,,001,2025-03-10_16h52.54.584,SL_sali_41,2021.2.3,Win32,147.0588235,,,33,0,33,0,1,,,,,,,,
,,"[""diamond"",""red"",""hori"",""left"",[-106,-106],[0,150]]",diamond,red,hori,left,"[-106,-106]","[0,150]",up,0,1.6258,,,,,,001,2025-03-10_16h52.54.584,SL_sali_41,2021.2.3,Win32,147.0588235,,,34,0,34,0,1,,,,,,,,
,,"[""circle"",""red"",""vert"",""up"",[0,150],[-106,-106]]",circle,red,vert,up,"[0,150]","[-106,-106]",up,1,1.2554,,,,,,001,2025-03-10_16h52.54.584,SL_sali_41,2021.2.3,Win32,147.0588235,,,35,0,35,0,1,,,,,,,,
,,"[""circle"",""red"",""hori"",""left"",[106,-106],[106,106]]",circle,red,hori,left,"[106,-106]","[106,106]",left,1,1.3547,,,,,,001,2025-03-10_16h52.54.584,SL_sali_41,2021.2.3,Win32,147.0588235,,,36,0,36,0,1,,,,,,,,
,,"[""diamond"",""red"",""hori"",""left"",[0,150],[-150,0]]",diamond,red,hori,left,"[0,150]","[-150,0]",up,0,2.3465,,,,,,001,2025-03-10_16h52.54.584,SL_sali_41,2021.2.3,Win32,147.0588235,,,37,0,37,0,1,,,,,,,,
,,"[""diamond"",""no_dis"",""hori"",""left"",[99999,99999],[-106,106]]",diamond,no_dis,hori,left,"[99999,99999]","[-106,106]",left,1,2.0469,,,,,,001,2025-03-10_16h52.54.584,SL_sali_41,2021.2.3,Win32,147.0588235,,,38,0,38,0,1,,,,,,,,
,,"[""diamond"",""red"",""hori"",""left"",[-106,-106],[106,106]]",diamond,red,hori,left,"[-106,-106]","[106,106]",left,1,1.966,,,,,,001,2025-03-10_16h52.54.584,SL_sali_41,2021.2.3,Win32,147.0588235,,,39,0,39,0,1,,,,,,,,
,,"[""diamond"",""red"",""hori"",""left"",[106,-106],[-106,106]]",diamond,red,hori,left,"[106,-106]","[-106,106]",up,0,2.5536,,,,,,001,2025-03-10_16h52.54.584,SL_sali_41,2021.2.3,Win32,147.0588235,,,40,0,40,0,1,,,,,,,,
,,"[""diamond"",""no_dis"",""hori"",""left"",[99999,99999],[-106,106]]",diamond,no_dis,hori,left,"[99999,99999]","[-106,106]",up,0,2.4687,,,,,,001,2025-03-10_16h52.54.584,SL_sali_41,2021.2.3,Win32,147.0588235,,,41,0,41,0,1,,,,,,,,
,,"[""diamond"",""red"",""hori"",""left"",[0,150],[-150,0]]",diamond,red,hori,left,"[0,150]","[-150,0]",up,0,2.1259,,,,,,001,2025-03-10_16h52.54.584,SL_sali_41,2021.2.3,Win32,147.0588235,,,42,0,42,0,1,,,,,,,,
,,"[""diamond"",""green"",""hori"",""left"",[-106,106],[0,150]]",diamond,green,hori,left,"[-106,106]","[0,150]",up,0,1.9705,,,,,,001,2025-03-10_16h52.54.584,SL_sali_41,2021.2.3,Win32,147.0588235,,,43,0,43,0,1,,,,,,,,
,,"[""diamond"",""green"",""vert"",""up"",[-150,0],[150,0]]",diamond,green,vert,up,"[-150,0]","[150,0]",left,0,1.4697,,,,,,001,2025-03-10_16h52.54.584,SL_sali_41,2021.2.3,Win32,147.0588235,,,44,0,44,0,1,,,,,,,,
,,"[""circle"",""red"",""hori"",""left"",[0,150],[106,-106]]",circle,red,hori,left,"[0,150]","[106,-106]",left,1,1.8314,,,,,,001,2025-03-10_16h52.54.584,SL_sali_41,2021.2.3,Win32,147.0588235,,,45,0,45,0,1,,,,,,,,
,,"[""diamond"",""no_dis"",""vert"",""up"",[99999,99999],[-150,0]]",diamond,no_dis,vert,up,"[99999,99999]","[-150,0]",up,1,1.6856,,,,,,001,2025-03-10_16h52.54.584,SL_sali_41,2021.2.3,Win32,147.0588235,,,46,0,46,0,1,,,,,,,,
,,"[""diamond"",""green"",""hori"",""left"",[0,-150],[150,0]]",diamond,green,hori,left,"[0,-150]","[150,0]",,0,,,,,,,001,2025-03-10_16h52.54.584,SL_sali_41,2021.2.3,Win32,147.0588235,,,47,0,47,0,1,,,,,,,,
,,"[""circle"",""no_dis"",""vert"",""up"",[99999,99999],[106,106]]",circle,no_dis,vert,up,"[99999,99999]","[106,106]",up,1,2.0204,,,,,,001,2025-03-10_16h52.54.584,SL_sali_41,2021.2.3,Win32,147.0588235,,,48,0,48,0,1,,,,,,,,
,,"[""circle"",""green"",""hori"",""left"",[-150,0],[106,-106]]",circle,green,hori,left,"[-150,0]","[106,-106]",left,1,1.708,,,,,,001,2025-03-10_16h52.54.584,SL_sali_41,2021.2.3,Win32,147.0588235,,,49,0,49,0,1,,,,,,,,
,,"[""diamond"",""red"",""vert"",""up"",[-150,0],[106,106]]",diamond,red,vert,up,"[-150,0]","[106,106]",up,1,1.6551,,,,,,001,2025-03-10_16h52.54.584,SL_sali_41,2021.2.3,Win32,147.0588235,,,50,0,50,0,1,,,,,,,,
,,"[""circle"",""no_dis"",""hori"",""left"",[99999,99999],[-106,106]]",circle,no_dis,hori,left,"[99999,99999]","[-106,106]",left,1,1.6949,,,,,,001,2025-03-10_16h52.54.584,SL_sali_41,2021.2.3,Win32,147.0588235,,,51,0,51,0,1,,,,,,,,
,,"[""circle"",""red"",""vert"",""up"",[0,150],[-150,0]]",circle,red,vert,up,"[0,150]","[-150,0]",up,1,2.5292,,,,,,001,2025-03-10_16h52.54.584,SL_sali_41,2021.2.3,Win32,147.0588235,,,52,0,52,0,1,,,,,,,,
,,"[""diamond"",""red"",""vert"",""up"",[0,150],[106,106]]",diamond,red,vert,up,"[0,150]","[106,106]",up,1,1.664,,,,,,001,2025-03-10_16h52.54.584,SL_sali_41,2021.2.3,Win32,147.0588235,,,53,0,53,0,1,,,,,,,,
,,"[""diamond"",""green"",""vert"",""up"",[0,150],[150,0]]",diamond,green,vert,up,"[0,150]","[150,0]",up,1,1.5895,,,,,,001,2025-03-10_16h52.54.584,SL_sali_41,2021.2.3,Win32,147.0588235,,,54,0,54,0,1,,,,,,,,
,,"[""diamond"",""no_dis"",""vert"",""up"",[99999,99999],[150,0]]",diamond,no_dis,vert,up,"[99999,99999]","[150,0]",up,1,1.4494,,,,,,001,2025-03-10_16h52.54.584,SL_sali_41,2021.2.3,Win32,147.0588235,,,55,0,55,0,1,,,,,,,,
,,"[""circle"",""red"",""hori"",""left"",[0,150],[106,-106]]",circle,red,hori,left,"[0,150]","[106,-106]",left,1,1.6657,,,,,,001,2025-03-10_16h52.54.584,SL_sali_41,2021.2.3,Win32,147.0588235,,,56,0,56,0,1,,,,,,,,
,,"[""circle"",""red"",""hori"",""left"",[106,-106],[-106,-106]]",circle,red,hori,left,"[106,-106]","[-106,-106]",left,1,1.8484,,,,,,001,2025-03-10_16h52.54.584,SL_sali_41,2021.2.3,Win32,147.0588235,,,57,0,57,0,1,,,,,,,,
,,"[""diamond"",""green"",""hori"",""left"",[0,-150],[-106,-106]]",diamond,green,hori,left,"[0,-150]","[-106,-106]",left,1,1.3282,,,,,,001,2025-03-10_16h52.54.584,SL_sali_41,2021.2.3,Win32,147.0588235,,,58,0,58,0,1,,,,,,,,
,,"[""diamond"",""green"",""vert"",""up"",[0,150],[106,106]]",diamond,green,vert,up,"[0,150]","[106,106]",up,1,1.0815,,,,,,001,2025-03-10_16h52.54.584,SL_sali_41,2021.2.3,Win32,147.0588235,,,59,0,59,0,1,,,,,,,,
,,"[""diamond"",""red"",""vert"",""up"",[150,0],[106,106]]",diamond,red,vert,up,"[150,0]","[106,106]",up,1,0.9397,,,,,,001,2025-03-10_16h52.54.584,SL_sali_41,2021.2.3,Win32,147.0588235,,,60,0,60,0,1,,,,,,,,
,,"[""circle"",""green"",""vert"",""up"",[0,-150],[0,150]]",circle,green,vert,up,"[0,-150]","[0,150]",up,1,1.4229,,,,,,001,2025-03-10_16h52.54.584,SL_sali_41,2021.2.3,Win32,147.0588235,,,61,0,61,0,1,,,,,,,,
,,"[""circle"",""no_dis"",""hori"",""left"",[99999,99999],[-150,0]]",circle,no_dis,hori,left,"[99999,99999]","[-150,0]",left,1,1.54,,,,,,001,2025-03-10_16h52.54.584,SL_sali_41,2021.2.3,Win32,147.0588235,,,62,0,62,0,1,,,,,,,,
,,"[""diamond"",""no_dis"",""vert"",""up"",[99999,99999],[106,106]]",diamond,no_dis,vert,up,"[99999,99999]","[106,106]",up,1,1.4368,,,,,,001,2025-03-10_16h52.54.584,SL_sali_41,2021.2.3,Win32,147.0588235,,,63,0,63,0,1,,,,,,,,
,,"[""circle"",""no_dis"",""vert"",""up"",[99999,99999],[106,-106]]",circle,no_dis,vert,up,"[99999,99999]","[106,-106]",up,1,2.1,,,,,,001,2025-03-10_16h52.54.584,SL_sali_41,2021.2.3,Win32,147.0588235,,,64,0,64,0,1,,,,,,,,
,,"[""circle"",""no_dis"",""vert"",""up"",[99999,99999],[0,-150]]",circle,no_dis,vert,up,"[99999,99999]","[0,-150]",up,1,1.8301,,,,,,001,2025-03-10_16h52.54.584,SL_sali_41,2021.2.3,Win32,147.0588235,,,65,0,65,0,1,,,,,,,,
,,"[""diamond"",""green"",""hori"",""left"",[106,-106],[-106,106]]",diamond,green,hori,left,"[106,-106]","[-106,106]",left,1,1.3197,,,,,,001,2025-03-10_16h52.54.584,SL_sali_41,2021.2.3,Win32,147.0588235,,,66,0,66,0,1,,,,,,,,
,,"[""diamond"",""red"",""hori"",""left"",[0,150],[0,-150]]",diamond,red,hori,left,"[0,150]","[0,-150]",left,1,1.7346,,,,,,001,2025-03-10_16h52.54.584,SL_sali_41,2021.2.3,Win32,147.0588235,,,67,0,67,0,1,,,,,,,,
,,"[""diamond"",""green"",""vert"",""up"",[0,150],[106,-106]]",diamond,green,vert,up,"[0,150]","[106,-106]",up,1,2.0216,,,,,,001,2025-03-10_16h52.54.584,SL_sali_41,2021.2.3,Win32,147.0588235,,,68,0,68,0,1,,,,,,,,
,,"[""diamond"",""red"",""vert"",""up"",[0,150],[-106,-106]]",diamond,red,vert,up,"[0,150]","[-106,-106]",up,1,1.1667,,,,,,001,2025-03-10_16h52.54.584,SL_sali_41,2021.2.3,Win32,147.0588235,,,69,0,69,0,1,,,,,,,,
,,"[""circle"",""red"",""vert"",""up"",[-106,106],[-106,-106]]",circle,red,vert,up,"[-106,106]","[-106,-106]",up,1,1.6098,,,,,,001,2025-03-10_16h52.54.584,SL_sali_41,2021.2.3,Win32,147.0588235,,,70,0,70,0,1,,,,,,,,
,,"[""circle"",""no_dis"",""vert"",""up"",[99999,99999],[-106,106]]",circle,no_dis,vert,up,"[99999,99999]","[-106,106]",up,1,2.2283,,,,,,001,2025-03-10_16h52.54.584,SL_sali_41,2021.2.3,Win32,147.0588235,,,71,0,71,0,1,,,,,,,,
,,"[""diamond"",""no_dis"",""hori"",""left"",[99999,99999],[106,-106]]",diamond,no_dis,hori,left,"[99999,99999]","[106,-106]",left,1,1.4054,,,,,,001,2025-03-10_16h52.54.584,SL_sali_41,2021.2.3,Win32,147.0588235,,,72,0,72,0,1,,,,,,,,
,,"[""diamond"",""green"",""hori"",""left"",[106,106],[-106,106]]",diamond,green,hori,left,"[106,106]","[-106,106]",left,1,1.4676,,,,,,001,2025-03-10_16h52.54.584,SL_sali_41,2021.2.3,Win32,147.0588235,,,73,0,73,0,1,,,,,,,,
,,"[""circle"",""green"",""hori"",""left"",[-106,106],[0,-150]]",circle,green,hori,left,"[-106,106]","[0,-150]",left,1,1.3818,,,,,,001,2025-03-10_16h52.54.584,SL_sali_41,2021.2.3,Win32,147.0588235,,,74,0,74,0,1,,,,,,,,
,,"[""diamond"",""no_dis"",""vert"",""up"",[99999,99999],[-150,0]]",diamond,no_dis,vert,up,"[99999,99999]","[-150,0]",up,1,1.6715,,,,,,001,2025-03-10_16h52.54.584,SL_sali_41,2021.2.3,Win32,147.0588235,,,75,0,75,0,1,,,,,,,,
,,"[""diamond"",""no_dis"",""hori"",""left"",[99999,99999],[-106,-106]]",diamond,no_dis,hori,left,"[99999,99999]","[-106,-106]",left,1,1.1772,,,,,,001,2025-03-10_16h52.54.584,SL_sali_41,2021.2.3,Win32,147.0588235,,,76,0,76,0,1,,,,,,,,
,,"[""diamond"",""red"",""vert"",""up"",[-106,-106],[106,-106]]",diamond,red,vert,up,"[-106,-106]","[106,-106]",up,1,1.2198,,,,,,001,2025-03-10_16h52.54.584,SL_sali_41,2021.2.3,Win32,147.0588235,,,77,0,77,0,1,,,,,,,,
,,"[""circle"",""green"",""vert"",""up"",[106,-106],[106,106]]",circle,green,vert,up,"[106,-106]","[106,106]",up,1,1.1399,,,,,,001,2025-03-10_16h52.54.584,SL_sali_41,2021.2.3,Win32,147.0588235,,,78,0,78,0,1,,,,,,,,
,,"[""diamond"",""no_dis"",""hori"",""left"",[99999,99999],[-106,-106]]",diamond,no_dis,hori,left,"[99999,99999]","[-106,-106]",left,1,1.03,,,,,,001,2025-03-10_16h52.54.584,SL_sali_41,2021.2.3,Win32,147.0588235,,,79,0,79,0,1,,,,,,,,
,,"[""diamond"",""no_dis"",""vert"",""up"",[99999,99999],[-150,0]]",diamond,no_dis,vert,up,"[99999,99999]","[-150,0]",up,1,0.8703,,,,,,001,2025-03-10_16h52.54.584,SL_sali_41,2021.2.3,Win32,147.0588235,,,80,0,80,0,1,,,,,,,,
,,"[""circle"",""red"",""vert"",""up"",[-150,0],[106,-106]]",circle,red,vert,up,"[-150,0]","[106,-106]",up,1,1.0672,,,,,,001,2025-03-10_16h52.54.584,SL_sali_41,2021.2.3,Win32,147.0588235,,,81,0,81,0,1,,,,,,,,
,,"[""circle"",""red"",""hori"",""left"",[150,0],[-106,106]]",circle,red,hori,left,"[150,0]","[-106,106]",left,1,1.1939,,,,,,001,2025-03-10_16h52.54.584,SL_sali_41,2021.2.3,Win32,147.0588235,,,82,0,82,0,1,,,,,,,,
,,"[""diamond"",""green"",""vert"",""up"",[0,150],[-106,-106]]",diamond,green,vert,up,"[0,150]","[-106,-106]",up,1,1.4564,,,,,,001,2025-03-10_16h52.54.584,SL_sali_41,2021.2.3,Win32,147.0588235,,,83,0,83,0,1,,,,,,,,
,,"[""circle"",""green"",""hori"",""left"",[0,150],[106,-106]]",circle,green,hori,left,"[0,150]","[106,-106]",left,1,1.5204,,,,,,001,2025-03-10_16h52.54.584,SL_sali_41,2021.2.3,Win32,147.0588235,,,84,0,84,0,1,,,,,,,,
,,"[""circle"",""red"",""hori"",""left"",[150,0],[106,-106]]",circle,red,hori,left,"[150,0]","[106,-106]",left,1,0.9284,,,,,,001,2025-03-10_16h52.54.584,SL_sali_41,2021.2.3,Win32,147.0588235,,,85,0,85,0,1,,,,,,,,
,,"[""circle"",""green"",""hori"",""left"",[0,-150],[106,-106]]",circle,green,hori,left,"[0,-150]","[106,-106]",left,1,1.4613,,,,,,001,2025-03-10_16h52.54.584,SL_sali_41,2021.2.3,Win32,147.0588235,,,86,0,86,0,1,,,,,,,,
,,"[""circle"",""no_dis"",""hori"",""left"",[99999,99999],[0,150]]",circle,no_dis,hori,left,"[99999,99999]","[0,150]",left,1,1.3641,,,,,,001,2025-03-10_16h52.54.584,SL_sali_41,2021.2.3,Win32,147.0588235,,,87,0,87,0,1,,,,,,,,
,,"[""circle"",""no_dis"",""vert"",""up"",[99999,99999],[-150,0]]",circle,no_dis,vert,up,"[99999,99999]","[-150,0]",up,1,0.7077,,,,,,001,2025-03-10_16h52.54.584,SL_sali_41,2021.2.3,Win32,147.0588235,,,88,0,88,0,1,,,,,,,,
,,"[""diamond"",""green"",""hori"",""left"",[106,106],[-106,106]]",diamond,green,hori,left,"[106,106]","[-106,106]",left,1,1.3882,,,,,,001,2025-03-10_16h52.54.584,SL_sali_41,2021.2.3,Win32,147.0588235,,,89,0,89,0,1,,,,,,,,
,,"[""circle"",""green"",""vert"",""up"",[-150,0],[-106,-106]]",circle,green,vert,up,"[-150,0]","[-106,-106]",up,1,1.7916,,,,,,001,2025-03-10_16h52.54.584,SL_sali_41,2021.2.3,Win32,147.0588235,,,90,0,90,0,1,,,,,,,,
,,"[""diamond"",""red"",""vert"",""up"",[106,-106],[-106,106]]",diamond,red,vert,up,"[106,-106]","[-106,106]",up,1,1.7094,,,,,,001,2025-03-10_16h52.54.584,SL_sali_41,2021.2.3,Win32,147.0588235,,,91,0,91,0,1,,,,,,,,
,,"[""diamond"",""green"",""hori"",""left"",[0,-150],[-106,-106]]",diamond,green,hori,left,"[0,-150]","[-106,-106]",left,1,2.1152,,,,,,001,2025-03-10_16h52.54.584,SL_sali_41,2021.2.3,Win32,147.0588235,,,92,0,92,0,1,,,,,,,,
,,"[""circle"",""red"",""hori"",""left"",[150,0],[0,-150]]",circle,red,hori,left,"[150,0]","[0,-150]",left,1,1.1195,,,,,,001,2025-03-10_16h52.54.584,SL_sali_41,2021.2.3,Win32,147.0588235,,,93,0,93,0,1,,,,,,,,
,,"[""circle"",""green"",""vert"",""up"",[0,150],[106,-106]]",circle,green,vert,up,"[0,150]","[106,-106]",up,1,1.1554,,,,,,001,2025-03-10_16h52.54.584,SL_sali_41,2021.2.3,Win32,147.0588235,,,94,0,94,0,1,,,,,,,,
,,"[""circle"",""green"",""vert"",""up"",[-106,-106],[150,0]]",circle,green,vert,up,"[-106,-106]","[150,0]",up,1,1.0667,,,,,,001,2025-03-10_16h52.54.584,SL_sali_41,2021.2.3,Win32,147.0588235,,,95,0,95,0,1,,,,,,,,
,,"[""diamond"",""no_dis"",""vert"",""up"",[99999,99999],[106,106]]",diamond,no_dis,vert,up,"[99999,99999]","[106,106]",up,1,1.6824,,,,,,001,2025-03-10_16h52.54.584,SL_sali_41,2021.2.3,Win32,147.0588235,,,96,0,96,0,1,,,,,,,,
,,"[""circle"",""red"",""hori"",""left"",[0,150],[-106,106]]",circle,red,hori,left,"[0,150]","[-106,106]",left,1,1.9254,,,,,,001,2025-03-10_16h52.54.584,SL_sali_41,2021.2.3,Win32,147.0588235,,,97,0,97,0,1,,,,,,,,
,,"[""circle"",""red"",""hori"",""left"",[0,150],[106,-106]]",circle,red,hori,left,"[0,150]","[106,-106]",left,1,0.7991,,,,,,001,2025-03-10_16h52.54.584,SL_sali_41,2021.2.3,Win32,147.0588235,,,98,0,98,0,1,,,,,,,,
,,"[""diamond"",""no_dis"",""vert"",""up"",[99999,99999],[-106,106]]",diamond,no_dis,vert,up,"[99999,99999]","[-106,106]",up,1,1.0652,,,,,,001,2025-03-10_16h52.54.584,SL_sali_41,2021.2.3,Win32,147.0588235,,,99,0,99,0,1,,,,,,,,
,,"[""diamond"",""no_dis"",""hori"",""left"",[99999,99999],[106,-106]]",diamond,no_dis,hori,left,"[99999,99999]","[106,-106]",left,1,0.8325,,,,,,001,2025-03-10_16h52.54.584,SL_sali_41,2021.2.3,Win32,147.0588235,,,100,0,100,0,1,,,,,,,,
,,"[""circle"",""no_dis"",""hori"",""left"",[99999,99999],[0,150]]",circle,no_dis,hori,left,"[99999,99999]","[0,150]",left,1,1.157,,,,,,001,2025-03-10_16h52.54.584,SL_sali_41,2021.2.3,Win32,147.0588235,,,101,0,101,0,1,,,,,,,,
,,"[""diamond"",""no_dis"",""vert"",""up"",[99999,99999],[0,150]]",diamond,no_dis,vert,up,"[99999,99999]","[0,150]",up,1,1.192,,,,,,001,2025-03-10_16h52.54.584,SL_sali_41,2021.2.3,Win32,147.0588235,,,102,0,102,0,1,,,,,,,,
,,"[""diamond"",""green"",""vert"",""up"",[0,-150],[106,-106]]",diamond,green,vert,up,"[0,-150]","[106,-106]",up,1,1.143,,,,,,001,2025-03-10_16h52.54.584,SL_sali_41,2021.2.3,Win32,147.0588235,,,103,0,103,0,1,,,,,,,,
,,"[""circle"",""red"",""hori"",""left"",[0,150],[106,106]]",circle,red,hori,left,"[0,150]","[106,106]",left,1,1.9455,,,,,,001,2025-03-10_16h52.54.584,SL_sali_41,2021.2.3,Win32,147.0588235,,,104,0,104,0,1,,,,,,,,
,,"[""diamond"",""red"",""hori"",""left"",[-106,106],[150,0]]",diamond,red,hori,left,"[-106,106]","[150,0]",left,1,1.2569,,,,,,001,2025-03-10_16h52.54.584,SL_sali_41,2021.2.3,Win32,147.0588235,,,105,0,105,0,1,,,,,,,,
,,"[""diamond"",""red"",""vert"",""up"",[150,0],[-150,0]]",diamond,red,vert,up,"[150,0]","[-150,0]",up,1,1.3117,,,,,,001,2025-03-10_16h52.54.584,SL_sali_41,2021.2.3,Win32,147.0588235,,,106,0,106,0,1,,,,,,,,
,,"[""circle"",""green"",""hori"",""left"",[150,0],[-106,-106]]",circle,green,hori,left,"[150,0]","[-106,-106]",left,1,0.9043,,,,,,001,2025-03-10_16h52.54.584,SL_sali_41,2021.2.3,Win32,147.0588235,,,107,0,107,0,1,,,,,,,,
,,"[""diamond"",""green"",""hori"",""left"",[0,150],[-106,-106]]",diamond,green,hori,left,"[0,150]","[-106,-106]",left,1,1.2732,,,,,,001,2025-03-10_16h52.54.584,SL_sali_41,2021.2.3,Win32,147.0588235,,,108,0,108,0,1,,,,,,,,
,,"[""diamond"",""red"",""vert"",""up"",[106,106],[0,-150]]",diamond,red,vert,up,"[106,106]","[0,-150]",up,1,1.068,,,,,,001,2025-03-10_16h52.54.584,SL_sali_41,2021.2.3,Win32,147.0588235,,,109,0,109,0,1,,,,,,,,
,,"[""circle"",""green"",""vert"",""up"",[106,106],[-106,106]]",circle,green,vert,up,"[106,106]","[-106,106]",up,1,1.0703,,,,,,001,2025-03-10_16h52.54.584,SL_sali_41,2021.2.3,Win32,147.0588235,,,110,0,110,0,1,,,,,,,,
,,"[""circle"",""no_dis"",""vert"",""up"",[99999,99999],[0,150]]",circle,no_dis,vert,up,"[99999,99999]","[0,150]",up,1,1.3354,,,,,,001,2025-03-10_16h52.54.584,SL_sali_41,2021.2.3,Win32,147.0588235,,,111,0,111,0,1,,,,,,,,
,,"[""circle"",""no_dis"",""hori"",""left"",[99999,99999],[150,0]]",circle,no_dis,hori,left,"[99999,99999]","[150,0]",left,1,0.7287,,,,,,001,2025-03-10_16h52.54.584,SL_sali_41,2021.2.3,Win32,147.0588235,,,112,0,112,0,1,,,,,,,,
,,"[""diamond"",""no_dis"",""vert"",""up"",[99999,99999],[-106,-106]]",diamond,no_dis,vert,up,"[99999,99999]","[-106,-106]",up,1,1.0257,,,,,,001,2025-03-10_16h52.54.584,SL_sali_41,2021.2.3,Win32,147.0588235,,,113,0,113,0,1,,,,,,,,
,,"[""diamond"",""red"",""vert"",""up"",[0,150],[150,0]]",diamond,red,vert,up,"[0,150]","[150,0]",up,1,1.3609,,,,,,001,2025-03-10_16h52.54.584,SL_sali_41,2021.2.3,Win32,147.0588235,,,114,0,114,0,1,,,,,,,,
,,"[""circle"",""no_dis"",""vert"",""up"",[99999,99999],[0,-150]]",circle,no_dis,vert,up,"[99999,99999]","[0,-150]",up,1,0.8259,,,,,,001,2025-03-10_16h52.54.584,SL_sali_41,2021.2.3,Win32,147.0588235,,,115,0,115,0,1,,,,,,,,
,,"[""diamond"",""green"",""hori"",""left"",[-150,0],[0,150]]",diamond,green,hori,left,"[-150,0]","[0,150]",left,1,0.7705,,,,,,001,2025-03-10_16h52.54.584,SL_sali_41,2021.2.3,Win32,147.0588235,,,116,0,116,0,1,,,,,,,,
,,"[""diamond"",""green"",""vert"",""up"",[106,-106],[-106,106]]",diamond,green,vert,up,"[106,-106]","[-106,106]",up,1,1.1652,,,,,,001,2025-03-10_16h52.54.584,SL_sali_41,2021.2.3,Win32,147.0588235,,,117,0,117,0,1,,,,,,,,
,,"[""circle"",""green"",""hori"",""left"",[-106,-106],[150,0]]",circle,green,hori,left,"[-106,-106]","[150,0]",left,1,0.8083,,,,,,001,2025-03-10_16h52.54.584,SL_sali_41,2021.2.3,Win32,147.0588235,,,118,0,118,0,1,,,,,,,,
,,"[""circle"",""red"",""vert"",""up"",[0,150],[-150,0]]",circle,red,vert,up,"[0,150]","[-150,0]",up,1,0.7629,,,,,,001,2025-03-10_16h52.54.584,SL_sali_41,2021.2.3,Win32,147.0588235,,,119,0,119,0,1,,,,,,,,
,,"[""circle"",""green"",""vert"",""up"",[0,150],[-106,106]]",circle,green,vert,up,"[0,150]","[-106,106]",up,1,0.7106,,,,,,001,2025-03-10_16h52.54.584,SL_sali_41,2021.2.3,Win32,147.0588235,,,120,0,120,0,1,,,,,,,,
,,"[""diamond"",""no_dis"",""hori"",""left"",[99999,99999],[106,-106]]",diamond,no_dis,hori,left,"[99999,99999]","[106,-106]",left,1,0.9597,,,,,,001,2025-03-10_16h52.54.584,SL_sali_41,2021.2.3,Win32,147.0588235,,,121,0,121,0,1,,,,,,,,
,,"[""circle"",""green"",""vert"",""up"",[150,0],[0,-150]]",circle,green,vert,up,"[150,0]","[0,-150]",up,1,0.8128,,,,,,001,2025-03-10_16h52.54.584,SL_sali_41,2021.2.3,Win32,147.0588235,,,122,0,122,0,1,,,,,,,,
,,"[""diamond"",""green"",""vert"",""up"",[0,150],[0,-150]]",diamond,green,vert,up,"[0,150]","[0,-150]",up,1,0.848,,,,,,001,2025-03-10_16h52.54.584,SL_sali_41,2021.2.3,Win32,147.0588235,,,123,0,123,0,1,,,,,,,,
,,"[""circle"",""no_dis"",""hori"",""left"",[99999,99999],[150,0]]",circle,no_dis,hori,left,"[99999,99999]","[150,0]",left,1,0.7002,,,,,,001,2025-03-10_16h52.54.584,SL_sali_41,2021.2.3,Win32,147.0588235,,,124,0,124,0,1,,,,,,,,
,,"[""circle"",""green"",""vert"",""up"",[0,-150],[-106,-106]]",circle,green,vert,up,"[0,-150]","[-106,-106]",up,1,1.3918,,,,,,001,2025-03-10_16h52.54.584,SL_sali_41,2021.2.3,Win32,147.0588235,,,125,0,125,0,1,,,,,,,,
,,"[""diamond"",""green"",""vert"",""up"",[150,0],[-106,106]]",diamond,green,vert,up,"[150,0]","[-106,106]",up,1,1.202,,,,,,001,2025-03-10_16h52.54.584,SL_sali_41,2021.2.3,Win32,147.0588235,,,126,0,126,0,1,,,,,,,,
,,"[""diamond"",""green"",""hori"",""left"",[0,150],[106,106]]",diamond,green,hori,left,"[0,150]","[106,106]",left,1,1.5873,,,,,,001,2025-03-10_16h52.54.584,SL_sali_41,2021.2.3,Win32,147.0588235,,,127,0,127,0,1,,,,,,,,
,,,,,,,,,,,,,,,,,001,2025-03-10_16h52.54.584,SL_sali_41,2021.2.3,Win32,147.0588235,,,,,,,,1,space,24.0618,0,0,0,0,1
,,"[""circle"",""red"",""vert"",""up"",[0,150],[0,-150]]",circle,red,vert,up,"[0,150]","[0,-150]",up,1,1.4221,,,,,,001,2025-03-10_16h52.54.584,SL_sali_41,2021.2.3,Win32,147.0588235,,,0,0,0,0,1,,,,,,,,
,,"[""circle"",""red"",""vert"",""up"",[0,150],[-150,0]]",circle,red,vert,up,"[0,150]","[-150,0]",left,0,1.2275,,,,,,001,2025-03-10_16h52.54.584,SL_sali_41,2021.2.3,Win32,147.0588235,,,1,0,1,0,1,,,,,,,,
,,"[""circle"",""red"",""hori"",""left"",[0,150],[106,-106]]",circle,red,hori,left,"[0,150]","[106,-106]",left,1,0.835,,,,,,001,2025-03-10_16h52.54.584,SL_sali_41,2021.2.3,Win32,147.0588235,,,2,0,2,0,1,,,,,,,,
,,"[""diamond"",""red"",""hori"",""left"",[-106,106],[0,150]]",diamond,red,hori,left,"[-106,106]","[0,150]",left,1,1.1522,,,,,,001,2025-03-10_16h52.54.584,SL_sali_41,2021.2.3,Win32,147.0588235,,,3,0,3,0,1,,,,,,,,
,,"[""diamond"",""green"",""hori"",""left"",[106,106],[-106,106]]",diamond,green,hori,left,"[106,106]","[-106,106]",up,0,1.997,,,,,,001,2025-03-10_16h52.54.584,SL_sali_41,2021.2.3,Win32,147.0588235,,,4,0,4,0,1,,,,,,,,
,,"[""diamond"",""red"",""vert"",""up"",[150,0],[106,106]]",diamond,red,vert,up,"[150,0]","[106,106]",up,1,1.3077,,,,,,001,2025-03-10_16h52.54.584,SL_sali_41,2021.2.3,Win32,147.0588235,,,5,0,5,0,1,,,,,,,,
,,"[""circle"",""red"",""hori"",""left"",[0,150],[106,-106]]",circle,red,hori,left,"[0,150]","[106,-106]",left,1,0.9365,,,,,,001,2025-03-10_16h52.54.584,SL_sali_41,2021.2.3,Win32,147.0588235,,,6,0,6,0,1,,,,,,,,
,,"[""circle"",""no_dis"",""vert"",""up"",[99999,99999],[106,106]]",circle,no_dis,vert,up,"[99999,99999]","[106,106]",up,1,0.8365,,,,,,001,2025-03-10_16h52.54.584,SL_sali_41,2021.2.3,Win32,147.0588235,,,7,0,7,0,1,,,,,,,,
,,"[""diamond"",""red"",""vert"",""up"",[0,150],[150,0]]",diamond,red,vert,up,"[0,150]","[150,0]",up,1,1.5982,,,,,,001,2025-03-10_16h52.54.584,SL_sali_41,2021.2.3,Win32,147.0588235,,,8,0,8,0,1,,,,,,,,
,,"[""diamond"",""red"",""vert"",""up"",[0,150],[106,106]]",diamond,red,vert,up,"[0,150]","[106,106]",up,1,1.7658,,,,,,001,2025-03-10_16h52.54.584,SL_sali_41,2021.2.3,Win32,147.0588235,,,9,0,9,0,1,,,,,,,,
,,"[""diamond"",""red"",""hori"",""left"",[0,150],[106,-106]]",diamond,red,hori,left,"[0,150]","[106,-106]",left,1,0.8788,,,,,,001,2025-03-10_16h52.54.584,SL_sali_41,2021.2.3,Win32,147.0588235,,,10,0,10,0,1,,,,,,,,
,,"[""diamond"",""no_dis"",""vert"",""up"",[99999,99999],[150,0]]",diamond,no_dis,vert,up,"[99999,99999]","[150,0]",up,1,1.2189,,,,,,001,2025-03-10_16h52.54.584,SL_sali_41,2021.2.3,Win32,147.0588235,,,11,0,11,0,1,,,,,,,,
,,"[""diamond"",""no_dis"",""hori"",""left"",[99999,99999],[-106,-106]]",diamond,no_dis,hori,left,"[99999,99999]","[-106,-106]",left,1,0.8823,,,,,,001,2025-03-10_16h52.54.584,SL_sali_41,2021.2.3,Win32,147.0588235,,,12,0,12,0,1,,,,,,,,
,,"[""circle"",""no_dis"",""vert"",""up"",[99999,99999],[106,-106]]",circle,no_dis,vert,up,"[99999,99999]","[106,-106]",up,1,1.3957,,,,,,001,2025-03-10_16h52.54.584,SL_sali_41,2021.2.3,Win32,147.0588235,,,13,0,13,0,1,,,,,,,,
,,"[""circle"",""no_dis"",""hori"",""left"",[99999,99999],[0,150]]",circle,no_dis,hori,left,"[99999,99999]","[0,150]",left,1,0.7968,,,,,,001,2025-03-10_16h52.54.584,SL_sali_41,2021.2.3,Win32,147.0588235,,,14,0,14,0,1,,,,,,,,
,,"[""circle"",""green"",""vert"",""up"",[0,150],[-106,106]]",circle,green,vert,up,"[0,150]","[-106,106]",up,1,1.0497,,,,,,001,2025-03-10_16h52.54.584,SL_sali_41,2021.2.3,Win32,147.0588235,,,15,0,15,0,1,,,,,,,,
,,"[""diamond"",""red"",""vert"",""up"",[106,106],[0,-150]]",diamond,red,vert,up,"[106,106]","[0,-150]",left,0,2.7799,,,,,,001,2025-03-10_16h52.54.584,SL_sali_41,2021.2.3,Win32,147.0588235,,,16,0,16,0,1,,,,,,,,
,,"[""circle"",""red"",""vert"",""up"",[106,-106],[-150,0]]",circle,red,vert,up,"[106,-106]","[-150,0]",up,1,1.1095,,,,,,001,2025-03-10_16h52.54.584,SL_sali_41,2021.2.3,Win32,147.0588235,,,17,0,17,0,1,,,,,,,,
,,"[""diamond"",""green"",""vert"",""up"",[0,150],[106,106]]",diamond,green,vert,up,"[0,150]","[106,106]",up,1,1.5976,,,,,,001,2025-03-10_16h52.54.584,SL_sali_41,2021.2.3,Win32,147.0588235,,,18,0,18,0,1,,,,,,,,
,,"[""circle"",""red"",""hori"",""left"",[150,0],[-106,106]]",circle,red,hori,left,"[150,0]","[-106,106]",left,1,0.9027,,,,,,001,2025-03-10_16h52.54.584,SL_sali_41,2021.2.3,Win32,147.0588235,,,19,0,19,0,1,,,,,,,,
,,"[""diamond"",""red"",""hori"",""left"",[0,150],[-150,0]]",diamond,red,hori,left,"[0,150]","[-150,0]",left,1,1.1525,,,,,,001,2025-03-10_16h52.54.584,SL_sali_41,2021.2.3,Win32,147.0588235,,,20,0,20,0,1,,,,,,,,
,,"[""diamond"",""green"",""vert"",""up"",[0,150],[106,-106]]",diamond,green,vert,up,"[0,150]","[106,-106]",up,1,0.8624,,,,,,001,2025-03-10_16h52.54.584,SL_sali_41,2021.2.3,Win32,147.0588235,,,21,0,21,0,1,,,,,,,,
,,"[""circle"",""green"",""vert"",""up"",[0,150],[106,-106]]",circle,green,vert,up,"[0,150]","[106,-106]",up,1,1.0199,,,,,,001,2025-03-10_16h52.54.584,SL_sali_41,2021.2.3,Win32,147.0588235,,,22,0,22,0,1,,,,,,,,
,,"[""diamond"",""no_dis"",""hori"",""left"",[99999,99999],[106,-106]]",diamond,no_dis,hori,left,"[99999,99999]","[106,-106]",left,1,1.1658,,,,,,001,2025-03-10_16h52.54.584,SL_sali_41,2021.2.3,Win32,147.0588235,,,23,0,23,0,1,,,,,,,,
,,"[""circle"",""no_dis"",""hori"",""left"",[99999,99999],[106,-106]]",circle,no_dis,hori,left,"[99999,99999]","[106,-106]",left,1,1.1307,,,,,,001,2025-03-10_16h52.54.584,SL_sali_41,2021.2.3,Win32,147.0588235,,,24,0,24,0,1,,,,,,,,
,,"[""diamond"",""no_dis"",""vert"",""up"",[99999,99999],[106,106]]",diamond,no_dis,vert,up,"[99999,99999]","[106,106]",up,1,1.3669,,,,,,001,2025-03-10_16h52.54.584,SL_sali_41,2021.2.3,Win32,147.0588235,,,25,0,25,0,1,,,,,,,,
,,"[""diamond"",""green"",""hori"",""left"",[-106,-106],[-106,106]]",diamond,green,hori,left,"[-106,-106]","[-106,106]",left,1,1.5254,,,,,,001,2025-03-10_16h52.54.584,SL_sali_41,2021.2.3,Win32,147.0588235,,,26,0,26,0,1,,,,,,,,
,,"[""diamond"",""green"",""hori"",""left"",[0,-150],[-106,-106]]",diamond,green,hori,left,"[0,-150]","[-106,-106]",left,1,1.1778,,,,,,001,2025-03-10_16h52.54.584,SL_sali_41,2021.2.3,Win32,147.0588235,,,27,0,27,0,1,,,,,,,,
,,"[""circle"",""green"",""vert"",""up"",[0,-150],[0,150]]",circle,green,vert,up,"[0,-150]","[0,150]",up,1,1.1457,,,,,,001,2025-03-10_16h52.54.584,SL_sali_41,2021.2.3,Win32,147.0588235,,,28,0,28,0,1,,,,,,,,
,,"[""circle"",""green"",""vert"",""up"",[106,-106],[106,106]]",circle,green,vert,up,"[106,-106]","[106,106]",up,1,1.9128,,,,,,001,2025-03-10_16h52.54.584,SL_sali_41,2021.2.3,Win32,147.0588235,,,29,0,29,0,1,,,,,,,,
,,"[""circle"",""green"",""hori"",""left"",[0,150],[-106,-106]]",circle,green,hori,left,"[0,150]","[-106,-106]",left,1,1.1871,,,,,,001,2025-03-10_16h52.54.584,SL_sali_41,2021.2.3,Win32,147.0588235,,,30,0,30,0,1,,,,,,,,
,,"[""diamond"",""green"",""vert"",""up"",[-150,0],[150,0]]",diamond,green,vert,up,"[-150,0]","[150,0]",up,1,1.1547,,,,,,001,2025-03-10_16h52.54.584,SL_sali_41,2021.2.3,Win32,147.0588235,,,31,0,31,0,1,,,,,,,,
,,"[""circle"",""red"",""vert"",""up"",[-150,0],[106,-106]]",circle,red,vert,up,"[-150,0]","[106,-106]",up,1,2.3643,,,,,,001,2025-03-10_16h52.54.584,SL_sali_41,2021.2.3,Win32,147.0588235,,,32,0,32,0,1,,,,,,,,
,,"[""diamond"",""no_dis"",""vert"",""up"",[99999,99999],[106,106]]",diamond,no_dis,vert,up,"[99999,99999]","[106,106]",up,1,1.0619,,,,,,001,2025-03-10_16h52.54.584,SL_sali_41,2021.2.3,Win32,147.0588235,,,33,0,33,0,1,,,,,,,,
,,"[""diamond"",""no_dis"",""hori"",""left"",[99999,99999],[106,-106]]",diamond,no_dis,hori,left,"[99999,99999]","[106,-106]",left,1,1.0696,,,,,,001,2025-03-10_16h52.54.584,SL_sali_41,2021.2.3,Win32,147.0588235,,,34,0,34,0,1,,,,,,,,
,,"[""circle"",""no_dis"",""vert"",""up"",[99999,99999],[-106,106]]",circle,no_dis,vert,up,"[99999,99999]","[-106,106]",up,1,1.641,,,,,,001,2025-03-10_16h52.54.584,SL_sali_41,2021.2.3,Win32,147.0588235,,,35,0,35,0,1,,,,,,,,
,,"[""diamond"",""red"",""hori"",""left"",[0,150],[0,-150]]",diamond,red,hori,left,"[0,150]","[0,-150]",left,1,1.3032,,,,,,001,2025-03-10_16h52.54.584,SL_sali_41,2021.2.3,Win32,147.0588235,,,36,0,36,0,1,,,,,,,,
,,"[""diamond"",""green"",""vert"",""up"",[0,-150],[106,-106]]",diamond,green,vert,up,"[0,-150]","[106,-106]",up,1,0.7422,,,,,,001,2025-03-10_16h52.54.584,SL_sali_41,2021.2.3,Win32,147.0588235,,,37,0,37,0,1,,,,,,,,
,,"[""circle"",""green"",""hori"",""left"",[0,150],[106,-106]]",circle,green,hori,left,"[0,150]","[106,-106]",left,1,1.1726,,,,,,001,2025-03-10_16h52.54.584,SL_sali_41,2021.2.3,Win32,147.0588235,,,38,0,38,0,1,,,,,,,,
,,"[""diamond"",""green"",""vert"",""up"",[150,0],[-106,106]]",diamond,green,vert,up,"[150,0]","[-106,106]",up,1,1.1952,,,,,,001,2025-03-10_16h52.54.584,SL_sali_41,2021.2.3,Win32,147.0588235,,,39,0,39,0,1,,,,,,,,
,,"[""circle"",""green"",""hori"",""left"",[-106,106],[0,-150]]",circle,green,hori,left,"[-106,106]","[0,-150]",up,0,1.1464,,,,,,001,2025-03-10_16h52.54.584,SL_sali_41,2021.2.3,Win32,147.0588235,,,40,0,40,0,1,,,,,,,,
,,"[""diamond"",""no_dis"",""vert"",""up"",[99999,99999],[-150,0]]",diamond,no_dis,vert,up,"[99999,99999]","[-150,0]",up,1,1.2563,,,,,,001,2025-03-10_16h52.54.584,SL_sali_41,2021.2.3,Win32,147.0588235,,,41,0,41,0,1,,,,,,,,
,,"[""diamond"",""no_dis"",""hori"",""left"",[99999,99999],[150,0]]",diamond,no_dis,hori,left,"[99999,99999]","[150,0]",left,1,1.0038,,,,,,001,2025-03-10_16h52.54.584,SL_sali_41,2021.2.3,Win32,147.0588235,,,42,0,42,0,1,,,,,,,,
,,"[""circle"",""no_dis"",""vert"",""up"",[99999,99999],[0,-150]]",circle,no_dis,vert,up,"[99999,99999]","[0,-150]",up,1,2.1323,,,,,,001,2025-03-10_16h52.54.584,SL_sali_41,2021.2.3,Win32,147.0588235,,,43,0,43,0,1,,,,,,,,
,,"[""diamond"",""red"",""vert"",""up"",[-150,0],[106,106]]",diamond,red,vert,up,"[-150,0]","[106,106]",up,1,2.2841,,,,,,001,2025-03-10_16h52.54.584,SL_sali_41,2021.2.3,Win32,147.0588235,,,44,0,44,0,1,,,,,,,,
,,"[""circle"",""no_dis"",""vert"",""up"",[99999,99999],[0,-150]]",circle,no_dis,vert,up,"[99999,99999]","[0,-150]",up,1,1.3211,,,,,,001,2025-03-10_16h52.54.584,SL_sali_41,2021.2.3,Win32,147.0588235,,,45,0,45,0,1,,,,,,,,
,,"[""circle"",""green"",""hori"",""left"",[-150,0],[106,-106]]",circle,green,hori,left,"[-150,0]","[106,-106]",left,1,0.9371,,,,,,001,2025-03-10_16h52.54.584,SL_sali_41,2021.2.3,Win32,147.0588235,,,46,0,46,0,1,,,,,,,,
,,"[""circle"",""red"",""vert"",""up"",[-106,106],[-150,0]]",circle,red,vert,up,"[-106,106]","[-150,0]",up,1,2.1191,,,,,,001,2025-03-10_16h52.54.584,SL_sali_41,2021.2.3,Win32,147.0588235,,,47,0,47,0,1,,,,,,,,
,,"[""circle"",""red"",""vert"",""up"",[106,106],[106,-106]]",circle,red,vert,up,"[106,106]","[106,-106]",up,1,1.1926,,,,,,001,2025-03-10_16h52.54.584,SL_sali_41,2021.2.3,Win32,147.0588235,,,48,0,48,0,1,,,,,,,,
,,"[""circle"",""green"",""vert"",""up"",[-106,-106],[150,0]]",circle,green,vert,up,"[-106,-106]","[150,0]",up,1,2.0617,,,,,,001,2025-03-10_16h52.54.584,SL_sali_41,2021.2.3,Win32,147.0588235,,,49,0,49,0,1,,,,,,,,
,,"[""circle"",""green"",""vert"",""up"",[-106,106],[0,150]]",circle,green,vert,up,"[-106,106]","[0,150]",up,1,1.7438,,,,,,001,2025-03-10_16h52.54.584,SL_sali_41,2021.2.3,Win32,147.0588235,,,50,0,50,0,1,,,,,,,,
,,"[""circle"",""green"",""vert"",""up"",[106,106],[0,-150]]",circle,green,vert,up,"[106,106]","[0,-150]",up,1,2.3048,,,,,,001,2025-03-10_16h52.54.584,SL_sali_41,2021.2.3,Win32,147.0588235,,,51,0,51,0,1,,,,,,,,
,,"[""circle"",""green"",""hori"",""left"",[150,0],[-106,-106]]",circle,green,hori,left,"[150,0]","[-106,-106]",left,1,1.0395,,,,,,001,2025-03-10_16h52.54.584,SL_sali_41,2021.2.3,Win32,147.0588235,,,52,0,52,0,1,,,,,,,,
,,"[""diamond"",""green"",""hori"",""left"",[106,-106],[-106,106]]",diamond,green,hori,left,"[106,-106]","[-106,106]",left,1,1.4444,,,,,,001,2025-03-10_16h52.54.584,SL_sali_41,2021.2.3,Win32,147.0588235,,,53,0,53,0,1,,,,,,,,
,,"[""circle"",""no_dis"",""vert"",""up"",[99999,99999],[0,-150]]",circle,no_dis,vert,up,"[99999,99999]","[0,-150]",up,1,2.1159,,,,,,001,2025-03-10_16h52.54.584,SL_sali_41,2021.2.3,Win32,147.0588235,,,54,0,54,0,1,,,,,,,,
,,"[""diamond"",""no_dis"",""hori"",""left"",[99999,99999],[150,0]]",diamond,no_dis,hori,left,"[99999,99999]","[150,0]",left,1,1.4876,,,,,,001,2025-03-10_16h52.54.584,SL_sali_41,2021.2.3,Win32,147.0588235,,,55,0,55,0,1,,,,,,,,
,,"[""diamond"",""red"",""vert"",""up"",[106,-106],[-106,106]]",diamond,red,vert,up,"[106,-106]","[-106,106]",up,1,1.1914,,,,,,001,2025-03-10_16h52.54.584,SL_sali_41,2021.2.3,Win32,147.0588235,,,56,0,56,0,1,,,,,,,,
,,"[""circle"",""green"",""hori"",""left"",[0,150],[-150,0]]",circle,green,hori,left,"[0,150]","[-150,0]",left,1,1.0177,,,,,,001,2025-03-10_16h52.54.584,SL_sali_41,2021.2.3,Win32,147.0588235,,,57,0,57,0,1,,,,,,,,
,,"[""circle"",""red"",""vert"",""up"",[-106,106],[-106,-106]]",circle,red,vert,up,"[-106,106]","[-106,-106]",up,1,1.0125,,,,,,001,2025-03-10_16h52.54.584,SL_sali_41,2021.2.3,Win32,147.0588235,,,58,0,58,0,1,,,,,,,,
,,"[""circle"",""no_dis"",""hori"",""left"",[99999,99999],[0,150]]",circle,no_dis,hori,left,"[99999,99999]","[0,150]",left,1,0.8403,,,,,,001,2025-03-10_16h52.54.584,SL_sali_41,2021.2.3,Win32,147.0588235,,,59,0,59,0,1,,,,,,,,
,,"[""diamond"",""green"",""hori"",""left"",[106,106],[-106,106]]",diamond,green,hori,left,"[106,106]","[-106,106]",left,1,1.6273,,,,,,001,2025-03-10_16h52.54.584,SL_sali_41,2021.2.3,Win32,147.0588235,,,60,0,60,0,1,,,,,,,,
,,"[""circle"",""no_dis"",""hori"",""left"",[99999,99999],[150,0]]",circle,no_dis,hori,left,"[99999,99999]","[150,0]",left,1,1.2629,,,,,,001,2025-03-10_16h52.54.584,SL_sali_41,2021.2.3,Win32,147.0588235,,,61,0,61,0,1,,,,,,,,
,,"[""circle"",""no_dis"",""hori"",""left"",[99999,99999],[-150,0]]",circle,no_dis,hori,left,"[99999,99999]","[-150,0]",left,1,0.6961,,,,,,001,2025-03-10_16h52.54.584,SL_sali_41,2021.2.3,Win32,147.0588235,,,62,0,62,0,1,,,,,,,,
,,"[""diamond"",""no_dis"",""hori"",""left"",[99999,99999],[-106,-106]]",diamond,no_dis,hori,left,"[99999,99999]","[-106,-106]",left,1,0.8044,,,,,,001,2025-03-10_16h52.54.584,SL_sali_41,2021.2.3,Win32,147.0588235,,,63,0,63,0,1,,,,,,,,
,,"[""circle"",""red"",""vert"",""up"",[-106,-106],[-106,106]]",circle,red,vert,up,"[-106,-106]","[-106,106]",up,1,0.9951,,,,,,001,2025-03-10_16h52.54.584,SL_sali_41,2021.2.3,Win32,147.0588235,,,64,0,64,0,1,,,,,,,,
,,"[""diamond"",""no_dis"",""hori"",""left"",[99999,99999],[-106,106]]",diamond,no_dis,hori,left,"[99999,99999]","[-106,106]",left,1,1.3411,,,,,,001,2025-03-10_16h52.54.584,SL_sali_41,2021.2.3,Win32,147.0588235,,,65,0,65,0,1,,,,,,,,
,,"[""circle"",""red"",""vert"",""up"",[0,150],[-150,0]]",circle,red,vert,up,"[0,150]","[-150,0]",up,1,0.9254,,,,,,001,2025-03-10_16h52.54.584,SL_sali_41,2021.2.3,Win32,147.0588235,,,66,0,66,0,1,,,,,,,,
,,"[""diamond"",""no_dis"",""vert"",""up"",[99999,99999],[-106,-106]]",diamond,no_dis,vert,up,"[99999,99999]","[-106,-106]",left,0,0.8902,,,,,,001,2025-03-10_16h52.54.584,SL_sali_41,2021.2.3,Win32,147.0588235,,,67,0,67,0,1,,,,,,,,
,,"[""circle"",""green"",""hori"",""left"",[106,106],[-150,0]]",circle,green,hori,left,"[106,106]","[-150,0]",left,1,0.737,,,,,,001,2025-03-10_16h52.54.584,SL_sali_41,2021.2.3,Win32,147.0588235,,,68,0,68,0,1,,,,,,,,
,,"[""diamond"",""no_dis"",""hori"",""left"",[99999,99999],[106,-106]]",diamond,no_dis,hori,left,"[99999,99999]","[106,-106]",left,1,1.3763,,,,,,001,2025-03-10_16h52.54.584,SL_sali_41,2021.2.3,Win32,147.0588235,,,69,0,69,0,1,,,,,,,,
,,"[""diamond"",""green"",""hori"",""left"",[0,150],[-106,-106]]",diamond,green,hori,left,"[0,150]","[-106,-106]",left,1,0.8195,,,,,,001,2025-03-10_16h52.54.584,SL_sali_41,2021.2.3,Win32,147.0588235,,,70,0,70,0,1,,,,,,,,
,,"[""diamond"",""green"",""vert"",""up"",[0,150],[150,0]]",diamond,green,vert,up,"[0,150]","[150,0]",up,1,0.8939,,,,,,001,2025-03-10_16h52.54.584,SL_sali_41,2021.2.3,Win32,147.0588235,,,71,0,71,0,1,,,,,,,,
,,"[""circle"",""no_dis"",""vert"",""up"",[99999,99999],[0,150]]",circle,no_dis,vert,up,"[99999,99999]","[0,150]",up,1,1.1297,,,,,,001,2025-03-10_16h52.54.584,SL_sali_41,2021.2.3,Win32,147.0588235,,,72,0,72,0,1,,,,,,,,
,,"[""circle"",""red"",""hori"",""left"",[-150,0],[106,-106]]",circle,red,hori,left,"[-150,0]","[106,-106]",left,1,0.7842,,,,,,001,2025-03-10_16h52.54.584,SL_sali_41,2021.2.3,Win32,147.0588235,,,73,0,73,0,1,,,,,,,,
,,"[""diamond"",""red"",""vert"",""up"",[-106,-106],[106,-106]]",diamond,red,vert,up,"[-106,-106]","[106,-106]",up,1,1.2944,,,,,,001,2025-03-10_16h52.54.584,SL_sali_41,2021.2.3,Win32,147.0588235,,,74,0,74,0,1,,,,,,,,
,,"[""circle"",""green"",""vert"",""up"",[-150,0],[-106,-106]]",circle,green,vert,up,"[-150,0]","[-106,-106]",up,1,1.64,,,,,,001,2025-03-10_16h52.54.584,SL_sali_41,2021.2.3,Win32,147.0588235,,,75,0,75,0,1,,,,,,,,
,,"[""diamond"",""no_dis"",""vert"",""up"",[99999,99999],[-150,0]]",diamond,no_dis,vert,up,"[99999,99999]","[-150,0]",up,1,1.3112,,,,,,001,2025-03-10_16h52.54.584,SL_sali_41,2021.2.3,Win32,147.0588235,,,76,0,76,0,1,,,,,,,,
,,"[""diamond"",""green"",""vert"",""up"",[0,150],[0,-150]]",diamond,green,vert,up,"[0,150]","[0,-150]",up,1,1.3068,,,,,,001,2025-03-10_16h52.54.584,SL_sali_41,2021.2.3,Win32,147.0588235,,,77,0,77,0,1,,,,,,,,
,,"[""circle"",""green"",""hori"",""left"",[0,150],[106,-106]]",circle,green,hori,left,"[0,150]","[106,-106]",left,1,0.7417,,,,,,001,2025-03-10_16h52.54.584,SL_sali_41,2021.2.3,Win32,147.0588235,,,78,0,78,0,1,,,,,,,,
,,"[""circle"",""green"",""vert"",""up"",[0,-150],[-106,-106]]",circle,green,vert,up,"[0,-150]","[-106,-106]",up,1,0.8791,,,,,,001,2025-03-10_16h52.54.584,SL_sali_41,2021.2.3,Win32,147.0588235,,,79,0,79,0,1,,,,,,,,
,,"[""circle"",""no_dis"",""vert"",""up"",[99999,99999],[0,-150]]",circle,no_dis,vert,up,"[99999,99999]","[0,-150]",up,1,0.6971,,,,,,001,2025-03-10_16h52.54.584,SL_sali_41,2021.2.3,Win32,147.0588235,,,80,0,80,0,1,,,,,,,,
,,"[""diamond"",""red"",""hori"",""left"",[106,-106],[-106,106]]",diamond,red,hori,left,"[106,-106]","[-106,106]",left,1,1.1936,,,,,,001,2025-03-10_16h52.54.584,SL_sali_41,2021.2.3,Win32,147.0588235,,,81,0,81,0,1,,,,,,,,
,,"[""circle"",""red"",""hori"",""left"",[0,150],[106,106]]",circle,red,hori,left,"[0,150]","[106,106]",left,1,2.0054,,,,,,001,2025-03-10_16h52.54.584,SL_sali_41,2021.2.3,Win32,147.0588235,,,82,0,82,0,1,,,,,,,,
,,"[""diamond"",""red"",""vert"",""up"",[-106,-106],[-106,106]]",diamond,red,vert,up,"[-106,-106]","[-106,106]",up,1,1.3798,,,,,,001,2025-03-10_16h52.54.584,SL_sali_41,2021.2.3,Win32,147.0588235,,,83,0,83,0,1,,,,,,,,
,,"[""circle"",""no_dis"",""hori"",""left"",[99999,99999],[0,150]]",circle,no_dis,hori,left,"[99999,99999]","[0,150]",left,1,1.2414,,,,,,001,2025-03-10_16h52.54.584,SL_sali_41,2021.2.3,Win32,147.0588235,,,84,0,84,0,1,,,,,,,,
,,"[""circle"",""no_dis"",""hori"",""left"",[99999,99999],[106,106]]",circle,no_dis,hori,left,"[99999,99999]","[106,106]",left,1,0.7176,,,,,,001,2025-03-10_16h52.54.584,SL_sali_41,2021.2.3,Win32,147.0588235,,,85,0,85,0,1,,,,,,,,
,,"[""circle"",""no_dis"",""hori"",""left"",[99999,99999],[106,106]]",circle,no_dis,hori,left,"[99999,99999]","[106,106]",left,1,0.6286,,,,,,001,2025-03-10_16h52.54.584,SL_sali_41,2021.2.3,Win32,147.0588235,,,86,0,86,0,1,,,,,,,,
,,"[""circle"",""no_dis"",""hori"",""left"",[99999,99999],[150,0]]",circle,no_dis,hori,left,"[99999,99999]","[150,0]",left,1,0.6476,,,,,,001,2025-03-10_16h52.54.584,SL_sali_41,2021.2.3,Win32,147.0588235,,,87,0,87,0,1,,,,,,,,
,,"[""diamond"",""red"",""vert"",""up"",[150,0],[-150,0]]",diamond,red,vert,up,"[150,0]","[-150,0]",left,0,0.9693,,,,,,001,2025-03-10_16h52.54.584,SL_sali_41,2021.2.3,Win32,147.0588235,,,88,0,88,0,1,,,,,,,,
,,"[""circle"",""no_dis"",""vert"",""up"",[99999,99999],[-150,0]]",circle,no_dis,vert,up,"[99999,99999]","[-150,0]",up,1,0.7627,,,,,,001,2025-03-10_16h52.54.584,SL_sali_41,2021.2.3,Win32,147.0588235,,,89,0,89,0,1,,,,,,,,
,,"[""diamond"",""red"",""hori"",""left"",[-106,-106],[106,106]]",diamond,red,hori,left,"[-106,-106]","[106,106]",left,1,1.1589,,,,,,001,2025-03-10_16h52.54.584,SL_sali_41,2021.2.3,Win32,147.0588235,,,90,0,90,0,1,,,,,,,,
,,"[""diamond"",""no_dis"",""hori"",""left"",[99999,99999],[-106,-106]]",diamond,no_dis,hori,left,"[99999,99999]","[-106,-106]",left,1,1.0625,,,,,,001,2025-03-10_16h52.54.584,SL_sali_41,2021.2.3,Win32,147.0588235,,,91,0,91,0,1,,,,,,,,
,,"[""diamond"",""red"",""hori"",""left"",[-106,106],[150,0]]",diamond,red,hori,left,"[-106,106]","[150,0]",left,1,0.8452,,,,,,001,2025-03-10_16h52.54.584,SL_sali_41,2021.2.3,Win32,147.0588235,,,92,0,92,0,1,,,,,,,,
,,"[""diamond"",""green"",""vert"",""up"",[0,150],[150,0]]",diamond,green,vert,up,"[0,150]","[150,0]",up,1,0.8097,,,,,,001,2025-03-10_16h52.54.584,SL_sali_41,2021.2.3,Win32,147.0588235,,,93,0,93,0,1,,,,,,,,
,,"[""circle"",""no_dis"",""vert"",""up"",[99999,99999],[0,-150]]",circle,no_dis,vert,up,"[99999,99999]","[0,-150]",up,1,1.9289,,,,,,001,2025-03-10_16h52.54.584,SL_sali_41,2021.2.3,Win32,147.0588235,,,94,0,94,0,1,,,,,,,,
,,"[""circle"",""red"",""hori"",""left"",[106,-106],[106,106]]",circle,red,hori,left,"[106,-106]","[106,106]",left,1,2.1291,,,,,,001,2025-03-10_16h52.54.584,SL_sali_41,2021.2.3,Win32,147.0588235,,,95,0,95,0,1,,,,,,,,
,,"[""circle"",""green"",""vert"",""up"",[150,0],[0,-150]]",circle,green,vert,up,"[150,0]","[0,-150]",up,1,2.1827,,,,,,001,2025-03-10_16h52.54.584,SL_sali_41,2021.2.3,Win32,147.0588235,,,96,0,96,0,1,,,,,,,,
,,"[""circle"",""green"",""hori"",""left"",[0,-150],[106,-106]]",circle,green,hori,left,"[0,-150]","[106,-106]",left,1,1.5221,,,,,,001,2025-03-10_16h52.54.584,SL_sali_41,2021.2.3,Win32,147.0588235,,,97,0,97,0,1,,,,,,,,
,,"[""circle"",""red"",""hori"",""left"",[150,0],[106,-106]]",circle,red,hori,left,"[150,0]","[106,-106]",left,1,1.0076,,,,,,001,2025-03-10_16h52.54.584,SL_sali_41,2021.2.3,Win32,147.0588235,,,98,0,98,0,1,,,,,,,,
,,"[""diamond"",""green"",""hori"",""left"",[0,-150],[-106,-106]]",diamond,green,hori,left,"[0,-150]","[-106,-106]",left,1,2.0916,,,,,,001,2025-03-10_16h52.54.584,SL_sali_41,2021.2.3,Win32,147.0588235,,,99,0,99,0,1,,,,,,,,
,,"[""circle"",""green"",""hori"",""left"",[-106,-106],[150,0]]",circle,green,hori,left,"[-106,-106]","[150,0]",left,1,1.1743,,,,,,001,2025-03-10_16h52.54.584,SL_sali_41,2021.2.3,Win32,147.0588235,,,100,0,100,0,1,,,,,,,,
,,"[""diamond"",""red"",""hori"",""left"",[-106,106],[0,150]]",diamond,red,hori,left,"[-106,106]","[0,150]",left,1,1.9646,,,,,,001,2025-03-10_16h52.54.584,SL_sali_41,2021.2.3,Win32,147.0588235,,,101,0,101,0,1,,,,,,,,
,,"[""diamond"",""green"",""vert"",""up"",[106,-106],[-106,106]]",diamond,green,vert,up,"[106,-106]","[-106,106]",up,1,1.0562,,,,,,001,2025-03-10_16h52.54.584,SL_sali_41,2021.2.3,Win32,147.0588235,,,102,0,102,0,1,,,,,,,,
,,"[""diamond"",""green"",""hori"",""left"",[0,150],[106,106]]",diamond,green,hori,left,"[0,150]","[106,106]",left,1,1.0409,,,,,,001,2025-03-10_16h52.54.584,SL_sali_41,2021.2.3,Win32,147.0588235,,,103,0,103,0,1,,,,,,,,
,,"[""circle"",""no_dis"",""hori"",""left"",[99999,99999],[-106,106]]",circle,no_dis,hori,left,"[99999,99999]","[-106,106]",left,1,0.7447,,,,,,001,2025-03-10_16h52.54.584,SL_sali_41,2021.2.3,Win32,147.0588235,,,104,0,104,0,1,,,,,,,,
,,"[""diamond"",""no_dis"",""vert"",""up"",[99999,99999],[-106,-106]]",diamond,no_dis,vert,up,"[99999,99999]","[-106,-106]",up,1,0.8512,,,,,,001,2025-03-10_16h52.54.584,SL_sali_41,2021.2.3,Win32,147.0588235,,,105,0,105,0,1,,,,,,,,
,,"[""diamond"",""red"",""vert"",""up"",[0,150],[106,106]]",diamond,red,vert,up,"[0,150]","[106,106]",up,1,1.4037,,,,,,001,2025-03-10_16h52.54.584,SL_sali_41,2021.2.3,Win32,147.0588235,,,106,0,106,0,1,,,,,,,,
,,"[""diamond"",""green"",""hori"",""left"",[0,-150],[150,0]]",diamond,green,hori,left,"[0,-150]","[150,0]",left,1,1.1312,,,,,,001,2025-03-10_16h52.54.584,SL_sali_41,2021.2.3,Win32,147.0588235,,,107,0,107,0,1,,,,,,,,
,,"[""diamond"",""no_dis"",""vert"",""up"",[99999,99999],[-150,0]]",diamond,no_dis,vert,up,"[99999,99999]","[-150,0]",up,1,1.2043,,,,,,001,2025-03-10_16h52.54.584,SL_sali_41,2021.2.3,Win32,147.0588235,,,108,0,108,0,1,,,,,,,,
,,"[""diamond"",""green"",""hori"",""left"",[-106,106],[0,150]]",diamond,green,hori,left,"[-106,106]","[0,150]",left,1,0.9993,,,,,,001,2025-03-10_16h52.54.584,SL_sali_41,2021.2.3,Win32,147.0588235,,,109,0,109,0,1,,,,,,,,
,,"[""circle"",""red"",""vert"",""up"",[0,150],[-106,-106]]",circle,red,vert,up,"[0,150]","[-106,-106]",up,1,1.3094,,,,,,001,2025-03-10_16h52.54.584,SL_sali_41,2021.2.3,Win32,147.0588235,,,110,0,110,0,1,,,,,,,,
,,"[""circle"",""green"",""hori"",""left"",[106,106],[106,-106]]",circle,green,hori,left,"[106,106]","[106,-106]",left,1,1.0779,,,,,,001,2025-03-10_16h52.54.584,SL_sali_41,2021.2.3,Win32,147.0588235,,,111,0,111,0,1,,,,,,,,
,,"[""circle"",""red"",""vert"",""up"",[0,150],[-106,-106]]",circle,red,vert,up,"[0,150]","[-106,-106]",up,1,0.7584,,,,,,001,2025-03-10_16h52.54.584,SL_sali_41,2021.2.3,Win32,147.0588235,,,112,0,112,0,1,,,,,,,,
,,"[""diamond"",""red"",""vert"",""up"",[0,150],[-106,-106]]",diamond,red,vert,up,"[0,150]","[-106,-106]",up,1,1.5013,,,,,,001,2025-03-10_16h52.54.584,SL_sali_41,2021.2.3,Win32,147.0588235,,,113,0,113,0,1,,,,,,,,
,,"[""diamond"",""no_dis"",""vert"",""up"",[99999,99999],[0,150]]",diamond,no_dis,vert,up,"[99999,99999]","[0,150]",up,1,0.8353,,,,,,001,2025-03-10_16h52.54.584,SL_sali_41,2021.2.3,Win32,147.0588235,,,114,0,114,0,1,,,,,,,,
,,"[""diamond"",""green"",""vert"",""up"",[0,-150],[-106,106]]",diamond,green,vert,up,"[0,-150]","[-106,106]",up,1,0.9656,,,,,,001,2025-03-10_16h52.54.584,SL_sali_41,2021.2.3,Win32,147.0588235,,,115,0,115,0,1,,,,,,,,
,,"[""circle"",""red"",""hori"",""left"",[150,0],[0,-150]]",circle,red,hori,left,"[150,0]","[0,-150]",left,1,1.7013,,,,,,001,2025-03-10_16h52.54.584,SL_sali_41,2021.2.3,Win32,147.0588235,,,116,0,116,0,1,,,,,,,,
,,"[""circle"",""red"",""hori"",""left"",[0,150],[-106,106]]",circle,red,hori,left,"[0,150]","[-106,106]",left,1,1.1254,,,,,,001,2025-03-10_16h52.54.584,SL_sali_41,2021.2.3,Win32,147.0588235,,,117,0,117,0,1,,,,,,,,
,,"[""diamond"",""green"",""hori"",""left"",[-150,0],[0,150]]",diamond,green,hori,left,"[-150,0]","[0,150]",left,1,1.3816,,,,,,001,2025-03-10_16h52.54.584,SL_sali_41,2021.2.3,Win32,147.0588235,,,118,0,118,0,1,,,,,,,,
,,"[""circle"",""red"",""hori"",""left"",[0,150],[106,-106]]",circle,red,hori,left,"[0,150]","[106,-106]",left,1,1.1828,,,,,,001,2025-03-10_16h52.54.584,SL_sali_41,2021.2.3,Win32,147.0588235,,,119,0,119,0,1,,,,,,,,
,,"[""circle"",""red"",""hori"",""left"",[106,-106],[-106,-106]]",circle,red,hori,left,"[106,-106]","[-106,-106]",left,1,1.2813,,,,,,001,2025-03-10_16h52.54.584,SL_sali_41,2021.2.3,Win32,147.0588235,,,120,0,120,0,1,,,,,,,,
,,"[""diamond"",""no_dis"",""vert"",""up"",[99999,99999],[-106,106]]",diamond,no_dis,vert,up,"[99999,99999]","[-106,106]",up,1,1.7141,,,,,,001,2025-03-10_16h52.54.584,SL_sali_41,2021.2.3,Win32,147.0588235,,,121,0,121,0,1,,,,,,,,
,,"[""diamond"",""red"",""hori"",""left"",[0,150],[-150,0]]",diamond,red,hori,left,"[0,150]","[-150,0]",left,1,0.8067,,,,,,001,2025-03-10_16h52.54.584,SL_sali_41,2021.2.3,Win32,147.0588235,,,122,0,122,0,1,,,,,,,,
,,"[""diamond"",""red"",""hori"",""left"",[-150,0],[106,-106]]",diamond,red,hori,left,"[-150,0]","[106,-106]",left,1,0.9513,,,,,,001,2025-03-10_16h52.54.584,SL_sali_41,2021.2.3,Win32,147.0588235,,,123,0,123,0,1,,,,,,,,
,,"[""diamond"",""red"",""hori"",""left"",[-106,-106],[0,150]]",diamond,red,hori,left,"[-106,-106]","[0,150]",left,1,0.7831,,,,,,001,2025-03-10_16h52.54.584,SL_sali_41,2021.2.3,Win32,147.0588235,,,124,0,124,0,1,,,,,,,,
,,"[""diamond"",""green"",""vert"",""up"",[0,150],[-106,-106]]",diamond,green,vert,up,"[0,150]","[-106,-106]",up,1,0.6895,,,,,,001,2025-03-10_16h52.54.584,SL_sali_41,2021.2.3,Win32,147.0588235,,,125,0,125,0,1,,,,,,,,
,,"[""diamond"",""no_dis"",""hori"",""left"",[99999,99999],[-106,106]]",diamond,no_dis,hori,left,"[99999,99999]","[-106,106]",left,1,0.6373,,,,,,001,2025-03-10_16h52.54.584,SL_sali_41,2021.2.3,Win32,147.0588235,,,126,0,126,0,1,,,,,,,,
,,"[""circle"",""green"",""vert"",""up"",[106,106],[-106,106]]",circle,green,vert,up,"[106,106]","[-106,106]",up,1,2.0906,,,,,,001,2025-03-10_16h52.54.584,SL_sali_41,2021.2.3,Win32,147.0588235,,,127,0,127,0,1,,,,,,,,
,,,,,,,,,,,,,,,,,001,2025-03-10_16h52.54.584,SL_sali_41,2021.2.3,Win32,147.0588235,,,,,,,,2,space,62.723,1,0,1,0,1
,,"[""circle"",""no_dis"",""vert"",""up"",[99999,99999],[0,-150]]",circle,no_dis,vert,up,"[99999,99999]","[0,-150]",up,1,1.2486,,,,,,001,2025-03-10_16h52.54.584,SL_sali_41,2021.2.3,Win32,147.0588235,,,0,0,0,0,1,,,,,,,,
,,"[""diamond"",""green"",""vert"",""up"",[0,150],[150,0]]",diamond,green,vert,up,"[0,150]","[150,0]",up,1,1.2924,,,,,,001,2025-03-10_16h52.54.584,SL_sali_41,2021.2.3,Win32,147.0588235,,,1,0,1,0,1,,,,,,,,
,,"[""circle"",""red"",""vert"",""up"",[0,150],[-150,0]]",circle,red,vert,up,"[0,150]","[-150,0]",up,1,1.054,,,,,,001,2025-03-10_16h52.54.584,SL_sali_41,2021.2.3,Win32,147.0588235,,,2,0,2,0,1,,,,,,,,
,,"[""diamond"",""green"",""vert"",""up"",[0,-150],[-106,106]]",diamond,green,vert,up,"[0,-150]","[-106,106]",up,1,1.2842,,,,,,001,2025-03-10_16h52.54.584,SL_sali_41,2021.2.3,Win32,147.0588235,,,3,0,3,0,1,,,,,,,,
,,"[""diamond"",""no_dis"",""vert"",""up"",[99999,99999],[-150,0]]",diamond,no_dis,vert,up,"[99999,99999]","[-150,0]",up,1,0.7527,,,,,,001,2025-03-10_16h52.54.584,SL_sali_41,2021.2.3,Win32,147.0588235,,,4,0,4,0,1,,,,,,,,
,,"[""diamond"",""no_dis"",""hori"",""left"",[99999,99999],[-106,-106]]",diamond,no_dis,hori,left,"[99999,99999]","[-106,-106]",left,1,0.8692,,,,,,001,2025-03-10_16h52.54.584,SL_sali_41,2021.2.3,Win32,147.0588235,,,5,0,5,0,1,,,,,,,,
,,"[""circle"",""green"",""hori"",""left"",[-150,0],[106,-106]]",circle,green,hori,left,"[-150,0]","[106,-106]",left,1,1.7315,,,,,,001,2025-03-10_16h52.54.584,SL_sali_41,2021.2.3,Win32,147.0588235,,,6,0,6,0,1,,,,,,,,
,,"[""diamond"",""no_dis"",""hori"",""left"",[99999,99999],[106,-106]]",diamond,no_dis,hori,left,"[99999,99999]","[106,-106]",left,1,0.739,,,,,,001,2025-03-10_16h52.54.584,SL_sali_41,2021.2.3,Win32,147.0588235,,,7,0,7,0,1,,,,,,,,
,,"[""diamond"",""no_dis"",""hori"",""left"",[99999,99999],[-106,106]]",diamond,no_dis,hori,left,"[99999,99999]","[-106,106]",left,1,0.7173,,,,,,001,2025-03-10_16h52.54.584,SL_sali_41,2021.2.3,Win32,147.0588235,,,8,0,8,0,1,,,,,,,,
,,"[""diamond"",""green"",""vert"",""up"",[-150,0],[150,0]]",diamond,green,vert,up,"[-150,0]","[150,0]",up,1,0.7553,,,,,,001,2025-03-10_16h52.54.584,SL_sali_41,2021.2.3,Win32,147.0588235,,,9,0,9,0,1,,,,,,,,
,,"[""diamond"",""red"",""vert"",""up"",[0,150],[-106,-106]]",diamond,red,vert,up,"[0,150]","[-106,-106]",up,1,0.9919,,,,,,001,2025-03-10_16h52.54.584,SL_sali_41,2021.2.3,Win32,147.0588235,,,10,0,10,0,1,,,,,,,,
,,"[""circle"",""no_dis"",""vert"",""up"",[99999,99999],[-106,106]]",circle,no_dis,vert,up,"[99999,99999]","[-106,106]",up,1,1.1838,,,,,,001,2025-03-10_16h52.54.584,SL_sali_41,2021.2.3,Win32,147.0588235,,,11,0,11,0,1,,,,,,,,
,,"[""diamond"",""red"",""hori"",""left"",[0,150],[-150,0]]",diamond,red,hori,left,"[0,150]","[-150,0]",left,1,0.918,,,,,,001,2025-03-10_16h52.54.584,SL_sali_41,2021.2.3,Win32,147.0588235,,,12,0,12,0,1,,,,,,,,
,,"[""circle"",""green"",""vert"",""up"",[-106,-106],[150,0]]",circle,green,vert,up,"[-106,-106]","[150,0]",up,1,0.8866,,,,,,001,2025-03-10_16h52.54.584,SL_sali_41,2021.2.3,Win32,147.0588235,,,13,0,13,0,1,,,,,,,,
,,"[""circle"",""red"",""hori"",""left"",[0,150],[106,106]]",circle,red,hori,left,"[0,150]","[106,106]",left,1,0.7696,,,,,,001,2025-03-10_16h52.54.584,SL_sali_41,2021.2.3,Win32,147.0588235,,,14,0,14,0,1,,,,,,,,
,,"[""circle"",""no_dis"",""vert"",""up"",[99999,99999],[106,106]]",circle,no_dis,vert,up,"[99999,99999]","[106,106]",up,1,0.479,,,,,,001,2025-03-10_16h52.54.584,SL_sali_41,2021.2.3,Win32,147.0588235,,,15,0,15,0,1,,,,,,,,
,,"[""diamond"",""red"",""vert"",""up"",[0,150],[150,0]]",diamond,red,vert,up,"[0,150]","[150,0]",up,1,1.136,,,,,,001,2025-03-10_16h52.54.584,SL_sali_41,2021.2.3,Win32,147.0588235,,,16,0,16,0,1,,,,,,,,
,,"[""diamond"",""red"",""hori"",""left"",[0,150],[106,-106]]",diamond,red,hori,left,"[0,150]","[106,-106]",left,1,0.9218,,,,,,001,2025-03-10_16h52.54.584,SL_sali_41,2021.2.3,Win32,147.0588235,,,17,0,17,0,1,,,,,,,,
,,"[""circle"",""green"",""vert"",""up"",[-106,106],[0,150]]",circle,green,vert,up,"[-106,106]","[0,150]",up,1,2.3818,,,,,,001,2025-03-10_16h52.54.584,SL_sali_41,2021.2.3,Win32,147.0588235,,,18,0,18,0,1,,,,,,,,
,,"[""diamond"",""red"",""hori"",""left"",[-106,-106],[0,150]]",diamond,red,hori,left,"[-106,-106]","[0,150]",left,1,1.6086,,,,,,001,2025-03-10_16h52.54.584,SL_sali_41,2021.2.3,Win32,147.0588235,,,19,0,19,0,1,,,,,,,,
,,"[""diamond"",""green"",""hori"",""left"",[0,-150],[150,0]]",diamond,green,hori,left,"[0,-150]","[150,0]",left,1,1.0281,,,,,,001,2025-03-10_16h52.54.584,SL_sali_41,2021.2.3,Win32,147.0588235,,,20,0,20,0,1,,,,,,,,
,,"[""circle"",""red"",""vert"",""up"",[0,150],[0,-150]]",circle,red,vert,up,"[0,150]","[0,-150]",up,1,0.9476,,,,,,001,2025-03-10_16h52.54.584,SL_sali_41,2021.2.3,Win32,147.0588235,,,21,0,21,0,1,,,,,,,,
,,"[""diamond"",""red"",""hori"",""left"",[-106,106],[150,0]]",diamond,red,hori,left,"[-106,106]","[150,0]",left,1,0.7238,,,,,,001,2025-03-10_16h52.54.584,SL_sali_41,2021.2.3,Win32,147.0588235,,,22,0,22,0,1,,,,,,,,
,,"[""circle"",""red"",""vert"",""up"",[-150,0],[106,-106]]",circle,red,vert,up,"[-150,0]","[106,-106]",up,1,0.8973,,,,,,001,2025-03-10_16h52.54.584,SL_sali_41,2021.2.3,Win32,147.0588235,,,23,0,23,0,1,,,,,,,,
,,"[""circle"",""no_dis"",""hori"",""left"",[99999,99999],[106,106]]",circle,no_dis,hori,left,"[99999,99999]","[106,106]",left,1,1.1798,,,,,,001,2025-03-10_16h52.54.584,SL_sali_41,2021.2.3,Win32,147.0588235,,,24,0,24,0,1,,,,,,,,
,,"[""diamond"",""no_dis"",""hori"",""left"",[99999,99999],[-106,-106]]",diamond,no_dis,hori,left,"[99999,99999]","[-106,-106]",left,1,1.0336,,,,,,001,2025-03-10_16h52.54.584,SL_sali_41,2021.2.3,Win32,147.0588235,,,25,0,25,0,1,,,,,,,,
,,"[""diamond"",""green"",""vert"",""up"",[0,150],[106,-106]]",diamond,green,vert,up,"[0,150]","[106,-106]",up,1,1.1651,,,,,,001,2025-03-10_16h52.54.584,SL_sali_41,2021.2.3,Win32,147.0588235,,,26,0,26,0,1,,,,,,,,
,,"[""circle"",""red"",""hori"",""left"",[0,150],[106,-106]]",circle,red,hori,left,"[0,150]","[106,-106]",left,1,1.3424,,,,,,001,2025-03-10_16h52.54.584,SL_sali_41,2021.2.3,Win32,147.0588235,,,27,0,27,0,1,,,,,,,,
,,"[""circle"",""no_dis"",""hori"",""left"",[99999,99999],[150,0]]",circle,no_dis,hori,left,"[99999,99999]","[150,0]",left,1,0.7542,,,,,,001,2025-03-10_16h52.54.584,SL_sali_41,2021.2.3,Win32,147.0588235,,,28,0,28,0,1,,,,,,,,
,,"[""diamond"",""red"",""hori"",""left"",[0,150],[0,-150]]",diamond,red,hori,left,"[0,150]","[0,-150]",left,1,1.3962,,,,,,001,2025-03-10_16h52.54.584,SL_sali_41,2021.2.3,Win32,147.0588235,,,29,0,29,0,1,,,,,,,,
,,"[""diamond"",""no_dis"",""vert"",""up"",[99999,99999],[-106,-106]]",diamond,no_dis,vert,up,"[99999,99999]","[-106,-106]",up,1,1.1593,,,,,,001,2025-03-10_16h52.54.584,SL_sali_41,2021.2.3,Win32,147.0588235,,,30,0,30,0,1,,,,,,,,
,,"[""circle"",""red"",""vert"",""up"",[0,150],[-106,-106]]",circle,red,vert,up,"[0,150]","[-106,-106]",up,1,1.2969,,,,,,001,2025-03-10_16h52.54.584,SL_sali_41,2021.2.3,Win32,147.0588235,,,31,0,31,0,1,,,,,,,,
,,"[""circle"",""green"",""vert"",""up"",[106,106],[0,-150]]",circle,green,vert,up,"[106,106]","[0,-150]",up,1,1.2064,,,,,,001,2025-03-10_16h52.54.584,SL_sali_41,2021.2.3,Win32,147.0588235,,,32,0,32,0,1,,,,,,,,
,,"[""diamond"",""red"",""vert"",""up"",[150,0],[-150,0]]",diamond,red,vert,up,"[150,0]","[-150,0]",up,1,1.1824,,,,,,001,2025-03-10_16h52.54.584,SL_sali_41,2021.2.3,Win32,147.0588235,,,33,0,33,0,1,,,,,,,,
,,"[""circle"",""red"",""vert"",""up"",[-106,106],[-106,-106]]",circle,red,vert,up,"[-106,106]","[-106,-106]",up,1,0.9723,,,,,,001,2025-03-10_16h52.54.584,SL_sali_41,2021.2.3,Win32,147.0588235,,,34,0,34,0,1,,,,,,,,
,,"[""circle"",""red"",""vert"",""up"",[-106,-106],[-106,106]]",circle,red,vert,up,"[-106,-106]","[-106,106]",up,1,0.7712,,,,,,001,2025-03-10_16h52.54.584,SL_sali_41,2021.2.3,Win32,147.0588235,,,35,0,35,0,1,,,,,,,,
,,"[""circle"",""no_dis"",""hori"",""left"",[99999,99999],[106,-106]]",circle,no_dis,hori,left,"[99999,99999]","[106,-106]",left,1,0.6229,,,,,,001,2025-03-10_16h52.54.584,SL_sali_41,2021.2.3,Win32,147.0588235,,,36,0,36,0,1,,,,,,,,
,,"[""diamond"",""no_dis"",""vert"",""up"",[99999,99999],[-150,0]]",diamond,no_dis,vert,up,"[99999,99999]","[-150,0]",up,1,1.084,,,,,,001,2025-03-10_16h52.54.584,SL_sali_41,2021.2.3,Win32,147.0588235,,,37,0,37,0,1,,,,,,,,
,,"[""circle"",""red"",""hori"",""left"",[150,0],[-106,106]]",circle,red,hori,left,"[150,0]","[-106,106]",left,1,1.045,,,,,,001,2025-03-10_16h52.54.584,SL_sali_41,2021.2.3,Win32,147.0588235,,,38,0,38,0,1,,,,,,,,
,,"[""diamond"",""red"",""vert"",""up"",[0,150],[106,106]]",diamond,red,vert,up,"[0,150]","[106,106]",up,1,1.1398,,,,,,001,2025-03-10_16h52.54.584,SL_sali_41,2021.2.3,Win32,147.0588235,,,39,0,39,0,1,,,,,,,,
,,"[""circle"",""green"",""hori"",""left"",[150,0],[-106,-106]]",circle,green,hori,left,"[150,0]","[-106,-106]",left,1,0.7762,,,,,,001,2025-03-10_16h52.54.584,SL_sali_41,2021.2.3,Win32,147.0588235,,,40,0,40,0,1,,,,,,,,
,,"[""circle"",""red"",""hori"",""left"",[150,0],[106,-106]]",circle,red,hori,left,"[150,0]","[106,-106]",left,1,0.7977,,,,,,001,2025-03-10_16h52.54.584,SL_sali_41,2021.2.3,Win32,147.0588235,,,41,0,41,0,1,,,,,,,,
,,"[""circle"",""no_dis"",""vert"",""up"",[99999,99999],[0,-150]]",circle,no_dis,vert,up,"[99999,99999]","[0,-150]",up,1,0.7338,,,,,,001,2025-03-10_16h52.54.584,SL_sali_41,2021.2.3,Win32,147.0588235,,,42,0,42,0,1,,,,,,,,
,,"[""circle"",""no_dis"",""hori"",""left"",[99999,99999],[150,0]]",circle,no_dis,hori,left,"[99999,99999]","[150,0]",left,1,0.5803,,,,,,001,2025-03-10_16h52.54.584,SL_sali_41,2021.2.3,Win32,147.0588235,,,43,0,43,0,1,,,,,,,,
,,"[""circle"",""green"",""hori"",""left"",[-106,-106],[150,0]]",circle,green,hori,left,"[-106,-106]","[150,0]",left,1,0.6505,,,,,,001,2025-03-10_16h52.54.584,SL_sali_41,2021.2.3,Win32,147.0588235,,,44,0,44,0,1,,,,,,,,
,,"[""circle"",""no_dis"",""hori"",""left"",[99999,99999],[-150,0]]",circle,no_dis,hori,left,"[99999,99999]","[-150,0]",left,1,0.7798,,,,,,001,2025-03-10_16h52.54.584,SL_sali_41,2021.2.3,Win32,147.0588235,,,45,0,45,0,1,,,,,,,,
,,"[""circle"",""red"",""hori"",""left"",[106,-106],[106,106]]",circle,red,hori,left,"[106,-106]","[106,106]",up,0,0.6249,,,,,,001,2025-03-10_16h52.54.584,SL_sali_41,2021.2.3,Win32,147.0588235,,,46,0,46,0,1,,,,,,,,
,,"[""circle"",""no_dis"",""vert"",""up"",[99999,99999],[0,150]]",circle,no_dis,vert,up,"[99999,99999]","[0,150]",up,1,0.8936,,,,,,001,2025-03-10_16h52.54.584,SL_sali_41,2021.2.3,Win32,147.0588235,,,47,0,47,0,1,,,,,,,,
,,"[""circle"",""red"",""vert"",""up"",[0,150],[-150,0]]",circle,red,vert,up,"[0,150]","[-150,0]",up,1,0.7515,,,,,,001,2025-03-10_16h52.54.584,SL_sali_41,2021.2.3,Win32,147.0588235,,,48,0,48,0,1,,,,,,,,
,,"[""diamond"",""no_dis"",""hori"",""left"",[99999,99999],[150,0]]",diamond,no_dis,hori,left,"[99999,99999]","[150,0]",left,1,0.8444,,,,,,001,2025-03-10_16h52.54.584,SL_sali_41,2021.2.3,Win32,147.0588235,,,49,0,49,0,1,,,,,,,,
,,"[""diamond"",""red"",""hori"",""left"",[106,-106],[-106,106]]",diamond,red,hori,left,"[106,-106]","[-106,106]",left,1,1.0695,,,,,,001,2025-03-10_16h52.54.584,SL_sali_41,2021.2.3,Win32,147.0588235,,,50,0,50,0,1,,,,,,,,
,,"[""diamond"",""green"",""hori"",""left"",[106,-106],[-106,106]]",diamond,green,hori,left,"[106,-106]","[-106,106]",left,1,1.246,,,,,,001,2025-03-10_16h52.54.584,SL_sali_41,2021.2.3,Win32,147.0588235,,,51,0,51,0,1,,,,,,,,
,,"[""diamond"",""red"",""vert"",""up"",[150,0],[106,106]]",diamond,red,vert,up,"[150,0]","[106,106]",up,1,1.0024,,,,,,001,2025-03-10_16h52.54.584,SL_sali_41,2021.2.3,Win32,147.0588235,,,52,0,52,0,1,,,,,,,,
,,"[""circle"",""red"",""vert"",""up"",[106,106],[106,-106]]",circle,red,vert,up,"[106,106]","[106,-106]",up,1,1.1608,,,,,,001,2025-03-10_16h52.54.584,SL_sali_41,2021.2.3,Win32,147.0588235,,,53,0,53,0,1,,,,,,,,
,,"[""diamond"",""no_dis"",""vert"",""up"",[99999,99999],[0,150]]",diamond,no_dis,vert,up,"[99999,99999]","[0,150]",up,1,0.7299,,,,,,001,2025-03-10_16h52.54.584,SL_sali_41,2021.2.3,Win32,147.0588235,,,54,0,54,0,1,,,,,,,,
,,"[""diamond"",""red"",""hori"",""left"",[-106,106],[0,150]]",diamond,red,hori,left,"[-106,106]","[0,150]",left,1,0.6995,,,,,,001,2025-03-10_16h52.54.584,SL_sali_41,2021.2.3,Win32,147.0588235,,,55,0,55,0,1,,,,,,,,
,,"[""circle"",""no_dis"",""hori"",""left"",[99999,99999],[0,150]]",circle,no_dis,hori,left,"[99999,99999]","[0,150]",left,1,1.0222,,,,,,001,2025-03-10_16h52.54.584,SL_sali_41,2021.2.3,Win32,147.0588235,,,56,0,56,0,1,,,,,,,,
,,"[""diamond"",""red"",""vert"",""up"",[-106,-106],[-106,106]]",diamond,red,vert,up,"[-106,-106]","[-106,106]",up,1,1.8379,,,,,,001,2025-03-10_16h52.54.584,SL_sali_41,2021.2.3,Win32,147.0588235,,,57,0,57,0,1,,,,,,,,
,,"[""diamond"",""red"",""hori"",""left"",[-106,-106],[106,106]]",diamond,red,hori,left,"[-106,-106]","[106,106]",left,1,0.6483,,,,,,001,2025-03-10_16h52.54.584,SL_sali_41,2021.2.3,Win32,147.0588235,,,58,0,58,0,1,,,,,,,,
,,"[""diamond"",""no_dis"",""vert"",""up"",[99999,99999],[-150,0]]",diamond,no_dis,vert,up,"[99999,99999]","[-150,0]",up,1,0.8005,,,,,,001,2025-03-10_16h52.54.584,SL_sali_41,2021.2.3,Win32,147.0588235,,,59,0,59,0,1,,,,,,,,
,,"[""diamond"",""red"",""vert"",""up"",[106,106],[0,-150]]",diamond,red,vert,up,"[106,106]","[0,-150]",up,1,1.004,,,,,,001,2025-03-10_16h52.54.584,SL_sali_41,2021.2.3,Win32,147.0588235,,,60,0,60,0,1,,,,,,,,
,,"[""diamond"",""red"",""vert"",""up"",[106,-106],[-106,106]]",diamond,red,vert,up,"[106,-106]","[-106,106]",up,1,0.8519,,,,,,001,2025-03-10_16h52.54.584,SL_sali_41,2021.2.3,Win32,147.0588235,,,61,0,61,0,1,,,,,,,,
,,"[""diamond"",""green"",""hori"",""left"",[106,106],[-106,106]]",diamond,green,hori,left,"[106,106]","[-106,106]",left,1,0.8745,,,,,,001,2025-03-10_16h52.54.584,SL_sali_41,2021.2.3,Win32,147.0588235,,,62,0,62,0,1,,,,,,,,
,,"[""circle"",""green"",""vert"",""up"",[-150,0],[-106,-106]]",circle,green,vert,up,"[-150,0]","[-106,-106]",up,1,1.5417,,,,,,001,2025-03-10_16h52.54.584,SL_sali_41,2021.2.3,Win32,147.0588235,,,63,0,63,0,1,,,,,,,,
,,"[""circle"",""green"",""vert"",""up"",[106,106],[-106,106]]",circle,green,vert,up,"[106,106]","[-106,106]",up,1,1.0918,,,,,,001,2025-03-10_16h52.54.584,SL_sali_41,2021.2.3,Win32,147.0588235,,,64,0,64,0,1,,,,,,,,
,,"[""diamond"",""red"",""vert"",""up"",[-150,0],[106,106]]",diamond,red,vert,up,"[-150,0]","[106,106]",up,1,0.985,,,,,,001,2025-03-10_16h52.54.584,SL_sali_41,2021.2.3,Win32,147.0588235,,,65,0,65,0,1,,,,,,,,
,,"[""circle"",""red"",""hori"",""left"",[0,150],[106,-106]]",circle,red,hori,left,"[0,150]","[106,-106]",left,1,0.8462,,,,,,001,2025-03-10_16h52.54.584,SL_sali_41,2021.2.3,Win32,147.0588235,,,66,0,66,0,1,,,,,,,,
,,"[""diamond"",""no_dis"",""hori"",""left"",[99999,99999],[106,-106]]",diamond,no_dis,hori,left,"[99999,99999]","[106,-106]",left,1,1.32,,,,,,001,2025-03-10_16h52.54.584,SL_sali_41,2021.2.3,Win32,147.0588235,,,67,0,67,0,1,,,,,,,,
,,"[""diamond"",""green"",""vert"",""up"",[0,150],[150,0]]",diamond,green,vert,up,"[0,150]","[150,0]",up,1,1.0195,,,,,,001,2025-03-10_16h52.54.584,SL_sali_41,2021.2.3,Win32,147.0588235,,,68,0,68,0,1,,,,,,,,
,,"[""circle"",""green"",""hori"",""left"",[0,150],[106,-106]]",circle,green,hori,left,"[0,150]","[106,-106]",left,1,0.8104,,,,,,001,2025-03-10_16h52.54.584,SL_sali_41,2021.2.3,Win32,147.0588235,,,69,0,69,0,1,,,,,,,,
,,"[""diamond"",""green"",""hori"",""left"",[0,-150],[-106,-106]]",diamond,green,hori,left,"[0,-150]","[-106,-106]",left,1,1.2837,,,,,,001,2025-03-10_16h52.54.584,SL_sali_41,2021.2.3,Win32,147.0588235,,,70,0,70,0,1,,,,,,,,
,,"[""circle"",""no_dis"",""vert"",""up"",[99999,99999],[0,-150]]",circle,no_dis,vert,up,"[99999,99999]","[0,-150]",up,1,1.1065,,,,,,001,2025-03-10_16h52.54.584,SL_sali_41,2021.2.3,Win32,147.0588235,,,71,0,71,0,1,,,,,,,,
,,"[""circle"",""green"",""vert"",""up"",[150,0],[0,-150]]",circle,green,vert,up,"[150,0]","[0,-150]",up,1,0.7004,,,,,,001,2025-03-10_16h52.54.584,SL_sali_41,2021.2.3,Win32,147.0588235,,,72,0,72,0,1,,,,,,,,
,,"[""circle"",""green"",""vert"",""up"",[0,150],[-106,106]]",circle,green,vert,up,"[0,150]","[-106,106]",up,1,0.826,,,,,,001,2025-03-10_16h52.54.584,SL_sali_41,2021.2.3,Win32,147.0588235,,,73,0,73,0,1,,,,,,,,
,,"[""diamond"",""no_dis"",""vert"",""up"",[99999,99999],[106,106]]",diamond,no_dis,vert,up,"[99999,99999]","[106,106]",up,1,0.8073,,,,,,001,2025-03-10_16h52.54.584,SL_sali_41,2021.2.3,Win32,147.0588235,,,74,0,74,0,1,,,,,,,,
,,"[""circle"",""no_dis"",""hori"",""left"",[99999,99999],[-106,106]]",circle,no_dis,hori,left,"[99999,99999]","[-106,106]",left,1,0.6067,,,,,,001,2025-03-10_16h52.54.584,SL_sali_41,2021.2.3,Win32,147.0588235,,,75,0,75,0,1,,,,,,,,
,,"[""circle"",""green"",""hori"",""left"",[0,150],[-150,0]]",circle,green,hori,left,"[0,150]","[-150,0]",left,1,0.6259,,,,,,001,2025-03-10_16h52.54.584,SL_sali_41,2021.2.3,Win32,147.0588235,,,76,0,76,0,1,,,,,,,,
,,"[""circle"",""no_dis"",""vert"",""up"",[99999,99999],[0,-150]]",circle,no_dis,vert,up,"[99999,99999]","[0,-150]",up,1,0.7661,,,,,,001,2025-03-10_16h52.54.584,SL_sali_41,2021.2.3,Win32,147.0588235,,,77,0,77,0,1,,,,,,,,
,,"[""diamond"",""green"",""vert"",""up"",[150,0],[-106,106]]",diamond,green,vert,up,"[150,0]","[-106,106]",up,1,1.0894,,,,,,001,2025-03-10_16h52.54.584,SL_sali_41,2021.2.3,Win32,147.0588235,,,78,0,78,0,1,,,,,,,,
,,"[""circle"",""red"",""hori"",""left"",[-150,0],[106,-106]]",circle,red,hori,left,"[-150,0]","[106,-106]",left,1,0.973,,,,,,001,2025-03-10_16h52.54.584,SL_sali_41,2021.2.3,Win32,147.0588235,,,79,0,79,0,1,,,,,,,,
,,"[""circle"",""red"",""vert"",""up"",[0,150],[-106,-106]]",circle,red,vert,up,"[0,150]","[-106,-106]",up,1,0.7393,,,,,,001,2025-03-10_16h52.54.584,SL_sali_41,2021.2.3,Win32,147.0588235,,,80,0,80,0,1,,,,,,,,
,,"[""circle"",""no_dis"",""vert"",""up"",[99999,99999],[0,-150]]",circle,no_dis,vert,up,"[99999,99999]","[0,-150]",up,1,0.6136,,,,,,001,2025-03-10_16h52.54.584,SL_sali_41,2021.2.3,Win32,147.0588235,,,81,0,81,0,1,,,,,,,,
,,"[""circle"",""no_dis"",""hori"",""left"",[99999,99999],[0,150]]",circle,no_dis,hori,left,"[99999,99999]","[0,150]",left,1,0.8809,,,,,,001,2025-03-10_16h52.54.584,SL_sali_41,2021.2.3,Win32,147.0588235,,,82,0,82,0,1,,,,,,,,
,,"[""circle"",""green"",""vert"",""up"",[106,-106],[106,106]]",circle,green,vert,up,"[106,-106]","[106,106]",up,1,0.9821,,,,,,001,2025-03-10_16h52.54.584,SL_sali_41,2021.2.3,Win32,147.0588235,,,83,0,83,0,1,,,,,,,,
,,"[""diamond"",""green"",""vert"",""up"",[0,150],[106,106]]",diamond,green,vert,up,"[0,150]","[106,106]",left,0,1.1312,,,,,,001,2025-03-10_16h52.54.584,SL_sali_41,2021.2.3,Win32,147.0588235,,,84,0,84,0,1,,,,,,,,
,,"[""diamond"",""green"",""vert"",""up"",[106,-106],[-106,106]]",diamond,green,vert,up,"[106,-106]","[-106,106]",up,1,1.2308,,,,,,001,2025-03-10_16h52.54.584,SL_sali_41,2021.2.3,Win32,147.0588235,,,85,0,85,0,1,,,,,,,,
,,"[""diamond"",""no_dis"",""hori"",""left"",[99999,99999],[-106,106]]",diamond,no_dis,hori,left,"[99999,99999]","[-106,106]",left,1,1.4947,,,,,,001,2025-03-10_16h52.54.584,SL_sali_41,2021.2.3,Win32,147.0588235,,,86,0,86,0,1,,,,,,,,
,,"[""diamond"",""green"",""vert"",""up"",[0,150],[0,-150]]",diamond,green,vert,up,"[0,150]","[0,-150]",up,1,0.9779,,,,,,001,2025-03-10_16h52.54.584,SL_sali_41,2021.2.3,Win32,147.0588235,,,87,0,87,0,1,,,,,,,,
,,"[""circle"",""red"",""hori"",""left"",[0,150],[-106,106]]",circle,red,hori,left,"[0,150]","[-106,106]",left,1,0.9436,,,,,,001,2025-03-10_16h52.54.584,SL_sali_41,2021.2.3,Win32,147.0588235,,,88,0,88,0,1,,,,,,,,
,,"[""diamond"",""red"",""hori"",""left"",[0,150],[-150,0]]",diamond,red,hori,left,"[0,150]","[-150,0]",left,1,1.0202,,,,,,001,2025-03-10_16h52.54.584,SL_sali_41,2021.2.3,Win32,147.0588235,,,89,0,89,0,1,,,,,,,,
,,"[""circle"",""green"",""hori"",""left"",[-106,106],[0,-150]]",circle,green,hori,left,"[-106,106]","[0,-150]",left,1,1.5782,,,,,,001,2025-03-10_16h52.54.584,SL_sali_41,2021.2.3,Win32,147.0588235,,,90,0,90,0,1,,,,,,,,
,,"[""diamond"",""green"",""hori"",""left"",[0,150],[-106,-106]]",diamond,green,hori,left,"[0,150]","[-106,-106]",left,1,2.1309,,,,,,001,2025-03-10_16h52.54.584,SL_sali_41,2021.2.3,Win32,147.0588235,,,91,0,91,0,1,,,,,,,,
,,"[""diamond"",""no_dis"",""vert"",""up"",[99999,99999],[-106,-106]]",diamond,no_dis,vert,up,"[99999,99999]","[-106,-106]",up,1,0.9215,,,,,,001,2025-03-10_16h52.54.584,SL_sali_41,2021.2.3,Win32,147.0588235,,,92,0,92,0,1,,,,,,,,
,,"[""diamond"",""no_dis"",""hori"",""left"",[99999,99999],[-106,-106]]",diamond,no_dis,hori,left,"[99999,99999]","[-106,-106]",left,1,0.6895,,,,,,001,2025-03-10_16h52.54.584,SL_sali_41,2021.2.3,Win32,147.0588235,,,93,0,93,0,1,,,,,,,,
,,"[""diamond"",""red"",""hori"",""left"",[-150,0],[106,-106]]",diamond,red,hori,left,"[-150,0]","[106,-106]",left,1,0.6471,,,,,,001,2025-03-10_16h52.54.584,SL_sali_41,2021.2.3,Win32,147.0588235,,,94,0,94,0,1,,,,,,,,
,,"[""diamond"",""green"",""hori"",""left"",[0,-150],[-106,-106]]",diamond,green,hori,left,"[0,-150]","[-106,-106]",left,1,0.7001,,,,,,001,2025-03-10_16h52.54.584,SL_sali_41,2021.2.3,Win32,147.0588235,,,95,0,95,0,1,,,,,,,,
,,"[""circle"",""red"",""vert"",""up"",[106,-106],[-150,0]]",circle,red,vert,up,"[106,-106]","[-150,0]",up,1,0.8523,,,,,,001,2025-03-10_16h52.54.584,SL_sali_41,2021.2.3,Win32,147.0588235,,,96,0,96,0,1,,,,,,,,
,,"[""diamond"",""green"",""vert"",""up"",[0,150],[-106,-106]]",diamond,green,vert,up,"[0,150]","[-106,-106]",up,1,0.6314,,,,,,001,2025-03-10_16h52.54.584,SL_sali_41,2021.2.3,Win32,147.0588235,,,97,0,97,0,1,,,,,,,,
,,"[""circle"",""green"",""vert"",""up"",[0,150],[106,-106]]",circle,green,vert,up,"[0,150]","[106,-106]",up,1,0.6201,,,,,,001,2025-03-10_16h52.54.584,SL_sali_41,2021.2.3,Win32,147.0588235,,,98,0,98,0,1,,,,,,,,
,,"[""diamond"",""green"",""hori"",""left"",[-106,-106],[-106,106]]",diamond,green,hori,left,"[-106,-106]","[-106,106]",left,1,0.8543,,,,,,001,2025-03-10_16h52.54.584,SL_sali_41,2021.2.3,Win32,147.0588235,,,99,0,99,0,1,,,,,,,,
,,"[""diamond"",""no_dis"",""vert"",""up"",[99999,99999],[-106,106]]",diamond,no_dis,vert,up,"[99999,99999]","[-106,106]",up,1,0.7247,,,,,,001,2025-03-10_16h52.54.584,SL_sali_41,2021.2.3,Win32,147.0588235,,,100,0,100,0,1,,,,,,,,
,,"[""circle"",""green"",""hori"",""left"",[0,150],[-106,-106]]",circle,green,hori,left,"[0,150]","[-106,-106]",left,1,0.6404,,,,,,001,2025-03-10_16h52.54.584,SL_sali_41,2021.2.3,Win32,147.0588235,,,101,0,101,0,1,,,,,,,,
,,"[""circle"",""no_dis"",""hori"",""left"",[99999,99999],[0,150]]",circle,no_dis,hori,left,"[99999,99999]","[0,150]",left,1,1.4623,,,,,,001,2025-03-10_16h52.54.584,SL_sali_41,2021.2.3,Win32,147.0588235,,,102,0,102,0,1,,,,,,,,
,,"[""diamond"",""green"",""vert"",""up"",[0,-150],[106,-106]]",diamond,green,vert,up,"[0,-150]","[106,-106]",up,1,1.6309,,,,,,001,2025-03-10_16h52.54.584,SL_sali_41,2021.2.3,Win32,147.0588235,,,103,0,103,0,1,,,,,,,,
,,"[""diamond"",""no_dis"",""hori"",""left"",[99999,99999],[106,-106]]",diamond,no_dis,hori,left,"[99999,99999]","[106,-106]",left,1,0.6442,,,,,,001,2025-03-10_16h52.54.584,SL_sali_41,2021.2.3,Win32,147.0588235,,,104,0,104,0,1,,,,,,,,
,,"[""circle"",""green"",""vert"",""up"",[0,-150],[0,150]]",circle,green,vert,up,"[0,-150]","[0,150]",up,1,0.9861,,,,,,001,2025-03-10_16h52.54.584,SL_sali_41,2021.2.3,Win32,147.0588235,,,105,0,105,0,1,,,,,,,,
,,"[""diamond"",""red"",""vert"",""up"",[0,150],[106,106]]",diamond,red,vert,up,"[0,150]","[106,106]",up,1,1.662,,,,,,001,2025-03-10_16h52.54.584,SL_sali_41,2021.2.3,Win32,147.0588235,,,106,0,106,0,1,,,,,,,,
,,"[""circle"",""green"",""hori"",""left"",[0,-150],[106,-106]]",circle,green,hori,left,"[0,-150]","[106,-106]",left,1,1.7995,,,,,,001,2025-03-10_16h52.54.584,SL_sali_41,2021.2.3,Win32,147.0588235,,,107,0,107,0,1,,,,,,,,
,,"[""circle"",""red"",""vert"",""up"",[-106,106],[-150,0]]",circle,red,vert,up,"[-106,106]","[-150,0]",up,1,1.2479,,,,,,001,2025-03-10_16h52.54.584,SL_sali_41,2021.2.3,Win32,147.0588235,,,108,0,108,0,1,,,,,,,,
,,"[""circle"",""green"",""hori"",""left"",[106,106],[-150,0]]",circle,green,hori,left,"[106,106]","[-150,0]",left,1,0.7443,,,,,,001,2025-03-10_16h52.54.584,SL_sali_41,2021.2.3,Win32,147.0588235,,,109,0,109,0,1,,,,,,,,
,,"[""diamond"",""green"",""hori"",""left"",[106,106],[-106,106]]",diamond,green,hori,left,"[106,106]","[-106,106]",left,1,1.291,,,,,,001,2025-03-10_16h52.54.584,SL_sali_41,2021.2.3,Win32,147.0588235,,,110,0,110,0,1,,,,,,,,
,,"[""circle"",""green"",""hori"",""left"",[106,106],[106,-106]]",circle,green,hori,left,"[106,106]","[106,-106]",left,1,1.0707,,,,,,001,2025-03-10_16h52.54.584,SL_sali_41,2021.2.3,Win32,147.0588235,,,111,0,111,0,1,,,,,,,,
,,"[""circle"",""green"",""hori"",""left"",[0,150],[106,-106]]",circle,green,hori,left,"[0,150]","[106,-106]",left,1,0.5286,,,,,,001,2025-03-10_16h52.54.584,SL_sali_41,2021.2.3,Win32,147.0588235,,,112,0,112,0,1,,,,,,,,
,,"[""diamond"",""no_dis"",""vert"",""up"",[99999,99999],[150,0]]",diamond,no_dis,vert,up,"[99999,99999]","[150,0]",up,1,2.3195,,,,,,001,2025-03-10_16h52.54.584,SL_sali_41,2021.2.3,Win32,147.0588235,,,113,0,113,0,1,,,,,,,,
,,"[""circle"",""green"",""vert"",""up"",[0,-150],[-106,-106]]",circle,green,vert,up,"[0,-150]","[-106,-106]",left,0,1.5847,,,,,,001,2025-03-10_16h52.54.584,SL_sali_41,2021.2.3,Win32,147.0588235,,,114,0,114,0,1,,,,,,,,
,,"[""diamond"",""green"",""hori"",""left"",[0,150],[106,106]]",diamond,green,hori,left,"[0,150]","[106,106]",left,1,0.8149,,,,,,001,2025-03-10_16h52.54.584,SL_sali_41,2021.2.3,Win32,147.0588235,,,115,0,115,0,1,,,,,,,,
,,"[""circle"",""no_dis"",""hori"",""left"",[99999,99999],[106,106]]",circle,no_dis,hori,left,"[99999,99999]","[106,106]",left,1,0.8351,,,,,,001,2025-03-10_16h52.54.584,SL_sali_41,2021.2.3,Win32,147.0588235,,,116,0,116,0,1,,,,,,,,
,,"[""diamond"",""green"",""hori"",""left"",[-106,106],[0,150]]",diamond,green,hori,left,"[-106,106]","[0,150]",left,1,2.0966,,,,,,001,2025-03-10_16h52.54.584,SL_sali_41,2021.2.3,Win32,147.0588235,,,117,0,117,0,1,,,,,,,,
,,"[""diamond"",""no_dis"",""hori"",""left"",[99999,99999],[150,0]]",diamond,no_dis,hori,left,"[99999,99999]","[150,0]",left,1,0.8936,,,,,,001,2025-03-10_16h52.54.584,SL_sali_41,2021.2.3,Win32,147.0588235,,,118,0,118,0,1,,,,,,,,
,,"[""diamond"",""no_dis"",""vert"",""up"",[99999,99999],[106,106]]",diamond,no_dis,vert,up,"[99999,99999]","[106,106]",up,1,1.375,,,,,,001,2025-03-10_16h52.54.584,SL_sali_41,2021.2.3,Win32,147.0588235,,,119,0,119,0,1,,,,,,,,
,,"[""circle"",""no_dis"",""vert"",""up"",[99999,99999],[106,-106]]",circle,no_dis,vert,up,"[99999,99999]","[106,-106]",up,1,2.2345,,,,,,001,2025-03-10_16h52.54.584,SL_sali_41,2021.2.3,Win32,147.0588235,,,120,0,120,0,1,,,,,,,,
,,"[""diamond"",""green"",""hori"",""left"",[-150,0],[0,150]]",diamond,green,hori,left,"[-150,0]","[0,150]",left,1,0.9312,,,,,,001,2025-03-10_16h52.54.584,SL_sali_41,2021.2.3,Win32,147.0588235,,,121,0,121,0,1,,,,,,,,
,,"[""circle"",""no_dis"",""vert"",""up"",[99999,99999],[-150,0]]",circle,no_dis,vert,up,"[99999,99999]","[-150,0]",up,1,1.3253,,,,,,001,2025-03-10_16h52.54.584,SL_sali_41,2021.2.3,Win32,147.0588235,,,122,0,122,0,1,,,,,,,,
,,"[""circle"",""red"",""hori"",""left"",[150,0],[0,-150]]",circle,red,hori,left,"[150,0]","[0,-150]",left,1,1.1118,,,,,,001,2025-03-10_16h52.54.584,SL_sali_41,2021.2.3,Win32,147.0588235,,,123,0,123,0,1,,,,,,,,
,,"[""circle"",""red"",""hori"",""left"",[106,-106],[-106,-106]]",circle,red,hori,left,"[106,-106]","[-106,-106]",left,1,1.1879,,,,,,001,2025-03-10_16h52.54.584,SL_sali_41,2021.2.3,Win32,147.0588235,,,124,0,124,0,1,,,,,,,,
,,"[""diamond"",""red"",""vert"",""up"",[-106,-106],[106,-106]]",diamond,red,vert,up,"[-106,-106]","[106,-106]",up,1,1.4464,,,,,,001,2025-03-10_16h52.54.584,SL_sali_41,2021.2.3,Win32,147.0588235,,,125,0,125,0,1,,,,,,,,
,,"[""circle"",""red"",""hori"",""left"",[0,150],[106,-106]]",circle,red,hori,left,"[0,150]","[106,-106]",left,1,0.9883,,,,,,001,2025-03-10_16h52.54.584,SL_sali_41,2021.2.3,Win32,147.0588235,,,126,0,126,0,1,,,,,,,,
,,"[""diamond"",""red"",""hori"",""left"",[-106,106],[0,150]]",diamond,red,hori,left,"[-106,106]","[0,150]",left,1,1.0637,,,,,,001,2025-03-10_16h52.54.584,SL_sali_41,2021.2.3,Win32,147.0588235,,,127,0,127,0,1,,,,,,,,
,,,,,,,,,,,,,,,,,001,2025-03-10_16h52.54.584,SL_sali_41,2021.2.3,Win32,147.0588235,,,,,,,,3,space,13.858,2,0,2,0,1
,,"[""diamond"",""no_dis"",""vert"",""up"",[99999,99999],[106,106]]",diamond,no_dis,vert,up,"[99999,99999]","[106,106]",up,1,1.0737,,,,,,001,2025-03-10_16h52.54.584,SL_sali_41,2021.2.3,Win32,147.0588235,,,0,0,0,0,1,,,,,,,,
,,"[""diamond"",""red"",""hori"",""left"",[0,150],[0,-150]]",diamond,red,hori,left,"[0,150]","[0,-150]",left,1,0.6974,,,,,,001,2025-03-10_16h52.54.584,SL_sali_41,2021.2.3,Win32,147.0588235,,,1,0,1,0,1,,,,,,,,
,,"[""circle"",""green"",""hori"",""left"",[0,150],[-150,0]]",circle,green,hori,left,"[0,150]","[-150,0]",left,1,1.5481,,,,,,001,2025-03-10_16h52.54.584,SL_sali_41,2021.2.3,Win32,147.0588235,,,2,0,2,0,1,,,,,,,,
,,"[""circle"",""no_dis"",""vert"",""up"",[99999,99999],[0,-150]]",circle,no_dis,vert,up,"[99999,99999]","[0,-150]",up,1,0.6709,,,,,,001,2025-03-10_16h52.54.584,SL_sali_41,2021.2.3,Win32,147.0588235,,,3,0,3,0,1,,,,,,,,
,,"[""diamond"",""green"",""vert"",""up"",[0,150],[150,0]]",diamond,green,vert,up,"[0,150]","[150,0]",up,1,1.0331,,,,,,001,2025-03-10_16h52.54.584,SL_sali_41,2021.2.3,Win32,147.0588235,,,4,0,4,0,1,,,,,,,,
,,"[""circle"",""green"",""hori"",""left"",[0,150],[106,-106]]",circle,green,hori,left,"[0,150]","[106,-106]",left,1,0.9433,,,,,,001,2025-03-10_16h52.54.584,SL_sali_41,2021.2.3,Win32,147.0588235,,,5,0,5,0,1,,,,,,,,
,,"[""diamond"",""green"",""hori"",""left"",[106,-106],[-106,106]]",diamond,green,hori,left,"[106,-106]","[-106,106]",left,1,1.1004,,,,,,001,2025-03-10_16h52.54.584,SL_sali_41,2021.2.3,Win32,147.0588235,,,6,0,6,0,1,,,,,,,,
,,"[""circle"",""red"",""vert"",""up"",[106,-106],[-150,0]]",circle,red,vert,up,"[106,-106]","[-150,0]",up,1,1.2364,,,,,,001,2025-03-10_16h52.54.584,SL_sali_41,2021.2.3,Win32,147.0588235,,,7,0,7,0,1,,,,,,,,
,,"[""circle"",""green"",""hori"",""left"",[0,150],[-106,-106]]",circle,green,hori,left,"[0,150]","[-106,-106]",left,1,1.2911,,,,,,001,2025-03-10_16h52.54.584,SL_sali_41,2021.2.3,Win32,147.0588235,,,8,0,8,0,1,,,,,,,,
,,"[""circle"",""red"",""vert"",""up"",[0,150],[-150,0]]",circle,red,vert,up,"[0,150]","[-150,0]",left,0,1.1539,,,,,,001,2025-03-10_16h52.54.584,SL_sali_41,2021.2.3,Win32,147.0588235,,,9,0,9,0,1,,,,,,,,
,,"[""diamond"",""red"",""vert"",""up"",[150,0],[-150,0]]",diamond,red,vert,up,"[150,0]","[-150,0]",left,0,0.7706,,,,,,001,2025-03-10_16h52.54.584,SL_sali_41,2021.2.3,Win32,147.0588235,,,10,0,10,0,1,,,,,,,,
,,"[""circle"",""no_dis"",""vert"",""up"",[99999,99999],[0,-150]]",circle,no_dis,vert,up,"[99999,99999]","[0,-150]",up,1,1.0647,,,,,,001,2025-03-10_16h52.54.584,SL_sali_41,2021.2.3,Win32,147.0588235,,,11,0,11,0,1,,,,,,,,
,,"[""circle"",""red"",""vert"",""up"",[106,106],[106,-106]]",circle,red,vert,up,"[106,106]","[106,-106]",up,1,0.6407,,,,,,001,2025-03-10_16h52.54.584,SL_sali_41,2021.2.3,Win32,147.0588235,,,12,0,12,0,1,,,,,,,,
,,"[""diamond"",""red"",""vert"",""up"",[-106,-106],[106,-106]]",diamond,red,vert,up,"[-106,-106]","[106,-106]",up,1,1.027,,,,,,001,2025-03-10_16h52.54.584,SL_sali_41,2021.2.3,Win32,147.0588235,,,13,0,13,0,1,,,,,,,,
,,"[""diamond"",""green"",""hori"",""left"",[-150,0],[0,150]]",diamond,green,hori,left,"[-150,0]","[0,150]",left,1,0.8482,,,,,,001,2025-03-10_16h52.54.584,SL_sali_41,2021.2.3,Win32,147.0588235,,,14,0,14,0,1,,,,,,,,
,,"[""circle"",""no_dis"",""vert"",""up"",[99999,99999],[106,-106]]",circle,no_dis,vert,up,"[99999,99999]","[106,-106]",up,1,0.6556,,,,,,001,2025-03-10_16h52.54.584,SL_sali_41,2021.2.3,Win32,147.0588235,,,15,0,15,0,1,,,,,,,,
,,"[""diamond"",""red"",""hori"",""left"",[-106,106],[150,0]]",diamond,red,hori,left,"[-106,106]","[150,0]",left,1,1.6658,,,,,,001,2025-03-10_16h52.54.584,SL_sali_41,2021.2.3,Win32,147.0588235,,,16,0,16,0,1,,,,,,,,
,,"[""circle"",""green"",""vert"",""up"",[0,-150],[0,150]]",circle,green,vert,up,"[0,-150]","[0,150]",left,0,2.2143,,,,,,001,2025-03-10_16h52.54.584,SL_sali_41,2021.2.3,Win32,147.0588235,,,17,0,17,0,1,,,,,,,,
,,"[""diamond"",""green"",""hori"",""left"",[0,-150],[-106,-106]]",diamond,green,hori,left,"[0,-150]","[-106,-106]",left,1,0.7493,,,,,,001,2025-03-10_16h52.54.584,SL_sali_41,2021.2.3,Win32,147.0588235,,,18,0,18,0,1,,,,,,,,
,,"[""circle"",""green"",""vert"",""up"",[0,150],[106,-106]]",circle,green,vert,up,"[0,150]","[106,-106]",up,1,0.7924,,,,,,001,2025-03-10_16h52.54.584,SL_sali_41,2021.2.3,Win32,147.0588235,,,19,0,19,0,1,,,,,,,,
,,"[""circle"",""no_dis"",""hori"",""left"",[99999,99999],[-106,106]]",circle,no_dis,hori,left,"[99999,99999]","[-106,106]",left,1,0.7773,,,,,,001,2025-03-10_16h52.54.584,SL_sali_41,2021.2.3,Win32,147.0588235,,,20,0,20,0,1,,,,,,,,
,,"[""circle"",""green"",""hori"",""left"",[-106,-106],[150,0]]",circle,green,hori,left,"[-106,-106]","[150,0]",left,1,1.4086,,,,,,001,2025-03-10_16h52.54.584,SL_sali_41,2021.2.3,Win32,147.0588235,,,21,0,21,0,1,,,,,,,,
,,"[""diamond"",""red"",""hori"",""left"",[0,150],[-150,0]]",diamond,red,hori,left,"[0,150]","[-150,0]",left,1,1.2434,,,,,,001,2025-03-10_16h52.54.584,SL_sali_41,2021.2.3,Win32,147.0588235,,,22,0,22,0,1,,,,,,,,
,,"[""diamond"",""green"",""vert"",""up"",[0,150],[106,106]]",diamond,green,vert,up,"[0,150]","[106,106]",up,1,1.4916,,,,,,001,2025-03-10_16h52.54.584,SL_sali_41,2021.2.3,Win32,147.0588235,,,23,0,23,0,1,,,,,,,,
,,"[""circle"",""red"",""hori"",""left"",[0,150],[106,-106]]",circle,red,hori,left,"[0,150]","[106,-106]",left,1,1.9713,,,,,,001,2025-03-10_16h52.54.584,SL_sali_41,2021.2.3,Win32,147.0588235,,,24,0,24,0,1,,,,,,,,
,,"[""diamond"",""green"",""hori"",""left"",[-106,-106],[-106,106]]",diamond,green,hori,left,"[-106,-106]","[-106,106]",left,1,0.7627,,,,,,001,2025-03-10_16h52.54.584,SL_sali_41,2021.2.3,Win32,147.0588235,,,25,0,25,0,1,,,,,,,,
,,"[""diamond"",""no_dis"",""vert"",""up"",[99999,99999],[106,106]]",diamond,no_dis,vert,up,"[99999,99999]","[106,106]",up,1,1.7578,,,,,,001,2025-03-10_16h52.54.584,SL_sali_41,2021.2.3,Win32,147.0588235,,,26,0,26,0,1,,,,,,,,
,,"[""diamond"",""green"",""vert"",""up"",[0,150],[106,-106]]",diamond,green,vert,up,"[0,150]","[106,-106]",up,1,0.7296,,,,,,001,2025-03-10_16h52.54.584,SL_sali_41,2021.2.3,Win32,147.0588235,,,27,0,27,0,1,,,,,,,,
,,"[""circle"",""green"",""hori"",""left"",[0,150],[106,-106]]",circle,green,hori,left,"[0,150]","[106,-106]",left,1,1.2599,,,,,,001,2025-03-10_16h52.54.584,SL_sali_41,2021.2.3,Win32,147.0588235,,,28,0,28,0,1,,,,,,,,
,,"[""circle"",""no_dis"",""hori"",""left"",[99999,99999],[0,150]]",circle,no_dis,hori,left,"[99999,99999]","[0,150]",left,1,1.2085,,,,,,001,2025-03-10_16h52.54.584,SL_sali_41,2021.2.3,Win32,147.0588235,,,29,0,29,0,1,,,,,,,,
,,"[""diamond"",""no_dis"",""hori"",""left"",[99999,99999],[-106,106]]",diamond,no_dis,hori,left,"[99999,99999]","[-106,106]",left,1,0.7115,,,,,,001,2025-03-10_16h52.54.584,SL_sali_41,2021.2.3,Win32,147.0588235,,,30,0,30,0,1,,,,,,,,
,,"[""circle"",""no_dis"",""hori"",""left"",[99999,99999],[0,150]]",circle,no_dis,hori,left,"[99999,99999]","[0,150]",left,1,1.1905,,,,,,001,2025-03-10_16h52.54.584,SL_sali_41,2021.2.3,Win32,147.0588235,,,31,0,31,0,1,,,,,,,,
,,"[""circle"",""no_dis"",""hori"",""left"",[99999,99999],[106,-106]]",circle,no_dis,hori,left,"[99999,99999]","[106,-106]",left,1,1.8096,,,,,,001,2025-03-10_16h52.54.584,SL_sali_41,2021.2.3,Win32,147.0588235,,,32,0,32,0,1,,,,,,,,
,,"[""circle"",""red"",""hori"",""left"",[150,0],[106,-106]]",circle,red,hori,left,"[150,0]","[106,-106]",left,1,1.2217,,,,,,001,2025-03-10_16h52.54.584,SL_sali_41,2021.2.3,Win32,147.0588235,,,33,0,33,0,1,,,,,,,,
,,"[""diamond"",""green"",""vert"",""up"",[150,0],[-106,106]]",diamond,green,vert,up,"[150,0]","[-106,106]",up,1,0.895,,,,,,001,2025-03-10_16h52.54.584,SL_sali_41,2021.2.3,Win32,147.0588235,,,34,0,34,0,1,,,,,,,,
,,"[""diamond"",""red"",""vert"",""up"",[0,150],[106,106]]",diamond,red,vert,up,"[0,150]","[106,106]",up,1,1.259,,,,,,001,2025-03-10_16h52.54.584,SL_sali_41,2021.2.3,Win32,147.0588235,,,35,0,35,0,1,,,,,,,,
,,"[""circle"",""no_dis"",""hori"",""left"",[99999,99999],[-150,0]]",circle,no_dis,hori,left,"[99999,99999]","[-150,0]",left,1,1.2287,,,,,,001,2025-03-10_16h52.54.584,SL_sali_41,2021.2.3,Win32,147.0588235,,,36,0,36,0,1,,,,,,,,
,,"[""diamond"",""green"",""vert"",""up"",[0,150],[-106,-106]]",diamond,green,vert,up,"[0,150]","[-106,-106]",up,1,0.8393,,,,,,001,2025-03-10_16h52.54.584,SL_sali_41,2021.2.3,Win32,147.0588235,,,37,0,37,0,1,,,,,,,,
,,"[""circle"",""red"",""vert"",""up"",[0,150],[-150,0]]",circle,red,vert,up,"[0,150]","[-150,0]",up,1,0.7848,,,,,,001,2025-03-10_16h52.54.584,SL_sali_41,2021.2.3,Win32,147.0588235,,,38,0,38,0,1,,,,,,,,
,,"[""diamond"",""no_dis"",""hori"",""left"",[99999,99999],[150,0]]",diamond,no_dis,hori,left,"[99999,99999]","[150,0]",left,1,0.9109,,,,,,001,2025-03-10_16h52.54.584,SL_sali_41,2021.2.3,Win32,147.0588235,,,39,0,39,0,1,,,,,,,,
,,"[""diamond"",""red"",""vert"",""up"",[106,106],[0,-150]]",diamond,red,vert,up,"[106,106]","[0,-150]",up,1,0.6822,,,,,,001,2025-03-10_16h52.54.584,SL_sali_41,2021.2.3,Win32,147.0588235,,,40,0,40,0,1,,,,,,,,
,,"[""circle"",""green"",""hori"",""left"",[-150,0],[106,-106]]",circle,green,hori,left,"[-150,0]","[106,-106]",left,1,1.3107,,,,,,001,2025-03-10_16h52.54.584,SL_sali_41,2021.2.3,Win32,147.0588235,,,41,0,41,0,1,,,,,,,,
,,"[""circle"",""red"",""vert"",""up"",[-106,106],[-106,-106]]",circle,red,vert,up,"[-106,106]","[-106,-106]",up,1,1.1314,,,,,,001,2025-03-10_16h52.54.584,SL_sali_41,2021.2.3,Win32,147.0588235,,,42,0,42,0,1,,,,,,,,
,,"[""circle"",""no_dis"",""vert"",""up"",[99999,99999],[0,-150]]",circle,no_dis,vert,up,"[99999,99999]","[0,-150]",up,1,0.687,,,,,,001,2025-03-10_16h52.54.584,SL_sali_41,2021.2.3,Win32,147.0588235,,,43,0,43,0,1,,,,,,,,
,,"[""diamond"",""red"",""vert"",""up"",[106,-106],[-106,106]]",diamond,red,vert,up,"[106,-106]","[-106,106]",up,1,1.2628,,,,,,001,2025-03-10_16h52.54.584,SL_sali_41,2021.2.3,Win32,147.0588235,,,44,0,44,0,1,,,,,,,,
,,"[""diamond"",""red"",""hori"",""left"",[106,-106],[-106,106]]",diamond,red,hori,left,"[106,-106]","[-106,106]",left,1,0.865,,,,,,001,2025-03-10_16h52.54.584,SL_sali_41,2021.2.3,Win32,147.0588235,,,45,0,45,0,1,,,,,,,,
,,"[""diamond"",""no_dis"",""vert"",""up"",[99999,99999],[-150,0]]",diamond,no_dis,vert,up,"[99999,99999]","[-150,0]",up,1,0.8923,,,,,,001,2025-03-10_16h52.54.584,SL_sali_41,2021.2.3,Win32,147.0588235,,,46,0,46,0,1,,,,,,,,
,,"[""circle"",""green"",""hori"",""left"",[-106,106],[0,-150]]",circle,green,hori,left,"[-106,106]","[0,-150]",left,1,1.2844,,,,,,001,2025-03-10_16h52.54.584,SL_sali_41,2021.2.3,Win32,147.0588235,,,47,0,47,0,1,,,,,,,,
,,"[""circle"",""no_dis"",""hori"",""left"",[99999,99999],[0,150]]",circle,no_dis,hori,left,"[99999,99999]","[0,150]",left,1,1.6085,,,,,,001,2025-03-10_16h52.54.584,SL_sali_41,2021.2.3,Win32,147.0588235,,,48,0,48,0,1,,,,,,,,
,,"[""circle"",""red"",""vert"",""up"",[-106,106],[-150,0]]",circle,red,vert,up,"[-106,106]","[-150,0]",up,1,1.433,,,,,,001,2025-03-10_16h52.54.584,SL_sali_41,2021.2.3,Win32,147.0588235,,,49,0,49,0,1,,,,,,,,
,,"[""circle"",""green"",""vert"",""up"",[106,106],[-106,106]]",circle,green,vert,up,"[106,106]","[-106,106]",up,1,0.9807,,,,,,001,2025-03-10_16h52.54.584,SL_sali_41,2021.2.3,Win32,147.0588235,,,50,0,50,0,1,,,,,,,,
,,"[""circle"",""green"",""vert"",""up"",[150,0],[0,-150]]",circle,green,vert,up,"[150,0]","[0,-150]",up,1,1.6933,,,,,,001,2025-03-10_16h52.54.584,SL_sali_41,2021.2.3,Win32,147.0588235,,,51,0,51,0,1,,,,,,,,
,,"[""circle"",""no_dis"",""vert"",""up"",[99999,99999],[-150,0]]",circle,no_dis,vert,up,"[99999,99999]","[-150,0]",up,1,0.9816,,,,,,001,2025-03-10_16h52.54.584,SL_sali_41,2021.2.3,Win32,147.0588235,,,52,0,52,0,1,,,,,,,,
,,"[""circle"",""red"",""hori"",""left"",[106,-106],[106,106]]",circle,red,hori,left,"[106,-106]","[106,106]",left,1,0.8958,,,,,,001,2025-03-10_16h52.54.584,SL_sali_41,2021.2.3,Win32,147.0588235,,,53,0,53,0,1,,,,,,,,
,,"[""diamond"",""no_dis"",""vert"",""up"",[99999,99999],[-106,-106]]",diamond,no_dis,vert,up,"[99999,99999]","[-106,-106]",up,1,1.3467,,,,,,001,2025-03-10_16h52.54.584,SL_sali_41,2021.2.3,Win32,147.0588235,,,54,0,54,0,1,,,,,,,,
,,"[""circle"",""green"",""vert"",""up"",[0,-150],[-106,-106]]",circle,green,vert,up,"[0,-150]","[-106,-106]",up,1,0.8059,,,,,,001,2025-03-10_16h52.54.584,SL_sali_41,2021.2.3,Win32,147.0588235,,,55,0,55,0,1,,,,,,,,
,,"[""circle"",""no_dis"",""vert"",""up"",[99999,99999],[106,106]]",circle,no_dis,vert,up,"[99999,99999]","[106,106]",up,1,0.7707,,,,,,001,2025-03-10_16h52.54.584,SL_sali_41,2021.2.3,Win32,147.0588235,,,56,0,56,0,1,,,,,,,,
,,"[""diamond"",""no_dis"",""vert"",""up"",[99999,99999],[-150,0]]",diamond,no_dis,vert,up,"[99999,99999]","[-150,0]",up,1,1.4727,,,,,,001,2025-03-10_16h52.54.584,SL_sali_41,2021.2.3,Win32,147.0588235,,,57,0,57,0,1,,,,,,,,
,,"[""circle"",""red"",""vert"",""up"",[-150,0],[106,-106]]",circle,red,vert,up,"[-150,0]","[106,-106]",up,1,1.063,,,,,,001,2025-03-10_16h52.54.584,SL_sali_41,2021.2.3,Win32,147.0588235,,,58,0,58,0,1,,,,,,,,
,,"[""diamond"",""no_dis"",""hori"",""left"",[99999,99999],[-106,-106]]",diamond,no_dis,hori,left,"[99999,99999]","[-106,-106]",left,1,1.0896,,,,,,001,2025-03-10_16h52.54.584,SL_sali_41,2021.2.3,Win32,147.0588235,,,59,0,59,0,1,,,,,,,,
,,"[""circle"",""green"",""hori"",""left"",[0,-150],[106,-106]]",circle,green,hori,left,"[0,-150]","[106,-106]",left,1,0.8894,,,,,,001,2025-03-10_16h52.54.584,SL_sali_41,2021.2.3,Win32,147.0588235,,,60,0,60,0,1,,,,,,,,
