﻿key_resp.keys,key_resp.rt,trial_para,tar_shape,dis_color_condi,tar_line,cor_resp,dis_loc,tar_loc,resp.keys,resp.corr,trials.thisRepN,trials.thisTrialN,trials.thisN,trials.thisIndex,trials.ran,participant,date,expName,psychopyVersion,OS,frameRate,resp.rt,key_resp_2.keys,key_resp_2.rt,trials_2.thisRepN,trials_2.thisTrialN,trials_2.thisN,trials_2.thisIndex,trials_2.ran,block_num,key_resp_3.keys,key_resp_3.rt,trials_3.thisRepN,trials_3.thisTrialN,trials_3.thisN,trials_3.thisIndex,trials_3.ran
space,30.5192,"[""diamond"",""green"",""hori"",""left"",[-150,0],[0,150]]",diamond,green,hori,left,"[-150,0]","[0,150]",,0,0,0,0,0,1,001,2025-03-10_16h59.17.470,SL_sali_41,2021.2.3,Win32,144.1545337,,,,,,,,,,,,,,,,
,,"[""diamond"",""no_dis"",""hori"",""left"",[99999,99999],[150,0]]",diamond,no_dis,hori,left,"[99999,99999]","[150,0]",left,1,1,0,1,0,1,001,2025-03-10_16h59.17.470,SL_sali_41,2021.2.3,Win32,144.1545337,2.7868,,,,,,,,,,,,,,,
,,"[""circle"",""green"",""hori"",""left"",[-106,106],[0,150]]",circle,green,hori,left,"[-106,106]","[0,150]",,0,2,0,2,0,1,001,2025-03-10_16h59.17.470,SL_sali_41,2021.2.3,Win32,144.1545337,,,,,,,,,,,,,,,,
,,"[""diamond"",""no_dis"",""hori"",""left"",[99999,99999],[-150,0]]",diamond,no_dis,hori,left,"[99999,99999]","[-150,0]",,0,3,0,3,0,1,001,2025-03-10_16h59.17.470,SL_sali_41,2021.2.3,Win32,144.1545337,,,,,,,,,,,,,,,,
,,"[""circle"",""red"",""hori"",""left"",[0,150],[150,0]]",circle,red,hori,left,"[0,150]","[150,0]",left,1,4,0,4,0,1,001,2025-03-10_16h59.17.470,SL_sali_41,2021.2.3,Win32,144.1545337,2.3615,,,,,,,,,,,,,,,
,,"[""circle"",""red"",""hori"",""left"",[0,150],[-106,-106]]",circle,red,hori,left,"[0,150]","[-106,-106]",left,1,5,0,5,0,1,001,2025-03-10_16h59.17.470,SL_sali_41,2021.2.3,Win32,144.1545337,1.1188,,,,,,,,,,,,,,,
,,"[""circle"",""no_dis"",""vert"",""up"",[99999,99999],[106,106]]",circle,no_dis,vert,up,"[99999,99999]","[106,106]",up,1,6,0,6,0,1,001,2025-03-10_16h59.17.470,SL_sali_41,2021.2.3,Win32,144.1545337,2.6482,,,,,,,,,,,,,,,
,,"[""diamond"",""red"",""hori"",""left"",[106,-106],[-150,0]]",diamond,red,hori,left,"[106,-106]","[-150,0]",up,0,7,0,7,0,1,001,2025-03-10_16h59.17.470,SL_sali_41,2021.2.3,Win32,144.1545337,1.9862,,,,,,,,,,,,,,,
,,"[""diamond"",""red"",""vert"",""up"",[-106,106],[106,-106]]",diamond,red,vert,up,"[-106,106]","[106,-106]",up,1,8,0,8,0,1,001,2025-03-10_16h59.17.470,SL_sali_41,2021.2.3,Win32,144.1545337,2.8603,,,,,,,,,,,,,,,
,,"[""diamond"",""green"",""hori"",""left"",[-106,106],[0,150]]",diamond,green,hori,left,"[-106,106]","[0,150]",up,0,9,0,9,0,1,001,2025-03-10_16h59.17.470,SL_sali_41,2021.2.3,Win32,144.1545337,1.1246,,,,,,,,,,,,,,,
,,"[""diamond"",""green"",""hori"",""left"",[-150,0],[0,150]]",diamond,green,hori,left,"[-150,0]","[0,150]",left,1,,,,,,001,2025-03-10_16h59.17.470,SL_sali_41,2021.2.3,Win32,144.1545337,0.8959,space,8.73,0,0,0,0,1,,,,,,,,
,,"[""diamond"",""no_dis"",""hori"",""left"",[99999,99999],[150,0]]",diamond,no_dis,hori,left,"[99999,99999]","[150,0]",,0,,,,,,001,2025-03-10_16h59.17.470,SL_sali_41,2021.2.3,Win32,144.1545337,,,,1,0,1,0,1,,,,,,,,
,,"[""circle"",""green"",""hori"",""left"",[-106,106],[0,150]]",circle,green,hori,left,"[-106,106]","[0,150]",left,1,,,,,,001,2025-03-10_16h59.17.470,SL_sali_41,2021.2.3,Win32,144.1545337,2.4516,,,2,0,2,0,1,,,,,,,,
,,"[""diamond"",""no_dis"",""hori"",""left"",[99999,99999],[-150,0]]",diamond,no_dis,hori,left,"[99999,99999]","[-150,0]",left,1,,,,,,001,2025-03-10_16h59.17.470,SL_sali_41,2021.2.3,Win32,144.1545337,1.9539,,,3,0,3,0,1,,,,,,,,
,,"[""circle"",""red"",""hori"",""left"",[0,150],[150,0]]",circle,red,hori,left,"[0,150]","[150,0]",left,1,,,,,,001,2025-03-10_16h59.17.470,SL_sali_41,2021.2.3,Win32,144.1545337,2.6331,,,4,0,4,0,1,,,,,,,,
,,"[""circle"",""red"",""hori"",""left"",[0,150],[-106,-106]]",circle,red,hori,left,"[0,150]","[-106,-106]",left,1,,,,,,001,2025-03-10_16h59.17.470,SL_sali_41,2021.2.3,Win32,144.1545337,1.3844,,,5,0,5,0,1,,,,,,,,
,,"[""circle"",""no_dis"",""vert"",""up"",[99999,99999],[106,106]]",circle,no_dis,vert,up,"[99999,99999]","[106,106]",up,1,,,,,,001,2025-03-10_16h59.17.470,SL_sali_41,2021.2.3,Win32,144.1545337,2.2366,,,6,0,6,0,1,,,,,,,,
,,"[""diamond"",""red"",""hori"",""left"",[106,-106],[-150,0]]",diamond,red,hori,left,"[106,-106]","[-150,0]",left,1,,,,,,001,2025-03-10_16h59.17.470,SL_sali_41,2021.2.3,Win32,144.1545337,1.7848,,,7,0,7,0,1,,,,,,,,
,,"[""diamond"",""red"",""vert"",""up"",[-106,106],[106,-106]]",diamond,red,vert,up,"[-106,106]","[106,-106]",up,1,,,,,,001,2025-03-10_16h59.17.470,SL_sali_41,2021.2.3,Win32,144.1545337,1.4369,,,8,0,8,0,1,,,,,,,,
,,"[""diamond"",""green"",""hori"",""left"",[-106,106],[0,150]]",diamond,green,hori,left,"[-106,106]","[0,150]",left,1,,,,,,001,2025-03-10_16h59.17.470,SL_sali_41,2021.2.3,Win32,144.1545337,1.9234,,,9,0,9,0,1,,,,,,,,
,,"[""circle"",""green"",""hori"",""left"",[-106,106],[-106,-106]]",circle,green,hori,left,"[-106,106]","[-106,-106]",left,1,,,,,,001,2025-03-10_16h59.17.470,SL_sali_41,2021.2.3,Win32,144.1545337,1.8952,,,10,0,10,0,1,,,,,,,,
,,"[""diamond"",""green"",""hori"",""left"",[106,-106],[0,-150]]",diamond,green,hori,left,"[106,-106]","[0,-150]",left,1,,,,,,001,2025-03-10_16h59.17.470,SL_sali_41,2021.2.3,Win32,144.1545337,1.8266,,,11,0,11,0,1,,,,,,,,
,,"[""circle"",""red"",""vert"",""up"",[150,0],[106,106]]",circle,red,vert,up,"[150,0]","[106,106]",up,1,,,,,,001,2025-03-10_16h59.17.470,SL_sali_41,2021.2.3,Win32,144.1545337,1.2845,,,12,0,12,0,1,,,,,,,,
,,"[""circle"",""no_dis"",""hori"",""left"",[99999,99999],[-106,-106]]",circle,no_dis,hori,left,"[99999,99999]","[-106,-106]",left,1,,,,,,001,2025-03-10_16h59.17.470,SL_sali_41,2021.2.3,Win32,144.1545337,1.8341,,,13,0,13,0,1,,,,,,,,
,,"[""circle"",""green"",""vert"",""up"",[-106,106],[150,0]]",circle,green,vert,up,"[-106,106]","[150,0]",up,1,,,,,,001,2025-03-10_16h59.17.470,SL_sali_41,2021.2.3,Win32,144.1545337,0.9934,,,14,0,14,0,1,,,,,,,,
,,"[""circle"",""no_dis"",""hori"",""left"",[99999,99999],[106,-106]]",circle,no_dis,hori,left,"[99999,99999]","[106,-106]",left,1,,,,,,001,2025-03-10_16h59.17.470,SL_sali_41,2021.2.3,Win32,144.1545337,2.1257,,,15,0,15,0,1,,,,,,,,
,,"[""circle"",""green"",""vert"",""up"",[-106,106],[-150,0]]",circle,green,vert,up,"[-106,106]","[-150,0]",up,1,,,,,,001,2025-03-10_16h59.17.470,SL_sali_41,2021.2.3,Win32,144.1545337,1.3965,,,16,0,16,0,1,,,,,,,,
,,"[""diamond"",""red"",""vert"",""up"",[-106,106],[106,-106]]",diamond,red,vert,up,"[-106,106]","[106,-106]",up,1,,,,,,001,2025-03-10_16h59.17.470,SL_sali_41,2021.2.3,Win32,144.1545337,1.4111,,,17,0,17,0,1,,,,,,,,
,,"[""circle"",""green"",""hori"",""left"",[-106,106],[-150,0]]",circle,green,hori,left,"[-106,106]","[-150,0]",left,1,,,,,,001,2025-03-10_16h59.17.470,SL_sali_41,2021.2.3,Win32,144.1545337,1.8687,,,18,0,18,0,1,,,,,,,,
,,"[""diamond"",""no_dis"",""hori"",""left"",[99999,99999],[150,0]]",diamond,no_dis,hori,left,"[99999,99999]","[150,0]",left,1,,,,,,001,2025-03-10_16h59.17.470,SL_sali_41,2021.2.3,Win32,144.1545337,1.6743,,,19,0,19,0,1,,,,,,,,
,,"[""diamond"",""no_dis"",""vert"",""up"",[99999,99999],[0,150]]",diamond,no_dis,vert,up,"[99999,99999]","[0,150]",up,1,,,,,,001,2025-03-10_16h59.17.470,SL_sali_41,2021.2.3,Win32,144.1545337,1.9119,,,20,0,20,0,1,,,,,,,,
,,"[""circle"",""green"",""vert"",""up"",[-106,106],[150,0]]",circle,green,vert,up,"[-106,106]","[150,0]",up,1,,,,,,001,2025-03-10_16h59.17.470,SL_sali_41,2021.2.3,Win32,144.1545337,2.369,,,21,0,21,0,1,,,,,,,,
,,"[""diamond"",""red"",""hori"",""left"",[150,0],[0,-150]]",diamond,red,hori,left,"[150,0]","[0,-150]",left,1,,,,,,001,2025-03-10_16h59.17.470,SL_sali_41,2021.2.3,Win32,144.1545337,1.6527,,,22,0,22,0,1,,,,,,,,
,,"[""diamond"",""green"",""hori"",""left"",[0,-150],[106,-106]]",diamond,green,hori,left,"[0,-150]","[106,-106]",left,1,,,,,,001,2025-03-10_16h59.17.470,SL_sali_41,2021.2.3,Win32,144.1545337,1.9026,,,23,0,23,0,1,,,,,,,,
,,"[""circle"",""red"",""hori"",""left"",[-106,106],[-150,0]]",circle,red,hori,left,"[-106,106]","[-150,0]",left,1,,,,,,001,2025-03-10_16h59.17.470,SL_sali_41,2021.2.3,Win32,144.1545337,2.9033,,,24,0,24,0,1,,,,,,,,
,,"[""circle"",""green"",""vert"",""up"",[0,150],[-106,-106]]",circle,green,vert,up,"[0,150]","[-106,-106]",up,1,,,,,,001,2025-03-10_16h59.17.470,SL_sali_41,2021.2.3,Win32,144.1545337,1.9393,,,25,0,25,0,1,,,,,,,,
,,"[""circle"",""red"",""vert"",""up"",[0,150],[-106,-106]]",circle,red,vert,up,"[0,150]","[-106,-106]",up,1,,,,,,001,2025-03-10_16h59.17.470,SL_sali_41,2021.2.3,Win32,144.1545337,1.1323,,,26,0,26,0,1,,,,,,,,
,,"[""circle"",""green"",""vert"",""up"",[-106,106],[-106,-106]]",circle,green,vert,up,"[-106,106]","[-106,-106]",up,1,,,,,,001,2025-03-10_16h59.17.470,SL_sali_41,2021.2.3,Win32,144.1545337,0.912,,,27,0,27,0,1,,,,,,,,
,,"[""circle"",""green"",""hori"",""left"",[106,106],[-106,-106]]",circle,green,hori,left,"[106,106]","[-106,-106]",left,1,,,,,,001,2025-03-10_16h59.17.470,SL_sali_41,2021.2.3,Win32,144.1545337,1.882,,,28,0,28,0,1,,,,,,,,
,,"[""diamond"",""red"",""vert"",""up"",[0,150],[-106,-106]]",diamond,red,vert,up,"[0,150]","[-106,-106]",up,1,,,,,,001,2025-03-10_16h59.17.470,SL_sali_41,2021.2.3,Win32,144.1545337,1.2847,,,29,0,29,0,1,,,,,,,,
,,"[""diamond"",""red"",""hori"",""left"",[-150,0],[-106,106]]",diamond,red,hori,left,"[-150,0]","[-106,106]",left,1,,,,,,001,2025-03-10_16h59.17.470,SL_sali_41,2021.2.3,Win32,144.1545337,1.925,,,30,0,30,0,1,,,,,,,,
,,"[""circle"",""red"",""hori"",""left"",[150,0],[-106,-106]]",circle,red,hori,left,"[150,0]","[-106,-106]",left,1,,,,,,001,2025-03-10_16h59.17.470,SL_sali_41,2021.2.3,Win32,144.1545337,1.625,,,31,0,31,0,1,,,,,,,,
,,"[""circle"",""green"",""hori"",""left"",[106,106],[0,-150]]",circle,green,hori,left,"[106,106]","[0,-150]",left,1,,,,,,001,2025-03-10_16h59.17.470,SL_sali_41,2021.2.3,Win32,144.1545337,1.1701,,,32,0,32,0,1,,,,,,,,
,,"[""diamond"",""red"",""hori"",""left"",[-106,106],[-106,-106]]",diamond,red,hori,left,"[-106,106]","[-106,-106]",left,1,,,,,,001,2025-03-10_16h59.17.470,SL_sali_41,2021.2.3,Win32,144.1545337,2.113,,,33,0,33,0,1,,,,,,,,
,,"[""diamond"",""red"",""vert"",""up"",[150,0],[0,-150]]",diamond,red,vert,up,"[150,0]","[0,-150]",up,1,,,,,,001,2025-03-10_16h59.17.470,SL_sali_41,2021.2.3,Win32,144.1545337,1.4928,,,34,0,34,0,1,,,,,,,,
,,"[""diamond"",""green"",""vert"",""up"",[-106,-106],[0,150]]",diamond,green,vert,up,"[-106,-106]","[0,150]",up,1,,,,,,001,2025-03-10_16h59.17.470,SL_sali_41,2021.2.3,Win32,144.1545337,1.3611,,,35,0,35,0,1,,,,,,,,
,,"[""circle"",""red"",""vert"",""up"",[106,106],[0,150]]",circle,red,vert,up,"[106,106]","[0,150]",up,1,,,,,,001,2025-03-10_16h59.17.470,SL_sali_41,2021.2.3,Win32,144.1545337,2.0283,,,36,0,36,0,1,,,,,,,,
,,"[""circle"",""no_dis"",""vert"",""up"",[99999,99999],[-106,-106]]",circle,no_dis,vert,up,"[99999,99999]","[-106,-106]",up,1,,,,,,001,2025-03-10_16h59.17.470,SL_sali_41,2021.2.3,Win32,144.1545337,1.1336,,,37,0,37,0,1,,,,,,,,
,,"[""circle"",""no_dis"",""hori"",""left"",[99999,99999],[0,-150]]",circle,no_dis,hori,left,"[99999,99999]","[0,-150]",left,1,,,,,,001,2025-03-10_16h59.17.470,SL_sali_41,2021.2.3,Win32,144.1545337,0.9033,,,38,0,38,0,1,,,,,,,,
,,"[""diamond"",""red"",""hori"",""left"",[-106,-106],[106,106]]",diamond,red,hori,left,"[-106,-106]","[106,106]",left,1,,,,,,001,2025-03-10_16h59.17.470,SL_sali_41,2021.2.3,Win32,144.1545337,1.2299,,,39,0,39,0,1,,,,,,,,
,,"[""diamond"",""green"",""vert"",""up"",[0,-150],[-106,-106]]",diamond,green,vert,up,"[0,-150]","[-106,-106]",up,1,,,,,,001,2025-03-10_16h59.17.470,SL_sali_41,2021.2.3,Win32,144.1545337,1.4244,,,40,0,40,0,1,,,,,,,,
,,"[""diamond"",""no_dis"",""hori"",""left"",[99999,99999],[-106,-106]]",diamond,no_dis,hori,left,"[99999,99999]","[-106,-106]",left,1,,,,,,001,2025-03-10_16h59.17.470,SL_sali_41,2021.2.3,Win32,144.1545337,1.2659,,,41,0,41,0,1,,,,,,,,
,,"[""circle"",""no_dis"",""vert"",""up"",[99999,99999],[0,150]]",circle,no_dis,vert,up,"[99999,99999]","[0,150]",up,1,,,,,,001,2025-03-10_16h59.17.470,SL_sali_41,2021.2.3,Win32,144.1545337,1.8602,,,42,0,42,0,1,,,,,,,,
,,"[""circle"",""red"",""hori"",""left"",[106,106],[-106,-106]]",circle,red,hori,left,"[106,106]","[-106,-106]",left,1,,,,,,001,2025-03-10_16h59.17.470,SL_sali_41,2021.2.3,Win32,144.1545337,1.1483,,,43,0,43,0,1,,,,,,,,
,,"[""circle"",""no_dis"",""hori"",""left"",[99999,99999],[106,106]]",circle,no_dis,hori,left,"[99999,99999]","[106,106]",left,1,,,,,,001,2025-03-10_16h59.17.470,SL_sali_41,2021.2.3,Win32,144.1545337,1.0906,,,44,0,44,0,1,,,,,,,,
,,"[""circle"",""red"",""vert"",""up"",[-106,-106],[-150,0]]",circle,red,vert,up,"[-106,-106]","[-150,0]",up,1,,,,,,001,2025-03-10_16h59.17.470,SL_sali_41,2021.2.3,Win32,144.1545337,2.0284,,,45,0,45,0,1,,,,,,,,
,,"[""circle"",""red"",""hori"",""left"",[-106,106],[106,106]]",circle,red,hori,left,"[-106,106]","[106,106]",left,1,,,,,,001,2025-03-10_16h59.17.470,SL_sali_41,2021.2.3,Win32,144.1545337,1.035,,,46,0,46,0,1,,,,,,,,
,,"[""circle"",""no_dis"",""vert"",""up"",[99999,99999],[0,-150]]",circle,no_dis,vert,up,"[99999,99999]","[0,-150]",up,1,,,,,,001,2025-03-10_16h59.17.470,SL_sali_41,2021.2.3,Win32,144.1545337,1.7573,,,47,0,47,0,1,,,,,,,,
,,"[""circle"",""green"",""vert"",""up"",[-106,106],[-106,-106]]",circle,green,vert,up,"[-106,106]","[-106,-106]",up,1,,,,,,001,2025-03-10_16h59.17.470,SL_sali_41,2021.2.3,Win32,144.1545337,1.4658,,,48,0,48,0,1,,,,,,,,
,,"[""circle"",""red"",""vert"",""up"",[106,106],[0,-150]]",circle,red,vert,up,"[106,106]","[0,-150]",up,1,,,,,,001,2025-03-10_16h59.17.470,SL_sali_41,2021.2.3,Win32,144.1545337,1.3534,,,49,0,49,0,1,,,,,,,,
,,"[""diamond"",""green"",""vert"",""up"",[-106,-106],[150,0]]",diamond,green,vert,up,"[-106,-106]","[150,0]",up,1,,,,,,001,2025-03-10_16h59.17.470,SL_sali_41,2021.2.3,Win32,144.1545337,2.6324,,,50,0,50,0,1,,,,,,,,
,,"[""circle"",""green"",""vert"",""up"",[150,0],[106,106]]",circle,green,vert,up,"[150,0]","[106,106]",up,1,,,,,,001,2025-03-10_16h59.17.470,SL_sali_41,2021.2.3,Win32,144.1545337,1.6616,,,51,0,51,0,1,,,,,,,,
,,"[""circle"",""no_dis"",""vert"",""up"",[99999,99999],[-106,106]]",circle,no_dis,vert,up,"[99999,99999]","[-106,106]",up,1,,,,,,001,2025-03-10_16h59.17.470,SL_sali_41,2021.2.3,Win32,144.1545337,1.7016,,,52,0,52,0,1,,,,,,,,
,,"[""diamond"",""no_dis"",""vert"",""up"",[99999,99999],[-150,0]]",diamond,no_dis,vert,up,"[99999,99999]","[-150,0]",up,1,,,,,,001,2025-03-10_16h59.17.470,SL_sali_41,2021.2.3,Win32,144.1545337,1.3331,,,53,0,53,0,1,,,,,,,,
,,"[""circle"",""red"",""vert"",""up"",[-150,0],[-106,106]]",circle,red,vert,up,"[-150,0]","[-106,106]",up,1,,,,,,001,2025-03-10_16h59.17.470,SL_sali_41,2021.2.3,Win32,144.1545337,2.2433,,,54,0,54,0,1,,,,,,,,
,,"[""circle"",""green"",""hori"",""left"",[-106,-106],[-106,106]]",circle,green,hori,left,"[-106,-106]","[-106,106]",left,1,,,,,,001,2025-03-10_16h59.17.470,SL_sali_41,2021.2.3,Win32,144.1545337,1.2937,,,55,0,55,0,1,,,,,,,,
,,"[""circle"",""red"",""hori"",""left"",[-106,106],[150,0]]",circle,red,hori,left,"[-106,106]","[150,0]",left,1,,,,,,001,2025-03-10_16h59.17.470,SL_sali_41,2021.2.3,Win32,144.1545337,1.2706,,,56,0,56,0,1,,,,,,,,
,,"[""diamond"",""green"",""hori"",""left"",[-106,106],[-106,-106]]",diamond,green,hori,left,"[-106,106]","[-106,-106]",left,1,,,,,,001,2025-03-10_16h59.17.470,SL_sali_41,2021.2.3,Win32,144.1545337,1.7504,,,57,0,57,0,1,,,,,,,,
,,"[""diamond"",""no_dis"",""hori"",""left"",[99999,99999],[150,0]]",diamond,no_dis,hori,left,"[99999,99999]","[150,0]",left,1,,,,,,001,2025-03-10_16h59.17.470,SL_sali_41,2021.2.3,Win32,144.1545337,1.6662,,,58,0,58,0,1,,,,,,,,
,,"[""circle"",""green"",""vert"",""up"",[-106,106],[0,-150]]",circle,green,vert,up,"[-106,106]","[0,-150]",up,1,,,,,,001,2025-03-10_16h59.17.470,SL_sali_41,2021.2.3,Win32,144.1545337,1.0371,,,59,0,59,0,1,,,,,,,,
,,"[""diamond"",""no_dis"",""vert"",""up"",[99999,99999],[-150,0]]",diamond,no_dis,vert,up,"[99999,99999]","[-150,0]",up,1,,,,,,001,2025-03-10_16h59.17.470,SL_sali_41,2021.2.3,Win32,144.1545337,2.4995,,,60,0,60,0,1,,,,,,,,
,,"[""circle"",""no_dis"",""vert"",""up"",[99999,99999],[106,-106]]",circle,no_dis,vert,up,"[99999,99999]","[106,-106]",up,1,,,,,,001,2025-03-10_16h59.17.470,SL_sali_41,2021.2.3,Win32,144.1545337,1.729,,,61,0,61,0,1,,,,,,,,
,,"[""circle"",""no_dis"",""hori"",""left"",[99999,99999],[106,106]]",circle,no_dis,hori,left,"[99999,99999]","[106,106]",left,1,,,,,,001,2025-03-10_16h59.17.470,SL_sali_41,2021.2.3,Win32,144.1545337,1.3615,,,62,0,62,0,1,,,,,,,,
,,"[""diamond"",""no_dis"",""hori"",""left"",[99999,99999],[-106,-106]]",diamond,no_dis,hori,left,"[99999,99999]","[-106,-106]",left,1,,,,,,001,2025-03-10_16h59.17.470,SL_sali_41,2021.2.3,Win32,144.1545337,0.9443,,,63,0,63,0,1,,,,,,,,
,,"[""diamond"",""green"",""hori"",""left"",[-150,0],[150,0]]",diamond,green,hori,left,"[-150,0]","[150,0]",left,1,,,,,,001,2025-03-10_16h59.17.470,SL_sali_41,2021.2.3,Win32,144.1545337,1.6942,,,64,0,64,0,1,,,,,,,,
,,"[""circle"",""red"",""vert"",""up"",[-106,106],[106,106]]",circle,red,vert,up,"[-106,106]","[106,106]",up,1,,,,,,001,2025-03-10_16h59.17.470,SL_sali_41,2021.2.3,Win32,144.1545337,2.2092,,,65,0,65,0,1,,,,,,,,
,,"[""diamond"",""no_dis"",""vert"",""up"",[99999,99999],[0,150]]",diamond,no_dis,vert,up,"[99999,99999]","[0,150]",up,1,,,,,,001,2025-03-10_16h59.17.470,SL_sali_41,2021.2.3,Win32,144.1545337,1.0559,,,66,0,66,0,1,,,,,,,,
,,"[""circle"",""red"",""vert"",""up"",[-150,0],[106,-106]]",circle,red,vert,up,"[-150,0]","[106,-106]",up,1,,,,,,001,2025-03-10_16h59.17.470,SL_sali_41,2021.2.3,Win32,144.1545337,1.5422,,,67,0,67,0,1,,,,,,,,
,,"[""diamond"",""green"",""vert"",""up"",[106,106],[-106,-106]]",diamond,green,vert,up,"[106,106]","[-106,-106]",up,1,,,,,,001,2025-03-10_16h59.17.470,SL_sali_41,2021.2.3,Win32,144.1545337,1.2293,,,68,0,68,0,1,,,,,,,,
,,"[""diamond"",""no_dis"",""vert"",""up"",[99999,99999],[-150,0]]",diamond,no_dis,vert,up,"[99999,99999]","[-150,0]",up,1,,,,,,001,2025-03-10_16h59.17.470,SL_sali_41,2021.2.3,Win32,144.1545337,2.3206,,,69,0,69,0,1,,,,,,,,
,,"[""circle"",""green"",""hori"",""left"",[106,-106],[-150,0]]",circle,green,hori,left,"[106,-106]","[-150,0]",left,1,,,,,,001,2025-03-10_16h59.17.470,SL_sali_41,2021.2.3,Win32,144.1545337,0.8483,,,70,0,70,0,1,,,,,,,,
,,"[""diamond"",""no_dis"",""vert"",""up"",[99999,99999],[0,150]]",diamond,no_dis,vert,up,"[99999,99999]","[0,150]",up,1,,,,,,001,2025-03-10_16h59.17.470,SL_sali_41,2021.2.3,Win32,144.1545337,1.0421,,,71,0,71,0,1,,,,,,,,
,,"[""circle"",""green"",""hori"",""left"",[0,-150],[-150,0]]",circle,green,hori,left,"[0,-150]","[-150,0]",left,1,,,,,,001,2025-03-10_16h59.17.470,SL_sali_41,2021.2.3,Win32,144.1545337,0.9168,,,72,0,72,0,1,,,,,,,,
,,"[""circle"",""no_dis"",""hori"",""left"",[99999,99999],[0,-150]]",circle,no_dis,hori,left,"[99999,99999]","[0,-150]",left,1,,,,,,001,2025-03-10_16h59.17.470,SL_sali_41,2021.2.3,Win32,144.1545337,1.1896,,,73,0,73,0,1,,,,,,,,
,,"[""diamond"",""green"",""hori"",""left"",[-106,106],[-150,0]]",diamond,green,hori,left,"[-106,106]","[-150,0]",left,1,,,,,,001,2025-03-10_16h59.17.470,SL_sali_41,2021.2.3,Win32,144.1545337,2.2431,,,74,0,74,0,1,,,,,,,,
,,"[""circle"",""red"",""hori"",""left"",[-106,106],[106,-106]]",circle,red,hori,left,"[-106,106]","[106,-106]",left,1,,,,,,001,2025-03-10_16h59.17.470,SL_sali_41,2021.2.3,Win32,144.1545337,1.0763,,,75,0,75,0,1,,,,,,,,
,,"[""diamond"",""red"",""hori"",""left"",[-106,106],[150,0]]",diamond,red,hori,left,"[-106,106]","[150,0]",left,1,,,,,,001,2025-03-10_16h59.17.470,SL_sali_41,2021.2.3,Win32,144.1545337,1.5289,,,76,0,76,0,1,,,,,,,,
,,"[""diamond"",""red"",""vert"",""up"",[150,0],[-150,0]]",diamond,red,vert,up,"[150,0]","[-150,0]",up,1,,,,,,001,2025-03-10_16h59.17.470,SL_sali_41,2021.2.3,Win32,144.1545337,1.8615,,,77,0,77,0,1,,,,,,,,
,,"[""diamond"",""green"",""hori"",""left"",[-106,106],[0,-150]]",diamond,green,hori,left,"[-106,106]","[0,-150]",left,1,,,,,,001,2025-03-10_16h59.17.470,SL_sali_41,2021.2.3,Win32,144.1545337,2.5628,,,78,0,78,0,1,,,,,,,,
,,"[""diamond"",""green"",""hori"",""left"",[-106,106],[106,106]]",diamond,green,hori,left,"[-106,106]","[106,106]",left,1,,,,,,001,2025-03-10_16h59.17.470,SL_sali_41,2021.2.3,Win32,144.1545337,0.8827,,,79,0,79,0,1,,,,,,,,
,,"[""diamond"",""red"",""hori"",""left"",[-106,106],[106,-106]]",diamond,red,hori,left,"[-106,106]","[106,-106]",left,1,,,,,,001,2025-03-10_16h59.17.470,SL_sali_41,2021.2.3,Win32,144.1545337,0.9247,,,80,0,80,0,1,,,,,,,,
,,"[""circle"",""red"",""hori"",""left"",[106,-106],[-106,106]]",circle,red,hori,left,"[106,-106]","[-106,106]",left,1,,,,,,001,2025-03-10_16h59.17.470,SL_sali_41,2021.2.3,Win32,144.1545337,1.3408,,,81,0,81,0,1,,,,,,,,
,,"[""diamond"",""no_dis"",""hori"",""left"",[99999,99999],[-106,-106]]",diamond,no_dis,hori,left,"[99999,99999]","[-106,-106]",left,1,,,,,,001,2025-03-10_16h59.17.470,SL_sali_41,2021.2.3,Win32,144.1545337,1.0698,,,82,0,82,0,1,,,,,,,,
,,"[""diamond"",""green"",""vert"",""up"",[0,150],[-106,-106]]",diamond,green,vert,up,"[0,150]","[-106,-106]",up,1,,,,,,001,2025-03-10_16h59.17.470,SL_sali_41,2021.2.3,Win32,144.1545337,1.2364,,,83,0,83,0,1,,,,,,,,
,,"[""diamond"",""red"",""vert"",""up"",[-106,106],[-106,-106]]",diamond,red,vert,up,"[-106,106]","[-106,-106]",up,1,,,,,,001,2025-03-10_16h59.17.470,SL_sali_41,2021.2.3,Win32,144.1545337,1.7165,,,84,0,84,0,1,,,,,,,,
,,"[""diamond"",""red"",""hori"",""left"",[150,0],[-106,106]]",diamond,red,hori,left,"[150,0]","[-106,106]",left,1,,,,,,001,2025-03-10_16h59.17.470,SL_sali_41,2021.2.3,Win32,144.1545337,2.2934,,,85,0,85,0,1,,,,,,,,
,,"[""circle"",""no_dis"",""vert"",""up"",[99999,99999],[106,-106]]",circle,no_dis,vert,up,"[99999,99999]","[106,-106]",up,1,,,,,,001,2025-03-10_16h59.17.470,SL_sali_41,2021.2.3,Win32,144.1545337,1.3271,,,86,0,86,0,1,,,,,,,,
,,"[""circle"",""no_dis"",""hori"",""left"",[99999,99999],[-150,0]]",circle,no_dis,hori,left,"[99999,99999]","[-150,0]",left,1,,,,,,001,2025-03-10_16h59.17.470,SL_sali_41,2021.2.3,Win32,144.1545337,1.5698,,,87,0,87,0,1,,,,,,,,
,,"[""circle"",""red"",""vert"",""up"",[0,-150],[-106,-106]]",circle,red,vert,up,"[0,-150]","[-106,-106]",up,1,,,,,,001,2025-03-10_16h59.17.470,SL_sali_41,2021.2.3,Win32,144.1545337,2.028,,,88,0,88,0,1,,,,,,,,
,,"[""circle"",""green"",""hori"",""left"",[-106,106],[0,150]]",circle,green,hori,left,"[-106,106]","[0,150]",left,1,,,,,,001,2025-03-10_16h59.17.470,SL_sali_41,2021.2.3,Win32,144.1545337,2.7732,,,89,0,89,0,1,,,,,,,,
,,"[""circle"",""no_dis"",""vert"",""up"",[99999,99999],[106,-106]]",circle,no_dis,vert,up,"[99999,99999]","[106,-106]",up,1,,,,,,001,2025-03-10_16h59.17.470,SL_sali_41,2021.2.3,Win32,144.1545337,1.9115,,,90,0,90,0,1,,,,,,,,
,,"[""circle"",""red"",""hori"",""left"",[0,-150],[106,106]]",circle,red,hori,left,"[0,-150]","[106,106]",left,1,,,,,,001,2025-03-10_16h59.17.470,SL_sali_41,2021.2.3,Win32,144.1545337,1.1185,,,91,0,91,0,1,,,,,,,,
,,"[""diamond"",""green"",""vert"",""up"",[-150,0],[106,-106]]",diamond,green,vert,up,"[-150,0]","[106,-106]",up,1,,,,,,001,2025-03-10_16h59.17.470,SL_sali_41,2021.2.3,Win32,144.1545337,1.16,,,92,0,92,0,1,,,,,,,,
,,"[""circle"",""no_dis"",""hori"",""left"",[99999,99999],[106,106]]",circle,no_dis,hori,left,"[99999,99999]","[106,106]",left,1,,,,,,001,2025-03-10_16h59.17.470,SL_sali_41,2021.2.3,Win32,144.1545337,0.8961,,,93,0,93,0,1,,,,,,,,
,,"[""diamond"",""red"",""vert"",""up"",[-106,106],[-150,0]]",diamond,red,vert,up,"[-106,106]","[-150,0]",up,1,,,,,,001,2025-03-10_16h59.17.470,SL_sali_41,2021.2.3,Win32,144.1545337,2.5903,,,94,0,94,0,1,,,,,,,,
,,"[""circle"",""red"",""hori"",""left"",[-106,-106],[150,0]]",circle,red,hori,left,"[-106,-106]","[150,0]",left,1,,,,,,001,2025-03-10_16h59.17.470,SL_sali_41,2021.2.3,Win32,144.1545337,2.2781,,,95,0,95,0,1,,,,,,,,
,,"[""circle"",""red"",""vert"",""up"",[0,-150],[-150,0]]",circle,red,vert,up,"[0,-150]","[-150,0]",up,1,,,,,,001,2025-03-10_16h59.17.470,SL_sali_41,2021.2.3,Win32,144.1545337,1.8546,,,96,0,96,0,1,,,,,,,,
,,"[""diamond"",""green"",""hori"",""left"",[0,-150],[150,0]]",diamond,green,hori,left,"[0,-150]","[150,0]",left,1,,,,,,001,2025-03-10_16h59.17.470,SL_sali_41,2021.2.3,Win32,144.1545337,2.688,,,97,0,97,0,1,,,,,,,,
,,"[""circle"",""no_dis"",""vert"",""up"",[99999,99999],[-106,106]]",circle,no_dis,vert,up,"[99999,99999]","[-106,106]",up,1,,,,,,001,2025-03-10_16h59.17.470,SL_sali_41,2021.2.3,Win32,144.1545337,0.9653,,,98,0,98,0,1,,,,,,,,
,,"[""diamond"",""red"",""vert"",""up"",[-150,0],[106,106]]",diamond,red,vert,up,"[-150,0]","[106,106]",up,1,,,,,,001,2025-03-10_16h59.17.470,SL_sali_41,2021.2.3,Win32,144.1545337,1.8963,,,99,0,99,0,1,,,,,,,,
,,"[""diamond"",""green"",""hori"",""left"",[-106,-106],[-150,0]]",diamond,green,hori,left,"[-106,-106]","[-150,0]",left,1,,,,,,001,2025-03-10_16h59.17.470,SL_sali_41,2021.2.3,Win32,144.1545337,1.8981,,,100,0,100,0,1,,,,,,,,
,,"[""circle"",""no_dis"",""hori"",""left"",[99999,99999],[0,-150]]",circle,no_dis,hori,left,"[99999,99999]","[0,-150]",left,1,,,,,,001,2025-03-10_16h59.17.470,SL_sali_41,2021.2.3,Win32,144.1545337,1.5578,,,101,0,101,0,1,,,,,,,,
,,"[""circle"",""no_dis"",""hori"",""left"",[99999,99999],[106,-106]]",circle,no_dis,hori,left,"[99999,99999]","[106,-106]",left,1,,,,,,001,2025-03-10_16h59.17.470,SL_sali_41,2021.2.3,Win32,144.1545337,1.1192,,,102,0,102,0,1,,,,,,,,
,,"[""circle"",""green"",""vert"",""up"",[0,150],[150,0]]",circle,green,vert,up,"[0,150]","[150,0]",up,1,,,,,,001,2025-03-10_16h59.17.470,SL_sali_41,2021.2.3,Win32,144.1545337,1.3406,,,103,0,103,0,1,,,,,,,,
,,"[""diamond"",""red"",""hori"",""left"",[106,106],[0,-150]]",diamond,red,hori,left,"[106,106]","[0,-150]",left,1,,,,,,001,2025-03-10_16h59.17.470,SL_sali_41,2021.2.3,Win32,144.1545337,1.7294,,,104,0,104,0,1,,,,,,,,
,,"[""circle"",""red"",""vert"",""up"",[-106,106],[106,-106]]",circle,red,vert,up,"[-106,106]","[106,-106]",up,1,,,,,,001,2025-03-10_16h59.17.470,SL_sali_41,2021.2.3,Win32,144.1545337,1.154,,,105,0,105,0,1,,,,,,,,
,,"[""circle"",""green"",""vert"",""up"",[106,106],[-150,0]]",circle,green,vert,up,"[106,106]","[-150,0]",up,1,,,,,,001,2025-03-10_16h59.17.470,SL_sali_41,2021.2.3,Win32,144.1545337,1.9165,,,106,0,106,0,1,,,,,,,,
,,"[""diamond"",""no_dis"",""hori"",""left"",[99999,99999],[-106,106]]",diamond,no_dis,hori,left,"[99999,99999]","[-106,106]",left,1,,,,,,001,2025-03-10_16h59.17.470,SL_sali_41,2021.2.3,Win32,144.1545337,1.2921,,,107,0,107,0,1,,,,,,,,
,,"[""diamond"",""red"",""hori"",""left"",[-106,-106],[106,-106]]",diamond,red,hori,left,"[-106,-106]","[106,-106]",left,1,,,,,,001,2025-03-10_16h59.17.470,SL_sali_41,2021.2.3,Win32,144.1545337,1.7656,,,108,0,108,0,1,,,,,,,,
,,"[""diamond"",""red"",""vert"",""up"",[-150,0],[0,150]]",diamond,red,vert,up,"[-150,0]","[0,150]",up,1,,,,,,001,2025-03-10_16h59.17.470,SL_sali_41,2021.2.3,Win32,144.1545337,1.4114,,,109,0,109,0,1,,,,,,,,
,,"[""circle"",""no_dis"",""vert"",""up"",[99999,99999],[0,150]]",circle,no_dis,vert,up,"[99999,99999]","[0,150]",up,1,,,,,,001,2025-03-10_16h59.17.470,SL_sali_41,2021.2.3,Win32,144.1545337,1.6455,,,110,0,110,0,1,,,,,,,,
,,"[""diamond"",""green"",""vert"",""up"",[0,150],[0,-150]]",diamond,green,vert,up,"[0,150]","[0,-150]",up,1,,,,,,001,2025-03-10_16h59.17.470,SL_sali_41,2021.2.3,Win32,144.1545337,1.3824,,,111,0,111,0,1,,,,,,,,
,,"[""diamond"",""red"",""vert"",""up"",[-106,106],[106,106]]",diamond,red,vert,up,"[-106,106]","[106,106]",up,1,,,,,,001,2025-03-10_16h59.17.470,SL_sali_41,2021.2.3,Win32,144.1545337,2.0008,,,112,0,112,0,1,,,,,,,,
,,"[""diamond"",""green"",""vert"",""up"",[106,-106],[0,-150]]",diamond,green,vert,up,"[106,-106]","[0,-150]",up,1,,,,,,001,2025-03-10_16h59.17.470,SL_sali_41,2021.2.3,Win32,144.1545337,1.4304,,,113,0,113,0,1,,,,,,,,
,,"[""diamond"",""no_dis"",""vert"",""up"",[99999,99999],[150,0]]",diamond,no_dis,vert,up,"[99999,99999]","[150,0]",up,1,,,,,,001,2025-03-10_16h59.17.470,SL_sali_41,2021.2.3,Win32,144.1545337,1.934,,,114,0,114,0,1,,,,,,,,
,,"[""diamond"",""green"",""vert"",""up"",[106,-106],[150,0]]",diamond,green,vert,up,"[106,-106]","[150,0]",up,1,,,,,,001,2025-03-10_16h59.17.470,SL_sali_41,2021.2.3,Win32,144.1545337,1.799,,,115,0,115,0,1,,,,,,,,
,,"[""diamond"",""no_dis"",""hori"",""left"",[99999,99999],[0,-150]]",diamond,no_dis,hori,left,"[99999,99999]","[0,-150]",left,1,,,,,,001,2025-03-10_16h59.17.470,SL_sali_41,2021.2.3,Win32,144.1545337,2.3688,,,116,0,116,0,1,,,,,,,,
,,"[""diamond"",""green"",""vert"",""up"",[106,-106],[150,0]]",diamond,green,vert,up,"[106,-106]","[150,0]",up,1,,,,,,001,2025-03-10_16h59.17.470,SL_sali_41,2021.2.3,Win32,144.1545337,1.2218,,,117,0,117,0,1,,,,,,,,
,,"[""diamond"",""no_dis"",""vert"",""up"",[99999,99999],[150,0]]",diamond,no_dis,vert,up,"[99999,99999]","[150,0]",up,1,,,,,,001,2025-03-10_16h59.17.470,SL_sali_41,2021.2.3,Win32,144.1545337,0.9931,,,118,0,118,0,1,,,,,,,,
,,"[""circle"",""green"",""vert"",""up"",[-106,106],[106,-106]]",circle,green,vert,up,"[-106,106]","[106,-106]",up,1,,,,,,001,2025-03-10_16h59.17.470,SL_sali_41,2021.2.3,Win32,144.1545337,1.2227,,,119,0,119,0,1,,,,,,,,
,,"[""diamond"",""red"",""vert"",""up"",[-106,106],[150,0]]",diamond,red,vert,up,"[-106,106]","[150,0]",up,1,,,,,,001,2025-03-10_16h59.17.470,SL_sali_41,2021.2.3,Win32,144.1545337,1.1271,,,120,0,120,0,1,,,,,,,,
,,"[""diamond"",""green"",""vert"",""up"",[-106,106],[106,-106]]",diamond,green,vert,up,"[-106,106]","[106,-106]",up,1,,,,,,001,2025-03-10_16h59.17.470,SL_sali_41,2021.2.3,Win32,144.1545337,0.8889,,,121,0,121,0,1,,,,,,,,
,,"[""diamond"",""red"",""hori"",""left"",[150,0],[106,-106]]",diamond,red,hori,left,"[150,0]","[106,-106]",left,1,,,,,,001,2025-03-10_16h59.17.470,SL_sali_41,2021.2.3,Win32,144.1545337,1.0346,,,122,0,122,0,1,,,,,,,,
,,"[""diamond"",""no_dis"",""vert"",""up"",[99999,99999],[-106,106]]",diamond,no_dis,vert,up,"[99999,99999]","[-106,106]",up,1,,,,,,001,2025-03-10_16h59.17.470,SL_sali_41,2021.2.3,Win32,144.1545337,1.4658,,,123,0,123,0,1,,,,,,,,
,,"[""diamond"",""no_dis"",""hori"",""left"",[99999,99999],[106,106]]",diamond,no_dis,hori,left,"[99999,99999]","[106,106]",left,1,,,,,,001,2025-03-10_16h59.17.470,SL_sali_41,2021.2.3,Win32,144.1545337,1.0075,,,124,0,124,0,1,,,,,,,,
,,"[""diamond"",""no_dis"",""vert"",""up"",[99999,99999],[-106,106]]",diamond,no_dis,vert,up,"[99999,99999]","[-106,106]",up,1,,,,,,001,2025-03-10_16h59.17.470,SL_sali_41,2021.2.3,Win32,144.1545337,1.694,,,125,0,125,0,1,,,,,,,,
,,"[""circle"",""green"",""hori"",""left"",[0,-150],[-106,106]]",circle,green,hori,left,"[0,-150]","[-106,106]",left,1,,,,,,001,2025-03-10_16h59.17.470,SL_sali_41,2021.2.3,Win32,144.1545337,1.9304,,,126,0,126,0,1,,,,,,,,
,,"[""circle"",""green"",""hori"",""left"",[106,-106],[150,0]]",circle,green,hori,left,"[106,-106]","[150,0]",left,1,,,,,,001,2025-03-10_16h59.17.470,SL_sali_41,2021.2.3,Win32,144.1545337,1.2794,,,127,0,127,0,1,,,,,,,,
,,,,,,,,,,,,,,,,001,2025-03-10_16h59.17.470,SL_sali_41,2021.2.3,Win32,144.1545337,,,,,,,,,1,space,40.7484,0,0,0,0,1
,,"[""circle"",""red"",""vert"",""up"",[-106,106],[106,-106]]",circle,red,vert,up,"[-106,106]","[106,-106]",up,1,,,,,,001,2025-03-10_16h59.17.470,SL_sali_41,2021.2.3,Win32,144.1545337,1.556,,,0,0,0,0,1,,,,,,,,
,,"[""circle"",""green"",""hori"",""left"",[-106,106],[0,150]]",circle,green,hori,left,"[-106,106]","[0,150]",left,1,,,,,,001,2025-03-10_16h59.17.470,SL_sali_41,2021.2.3,Win32,144.1545337,1.5717,,,1,0,1,0,1,,,,,,,,
,,"[""diamond"",""green"",""vert"",""up"",[-106,-106],[150,0]]",diamond,green,vert,up,"[-106,-106]","[150,0]",up,1,,,,,,001,2025-03-10_16h59.17.470,SL_sali_41,2021.2.3,Win32,144.1545337,0.9793,,,2,0,2,0,1,,,,,,,,
,,"[""diamond"",""no_dis"",""vert"",""up"",[99999,99999],[-150,0]]",diamond,no_dis,vert,up,"[99999,99999]","[-150,0]",up,1,,,,,,001,2025-03-10_16h59.17.470,SL_sali_41,2021.2.3,Win32,144.1545337,2.1747,,,3,0,3,0,1,,,,,,,,
,,"[""diamond"",""green"",""vert"",""up"",[106,-106],[150,0]]",diamond,green,vert,up,"[106,-106]","[150,0]",up,1,,,,,,001,2025-03-10_16h59.17.470,SL_sali_41,2021.2.3,Win32,144.1545337,1.5973,,,4,0,4,0,1,,,,,,,,
,,"[""diamond"",""no_dis"",""vert"",""up"",[99999,99999],[150,0]]",diamond,no_dis,vert,up,"[99999,99999]","[150,0]",up,1,,,,,,001,2025-03-10_16h59.17.470,SL_sali_41,2021.2.3,Win32,144.1545337,1.4459,,,5,0,5,0,1,,,,,,,,
,,"[""circle"",""red"",""hori"",""left"",[106,-106],[-106,106]]",circle,red,hori,left,"[106,-106]","[-106,106]",left,1,,,,,,001,2025-03-10_16h59.17.470,SL_sali_41,2021.2.3,Win32,144.1545337,1.1666,,,6,0,6,0,1,,,,,,,,
,,"[""diamond"",""red"",""hori"",""left"",[106,-106],[-150,0]]",diamond,red,hori,left,"[106,-106]","[-150,0]",left,1,,,,,,001,2025-03-10_16h59.17.470,SL_sali_41,2021.2.3,Win32,144.1545337,1.349,,,7,0,7,0,1,,,,,,,,
,,"[""diamond"",""green"",""vert"",""up"",[-106,-106],[0,150]]",diamond,green,vert,up,"[-106,-106]","[0,150]",up,1,,,,,,001,2025-03-10_16h59.17.470,SL_sali_41,2021.2.3,Win32,144.1545337,1.5836,,,8,0,8,0,1,,,,,,,,
,,"[""circle"",""green"",""vert"",""up"",[-106,106],[-106,-106]]",circle,green,vert,up,"[-106,106]","[-106,-106]",up,1,,,,,,001,2025-03-10_16h59.17.470,SL_sali_41,2021.2.3,Win32,144.1545337,1.1545,,,9,0,9,0,1,,,,,,,,
,,"[""diamond"",""green"",""hori"",""left"",[-106,106],[0,-150]]",diamond,green,hori,left,"[-106,106]","[0,-150]",left,1,,,,,,001,2025-03-10_16h59.17.470,SL_sali_41,2021.2.3,Win32,144.1545337,1.3681,,,10,0,10,0,1,,,,,,,,
,,"[""diamond"",""red"",""hori"",""left"",[150,0],[-106,106]]",diamond,red,hori,left,"[150,0]","[-106,106]",left,1,,,,,,001,2025-03-10_16h59.17.470,SL_sali_41,2021.2.3,Win32,144.1545337,1.2849,,,11,0,11,0,1,,,,,,,,
,,"[""circle"",""red"",""hori"",""left"",[0,150],[150,0]]",circle,red,hori,left,"[0,150]","[150,0]",left,1,,,,,,001,2025-03-10_16h59.17.470,SL_sali_41,2021.2.3,Win32,144.1545337,0.9233,,,12,0,12,0,1,,,,,,,,
,,"[""circle"",""red"",""hori"",""left"",[150,0],[-106,-106]]",circle,red,hori,left,"[150,0]","[-106,-106]",left,1,,,,,,001,2025-03-10_16h59.17.470,SL_sali_41,2021.2.3,Win32,144.1545337,0.9035,,,13,0,13,0,1,,,,,,,,
,,"[""circle"",""red"",""vert"",""up"",[0,-150],[-150,0]]",circle,red,vert,up,"[0,-150]","[-150,0]",up,1,,,,,,001,2025-03-10_16h59.17.470,SL_sali_41,2021.2.3,Win32,144.1545337,1.729,,,14,0,14,0,1,,,,,,,,
,,"[""circle"",""no_dis"",""vert"",""up"",[99999,99999],[0,150]]",circle,no_dis,vert,up,"[99999,99999]","[0,150]",up,1,,,,,,001,2025-03-10_16h59.17.470,SL_sali_41,2021.2.3,Win32,144.1545337,0.9377,,,15,0,15,0,1,,,,,,,,
,,"[""diamond"",""no_dis"",""vert"",""up"",[99999,99999],[0,150]]",diamond,no_dis,vert,up,"[99999,99999]","[0,150]",up,1,,,,,,001,2025-03-10_16h59.17.470,SL_sali_41,2021.2.3,Win32,144.1545337,0.9382,,,16,0,16,0,1,,,,,,,,
,,"[""circle"",""no_dis"",""vert"",""up"",[99999,99999],[-106,106]]",circle,no_dis,vert,up,"[99999,99999]","[-106,106]",up,1,,,,,,001,2025-03-10_16h59.17.470,SL_sali_41,2021.2.3,Win32,144.1545337,1.4608,,,17,0,17,0,1,,,,,,,,
,,"[""diamond"",""green"",""vert"",""up"",[106,106],[-106,-106]]",diamond,green,vert,up,"[106,106]","[-106,-106]",up,1,,,,,,001,2025-03-10_16h59.17.470,SL_sali_41,2021.2.3,Win32,144.1545337,1.0914,,,18,0,18,0,1,,,,,,,,
,,"[""diamond"",""green"",""hori"",""left"",[-106,106],[-150,0]]",diamond,green,hori,left,"[-106,106]","[-150,0]",left,1,,,,,,001,2025-03-10_16h59.17.470,SL_sali_41,2021.2.3,Win32,144.1545337,1.1531,,,19,0,19,0,1,,,,,,,,
,,"[""diamond"",""no_dis"",""hori"",""left"",[99999,99999],[150,0]]",diamond,no_dis,hori,left,"[99999,99999]","[150,0]",left,1,,,,,,001,2025-03-10_16h59.17.470,SL_sali_41,2021.2.3,Win32,144.1545337,1.0158,,,20,0,20,0,1,,,,,,,,
,,"[""diamond"",""green"",""hori"",""left"",[-150,0],[150,0]]",diamond,green,hori,left,"[-150,0]","[150,0]",left,1,,,,,,001,2025-03-10_16h59.17.470,SL_sali_41,2021.2.3,Win32,144.1545337,2.159,,,21,0,21,0,1,,,,,,,,
,,"[""circle"",""green"",""vert"",""up"",[150,0],[106,106]]",circle,green,vert,up,"[150,0]","[106,106]",up,1,,,,,,001,2025-03-10_16h59.17.470,SL_sali_41,2021.2.3,Win32,144.1545337,0.9053,,,22,0,22,0,1,,,,,,,,
,,"[""diamond"",""no_dis"",""hori"",""left"",[99999,99999],[-106,-106]]",diamond,no_dis,hori,left,"[99999,99999]","[-106,-106]",left,1,,,,,,001,2025-03-10_16h59.17.470,SL_sali_41,2021.2.3,Win32,144.1545337,0.9536,,,23,0,23,0,1,,,,,,,,
,,"[""circle"",""no_dis"",""vert"",""up"",[99999,99999],[-106,-106]]",circle,no_dis,vert,up,"[99999,99999]","[-106,-106]",up,1,,,,,,001,2025-03-10_16h59.17.470,SL_sali_41,2021.2.3,Win32,144.1545337,0.9652,,,24,0,24,0,1,,,,,,,,
,,"[""diamond"",""no_dis"",""vert"",""up"",[99999,99999],[150,0]]",diamond,no_dis,vert,up,"[99999,99999]","[150,0]",up,1,,,,,,001,2025-03-10_16h59.17.470,SL_sali_41,2021.2.3,Win32,144.1545337,1.3979,,,25,0,25,0,1,,,,,,,,
,,"[""diamond"",""no_dis"",""hori"",""left"",[99999,99999],[150,0]]",diamond,no_dis,hori,left,"[99999,99999]","[150,0]",left,1,,,,,,001,2025-03-10_16h59.17.470,SL_sali_41,2021.2.3,Win32,144.1545337,1.4327,,,26,0,26,0,1,,,,,,,,
,,"[""diamond"",""no_dis"",""vert"",""up"",[99999,99999],[-106,106]]",diamond,no_dis,vert,up,"[99999,99999]","[-106,106]",up,1,,,,,,001,2025-03-10_16h59.17.470,SL_sali_41,2021.2.3,Win32,144.1545337,2.0764,,,27,0,27,0,1,,,,,,,,
,,"[""circle"",""green"",""hori"",""left"",[106,-106],[150,0]]",circle,green,hori,left,"[106,-106]","[150,0]",left,1,,,,,,001,2025-03-10_16h59.17.470,SL_sali_41,2021.2.3,Win32,144.1545337,1.7415,,,28,0,28,0,1,,,,,,,,
,,"[""circle"",""no_dis"",""hori"",""left"",[99999,99999],[0,-150]]",circle,no_dis,hori,left,"[99999,99999]","[0,-150]",left,1,,,,,,001,2025-03-10_16h59.17.470,SL_sali_41,2021.2.3,Win32,144.1545337,1.3544,,,29,0,29,0,1,,,,,,,,
,,"[""circle"",""green"",""vert"",""up"",[-106,106],[-106,-106]]",circle,green,vert,up,"[-106,106]","[-106,-106]",up,1,,,,,,001,2025-03-10_16h59.17.470,SL_sali_41,2021.2.3,Win32,144.1545337,1.1744,,,30,0,30,0,1,,,,,,,,
,,"[""diamond"",""red"",""hori"",""left"",[-106,106],[106,-106]]",diamond,red,hori,left,"[-106,106]","[106,-106]",left,1,,,,,,001,2025-03-10_16h59.17.470,SL_sali_41,2021.2.3,Win32,144.1545337,1.5423,,,31,0,31,0,1,,,,,,,,
,,"[""diamond"",""red"",""vert"",""up"",[-150,0],[0,150]]",diamond,red,vert,up,"[-150,0]","[0,150]",up,1,,,,,,001,2025-03-10_16h59.17.470,SL_sali_41,2021.2.3,Win32,144.1545337,1.7925,,,32,0,32,0,1,,,,,,,,
,,"[""circle"",""green"",""hori"",""left"",[0,-150],[-150,0]]",circle,green,hori,left,"[0,-150]","[-150,0]",left,1,,,,,,001,2025-03-10_16h59.17.470,SL_sali_41,2021.2.3,Win32,144.1545337,1.3898,,,33,0,33,0,1,,,,,,,,
,,"[""diamond"",""green"",""vert"",""up"",[-106,106],[106,-106]]",diamond,green,vert,up,"[-106,106]","[106,-106]",up,1,,,,,,001,2025-03-10_16h59.17.470,SL_sali_41,2021.2.3,Win32,144.1545337,2.3542,,,34,0,34,0,1,,,,,,,,
,,"[""circle"",""no_dis"",""vert"",""up"",[99999,99999],[-106,106]]",circle,no_dis,vert,up,"[99999,99999]","[-106,106]",up,1,,,,,,001,2025-03-10_16h59.17.470,SL_sali_41,2021.2.3,Win32,144.1545337,2.6392,,,35,0,35,0,1,,,,,,,,
,,"[""circle"",""no_dis"",""hori"",""left"",[99999,99999],[-106,-106]]",circle,no_dis,hori,left,"[99999,99999]","[-106,-106]",left,1,,,,,,001,2025-03-10_16h59.17.470,SL_sali_41,2021.2.3,Win32,144.1545337,1.2156,,,36,0,36,0,1,,,,,,,,
,,"[""diamond"",""green"",""vert"",""up"",[106,-106],[150,0]]",diamond,green,vert,up,"[106,-106]","[150,0]",up,1,,,,,,001,2025-03-10_16h59.17.470,SL_sali_41,2021.2.3,Win32,144.1545337,2.2376,,,37,0,37,0,1,,,,,,,,
,,"[""diamond"",""green"",""vert"",""up"",[0,150],[-106,-106]]",diamond,green,vert,up,"[0,150]","[-106,-106]",up,1,,,,,,001,2025-03-10_16h59.17.470,SL_sali_41,2021.2.3,Win32,144.1545337,1.6616,,,38,0,38,0,1,,,,,,,,
,,"[""diamond"",""red"",""vert"",""up"",[-150,0],[106,106]]",diamond,red,vert,up,"[-150,0]","[106,106]",up,1,,,,,,001,2025-03-10_16h59.17.470,SL_sali_41,2021.2.3,Win32,144.1545337,1.0565,,,39,0,39,0,1,,,,,,,,
,,"[""circle"",""red"",""hori"",""left"",[106,106],[-106,-106]]",circle,red,hori,left,"[106,106]","[-106,-106]",left,1,,,,,,001,2025-03-10_16h59.17.470,SL_sali_41,2021.2.3,Win32,144.1545337,0.9792,,,40,0,40,0,1,,,,,,,,
,,"[""circle"",""red"",""vert"",""up"",[106,106],[0,-150]]",circle,red,vert,up,"[106,106]","[0,-150]",up,1,,,,,,001,2025-03-10_16h59.17.470,SL_sali_41,2021.2.3,Win32,144.1545337,1.9655,,,41,0,41,0,1,,,,,,,,
,,"[""circle"",""no_dis"",""hori"",""left"",[99999,99999],[0,-150]]",circle,no_dis,hori,left,"[99999,99999]","[0,-150]",left,1,,,,,,001,2025-03-10_16h59.17.470,SL_sali_41,2021.2.3,Win32,144.1545337,1.3754,,,42,0,42,0,1,,,,,,,,
,,"[""diamond"",""no_dis"",""vert"",""up"",[99999,99999],[0,150]]",diamond,no_dis,vert,up,"[99999,99999]","[0,150]",up,1,,,,,,001,2025-03-10_16h59.17.470,SL_sali_41,2021.2.3,Win32,144.1545337,1.1601,,,43,0,43,0,1,,,,,,,,
,,"[""diamond"",""no_dis"",""hori"",""left"",[99999,99999],[0,-150]]",diamond,no_dis,hori,left,"[99999,99999]","[0,-150]",left,1,,,,,,001,2025-03-10_16h59.17.470,SL_sali_41,2021.2.3,Win32,144.1545337,1.0014,,,44,0,44,0,1,,,,,,,,
,,"[""diamond"",""green"",""hori"",""left"",[-106,106],[-106,-106]]",diamond,green,hori,left,"[-106,106]","[-106,-106]",left,1,,,,,,001,2025-03-10_16h59.17.470,SL_sali_41,2021.2.3,Win32,144.1545337,2.243,,,45,0,45,0,1,,,,,,,,
,,"[""circle"",""no_dis"",""vert"",""up"",[99999,99999],[0,150]]",circle,no_dis,vert,up,"[99999,99999]","[0,150]",up,1,,,,,,001,2025-03-10_16h59.17.470,SL_sali_41,2021.2.3,Win32,144.1545337,2.6319,,,46,0,46,0,1,,,,,,,,
,,"[""circle"",""red"",""vert"",""up"",[0,150],[-106,-106]]",circle,red,vert,up,"[0,150]","[-106,-106]",up,1,,,,,,001,2025-03-10_16h59.17.470,SL_sali_41,2021.2.3,Win32,144.1545337,0.9848,,,47,0,47,0,1,,,,,,,,
,,"[""diamond"",""no_dis"",""hori"",""left"",[99999,99999],[-106,106]]",diamond,no_dis,hori,left,"[99999,99999]","[-106,106]",left,1,,,,,,001,2025-03-10_16h59.17.470,SL_sali_41,2021.2.3,Win32,144.1545337,1.4669,,,48,0,48,0,1,,,,,,,,
,,"[""diamond"",""no_dis"",""vert"",""up"",[99999,99999],[-150,0]]",diamond,no_dis,vert,up,"[99999,99999]","[-150,0]",up,1,,,,,,001,2025-03-10_16h59.17.470,SL_sali_41,2021.2.3,Win32,144.1545337,1.6803,,,49,0,49,0,1,,,,,,,,
,,"[""diamond"",""red"",""hori"",""left"",[-106,-106],[106,106]]",diamond,red,hori,left,"[-106,-106]","[106,106]",left,1,,,,,,001,2025-03-10_16h59.17.470,SL_sali_41,2021.2.3,Win32,144.1545337,1.2367,,,50,0,50,0,1,,,,,,,,
,,"[""diamond"",""no_dis"",""hori"",""left"",[99999,99999],[106,106]]",diamond,no_dis,hori,left,"[99999,99999]","[106,106]",left,1,,,,,,001,2025-03-10_16h59.17.470,SL_sali_41,2021.2.3,Win32,144.1545337,1.3059,,,51,0,51,0,1,,,,,,,,
,,"[""diamond"",""green"",""vert"",""up"",[0,150],[0,-150]]",diamond,green,vert,up,"[0,150]","[0,-150]",up,1,,,,,,001,2025-03-10_16h59.17.470,SL_sali_41,2021.2.3,Win32,144.1545337,0.8954,,,52,0,52,0,1,,,,,,,,
,,"[""circle"",""no_dis"",""vert"",""up"",[99999,99999],[106,-106]]",circle,no_dis,vert,up,"[99999,99999]","[106,-106]",up,1,,,,,,001,2025-03-10_16h59.17.470,SL_sali_41,2021.2.3,Win32,144.1545337,1.0132,,,53,0,53,0,1,,,,,,,,
,,"[""circle"",""red"",""vert"",""up"",[-106,-106],[-150,0]]",circle,red,vert,up,"[-106,-106]","[-150,0]",up,1,,,,,,001,2025-03-10_16h59.17.470,SL_sali_41,2021.2.3,Win32,144.1545337,2.78,,,54,0,54,0,1,,,,,,,,
,,"[""circle"",""no_dis"",""hori"",""left"",[99999,99999],[106,106]]",circle,no_dis,hori,left,"[99999,99999]","[106,106]",left,1,,,,,,001,2025-03-10_16h59.17.470,SL_sali_41,2021.2.3,Win32,144.1545337,0.7722,,,55,0,55,0,1,,,,,,,,
,,"[""diamond"",""red"",""vert"",""up"",[-106,106],[106,106]]",diamond,red,vert,up,"[-106,106]","[106,106]",up,1,,,,,,001,2025-03-10_16h59.17.470,SL_sali_41,2021.2.3,Win32,144.1545337,1.6662,,,56,0,56,0,1,,,,,,,,
,,"[""diamond"",""red"",""hori"",""left"",[-106,106],[150,0]]",diamond,red,hori,left,"[-106,106]","[150,0]",left,1,,,,,,001,2025-03-10_16h59.17.470,SL_sali_41,2021.2.3,Win32,144.1545337,1.3544,,,57,0,57,0,1,,,,,,,,
,,"[""diamond"",""no_dis"",""vert"",""up"",[99999,99999],[-150,0]]",diamond,no_dis,vert,up,"[99999,99999]","[-150,0]",up,1,,,,,,001,2025-03-10_16h59.17.470,SL_sali_41,2021.2.3,Win32,144.1545337,0.8056,,,58,0,58,0,1,,,,,,,,
,,"[""diamond"",""red"",""hori"",""left"",[150,0],[106,-106]]",diamond,red,hori,left,"[150,0]","[106,-106]",left,1,,,,,,001,2025-03-10_16h59.17.470,SL_sali_41,2021.2.3,Win32,144.1545337,1.3122,,,59,0,59,0,1,,,,,,,,
,,"[""diamond"",""green"",""vert"",""up"",[106,-106],[0,-150]]",diamond,green,vert,up,"[106,-106]","[0,-150]",up,1,,,,,,001,2025-03-10_16h59.17.470,SL_sali_41,2021.2.3,Win32,144.1545337,1.9466,,,60,0,60,0,1,,,,,,,,
,,"[""circle"",""green"",""vert"",""up"",[0,150],[-106,-106]]",circle,green,vert,up,"[0,150]","[-106,-106]",up,1,,,,,,001,2025-03-10_16h59.17.470,SL_sali_41,2021.2.3,Win32,144.1545337,0.9238,,,61,0,61,0,1,,,,,,,,
,,"[""circle"",""green"",""hori"",""left"",[106,-106],[-150,0]]",circle,green,hori,left,"[106,-106]","[-150,0]",left,1,,,,,,001,2025-03-10_16h59.17.470,SL_sali_41,2021.2.3,Win32,144.1545337,0.7249,,,62,0,62,0,1,,,,,,,,
,,"[""circle"",""green"",""hori"",""left"",[106,106],[0,-150]]",circle,green,hori,left,"[106,106]","[0,-150]",left,1,,,,,,001,2025-03-10_16h59.17.470,SL_sali_41,2021.2.3,Win32,144.1545337,0.6738,,,63,0,63,0,1,,,,,,,,
,,"[""circle"",""green"",""vert"",""up"",[0,150],[150,0]]",circle,green,vert,up,"[0,150]","[150,0]",up,1,,,,,,001,2025-03-10_16h59.17.470,SL_sali_41,2021.2.3,Win32,144.1545337,0.8699,,,64,0,64,0,1,,,,,,,,
,,"[""diamond"",""green"",""hori"",""left"",[-106,106],[106,106]]",diamond,green,hori,left,"[-106,106]","[106,106]",left,1,,,,,,001,2025-03-10_16h59.17.470,SL_sali_41,2021.2.3,Win32,144.1545337,1.2159,,,65,0,65,0,1,,,,,,,,
,,"[""circle"",""no_dis"",""vert"",""up"",[99999,99999],[106,106]]",circle,no_dis,vert,up,"[99999,99999]","[106,106]",up,1,,,,,,001,2025-03-10_16h59.17.470,SL_sali_41,2021.2.3,Win32,144.1545337,1.7159,,,66,0,66,0,1,,,,,,,,
,,"[""diamond"",""red"",""vert"",""up"",[150,0],[0,-150]]",diamond,red,vert,up,"[150,0]","[0,-150]",up,1,,,,,,001,2025-03-10_16h59.17.470,SL_sali_41,2021.2.3,Win32,144.1545337,1.259,,,67,0,67,0,1,,,,,,,,
,,"[""circle"",""green"",""vert"",""up"",[-106,106],[0,-150]]",circle,green,vert,up,"[-106,106]","[0,-150]",up,1,,,,,,001,2025-03-10_16h59.17.470,SL_sali_41,2021.2.3,Win32,144.1545337,0.7925,,,68,0,68,0,1,,,,,,,,
,,"[""circle"",""red"",""vert"",""up"",[0,-150],[-106,-106]]",circle,red,vert,up,"[0,-150]","[-106,-106]",up,1,,,,,,001,2025-03-10_16h59.17.470,SL_sali_41,2021.2.3,Win32,144.1545337,0.8417,,,69,0,69,0,1,,,,,,,,
,,"[""diamond"",""green"",""hori"",""left"",[0,-150],[150,0]]",diamond,green,hori,left,"[0,-150]","[150,0]",left,1,,,,,,001,2025-03-10_16h59.17.470,SL_sali_41,2021.2.3,Win32,144.1545337,0.8618,,,70,0,70,0,1,,,,,,,,
,,"[""circle"",""red"",""vert"",""up"",[-150,0],[106,-106]]",circle,red,vert,up,"[-150,0]","[106,-106]",up,1,,,,,,001,2025-03-10_16h59.17.470,SL_sali_41,2021.2.3,Win32,144.1545337,0.9102,,,71,0,71,0,1,,,,,,,,
,,"[""circle"",""green"",""hori"",""left"",[-106,106],[-150,0]]",circle,green,hori,left,"[-106,106]","[-150,0]",left,1,,,,,,001,2025-03-10_16h59.17.470,SL_sali_41,2021.2.3,Win32,144.1545337,0.9377,,,72,0,72,0,1,,,,,,,,
,,"[""circle"",""green"",""vert"",""up"",[-106,106],[106,-106]]",circle,green,vert,up,"[-106,106]","[106,-106]",up,1,,,,,,001,2025-03-10_16h59.17.470,SL_sali_41,2021.2.3,Win32,144.1545337,0.6832,,,73,0,73,0,1,,,,,,,,
,,"[""circle"",""red"",""vert"",""up"",[106,106],[0,150]]",circle,red,vert,up,"[106,106]","[0,150]",up,1,,,,,,001,2025-03-10_16h59.17.470,SL_sali_41,2021.2.3,Win32,144.1545337,0.7784,,,74,0,74,0,1,,,,,,,,
,,"[""circle"",""red"",""vert"",""up"",[-150,0],[-106,106]]",circle,red,vert,up,"[-150,0]","[-106,106]",up,1,,,,,,001,2025-03-10_16h59.17.470,SL_sali_41,2021.2.3,Win32,144.1545337,2.0311,,,75,0,75,0,1,,,,,,,,
,,"[""circle"",""red"",""hori"",""left"",[-106,106],[106,-106]]",circle,red,hori,left,"[-106,106]","[106,-106]",left,1,,,,,,001,2025-03-10_16h59.17.470,SL_sali_41,2021.2.3,Win32,144.1545337,1.0506,,,76,0,76,0,1,,,,,,,,
,,"[""diamond"",""red"",""vert"",""up"",[-106,106],[-106,-106]]",diamond,red,vert,up,"[-106,106]","[-106,-106]",up,1,,,,,,001,2025-03-10_16h59.17.470,SL_sali_41,2021.2.3,Win32,144.1545337,1.4309,,,77,0,77,0,1,,,,,,,,
,,"[""diamond"",""no_dis"",""hori"",""left"",[99999,99999],[-150,0]]",diamond,no_dis,hori,left,"[99999,99999]","[-150,0]",left,1,,,,,,001,2025-03-10_16h59.17.470,SL_sali_41,2021.2.3,Win32,144.1545337,2.0837,,,78,0,78,0,1,,,,,,,,
,,"[""diamond"",""green"",""vert"",""up"",[0,-150],[-106,-106]]",diamond,green,vert,up,"[0,-150]","[-106,-106]",up,1,,,,,,001,2025-03-10_16h59.17.470,SL_sali_41,2021.2.3,Win32,144.1545337,2.3815,,,79,0,79,0,1,,,,,,,,
,,"[""circle"",""green"",""hori"",""left"",[-106,-106],[-106,106]]",circle,green,hori,left,"[-106,-106]","[-106,106]",left,1,,,,,,001,2025-03-10_16h59.17.470,SL_sali_41,2021.2.3,Win32,144.1545337,1.1181,,,80,0,80,0,1,,,,,,,,
,,"[""circle"",""green"",""vert"",""up"",[-106,106],[150,0]]",circle,green,vert,up,"[-106,106]","[150,0]",up,1,,,,,,001,2025-03-10_16h59.17.470,SL_sali_41,2021.2.3,Win32,144.1545337,1.1044,,,81,0,81,0,1,,,,,,,,
,,"[""circle"",""no_dis"",""hori"",""left"",[99999,99999],[106,-106]]",circle,no_dis,hori,left,"[99999,99999]","[106,-106]",left,1,,,,,,001,2025-03-10_16h59.17.470,SL_sali_41,2021.2.3,Win32,144.1545337,0.8547,,,82,0,82,0,1,,,,,,,,
,,"[""diamond"",""red"",""hori"",""left"",[150,0],[0,-150]]",diamond,red,hori,left,"[150,0]","[0,-150]",left,1,,,,,,001,2025-03-10_16h59.17.470,SL_sali_41,2021.2.3,Win32,144.1545337,1.4171,,,83,0,83,0,1,,,,,,,,
,,"[""diamond"",""green"",""hori"",""left"",[-106,106],[0,150]]",diamond,green,hori,left,"[-106,106]","[0,150]",left,1,,,,,,001,2025-03-10_16h59.17.470,SL_sali_41,2021.2.3,Win32,144.1545337,1.2014,,,84,0,84,0,1,,,,,,,,
,,"[""diamond"",""red"",""hori"",""left"",[-106,-106],[106,-106]]",diamond,red,hori,left,"[-106,-106]","[106,-106]",left,1,,,,,,001,2025-03-10_16h59.17.470,SL_sali_41,2021.2.3,Win32,144.1545337,1.3337,,,85,0,85,0,1,,,,,,,,
,,"[""circle"",""green"",""hori"",""left"",[106,106],[-106,-106]]",circle,green,hori,left,"[106,106]","[-106,-106]",left,1,,,,,,001,2025-03-10_16h59.17.470,SL_sali_41,2021.2.3,Win32,144.1545337,0.9375,,,86,0,86,0,1,,,,,,,,
,,"[""circle"",""red"",""hori"",""left"",[-106,-106],[150,0]]",circle,red,hori,left,"[-106,-106]","[150,0]",left,1,,,,,,001,2025-03-10_16h59.17.470,SL_sali_41,2021.2.3,Win32,144.1545337,0.9524,,,87,0,87,0,1,,,,,,,,
,,"[""circle"",""red"",""hori"",""left"",[-106,106],[-150,0]]",circle,red,hori,left,"[-106,106]","[-150,0]",left,1,,,,,,001,2025-03-10_16h59.17.470,SL_sali_41,2021.2.3,Win32,144.1545337,0.9454,,,88,0,88,0,1,,,,,,,,
,,"[""circle"",""red"",""hori"",""left"",[-106,106],[106,106]]",circle,red,hori,left,"[-106,106]","[106,106]",left,1,,,,,,001,2025-03-10_16h59.17.470,SL_sali_41,2021.2.3,Win32,144.1545337,1.7382,,,89,0,89,0,1,,,,,,,,
,,"[""circle"",""green"",""hori"",""left"",[-106,106],[0,150]]",circle,green,hori,left,"[-106,106]","[0,150]",left,1,,,,,,001,2025-03-10_16h59.17.470,SL_sali_41,2021.2.3,Win32,144.1545337,1.1666,,,90,0,90,0,1,,,,,,,,
,,"[""diamond"",""red"",""vert"",""up"",[-106,106],[150,0]]",diamond,red,vert,up,"[-106,106]","[150,0]",up,1,,,,,,001,2025-03-10_16h59.17.470,SL_sali_41,2021.2.3,Win32,144.1545337,0.9031,,,91,0,91,0,1,,,,,,,,
,,"[""diamond"",""no_dis"",""hori"",""left"",[99999,99999],[-106,-106]]",diamond,no_dis,hori,left,"[99999,99999]","[-106,-106]",left,1,,,,,,001,2025-03-10_16h59.17.470,SL_sali_41,2021.2.3,Win32,144.1545337,1.1457,,,92,0,92,0,1,,,,,,,,
,,"[""diamond"",""red"",""vert"",""up"",[-106,106],[-150,0]]",diamond,red,vert,up,"[-106,106]","[-150,0]",up,1,,,,,,001,2025-03-10_16h59.17.470,SL_sali_41,2021.2.3,Win32,144.1545337,1.1815,,,93,0,93,0,1,,,,,,,,
,,"[""diamond"",""red"",""hori"",""left"",[-106,106],[-106,-106]]",diamond,red,hori,left,"[-106,106]","[-106,-106]",left,1,,,,,,001,2025-03-10_16h59.17.470,SL_sali_41,2021.2.3,Win32,144.1545337,1.4796,,,94,0,94,0,1,,,,,,,,
,,"[""diamond"",""green"",""hori"",""left"",[-150,0],[0,150]]",diamond,green,hori,left,"[-150,0]","[0,150]",left,1,,,,,,001,2025-03-10_16h59.17.470,SL_sali_41,2021.2.3,Win32,144.1545337,1.25,,,95,0,95,0,1,,,,,,,,
,,"[""circle"",""red"",""hori"",""left"",[0,150],[-106,-106]]",circle,red,hori,left,"[0,150]","[-106,-106]",left,1,,,,,,001,2025-03-10_16h59.17.470,SL_sali_41,2021.2.3,Win32,144.1545337,1.4249,,,96,0,96,0,1,,,,,,,,
,,"[""circle"",""red"",""vert"",""up"",[150,0],[106,106]]",circle,red,vert,up,"[150,0]","[106,106]",up,1,,,,,,001,2025-03-10_16h59.17.470,SL_sali_41,2021.2.3,Win32,144.1545337,0.8827,,,97,0,97,0,1,,,,,,,,
,,"[""circle"",""green"",""hori"",""left"",[-106,106],[-106,-106]]",circle,green,hori,left,"[-106,106]","[-106,-106]",left,1,,,,,,001,2025-03-10_16h59.17.470,SL_sali_41,2021.2.3,Win32,144.1545337,1.1757,,,98,0,98,0,1,,,,,,,,
,,"[""diamond"",""green"",""hori"",""left"",[106,-106],[0,-150]]",diamond,green,hori,left,"[106,-106]","[0,-150]",left,1,,,,,,001,2025-03-10_16h59.17.470,SL_sali_41,2021.2.3,Win32,144.1545337,1.2731,,,99,0,99,0,1,,,,,,,,
,,"[""circle"",""green"",""vert"",""up"",[-106,106],[150,0]]",circle,green,vert,up,"[-106,106]","[150,0]",up,1,,,,,,001,2025-03-10_16h59.17.470,SL_sali_41,2021.2.3,Win32,144.1545337,0.8556,,,100,0,100,0,1,,,,,,,,
,,"[""circle"",""green"",""hori"",""left"",[0,-150],[-106,106]]",circle,green,hori,left,"[0,-150]","[-106,106]",left,1,,,,,,001,2025-03-10_16h59.17.470,SL_sali_41,2021.2.3,Win32,144.1545337,0.6492,,,101,0,101,0,1,,,,,,,,
,,"[""diamond"",""red"",""vert"",""up"",[-106,106],[106,-106]]",diamond,red,vert,up,"[-106,106]","[106,-106]",up,1,,,,,,001,2025-03-10_16h59.17.470,SL_sali_41,2021.2.3,Win32,144.1545337,1.0853,,,102,0,102,0,1,,,,,,,,
,,"[""diamond"",""no_dis"",""hori"",""left"",[99999,99999],[150,0]]",diamond,no_dis,hori,left,"[99999,99999]","[150,0]",left,1,,,,,,001,2025-03-10_16h59.17.470,SL_sali_41,2021.2.3,Win32,144.1545337,1.0346,,,103,0,103,0,1,,,,,,,,
,,"[""diamond"",""red"",""vert"",""up"",[-106,106],[106,-106]]",diamond,red,vert,up,"[-106,106]","[106,-106]",up,1,,,,,,001,2025-03-10_16h59.17.470,SL_sali_41,2021.2.3,Win32,144.1545337,1.0354,,,104,0,104,0,1,,,,,,,,
,,"[""diamond"",""no_dis"",""vert"",""up"",[99999,99999],[0,150]]",diamond,no_dis,vert,up,"[99999,99999]","[0,150]",up,1,,,,,,001,2025-03-10_16h59.17.470,SL_sali_41,2021.2.3,Win32,144.1545337,1.2574,,,105,0,105,0,1,,,,,,,,
,,"[""circle"",""no_dis"",""vert"",""up"",[99999,99999],[0,-150]]",circle,no_dis,vert,up,"[99999,99999]","[0,-150]",left,0,,,,,,001,2025-03-10_16h59.17.470,SL_sali_41,2021.2.3,Win32,144.1545337,0.8055,,,106,0,106,0,1,,,,,,,,
,,"[""diamond"",""no_dis"",""vert"",""up"",[99999,99999],[-106,106]]",diamond,no_dis,vert,up,"[99999,99999]","[-106,106]",up,1,,,,,,001,2025-03-10_16h59.17.470,SL_sali_41,2021.2.3,Win32,144.1545337,1.9724,,,107,0,107,0,1,,,,,,,,
,,"[""diamond"",""green"",""hori"",""left"",[-106,-106],[-150,0]]",diamond,green,hori,left,"[-106,-106]","[-150,0]",left,1,,,,,,001,2025-03-10_16h59.17.470,SL_sali_41,2021.2.3,Win32,144.1545337,1.3216,,,108,0,108,0,1,,,,,,,,
,,"[""circle"",""red"",""vert"",""up"",[-106,106],[106,106]]",circle,red,vert,up,"[-106,106]","[106,106]",up,1,,,,,,001,2025-03-10_16h59.17.470,SL_sali_41,2021.2.3,Win32,144.1545337,0.9533,,,109,0,109,0,1,,,,,,,,
,,"[""circle"",""green"",""vert"",""up"",[106,106],[-150,0]]",circle,green,vert,up,"[106,106]","[-150,0]",up,1,,,,,,001,2025-03-10_16h59.17.470,SL_sali_41,2021.2.3,Win32,144.1545337,0.7155,,,110,0,110,0,1,,,,,,,,
,,"[""diamond"",""red"",""hori"",""left"",[106,106],[0,-150]]",diamond,red,hori,left,"[106,106]","[0,-150]",left,1,,,,,,001,2025-03-10_16h59.17.470,SL_sali_41,2021.2.3,Win32,144.1545337,1.556,,,111,0,111,0,1,,,,,,,,
,,"[""circle"",""no_dis"",""hori"",""left"",[99999,99999],[106,106]]",circle,no_dis,hori,left,"[99999,99999]","[106,106]",left,1,,,,,,001,2025-03-10_16h59.17.470,SL_sali_41,2021.2.3,Win32,144.1545337,1.1758,,,112,0,112,0,1,,,,,,,,
,,"[""circle"",""no_dis"",""vert"",""up"",[99999,99999],[106,-106]]",circle,no_dis,vert,up,"[99999,99999]","[106,-106]",up,1,,,,,,001,2025-03-10_16h59.17.470,SL_sali_41,2021.2.3,Win32,144.1545337,1.0359,,,113,0,113,0,1,,,,,,,,
,,"[""circle"",""no_dis"",""hori"",""left"",[99999,99999],[106,106]]",circle,no_dis,hori,left,"[99999,99999]","[106,106]",left,1,,,,,,001,2025-03-10_16h59.17.470,SL_sali_41,2021.2.3,Win32,144.1545337,0.7723,,,114,0,114,0,1,,,,,,,,
,,"[""diamond"",""green"",""vert"",""up"",[-150,0],[106,-106]]",diamond,green,vert,up,"[-150,0]","[106,-106]",up,1,,,,,,001,2025-03-10_16h59.17.470,SL_sali_41,2021.2.3,Win32,144.1545337,1.3822,,,115,0,115,0,1,,,,,,,,
,,"[""diamond"",""no_dis"",""hori"",""left"",[99999,99999],[-106,-106]]",diamond,no_dis,hori,left,"[99999,99999]","[-106,-106]",left,1,,,,,,001,2025-03-10_16h59.17.470,SL_sali_41,2021.2.3,Win32,144.1545337,0.7781,,,116,0,116,0,1,,,,,,,,
,,"[""diamond"",""red"",""vert"",""up"",[0,150],[-106,-106]]",diamond,red,vert,up,"[0,150]","[-106,-106]",up,1,,,,,,001,2025-03-10_16h59.17.470,SL_sali_41,2021.2.3,Win32,144.1545337,1.2772,,,117,0,117,0,1,,,,,,,,
,,"[""circle"",""no_dis"",""hori"",""left"",[99999,99999],[106,-106]]",circle,no_dis,hori,left,"[99999,99999]","[106,-106]",left,1,,,,,,001,2025-03-10_16h59.17.470,SL_sali_41,2021.2.3,Win32,144.1545337,1.799,,,118,0,118,0,1,,,,,,,,
,,"[""circle"",""no_dis"",""hori"",""left"",[99999,99999],[-150,0]]",circle,no_dis,hori,left,"[99999,99999]","[-150,0]",left,1,,,,,,001,2025-03-10_16h59.17.470,SL_sali_41,2021.2.3,Win32,144.1545337,0.6667,,,119,0,119,0,1,,,,,,,,
,,"[""circle"",""no_dis"",""vert"",""up"",[99999,99999],[106,-106]]",circle,no_dis,vert,up,"[99999,99999]","[106,-106]",up,1,,,,,,001,2025-03-10_16h59.17.470,SL_sali_41,2021.2.3,Win32,144.1545337,1.0976,,,120,0,120,0,1,,,,,,,,
,,"[""diamond"",""red"",""vert"",""up"",[150,0],[-150,0]]",diamond,red,vert,up,"[150,0]","[-150,0]",up,1,,,,,,001,2025-03-10_16h59.17.470,SL_sali_41,2021.2.3,Win32,144.1545337,2.1528,,,121,0,121,0,1,,,,,,,,
,,"[""circle"",""red"",""hori"",""left"",[0,-150],[106,106]]",circle,red,hori,left,"[0,-150]","[106,106]",left,1,,,,,,001,2025-03-10_16h59.17.470,SL_sali_41,2021.2.3,Win32,144.1545337,1.1597,,,122,0,122,0,1,,,,,,,,
,,"[""circle"",""no_dis"",""hori"",""left"",[99999,99999],[0,-150]]",circle,no_dis,hori,left,"[99999,99999]","[0,-150]",left,1,,,,,,001,2025-03-10_16h59.17.470,SL_sali_41,2021.2.3,Win32,144.1545337,0.8338,,,123,0,123,0,1,,,,,,,,
,,"[""circle"",""green"",""vert"",""up"",[-106,106],[-150,0]]",circle,green,vert,up,"[-106,106]","[-150,0]",up,1,,,,,,001,2025-03-10_16h59.17.470,SL_sali_41,2021.2.3,Win32,144.1545337,0.913,,,124,0,124,0,1,,,,,,,,
,,"[""diamond"",""red"",""hori"",""left"",[-150,0],[-106,106]]",diamond,red,hori,left,"[-150,0]","[-106,106]",left,1,,,,,,001,2025-03-10_16h59.17.470,SL_sali_41,2021.2.3,Win32,144.1545337,1.1757,,,125,0,125,0,1,,,,,,,,
,,"[""diamond"",""green"",""hori"",""left"",[0,-150],[106,-106]]",diamond,green,hori,left,"[0,-150]","[106,-106]",left,1,,,,,,001,2025-03-10_16h59.17.470,SL_sali_41,2021.2.3,Win32,144.1545337,1.0908,,,126,0,126,0,1,,,,,,,,
,,"[""circle"",""red"",""hori"",""left"",[-106,106],[150,0]]",circle,red,hori,left,"[-106,106]","[150,0]",left,1,,,,,,001,2025-03-10_16h59.17.470,SL_sali_41,2021.2.3,Win32,144.1545337,0.8623,,,127,0,127,0,1,,,,,,,,
,,,,,,,,,,,,,,,,001,2025-03-10_16h59.17.470,SL_sali_41,2021.2.3,Win32,144.1545337,,,,,,,,,2,space,1.1542,1,0,1,0,1
,,"[""circle"",""green"",""hori"",""left"",[106,-106],[150,0]]",circle,green,hori,left,"[106,-106]","[150,0]",left,1,,,,,,001,2025-03-10_16h59.17.470,SL_sali_41,2021.2.3,Win32,144.1545337,1.3057,,,0,0,0,0,1,,,,,,,,
,,"[""diamond"",""red"",""vert"",""up"",[-150,0],[0,150]]",diamond,red,vert,up,"[-150,0]","[0,150]",up,1,,,,,,001,2025-03-10_16h59.17.470,SL_sali_41,2021.2.3,Win32,144.1545337,2.0762,,,1,0,1,0,1,,,,,,,,
,,"[""diamond"",""green"",""vert"",""up"",[106,-106],[150,0]]",diamond,green,vert,up,"[106,-106]","[150,0]",up,1,,,,,,001,2025-03-10_16h59.17.470,SL_sali_41,2021.2.3,Win32,144.1545337,1.3767,,,2,0,2,0,1,,,,,,,,
,,"[""circle"",""red"",""vert"",""up"",[-150,0],[106,-106]]",circle,red,vert,up,"[-150,0]","[106,-106]",up,1,,,,,,001,2025-03-10_16h59.17.470,SL_sali_41,2021.2.3,Win32,144.1545337,1.4511,,,3,0,3,0,1,,,,,,,,
,,"[""circle"",""no_dis"",""hori"",""left"",[99999,99999],[106,106]]",circle,no_dis,hori,left,"[99999,99999]","[106,106]",left,1,,,,,,001,2025-03-10_16h59.17.470,SL_sali_41,2021.2.3,Win32,144.1545337,0.9378,,,4,0,4,0,1,,,,,,,,
,,"[""circle"",""no_dis"",""vert"",""up"",[99999,99999],[106,-106]]",circle,no_dis,vert,up,"[99999,99999]","[106,-106]",up,1,,,,,,001,2025-03-10_16h59.17.470,SL_sali_41,2021.2.3,Win32,144.1545337,1.0709,,,5,0,5,0,1,,,,,,,,
,,"[""circle"",""green"",""hori"",""left"",[106,106],[-106,-106]]",circle,green,hori,left,"[106,106]","[-106,-106]",left,1,,,,,,001,2025-03-10_16h59.17.470,SL_sali_41,2021.2.3,Win32,144.1545337,1.0832,,,6,0,6,0,1,,,,,,,,
,,"[""diamond"",""green"",""hori"",""left"",[0,-150],[150,0]]",diamond,green,hori,left,"[0,-150]","[150,0]",left,1,,,,,,001,2025-03-10_16h59.17.470,SL_sali_41,2021.2.3,Win32,144.1545337,1.0707,,,7,0,7,0,1,,,,,,,,
,,"[""diamond"",""green"",""vert"",""up"",[106,-106],[0,-150]]",diamond,green,vert,up,"[106,-106]","[0,-150]",up,1,,,,,,001,2025-03-10_16h59.17.470,SL_sali_41,2021.2.3,Win32,144.1545337,1.2013,,,8,0,8,0,1,,,,,,,,
,,"[""circle"",""no_dis"",""hori"",""left"",[99999,99999],[0,-150]]",circle,no_dis,hori,left,"[99999,99999]","[0,-150]",left,1,,,,,,001,2025-03-10_16h59.17.470,SL_sali_41,2021.2.3,Win32,144.1545337,0.8259,,,9,0,9,0,1,,,,,,,,
,,"[""diamond"",""no_dis"",""vert"",""up"",[99999,99999],[-106,106]]",diamond,no_dis,vert,up,"[99999,99999]","[-106,106]",up,1,,,,,,001,2025-03-10_16h59.17.470,SL_sali_41,2021.2.3,Win32,144.1545337,1.5015,,,10,0,10,0,1,,,,,,,,
,,"[""diamond"",""green"",""vert"",""up"",[-106,106],[106,-106]]",diamond,green,vert,up,"[-106,106]","[106,-106]",up,1,,,,,,001,2025-03-10_16h59.17.470,SL_sali_41,2021.2.3,Win32,144.1545337,1.1116,,,11,0,11,0,1,,,,,,,,
,,"[""circle"",""no_dis"",""hori"",""left"",[99999,99999],[106,-106]]",circle,no_dis,hori,left,"[99999,99999]","[106,-106]",left,1,,,,,,001,2025-03-10_16h59.17.470,SL_sali_41,2021.2.3,Win32,144.1545337,1.9447,,,12,0,12,0,1,,,,,,,,
,,"[""circle"",""red"",""hori"",""left"",[-106,106],[150,0]]",circle,red,hori,left,"[-106,106]","[150,0]",left,1,,,,,,001,2025-03-10_16h59.17.470,SL_sali_41,2021.2.3,Win32,144.1545337,1.0929,,,13,0,13,0,1,,,,,,,,
,,"[""diamond"",""no_dis"",""vert"",""up"",[99999,99999],[0,150]]",diamond,no_dis,vert,up,"[99999,99999]","[0,150]",up,1,,,,,,001,2025-03-10_16h59.17.470,SL_sali_41,2021.2.3,Win32,144.1545337,1.1399,,,14,0,14,0,1,,,,,,,,
,,"[""circle"",""red"",""vert"",""up"",[-106,106],[106,-106]]",circle,red,vert,up,"[-106,106]","[106,-106]",up,1,,,,,,001,2025-03-10_16h59.17.470,SL_sali_41,2021.2.3,Win32,144.1545337,0.8894,,,15,0,15,0,1,,,,,,,,
,,"[""diamond"",""green"",""vert"",""up"",[106,-106],[150,0]]",diamond,green,vert,up,"[106,-106]","[150,0]",up,1,,,,,,001,2025-03-10_16h59.17.470,SL_sali_41,2021.2.3,Win32,144.1545337,1.4384,,,16,0,16,0,1,,,,,,,,
,,"[""diamond"",""green"",""vert"",""up"",[0,150],[-106,-106]]",diamond,green,vert,up,"[0,150]","[-106,-106]",up,1,,,,,,001,2025-03-10_16h59.17.470,SL_sali_41,2021.2.3,Win32,144.1545337,1.132,,,17,0,17,0,1,,,,,,,,
,,"[""circle"",""green"",""vert"",""up"",[150,0],[106,106]]",circle,green,vert,up,"[150,0]","[106,106]",up,1,,,,,,001,2025-03-10_16h59.17.470,SL_sali_41,2021.2.3,Win32,144.1545337,1.138,,,18,0,18,0,1,,,,,,,,
,,"[""circle"",""green"",""hori"",""left"",[0,-150],[-150,0]]",circle,green,hori,left,"[0,-150]","[-150,0]",left,1,,,,,,001,2025-03-10_16h59.17.470,SL_sali_41,2021.2.3,Win32,144.1545337,0.7163,,,19,0,19,0,1,,,,,,,,
,,"[""circle"",""green"",""hori"",""left"",[106,106],[0,-150]]",circle,green,hori,left,"[106,106]","[0,-150]",left,1,,,,,,001,2025-03-10_16h59.17.470,SL_sali_41,2021.2.3,Win32,144.1545337,0.705,,,20,0,20,0,1,,,,,,,,
,,"[""diamond"",""green"",""hori"",""left"",[-150,0],[150,0]]",diamond,green,hori,left,"[-150,0]","[150,0]",left,1,,,,,,001,2025-03-10_16h59.17.470,SL_sali_41,2021.2.3,Win32,144.1545337,1.0279,,,21,0,21,0,1,,,,,,,,
,,"[""diamond"",""red"",""hori"",""left"",[-106,106],[150,0]]",diamond,red,hori,left,"[-106,106]","[150,0]",left,1,,,,,,001,2025-03-10_16h59.17.470,SL_sali_41,2021.2.3,Win32,144.1545337,1.181,,,22,0,22,0,1,,,,,,,,
,,"[""diamond"",""red"",""vert"",""up"",[-106,106],[150,0]]",diamond,red,vert,up,"[-106,106]","[150,0]",up,1,,,,,,001,2025-03-10_16h59.17.470,SL_sali_41,2021.2.3,Win32,144.1545337,1.0972,,,23,0,23,0,1,,,,,,,,
,,"[""circle"",""green"",""hori"",""left"",[-106,106],[-150,0]]",circle,green,hori,left,"[-106,106]","[-150,0]",left,1,,,,,,001,2025-03-10_16h59.17.470,SL_sali_41,2021.2.3,Win32,144.1545337,1.1075,,,24,0,24,0,1,,,,,,,,
,,"[""circle"",""no_dis"",""vert"",""up"",[99999,99999],[0,-150]]",circle,no_dis,vert,up,"[99999,99999]","[0,-150]",up,1,,,,,,001,2025-03-10_16h59.17.470,SL_sali_41,2021.2.3,Win32,144.1545337,1.0505,,,25,0,25,0,1,,,,,,,,
,,"[""diamond"",""red"",""vert"",""up"",[150,0],[-150,0]]",diamond,red,vert,up,"[150,0]","[-150,0]",up,1,,,,,,001,2025-03-10_16h59.17.470,SL_sali_41,2021.2.3,Win32,144.1545337,1.0556,,,26,0,26,0,1,,,,,,,,
,,"[""circle"",""green"",""hori"",""left"",[-106,106],[0,150]]",circle,green,hori,left,"[-106,106]","[0,150]",left,1,,,,,,001,2025-03-10_16h59.17.470,SL_sali_41,2021.2.3,Win32,144.1545337,0.7294,,,27,0,27,0,1,,,,,,,,
,,"[""circle"",""red"",""hori"",""left"",[0,150],[-106,-106]]",circle,red,hori,left,"[0,150]","[-106,-106]",left,1,,,,,,001,2025-03-10_16h59.17.470,SL_sali_41,2021.2.3,Win32,144.1545337,0.7296,,,28,0,28,0,1,,,,,,,,
,,"[""diamond"",""no_dis"",""hori"",""left"",[99999,99999],[-106,-106]]",diamond,no_dis,hori,left,"[99999,99999]","[-106,-106]",left,1,,,,,,001,2025-03-10_16h59.17.470,SL_sali_41,2021.2.3,Win32,144.1545337,0.6465,,,29,0,29,0,1,,,,,,,,
,,"[""diamond"",""red"",""hori"",""left"",[106,-106],[-150,0]]",diamond,red,hori,left,"[106,-106]","[-150,0]",left,1,,,,,,001,2025-03-10_16h59.17.470,SL_sali_41,2021.2.3,Win32,144.1545337,1.1457,,,30,0,30,0,1,,,,,,,,
,,"[""circle"",""no_dis"",""vert"",""up"",[99999,99999],[106,-106]]",circle,no_dis,vert,up,"[99999,99999]","[106,-106]",up,1,,,,,,001,2025-03-10_16h59.17.470,SL_sali_41,2021.2.3,Win32,144.1545337,1.9401,,,31,0,31,0,1,,,,,,,,
,,"[""diamond"",""no_dis"",""vert"",""up"",[99999,99999],[150,0]]",diamond,no_dis,vert,up,"[99999,99999]","[150,0]",up,1,,,,,,001,2025-03-10_16h59.17.470,SL_sali_41,2021.2.3,Win32,144.1545337,1.3355,,,32,0,32,0,1,,,,,,,,
,,"[""circle"",""red"",""vert"",""up"",[0,-150],[-150,0]]",circle,red,vert,up,"[0,-150]","[-150,0]",up,1,,,,,,001,2025-03-10_16h59.17.470,SL_sali_41,2021.2.3,Win32,144.1545337,1.9934,,,33,0,33,0,1,,,,,,,,
,,"[""circle"",""no_dis"",""hori"",""left"",[99999,99999],[0,-150]]",circle,no_dis,hori,left,"[99999,99999]","[0,-150]",left,1,,,,,,001,2025-03-10_16h59.17.470,SL_sali_41,2021.2.3,Win32,144.1545337,1.0087,,,34,0,34,0,1,,,,,,,,
,,"[""diamond"",""green"",""vert"",""up"",[106,106],[-106,-106]]",diamond,green,vert,up,"[106,106]","[-106,-106]",up,1,,,,,,001,2025-03-10_16h59.17.470,SL_sali_41,2021.2.3,Win32,144.1545337,1.2179,,,35,0,35,0,1,,,,,,,,
,,"[""diamond"",""no_dis"",""hori"",""left"",[99999,99999],[-106,106]]",diamond,no_dis,hori,left,"[99999,99999]","[-106,106]",left,1,,,,,,001,2025-03-10_16h59.17.470,SL_sali_41,2021.2.3,Win32,144.1545337,1.7431,,,36,0,36,0,1,,,,,,,,
,,"[""diamond"",""red"",""hori"",""left"",[-106,-106],[106,106]]",diamond,red,hori,left,"[-106,-106]","[106,106]",left,1,,,,,,001,2025-03-10_16h59.17.470,SL_sali_41,2021.2.3,Win32,144.1545337,1.3228,,,37,0,37,0,1,,,,,,,,
,,"[""circle"",""red"",""hori"",""left"",[0,-150],[106,106]]",circle,red,hori,left,"[0,-150]","[106,106]",left,1,,,,,,001,2025-03-10_16h59.17.470,SL_sali_41,2021.2.3,Win32,144.1545337,1.021,,,38,0,38,0,1,,,,,,,,
,,"[""circle"",""red"",""vert"",""up"",[106,106],[0,-150]]",circle,red,vert,up,"[106,106]","[0,-150]",up,1,,,,,,001,2025-03-10_16h59.17.470,SL_sali_41,2021.2.3,Win32,144.1545337,0.9722,,,39,0,39,0,1,,,,,,,,
,,"[""circle"",""green"",""vert"",""up"",[0,150],[150,0]]",circle,green,vert,up,"[0,150]","[150,0]",up,1,,,,,,001,2025-03-10_16h59.17.470,SL_sali_41,2021.2.3,Win32,144.1545337,0.995,,,40,0,40,0,1,,,,,,,,
,,"[""circle"",""red"",""hori"",""left"",[-106,106],[106,106]]",circle,red,hori,left,"[-106,106]","[106,106]",up,0,,,,,,001,2025-03-10_16h59.17.470,SL_sali_41,2021.2.3,Win32,144.1545337,1.1813,,,41,0,41,0,1,,,,,,,,
,,"[""diamond"",""green"",""hori"",""left"",[-106,-106],[-150,0]]",diamond,green,hori,left,"[-106,-106]","[-150,0]",left,1,,,,,,001,2025-03-10_16h59.17.470,SL_sali_41,2021.2.3,Win32,144.1545337,1.6551,,,42,0,42,0,1,,,,,,,,
,,"[""diamond"",""no_dis"",""hori"",""left"",[99999,99999],[150,0]]",diamond,no_dis,hori,left,"[99999,99999]","[150,0]",left,1,,,,,,001,2025-03-10_16h59.17.470,SL_sali_41,2021.2.3,Win32,144.1545337,1.0287,,,43,0,43,0,1,,,,,,,,
,,"[""circle"",""no_dis"",""vert"",""up"",[99999,99999],[0,150]]",circle,no_dis,vert,up,"[99999,99999]","[0,150]",up,1,,,,,,001,2025-03-10_16h59.17.470,SL_sali_41,2021.2.3,Win32,144.1545337,1.8752,,,44,0,44,0,1,,,,,,,,
,,"[""diamond"",""green"",""hori"",""left"",[-106,106],[106,106]]",diamond,green,hori,left,"[-106,106]","[106,106]",left,1,,,,,,001,2025-03-10_16h59.17.470,SL_sali_41,2021.2.3,Win32,144.1545337,0.9523,,,45,0,45,0,1,,,,,,,,
,,"[""diamond"",""no_dis"",""vert"",""up"",[99999,99999],[-150,0]]",diamond,no_dis,vert,up,"[99999,99999]","[-150,0]",up,1,,,,,,001,2025-03-10_16h59.17.470,SL_sali_41,2021.2.3,Win32,144.1545337,0.8619,,,46,0,46,0,1,,,,,,,,
,,"[""circle"",""red"",""hori"",""left"",[-106,106],[106,-106]]",circle,red,hori,left,"[-106,106]","[106,-106]",left,1,,,,,,001,2025-03-10_16h59.17.470,SL_sali_41,2021.2.3,Win32,144.1545337,1.0007,,,47,0,47,0,1,,,,,,,,
,,"[""diamond"",""green"",""vert"",""up"",[0,-150],[-106,-106]]",diamond,green,vert,up,"[0,-150]","[-106,-106]",up,1,,,,,,001,2025-03-10_16h59.17.470,SL_sali_41,2021.2.3,Win32,144.1545337,1.2648,,,48,0,48,0,1,,,,,,,,
,,"[""diamond"",""red"",""hori"",""left"",[150,0],[-106,106]]",diamond,red,hori,left,"[150,0]","[-106,106]",left,1,,,,,,001,2025-03-10_16h59.17.470,SL_sali_41,2021.2.3,Win32,144.1545337,1.5292,,,49,0,49,0,1,,,,,,,,
,,"[""diamond"",""no_dis"",""hori"",""left"",[99999,99999],[-106,-106]]",diamond,no_dis,hori,left,"[99999,99999]","[-106,-106]",left,1,,,,,,001,2025-03-10_16h59.17.470,SL_sali_41,2021.2.3,Win32,144.1545337,1.0132,,,50,0,50,0,1,,,,,,,,
,,"[""diamond"",""red"",""vert"",""up"",[150,0],[0,-150]]",diamond,red,vert,up,"[150,0]","[0,-150]",up,1,,,,,,001,2025-03-10_16h59.17.470,SL_sali_41,2021.2.3,Win32,144.1545337,1.5846,,,51,0,51,0,1,,,,,,,,
,,"[""diamond"",""red"",""hori"",""left"",[150,0],[106,-106]]",diamond,red,hori,left,"[150,0]","[106,-106]",left,1,,,,,,001,2025-03-10_16h59.17.470,SL_sali_41,2021.2.3,Win32,144.1545337,1.1973,,,52,0,52,0,1,,,,,,,,
,,"[""circle"",""red"",""hori"",""left"",[-106,-106],[150,0]]",circle,red,hori,left,"[-106,-106]","[150,0]",left,1,,,,,,001,2025-03-10_16h59.17.470,SL_sali_41,2021.2.3,Win32,144.1545337,0.7304,,,53,0,53,0,1,,,,,,,,
,,"[""circle"",""no_dis"",""vert"",""up"",[99999,99999],[-106,-106]]",circle,no_dis,vert,up,"[99999,99999]","[-106,-106]",up,1,,,,,,001,2025-03-10_16h59.17.470,SL_sali_41,2021.2.3,Win32,144.1545337,0.9042,,,54,0,54,0,1,,,,,,,,
,,"[""diamond"",""no_dis"",""hori"",""left"",[99999,99999],[106,106]]",diamond,no_dis,hori,left,"[99999,99999]","[106,106]",left,1,,,,,,001,2025-03-10_16h59.17.470,SL_sali_41,2021.2.3,Win32,144.1545337,1.3478,,,55,0,55,0,1,,,,,,,,
,,"[""diamond"",""no_dis"",""vert"",""up"",[99999,99999],[-150,0]]",diamond,no_dis,vert,up,"[99999,99999]","[-150,0]",up,1,,,,,,001,2025-03-10_16h59.17.470,SL_sali_41,2021.2.3,Win32,144.1545337,0.958,,,56,0,56,0,1,,,,,,,,
,,"[""diamond"",""no_dis"",""vert"",""up"",[99999,99999],[0,150]]",diamond,no_dis,vert,up,"[99999,99999]","[0,150]",up,1,,,,,,001,2025-03-10_16h59.17.470,SL_sali_41,2021.2.3,Win32,144.1545337,0.9588,,,57,0,57,0,1,,,,,,,,
,,"[""diamond"",""no_dis"",""vert"",""up"",[99999,99999],[-150,0]]",diamond,no_dis,vert,up,"[99999,99999]","[-150,0]",up,1,,,,,,001,2025-03-10_16h59.17.470,SL_sali_41,2021.2.3,Win32,144.1545337,0.9508,,,58,0,58,0,1,,,,,,,,
,,"[""circle"",""no_dis"",""hori"",""left"",[99999,99999],[-106,-106]]",circle,no_dis,hori,left,"[99999,99999]","[-106,-106]",left,1,,,,,,001,2025-03-10_16h59.17.470,SL_sali_41,2021.2.3,Win32,144.1545337,0.7704,,,59,0,59,0,1,,,,,,,,
,,"[""diamond"",""green"",""vert"",""up"",[-150,0],[106,-106]]",diamond,green,vert,up,"[-150,0]","[106,-106]",up,1,,,,,,001,2025-03-10_16h59.17.470,SL_sali_41,2021.2.3,Win32,144.1545337,1.3199,,,60,0,60,0,1,,,,,,,,
,,"[""diamond"",""green"",""vert"",""up"",[-106,-106],[0,150]]",diamond,green,vert,up,"[-106,-106]","[0,150]",up,1,,,,,,001,2025-03-10_16h59.17.470,SL_sali_41,2021.2.3,Win32,144.1545337,0.9791,,,61,0,61,0,1,,,,,,,,
,,"[""diamond"",""green"",""hori"",""left"",[0,-150],[106,-106]]",diamond,green,hori,left,"[0,-150]","[106,-106]",left,1,,,,,,001,2025-03-10_16h59.17.470,SL_sali_41,2021.2.3,Win32,144.1545337,2.2902,,,62,0,62,0,1,,,,,,,,
,,"[""circle"",""no_dis"",""hori"",""left"",[99999,99999],[106,-106]]",circle,no_dis,hori,left,"[99999,99999]","[106,-106]",left,1,,,,,,001,2025-03-10_16h59.17.470,SL_sali_41,2021.2.3,Win32,144.1545337,0.9167,,,63,0,63,0,1,,,,,,,,
,,"[""circle"",""red"",""vert"",""up"",[-106,-106],[-150,0]]",circle,red,vert,up,"[-106,-106]","[-150,0]",up,1,,,,,,001,2025-03-10_16h59.17.470,SL_sali_41,2021.2.3,Win32,144.1545337,1.8544,,,64,0,64,0,1,,,,,,,,
,,"[""circle"",""green"",""hori"",""left"",[106,-106],[-150,0]]",circle,green,hori,left,"[106,-106]","[-150,0]",left,1,,,,,,001,2025-03-10_16h59.17.470,SL_sali_41,2021.2.3,Win32,144.1545337,0.8493,,,65,0,65,0,1,,,,,,,,
,,"[""diamond"",""no_dis"",""vert"",""up"",[99999,99999],[-106,106]]",diamond,no_dis,vert,up,"[99999,99999]","[-106,106]",up,1,,,,,,001,2025-03-10_16h59.17.470,SL_sali_41,2021.2.3,Win32,144.1545337,1.1327,,,66,0,66,0,1,,,,,,,,
,,"[""circle"",""green"",""vert"",""up"",[-106,106],[150,0]]",circle,green,vert,up,"[-106,106]","[150,0]",left,0,,,,,,001,2025-03-10_16h59.17.470,SL_sali_41,2021.2.3,Win32,144.1545337,0.9891,,,67,0,67,0,1,,,,,,,,
,,"[""circle"",""green"",""vert"",""up"",[106,106],[-150,0]]",circle,green,vert,up,"[106,106]","[-150,0]",up,1,,,,,,001,2025-03-10_16h59.17.470,SL_sali_41,2021.2.3,Win32,144.1545337,1.0377,,,68,0,68,0,1,,,,,,,,
,,"[""diamond"",""red"",""vert"",""up"",[-106,106],[-106,-106]]",diamond,red,vert,up,"[-106,106]","[-106,-106]",up,1,,,,,,001,2025-03-10_16h59.17.470,SL_sali_41,2021.2.3,Win32,144.1545337,1.7713,,,69,0,69,0,1,,,,,,,,
,,"[""diamond"",""red"",""vert"",""up"",[0,150],[-106,-106]]",diamond,red,vert,up,"[0,150]","[-106,-106]",up,1,,,,,,001,2025-03-10_16h59.17.470,SL_sali_41,2021.2.3,Win32,144.1545337,1.0067,,,70,0,70,0,1,,,,,,,,
,,"[""diamond"",""red"",""vert"",""up"",[-150,0],[106,106]]",diamond,red,vert,up,"[-150,0]","[106,106]",up,1,,,,,,001,2025-03-10_16h59.17.470,SL_sali_41,2021.2.3,Win32,144.1545337,1.625,,,71,0,71,0,1,,,,,,,,
,,"[""diamond"",""green"",""hori"",""left"",[-106,106],[0,-150]]",diamond,green,hori,left,"[-106,106]","[0,-150]",left,1,,,,,,001,2025-03-10_16h59.17.470,SL_sali_41,2021.2.3,Win32,144.1545337,0.9456,,,72,0,72,0,1,,,,,,,,
,,"[""diamond"",""no_dis"",""vert"",""up"",[99999,99999],[0,150]]",diamond,no_dis,vert,up,"[99999,99999]","[0,150]",up,1,,,,,,001,2025-03-10_16h59.17.470,SL_sali_41,2021.2.3,Win32,144.1545337,1.257,,,73,0,73,0,1,,,,,,,,
,,"[""circle"",""green"",""hori"",""left"",[-106,106],[-106,-106]]",circle,green,hori,left,"[-106,106]","[-106,-106]",left,1,,,,,,001,2025-03-10_16h59.17.470,SL_sali_41,2021.2.3,Win32,144.1545337,1.3756,,,74,0,74,0,1,,,,,,,,
,,"[""circle"",""no_dis"",""hori"",""left"",[99999,99999],[0,-150]]",circle,no_dis,hori,left,"[99999,99999]","[0,-150]",left,1,,,,,,001,2025-03-10_16h59.17.470,SL_sali_41,2021.2.3,Win32,144.1545337,1.792,,,75,0,75,0,1,,,,,,,,
,,"[""diamond"",""green"",""hori"",""left"",[106,-106],[0,-150]]",diamond,green,hori,left,"[106,-106]","[0,-150]",left,1,,,,,,001,2025-03-10_16h59.17.470,SL_sali_41,2021.2.3,Win32,144.1545337,1.6751,,,76,0,76,0,1,,,,,,,,
,,"[""circle"",""red"",""vert"",""up"",[-106,106],[106,106]]",circle,red,vert,up,"[-106,106]","[106,106]",up,1,,,,,,001,2025-03-10_16h59.17.470,SL_sali_41,2021.2.3,Win32,144.1545337,1.0622,,,77,0,77,0,1,,,,,,,,
,,"[""diamond"",""red"",""hori"",""left"",[150,0],[0,-150]]",diamond,red,hori,left,"[150,0]","[0,-150]",left,1,,,,,,001,2025-03-10_16h59.17.470,SL_sali_41,2021.2.3,Win32,144.1545337,2.3845,,,78,0,78,0,1,,,,,,,,
,,"[""diamond"",""red"",""vert"",""up"",[-106,106],[-150,0]]",diamond,red,vert,up,"[-106,106]","[-150,0]",up,1,,,,,,001,2025-03-10_16h59.17.470,SL_sali_41,2021.2.3,Win32,144.1545337,1.7648,,,79,0,79,0,1,,,,,,,,
,,"[""diamond"",""red"",""hori"",""left"",[106,106],[0,-150]]",diamond,red,hori,left,"[106,106]","[0,-150]",left,1,,,,,,001,2025-03-10_16h59.17.470,SL_sali_41,2021.2.3,Win32,144.1545337,1.9941,,,80,0,80,0,1,,,,,,,,
,,"[""diamond"",""no_dis"",""hori"",""left"",[99999,99999],[0,-150]]",diamond,no_dis,hori,left,"[99999,99999]","[0,-150]",left,1,,,,,,001,2025-03-10_16h59.17.470,SL_sali_41,2021.2.3,Win32,144.1545337,0.9258,,,81,0,81,0,1,,,,,,,,
,,"[""diamond"",""green"",""vert"",""up"",[0,150],[0,-150]]",diamond,green,vert,up,"[0,150]","[0,-150]",up,1,,,,,,001,2025-03-10_16h59.17.470,SL_sali_41,2021.2.3,Win32,144.1545337,1.2237,,,82,0,82,0,1,,,,,,,,
,,"[""circle"",""red"",""hori"",""left"",[106,-106],[-106,106]]",circle,red,hori,left,"[106,-106]","[-106,106]",left,1,,,,,,001,2025-03-10_16h59.17.470,SL_sali_41,2021.2.3,Win32,144.1545337,1.0974,,,83,0,83,0,1,,,,,,,,
,,"[""circle"",""red"",""hori"",""left"",[-106,106],[-150,0]]",circle,red,hori,left,"[-106,106]","[-150,0]",left,1,,,,,,001,2025-03-10_16h59.17.470,SL_sali_41,2021.2.3,Win32,144.1545337,0.8821,,,84,0,84,0,1,,,,,,,,
,,"[""circle"",""green"",""vert"",""up"",[0,150],[-106,-106]]",circle,green,vert,up,"[0,150]","[-106,-106]",up,1,,,,,,001,2025-03-10_16h59.17.470,SL_sali_41,2021.2.3,Win32,144.1545337,0.757,,,85,0,85,0,1,,,,,,,,
,,"[""circle"",""green"",""hori"",""left"",[-106,106],[0,150]]",circle,green,hori,left,"[-106,106]","[0,150]",left,1,,,,,,001,2025-03-10_16h59.17.470,SL_sali_41,2021.2.3,Win32,144.1545337,0.8552,,,86,0,86,0,1,,,,,,,,
,,"[""diamond"",""red"",""hori"",""left"",[-106,106],[-106,-106]]",diamond,red,hori,left,"[-106,106]","[-106,-106]",left,1,,,,,,001,2025-03-10_16h59.17.470,SL_sali_41,2021.2.3,Win32,144.1545337,1.2154,,,87,0,87,0,1,,,,,,,,
,,"[""circle"",""green"",""vert"",""up"",[-106,106],[150,0]]",circle,green,vert,up,"[-106,106]","[150,0]",up,1,,,,,,001,2025-03-10_16h59.17.470,SL_sali_41,2021.2.3,Win32,144.1545337,0.8544,,,88,0,88,0,1,,,,,,,,
,,"[""circle"",""green"",""vert"",""up"",[-106,106],[0,-150]]",circle,green,vert,up,"[-106,106]","[0,-150]",up,1,,,,,,001,2025-03-10_16h59.17.470,SL_sali_41,2021.2.3,Win32,144.1545337,0.7845,,,89,0,89,0,1,,,,,,,,
,,"[""diamond"",""no_dis"",""vert"",""up"",[99999,99999],[150,0]]",diamond,no_dis,vert,up,"[99999,99999]","[150,0]",up,1,,,,,,001,2025-03-10_16h59.17.470,SL_sali_41,2021.2.3,Win32,144.1545337,1.0345,,,90,0,90,0,1,,,,,,,,
,,"[""circle"",""red"",""hori"",""left"",[106,106],[-106,-106]]",circle,red,hori,left,"[106,106]","[-106,-106]",left,1,,,,,,001,2025-03-10_16h59.17.470,SL_sali_41,2021.2.3,Win32,144.1545337,1.0845,,,91,0,91,0,1,,,,,,,,
,,"[""diamond"",""red"",""hori"",""left"",[-106,-106],[106,-106]]",diamond,red,hori,left,"[-106,-106]","[106,-106]",left,1,,,,,,001,2025-03-10_16h59.17.470,SL_sali_41,2021.2.3,Win32,144.1545337,1.5627,,,92,0,92,0,1,,,,,,,,
,,"[""circle"",""no_dis"",""vert"",""up"",[99999,99999],[106,106]]",circle,no_dis,vert,up,"[99999,99999]","[106,106]",up,1,,,,,,001,2025-03-10_16h59.17.470,SL_sali_41,2021.2.3,Win32,144.1545337,1.8544,,,93,0,93,0,1,,,,,,,,
,,"[""circle"",""green"",""vert"",""up"",[-106,106],[106,-106]]",circle,green,vert,up,"[-106,106]","[106,-106]",up,1,,,,,,001,2025-03-10_16h59.17.470,SL_sali_41,2021.2.3,Win32,144.1545337,1.028,,,94,0,94,0,1,,,,,,,,
,,"[""diamond"",""green"",""hori"",""left"",[-106,106],[0,150]]",diamond,green,hori,left,"[-106,106]","[0,150]",left,1,,,,,,001,2025-03-10_16h59.17.470,SL_sali_41,2021.2.3,Win32,144.1545337,1.6944,,,95,0,95,0,1,,,,,,,,
,,"[""circle"",""green"",""vert"",""up"",[-106,106],[-106,-106]]",circle,green,vert,up,"[-106,106]","[-106,-106]",up,1,,,,,,001,2025-03-10_16h59.17.470,SL_sali_41,2021.2.3,Win32,144.1545337,0.9725,,,96,0,96,0,1,,,,,,,,
,,"[""diamond"",""green"",""hori"",""left"",[-106,106],[-106,-106]]",diamond,green,hori,left,"[-106,106]","[-106,-106]",left,1,,,,,,001,2025-03-10_16h59.17.470,SL_sali_41,2021.2.3,Win32,144.1545337,0.9878,,,97,0,97,0,1,,,,,,,,
,,"[""circle"",""no_dis"",""vert"",""up"",[99999,99999],[0,150]]",circle,no_dis,vert,up,"[99999,99999]","[0,150]",up,1,,,,,,001,2025-03-10_16h59.17.470,SL_sali_41,2021.2.3,Win32,144.1545337,1.0766,,,98,0,98,0,1,,,,,,,,
,,"[""diamond"",""no_dis"",""hori"",""left"",[99999,99999],[-106,-106]]",diamond,no_dis,hori,left,"[99999,99999]","[-106,-106]",left,1,,,,,,001,2025-03-10_16h59.17.470,SL_sali_41,2021.2.3,Win32,144.1545337,0.8424,,,99,0,99,0,1,,,,,,,,
,,"[""circle"",""green"",""hori"",""left"",[0,-150],[-106,106]]",circle,green,hori,left,"[0,-150]","[-106,106]",left,1,,,,,,001,2025-03-10_16h59.17.470,SL_sali_41,2021.2.3,Win32,144.1545337,1.2355,,,100,0,100,0,1,,,,,,,,
,,"[""circle"",""red"",""hori"",""left"",[0,150],[150,0]]",circle,red,hori,left,"[0,150]","[150,0]",left,1,,,,,,001,2025-03-10_16h59.17.470,SL_sali_41,2021.2.3,Win32,144.1545337,1.0351,,,101,0,101,0,1,,,,,,,,
,,"[""diamond"",""red"",""vert"",""up"",[-106,106],[106,-106]]",diamond,red,vert,up,"[-106,106]","[106,-106]",up,1,,,,,,001,2025-03-10_16h59.17.470,SL_sali_41,2021.2.3,Win32,144.1545337,0.8835,,,102,0,102,0,1,,,,,,,,
,,"[""circle"",""red"",""vert"",""up"",[150,0],[106,106]]",circle,red,vert,up,"[150,0]","[106,106]",up,1,,,,,,001,2025-03-10_16h59.17.470,SL_sali_41,2021.2.3,Win32,144.1545337,1.4052,,,103,0,103,0,1,,,,,,,,
,,"[""circle"",""green"",""vert"",""up"",[-106,106],[-150,0]]",circle,green,vert,up,"[-106,106]","[-150,0]",up,1,,,,,,001,2025-03-10_16h59.17.470,SL_sali_41,2021.2.3,Win32,144.1545337,0.6942,,,104,0,104,0,1,,,,,,,,
,,"[""circle"",""no_dis"",""vert"",""up"",[99999,99999],[106,-106]]",circle,no_dis,vert,up,"[99999,99999]","[106,-106]",up,1,,,,,,001,2025-03-10_16h59.17.470,SL_sali_41,2021.2.3,Win32,144.1545337,0.917,,,105,0,105,0,1,,,,,,,,
,,"[""circle"",""green"",""hori"",""left"",[-106,-106],[-106,106]]",circle,green,hori,left,"[-106,-106]","[-106,106]",left,1,,,,,,001,2025-03-10_16h59.17.470,SL_sali_41,2021.2.3,Win32,144.1545337,0.9448,,,106,0,106,0,1,,,,,,,,
,,"[""diamond"",""green"",""hori"",""left"",[-150,0],[0,150]]",diamond,green,hori,left,"[-150,0]","[0,150]",up,0,,,,,,001,2025-03-10_16h59.17.470,SL_sali_41,2021.2.3,Win32,144.1545337,1.0494,,,107,0,107,0,1,,,,,,,,
,,"[""diamond"",""green"",""hori"",""left"",[-106,106],[-150,0]]",diamond,green,hori,left,"[-106,106]","[-150,0]",left,1,,,,,,001,2025-03-10_16h59.17.470,SL_sali_41,2021.2.3,Win32,144.1545337,1.111,,,108,0,108,0,1,,,,,,,,
,,"[""diamond"",""no_dis"",""hori"",""left"",[99999,99999],[150,0]]",diamond,no_dis,hori,left,"[99999,99999]","[150,0]",left,1,,,,,,001,2025-03-10_16h59.17.470,SL_sali_41,2021.2.3,Win32,144.1545337,1.4598,,,109,0,109,0,1,,,,,,,,
,,"[""circle"",""no_dis"",""hori"",""left"",[99999,99999],[106,106]]",circle,no_dis,hori,left,"[99999,99999]","[106,106]",left,1,,,,,,001,2025-03-10_16h59.17.470,SL_sali_41,2021.2.3,Win32,144.1545337,0.8344,,,110,0,110,0,1,,,,,,,,
,,"[""circle"",""red"",""hori"",""left"",[150,0],[-106,-106]]",circle,red,hori,left,"[150,0]","[-106,-106]",left,1,,,,,,001,2025-03-10_16h59.17.470,SL_sali_41,2021.2.3,Win32,144.1545337,0.7018,,,111,0,111,0,1,,,,,,,,
,,"[""diamond"",""no_dis"",""hori"",""left"",[99999,99999],[-150,0]]",diamond,no_dis,hori,left,"[99999,99999]","[-150,0]",left,1,,,,,,001,2025-03-10_16h59.17.470,SL_sali_41,2021.2.3,Win32,144.1545337,1.6955,,,112,0,112,0,1,,,,,,,,
,,"[""circle"",""no_dis"",""vert"",""up"",[99999,99999],[-106,106]]",circle,no_dis,vert,up,"[99999,99999]","[-106,106]",up,1,,,,,,001,2025-03-10_16h59.17.470,SL_sali_41,2021.2.3,Win32,144.1545337,1.1531,,,113,0,113,0,1,,,,,,,,
,,"[""diamond"",""red"",""hori"",""left"",[-106,106],[106,-106]]",diamond,red,hori,left,"[-106,106]","[106,-106]",left,1,,,,,,001,2025-03-10_16h59.17.470,SL_sali_41,2021.2.3,Win32,144.1545337,1.1597,,,114,0,114,0,1,,,,,,,,
,,"[""circle"",""no_dis"",""hori"",""left"",[99999,99999],[106,106]]",circle,no_dis,hori,left,"[99999,99999]","[106,106]",left,1,,,,,,001,2025-03-10_16h59.17.470,SL_sali_41,2021.2.3,Win32,144.1545337,0.9313,,,115,0,115,0,1,,,,,,,,
,,"[""diamond"",""red"",""vert"",""up"",[-106,106],[106,106]]",diamond,red,vert,up,"[-106,106]","[106,106]",up,1,,,,,,001,2025-03-10_16h59.17.470,SL_sali_41,2021.2.3,Win32,144.1545337,1.7657,,,116,0,116,0,1,,,,,,,,
,,"[""circle"",""no_dis"",""hori"",""left"",[99999,99999],[-150,0]]",circle,no_dis,hori,left,"[99999,99999]","[-150,0]",left,1,,,,,,001,2025-03-10_16h59.17.470,SL_sali_41,2021.2.3,Win32,144.1545337,0.8819,,,117,0,117,0,1,,,,,,,,
,,"[""diamond"",""red"",""vert"",""up"",[-106,106],[106,-106]]",diamond,red,vert,up,"[-106,106]","[106,-106]",up,1,,,,,,001,2025-03-10_16h59.17.470,SL_sali_41,2021.2.3,Win32,144.1545337,0.953,,,118,0,118,0,1,,,,,,,,
,,"[""diamond"",""no_dis"",""hori"",""left"",[99999,99999],[150,0]]",diamond,no_dis,hori,left,"[99999,99999]","[150,0]",left,1,,,,,,001,2025-03-10_16h59.17.470,SL_sali_41,2021.2.3,Win32,144.1545337,1.1129,,,119,0,119,0,1,,,,,,,,
,,"[""diamond"",""red"",""hori"",""left"",[-150,0],[-106,106]]",diamond,red,hori,left,"[-150,0]","[-106,106]",left,1,,,,,,001,2025-03-10_16h59.17.470,SL_sali_41,2021.2.3,Win32,144.1545337,1.306,,,120,0,120,0,1,,,,,,,,
,,"[""circle"",""red"",""vert"",""up"",[0,150],[-106,-106]]",circle,red,vert,up,"[0,150]","[-106,-106]",up,1,,,,,,001,2025-03-10_16h59.17.470,SL_sali_41,2021.2.3,Win32,144.1545337,1.4302,,,121,0,121,0,1,,,,,,,,
,,"[""circle"",""red"",""vert"",""up"",[-150,0],[-106,106]]",circle,red,vert,up,"[-150,0]","[-106,106]",up,1,,,,,,001,2025-03-10_16h59.17.470,SL_sali_41,2021.2.3,Win32,144.1545337,1.1871,,,122,0,122,0,1,,,,,,,,
,,"[""circle"",""red"",""vert"",""up"",[0,-150],[-106,-106]]",circle,red,vert,up,"[0,-150]","[-106,-106]",up,1,,,,,,001,2025-03-10_16h59.17.470,SL_sali_41,2021.2.3,Win32,144.1545337,2.1254,,,123,0,123,0,1,,,,,,,,
,,"[""circle"",""red"",""vert"",""up"",[106,106],[0,150]]",circle,red,vert,up,"[106,106]","[0,150]",up,1,,,,,,001,2025-03-10_16h59.17.470,SL_sali_41,2021.2.3,Win32,144.1545337,0.792,,,124,0,124,0,1,,,,,,,,
,,"[""diamond"",""green"",""vert"",""up"",[-106,-106],[150,0]]",diamond,green,vert,up,"[-106,-106]","[150,0]",up,1,,,,,,001,2025-03-10_16h59.17.470,SL_sali_41,2021.2.3,Win32,144.1545337,1.0898,,,125,0,125,0,1,,,,,,,,
,,"[""circle"",""no_dis"",""vert"",""up"",[99999,99999],[-106,106]]",circle,no_dis,vert,up,"[99999,99999]","[-106,106]",up,1,,,,,,001,2025-03-10_16h59.17.470,SL_sali_41,2021.2.3,Win32,144.1545337,2.3285,,,126,0,126,0,1,,,,,,,,
,,"[""circle"",""green"",""vert"",""up"",[-106,106],[-106,-106]]",circle,green,vert,up,"[-106,106]","[-106,-106]",up,1,,,,,,001,2025-03-10_16h59.17.470,SL_sali_41,2021.2.3,Win32,144.1545337,0.9952,,,127,0,127,0,1,,,,,,,,
,,,,,,,,,,,,,,,,001,2025-03-10_16h59.17.470,SL_sali_41,2021.2.3,Win32,144.1545337,,,,,,,,,3,space,1.1599,2,0,2,0,1
,,"[""diamond"",""red"",""hori"",""left"",[-106,-106],[106,106]]",diamond,red,hori,left,"[-106,-106]","[106,106]",left,1,,,,,,001,2025-03-10_16h59.17.470,SL_sali_41,2021.2.3,Win32,144.1545337,1.5499,,,0,0,0,0,1,,,,,,,,
,,"[""diamond"",""red"",""vert"",""up"",[0,150],[-106,-106]]",diamond,red,vert,up,"[0,150]","[-106,-106]",up,1,,,,,,001,2025-03-10_16h59.17.470,SL_sali_41,2021.2.3,Win32,144.1545337,1.3403,,,1,0,1,0,1,,,,,,,,
,,"[""circle"",""no_dis"",""hori"",""left"",[99999,99999],[106,106]]",circle,no_dis,hori,left,"[99999,99999]","[106,106]",left,1,,,,,,001,2025-03-10_16h59.17.470,SL_sali_41,2021.2.3,Win32,144.1545337,1.1394,,,2,0,2,0,1,,,,,,,,
,,"[""diamond"",""no_dis"",""hori"",""left"",[99999,99999],[-106,-106]]",diamond,no_dis,hori,left,"[99999,99999]","[-106,-106]",left,1,,,,,,001,2025-03-10_16h59.17.470,SL_sali_41,2021.2.3,Win32,144.1545337,0.8825,,,3,0,3,0,1,,,,,,,,
,,"[""diamond"",""no_dis"",""hori"",""left"",[99999,99999],[150,0]]",diamond,no_dis,hori,left,"[99999,99999]","[150,0]",left,1,,,,,,001,2025-03-10_16h59.17.470,SL_sali_41,2021.2.3,Win32,144.1545337,1.0582,,,4,0,4,0,1,,,,,,,,
,,"[""circle"",""green"",""hori"",""left"",[106,-106],[150,0]]",circle,green,hori,left,"[106,-106]","[150,0]",left,1,,,,,,001,2025-03-10_16h59.17.470,SL_sali_41,2021.2.3,Win32,144.1545337,1.5785,,,5,0,5,0,1,,,,,,,,
,,"[""circle"",""red"",""hori"",""left"",[106,106],[-106,-106]]",circle,red,hori,left,"[106,106]","[-106,-106]",up,0,,,,,,001,2025-03-10_16h59.17.470,SL_sali_41,2021.2.3,Win32,144.1545337,0.8976,,,6,0,6,0,1,,,,,,,,
,,"[""circle"",""green"",""hori"",""left"",[-106,106],[-106,-106]]",circle,green,hori,left,"[-106,106]","[-106,-106]",left,1,,,,,,001,2025-03-10_16h59.17.470,SL_sali_41,2021.2.3,Win32,144.1545337,0.7022,,,7,0,7,0,1,,,,,,,,
,,"[""circle"",""green"",""hori"",""left"",[-106,106],[0,150]]",circle,green,hori,left,"[-106,106]","[0,150]",left,1,,,,,,001,2025-03-10_16h59.17.470,SL_sali_41,2021.2.3,Win32,144.1545337,0.6979,,,8,0,8,0,1,,,,,,,,
,,"[""diamond"",""green"",""hori"",""left"",[-106,106],[0,150]]",diamond,green,hori,left,"[-106,106]","[0,150]",left,1,,,,,,001,2025-03-10_16h59.17.470,SL_sali_41,2021.2.3,Win32,144.1545337,1.9518,,,9,0,9,0,1,,,,,,,,
,,"[""diamond"",""red"",""hori"",""left"",[-150,0],[-106,106]]",diamond,red,hori,left,"[-150,0]","[-106,106]",left,1,,,,,,001,2025-03-10_16h59.17.470,SL_sali_41,2021.2.3,Win32,144.1545337,1.175,,,10,0,10,0,1,,,,,,,,
,,"[""diamond"",""no_dis"",""hori"",""left"",[99999,99999],[106,106]]",diamond,no_dis,hori,left,"[99999,99999]","[106,106]",left,1,,,,,,001,2025-03-10_16h59.17.470,SL_sali_41,2021.2.3,Win32,144.1545337,0.8881,,,11,0,11,0,1,,,,,,,,
,,"[""diamond"",""red"",""vert"",""up"",[-106,106],[106,106]]",diamond,red,vert,up,"[-106,106]","[106,106]",up,1,,,,,,001,2025-03-10_16h59.17.470,SL_sali_41,2021.2.3,Win32,144.1545337,1.1244,,,12,0,12,0,1,,,,,,,,
,,"[""circle"",""red"",""hori"",""left"",[106,-106],[-106,106]]",circle,red,hori,left,"[106,-106]","[-106,106]",left,1,,,,,,001,2025-03-10_16h59.17.470,SL_sali_41,2021.2.3,Win32,144.1545337,0.7983,,,13,0,13,0,1,,,,,,,,
,,"[""diamond"",""no_dis"",""vert"",""up"",[99999,99999],[-150,0]]",diamond,no_dis,vert,up,"[99999,99999]","[-150,0]",up,1,,,,,,001,2025-03-10_16h59.17.470,SL_sali_41,2021.2.3,Win32,144.1545337,1.0214,,,14,0,14,0,1,,,,,,,,
,,"[""circle"",""no_dis"",""vert"",""up"",[99999,99999],[0,150]]",circle,no_dis,vert,up,"[99999,99999]","[0,150]",up,1,,,,,,001,2025-03-10_16h59.17.470,SL_sali_41,2021.2.3,Win32,144.1545337,2.0206,,,15,0,15,0,1,,,,,,,,
,,"[""circle"",""no_dis"",""vert"",""up"",[99999,99999],[-106,106]]",circle,no_dis,vert,up,"[99999,99999]","[-106,106]",up,1,,,,,,001,2025-03-10_16h59.17.470,SL_sali_41,2021.2.3,Win32,144.1545337,1.7436,,,16,0,16,0,1,,,,,,,,
,,"[""circle"",""red"",""hori"",""left"",[0,150],[150,0]]",circle,red,hori,left,"[0,150]","[150,0]",left,1,,,,,,001,2025-03-10_16h59.17.470,SL_sali_41,2021.2.3,Win32,144.1545337,0.8758,,,17,0,17,0,1,,,,,,,,
,,"[""circle"",""red"",""vert"",""up"",[-106,106],[106,106]]",circle,red,vert,up,"[-106,106]","[106,106]",up,1,,,,,,001,2025-03-10_16h59.17.470,SL_sali_41,2021.2.3,Win32,144.1545337,1.1206,,,18,0,18,0,1,,,,,,,,
,,"[""circle"",""red"",""hori"",""left"",[150,0],[-106,-106]]",circle,red,hori,left,"[150,0]","[-106,-106]",left,1,,,,,,001,2025-03-10_16h59.17.470,SL_sali_41,2021.2.3,Win32,144.1545337,1.2295,,,19,0,19,0,1,,,,,,,,
,,"[""diamond"",""no_dis"",""vert"",""up"",[99999,99999],[-150,0]]",diamond,no_dis,vert,up,"[99999,99999]","[-150,0]",up,1,,,,,,001,2025-03-10_16h59.17.470,SL_sali_41,2021.2.3,Win32,144.1545337,1.6806,,,20,0,20,0,1,,,,,,,,
,,"[""circle"",""green"",""hori"",""left"",[106,106],[0,-150]]",circle,green,hori,left,"[106,106]","[0,-150]",left,1,,,,,,001,2025-03-10_16h59.17.470,SL_sali_41,2021.2.3,Win32,144.1545337,0.9166,,,21,0,21,0,1,,,,,,,,
,,"[""diamond"",""no_dis"",""vert"",""up"",[99999,99999],[0,150]]",diamond,no_dis,vert,up,"[99999,99999]","[0,150]",up,1,,,,,,001,2025-03-10_16h59.17.470,SL_sali_41,2021.2.3,Win32,144.1545337,1.355,,,22,0,22,0,1,,,,,,,,
,,"[""diamond"",""red"",""hori"",""left"",[106,106],[0,-150]]",diamond,red,hori,left,"[106,106]","[0,-150]",left,1,,,,,,001,2025-03-10_16h59.17.470,SL_sali_41,2021.2.3,Win32,144.1545337,1.2166,,,23,0,23,0,1,,,,,,,,
,,"[""circle"",""green"",""vert"",""up"",[-106,106],[150,0]]",circle,green,vert,up,"[-106,106]","[150,0]",up,1,,,,,,001,2025-03-10_16h59.17.470,SL_sali_41,2021.2.3,Win32,144.1545337,1.1392,,,24,0,24,0,1,,,,,,,,
,,"[""diamond"",""red"",""vert"",""up"",[-106,106],[106,-106]]",diamond,red,vert,up,"[-106,106]","[106,-106]",up,1,,,,,,001,2025-03-10_16h59.17.470,SL_sali_41,2021.2.3,Win32,144.1545337,0.9373,,,25,0,25,0,1,,,,,,,,
,,"[""circle"",""no_dis"",""vert"",""up"",[99999,99999],[-106,106]]",circle,no_dis,vert,up,"[99999,99999]","[-106,106]",up,1,,,,,,001,2025-03-10_16h59.17.470,SL_sali_41,2021.2.3,Win32,144.1545337,2.0089,,,26,0,26,0,1,,,,,,,,
,,"[""circle"",""green"",""vert"",""up"",[-106,106],[-150,0]]",circle,green,vert,up,"[-106,106]","[-150,0]",up,1,,,,,,001,2025-03-10_16h59.17.470,SL_sali_41,2021.2.3,Win32,144.1545337,1.3893,,,27,0,27,0,1,,,,,,,,
,,"[""diamond"",""red"",""hori"",""left"",[-106,106],[106,-106]]",diamond,red,hori,left,"[-106,106]","[106,-106]",left,1,,,,,,001,2025-03-10_16h59.17.470,SL_sali_41,2021.2.3,Win32,144.1545337,1.0081,,,28,0,28,0,1,,,,,,,,
,,"[""diamond"",""green"",""vert"",""up"",[106,106],[-106,-106]]",diamond,green,vert,up,"[106,106]","[-106,-106]",up,1,,,,,,001,2025-03-10_16h59.17.470,SL_sali_41,2021.2.3,Win32,144.1545337,0.9584,,,29,0,29,0,1,,,,,,,,
,,"[""circle"",""green"",""hori"",""left"",[-106,106],[0,150]]",circle,green,hori,left,"[-106,106]","[0,150]",left,1,,,,,,001,2025-03-10_16h59.17.470,SL_sali_41,2021.2.3,Win32,144.1545337,1.6529,,,30,0,30,0,1,,,,,,,,
,,"[""diamond"",""green"",""hori"",""left"",[-150,0],[0,150]]",diamond,green,hori,left,"[-150,0]","[0,150]",left,1,,,,,,001,2025-03-10_16h59.17.470,SL_sali_41,2021.2.3,Win32,144.1545337,1.0436,,,31,0,31,0,1,,,,,,,,
,,"[""circle"",""red"",""hori"",""left"",[-106,106],[106,-106]]",circle,red,hori,left,"[-106,106]","[106,-106]",left,1,,,,,,001,2025-03-10_16h59.17.470,SL_sali_41,2021.2.3,Win32,144.1545337,0.9444,,,32,0,32,0,1,,,,,,,,
,,"[""circle"",""no_dis"",""vert"",""up"",[99999,99999],[0,-150]]",circle,no_dis,vert,up,"[99999,99999]","[0,-150]",up,1,,,,,,001,2025-03-10_16h59.17.470,SL_sali_41,2021.2.3,Win32,144.1545337,1.2028,,,33,0,33,0,1,,,,,,,,
,,"[""diamond"",""red"",""hori"",""left"",[150,0],[0,-150]]",diamond,red,hori,left,"[150,0]","[0,-150]",left,1,,,,,,001,2025-03-10_16h59.17.470,SL_sali_41,2021.2.3,Win32,144.1545337,1.1357,,,34,0,34,0,1,,,,,,,,
,,"[""circle"",""red"",""vert"",""up"",[106,106],[0,-150]]",circle,red,vert,up,"[106,106]","[0,-150]",up,1,,,,,,001,2025-03-10_16h59.17.470,SL_sali_41,2021.2.3,Win32,144.1545337,1.0145,,,35,0,35,0,1,,,,,,,,
,,"[""diamond"",""green"",""hori"",""left"",[-150,0],[150,0]]",diamond,green,hori,left,"[-150,0]","[150,0]",left,1,,,,,,001,2025-03-10_16h59.17.470,SL_sali_41,2021.2.3,Win32,144.1545337,2.3266,,,36,0,36,0,1,,,,,,,,
,,"[""diamond"",""red"",""vert"",""up"",[150,0],[-150,0]]",diamond,red,vert,up,"[150,0]","[-150,0]",up,1,,,,,,001,2025-03-10_16h59.17.470,SL_sali_41,2021.2.3,Win32,144.1545337,1.9234,,,37,0,37,0,1,,,,,,,,
,,"[""circle"",""green"",""hori"",""left"",[-106,106],[-150,0]]",circle,green,hori,left,"[-106,106]","[-150,0]",left,1,,,,,,001,2025-03-10_16h59.17.470,SL_sali_41,2021.2.3,Win32,144.1545337,1.1319,,,38,0,38,0,1,,,,,,,,
,,"[""circle"",""no_dis"",""hori"",""left"",[99999,99999],[0,-150]]",circle,no_dis,hori,left,"[99999,99999]","[0,-150]",left,1,,,,,,001,2025-03-10_16h59.17.470,SL_sali_41,2021.2.3,Win32,144.1545337,0.7433,,,39,0,39,0,1,,,,,,,,
,,"[""diamond"",""no_dis"",""hori"",""left"",[99999,99999],[-106,106]]",diamond,no_dis,hori,left,"[99999,99999]","[-106,106]",left,1,,,,,,001,2025-03-10_16h59.17.470,SL_sali_41,2021.2.3,Win32,144.1545337,1.7026,,,40,0,40,0,1,,,,,,,,
,,"[""diamond"",""no_dis"",""vert"",""up"",[99999,99999],[0,150]]",diamond,no_dis,vert,up,"[99999,99999]","[0,150]",up,1,,,,,,001,2025-03-10_16h59.17.470,SL_sali_41,2021.2.3,Win32,144.1545337,0.8962,,,41,0,41,0,1,,,,,,,,
,,"[""diamond"",""no_dis"",""vert"",""up"",[99999,99999],[-150,0]]",diamond,no_dis,vert,up,"[99999,99999]","[-150,0]",up,1,,,,,,001,2025-03-10_16h59.17.470,SL_sali_41,2021.2.3,Win32,144.1545337,1.2706,,,42,0,42,0,1,,,,,,,,
,,"[""diamond"",""no_dis"",""vert"",""up"",[99999,99999],[0,150]]",diamond,no_dis,vert,up,"[99999,99999]","[0,150]",up,1,,,,,,001,2025-03-10_16h59.17.470,SL_sali_41,2021.2.3,Win32,144.1545337,1.4445,,,43,0,43,0,1,,,,,,,,
,,"[""circle"",""red"",""hori"",""left"",[0,150],[-106,-106]]",circle,red,hori,left,"[0,150]","[-106,-106]",left,1,,,,,,001,2025-03-10_16h59.17.470,SL_sali_41,2021.2.3,Win32,144.1545337,1.2988,,,44,0,44,0,1,,,,,,,,
,,"[""diamond"",""no_dis"",""hori"",""left"",[99999,99999],[150,0]]",diamond,no_dis,hori,left,"[99999,99999]","[150,0]",left,1,,,,,,001,2025-03-10_16h59.17.470,SL_sali_41,2021.2.3,Win32,144.1545337,1.5147,,,45,0,45,0,1,,,,,,,,
,,"[""diamond"",""red"",""hori"",""left"",[150,0],[106,-106]]",diamond,red,hori,left,"[150,0]","[106,-106]",left,1,,,,,,001,2025-03-10_16h59.17.470,SL_sali_41,2021.2.3,Win32,144.1545337,1.618,,,46,0,46,0,1,,,,,,,,
,,"[""diamond"",""no_dis"",""hori"",""left"",[99999,99999],[0,-150]]",diamond,no_dis,hori,left,"[99999,99999]","[0,-150]",left,1,,,,,,001,2025-03-10_16h59.17.470,SL_sali_41,2021.2.3,Win32,144.1545337,0.7231,,,47,0,47,0,1,,,,,,,,
,,"[""circle"",""red"",""vert"",""up"",[106,106],[0,150]]",circle,red,vert,up,"[106,106]","[0,150]",up,1,,,,,,001,2025-03-10_16h59.17.470,SL_sali_41,2021.2.3,Win32,144.1545337,1.6978,,,48,0,48,0,1,,,,,,,,
,,"[""diamond"",""no_dis"",""vert"",""up"",[99999,99999],[150,0]]",diamond,no_dis,vert,up,"[99999,99999]","[150,0]",up,1,,,,,,001,2025-03-10_16h59.17.470,SL_sali_41,2021.2.3,Win32,144.1545337,0.8337,,,49,0,49,0,1,,,,,,,,
,,"[""diamond"",""green"",""hori"",""left"",[0,-150],[106,-106]]",diamond,green,hori,left,"[0,-150]","[106,-106]",left,1,,,,,,001,2025-03-10_16h59.17.470,SL_sali_41,2021.2.3,Win32,144.1545337,1.6265,,,50,0,50,0,1,,,,,,,,
,,"[""circle"",""red"",""vert"",""up"",[-106,-106],[-150,0]]",circle,red,vert,up,"[-106,-106]","[-150,0]",up,1,,,,,,001,2025-03-10_16h59.17.470,SL_sali_41,2021.2.3,Win32,144.1545337,1.2291,,,51,0,51,0,1,,,,,,,,
,,"[""diamond"",""red"",""hori"",""left"",[-106,106],[150,0]]",diamond,red,hori,left,"[-106,106]","[150,0]",left,1,,,,,,001,2025-03-10_16h59.17.470,SL_sali_41,2021.2.3,Win32,144.1545337,0.8894,,,52,0,52,0,1,,,,,,,,
,,"[""circle"",""no_dis"",""vert"",""up"",[99999,99999],[106,106]]",circle,no_dis,vert,up,"[99999,99999]","[106,106]",up,1,,,,,,001,2025-03-10_16h59.17.470,SL_sali_41,2021.2.3,Win32,144.1545337,1.9869,,,53,0,53,0,1,,,,,,,,
,,"[""circle"",""red"",""hori"",""left"",[-106,106],[150,0]]",circle,red,hori,left,"[-106,106]","[150,0]",left,1,,,,,,001,2025-03-10_16h59.17.470,SL_sali_41,2021.2.3,Win32,144.1545337,0.9096,,,54,0,54,0,1,,,,,,,,
,,"[""circle"",""green"",""hori"",""left"",[0,-150],[-106,106]]",circle,green,hori,left,"[0,-150]","[-106,106]",left,1,,,,,,001,2025-03-10_16h59.17.470,SL_sali_41,2021.2.3,Win32,144.1545337,0.7158,,,55,0,55,0,1,,,,,,,,
,,"[""circle"",""red"",""vert"",""up"",[150,0],[106,106]]",circle,red,vert,up,"[150,0]","[106,106]",up,1,,,,,,001,2025-03-10_16h59.17.470,SL_sali_41,2021.2.3,Win32,144.1545337,1.6877,,,56,0,56,0,1,,,,,,,,
,,"[""circle"",""red"",""vert"",""up"",[0,-150],[-106,-106]]",circle,red,vert,up,"[0,-150]","[-106,-106]",up,1,,,,,,001,2025-03-10_16h59.17.470,SL_sali_41,2021.2.3,Win32,144.1545337,1.0772,,,57,0,57,0,1,,,,,,,,
,,"[""diamond"",""green"",""vert"",""up"",[0,-150],[-106,-106]]",diamond,green,vert,up,"[0,-150]","[-106,-106]",up,1,,,,,,001,2025-03-10_16h59.17.470,SL_sali_41,2021.2.3,Win32,144.1545337,1.9118,,,58,0,58,0,1,,,,,,,,
